'Start Wavelength	183.907
'End Wavelength	1046.922
'Gate Delay	5.000
'Gate Width (ms)	1.050
'Laser Output Level	0.000
'X Position	0.000
'Y Position	0.000
'Z Position	0.000
'Grid Point Number	1.000
'Shot Number	100.000
183.907	-115.000
183.977	-58.000
184.047	9
184.116	354
184.186	-426
184.256	-231
184.325	-48
184.395	-1327
184.465	239
184.534	36
184.604	133
184.674	-349
184.743	-206
184.813	744
184.883	-762
184.952	622
185.022	593
185.092	186
185.161	792
185.231	310
185.301	-416
185.370	902
185.440	283
185.509	-125
185.579	166
185.649	287
185.718	494
185.788	-392
185.857	-662
185.927	-471
185.996	-130
186.066	6
186.136	-774
186.205	176
186.275	406
186.344	721
186.414	-227
186.483	-260
186.553	497
186.622	88
186.692	160
186.761	163
186.831	-22
186.900	-596
186.970	447
187.039	675
187.109	1150
187.178	752
187.248	51
187.317	-136
187.387	-377
187.456	-15
187.526	-160
187.595	128
187.664	-145
187.734	124
187.803	486
187.873	359
187.942	345
188.012	312
188.081	458
188.150	317
188.220	878
188.289	616
188.358	-818
188.428	360
188.497	-250
188.567	573
188.636	-162
188.705	-115
188.775	418
188.844	-422
188.913	865
188.983	174
189.052	-46
189.121	519
189.191	240
189.260	1546
189.329	346
189.399	-458
189.468	365
189.537	-352
189.606	695
189.676	-396
189.745	-176
189.814	774
189.883	-159
189.953	324
190.022	226
190.091	-37
190.161	338
190.230	827
190.299	339
190.368	120
190.437	-36
190.507	184
190.576	-292
190.645	74
190.714	-536
190.783	-472
190.853	233
190.922	512
190.991	249
191.060	890
191.129	-391
191.198	-313
191.268	-532
191.337	-63
191.406	441
191.475	294
191.544	240
191.613	938
191.682	322
191.752	-487
191.821	672
191.890	-262
191.959	11
192.028	-71
192.097	690
192.166	196
192.235	250
192.304	190
192.373	715
192.442	24
192.511	127
192.580	859
192.650	7
192.719	564
192.788	160
192.857	578
192.926	-288
192.995	42
193.064	991
193.133	225
193.202	330
193.271	459
193.340	624
193.409	958
193.478	380
193.547	-103
193.615	838
193.684	855
193.753	579
193.822	1656
193.891	107
193.960	248
194.029	293
194.098	154
194.167	-445
194.236	541
194.305	-167
194.374	331
194.443	172
194.512	514
194.580	391
194.649	101
194.718	1102
194.787	320
194.856	213
194.925	392
194.994	969
195.062	689
195.131	232
195.200	851
195.269	502
195.338	486
195.407	420
195.475	349
195.544	523
195.613	547
195.682	597
195.751	1078
195.819	113
195.888	162
195.957	1387
196.026	1239
196.094	504
196.163	829
196.232	736
196.301	563
196.369	298
196.438	254
196.507	891
196.576	428
196.644	-772
196.713	414
196.782	113
196.850	258
196.919	245
196.988	-53
197.056	197
197.125	793
197.194	724
197.262	747
197.331	688
197.400	851
197.468	727
197.537	-56
197.606	-18
197.674	876
197.743	1227
197.812	703
197.880	1033
197.949	190
198.017	596
198.086	668
198.155	740
198.223	569
198.292	399
198.360	718
198.429	153
198.497	586
198.566	831
198.635	1068
198.703	329
198.772	460
198.840	1399
198.909	853
198.977	1028
199.046	640
199.114	983
199.183	835
199.251	819
199.320	117
199.388	575
199.457	269
199.525	925
199.594	541
199.662	286
199.731	-153
199.799	611
199.867	122
199.936	656
200.004	249
200.073	1241
200.141	473
200.210	951
200.278	501
200.346	1133
200.415	812
200.483	1010
200.552	901
200.620	572
200.688	119
200.757	987
200.825	826
200.893	440
200.962	874
201.030	202
201.098	-92
201.167	865
201.235	-22
201.303	714
201.372	684
201.440	983
201.508	418
201.577	541
201.645	1153
201.713	1082
201.781	588
201.850	1010
201.918	1097
201.986	673
202.055	1462
202.123	-52
202.191	249
202.259	300
202.327	114
202.396	907
202.464	1017
202.532	754
202.600	2222
202.669	753
202.737	462
202.805	448
202.873	523
202.941	757
203.009	362
203.078	679
203.146	548
203.214	646
203.282	-85
203.350	923
203.418	489
203.487	1143
203.555	702
203.623	357
203.691	872
203.759	-320
203.827	258
203.895	962
203.963	1017
204.031	270
204.099	1291
204.168	164
204.236	974
204.304	834
204.372	1368
204.440	1185
204.508	450
204.576	472
204.644	753
204.712	76
204.780	328
204.848	573
204.916	353
204.984	278
205.052	1021
205.120	1498
205.188	625
205.256	178
205.324	757
205.392	786
205.460	1065
205.528	204
205.596	747
205.664	965
205.732	830
205.799	689
205.867	2638
205.935	613
206.003	1076
206.071	1358
206.139	686
206.207	1324
206.275	464
206.343	1114
206.411	1679
206.478	942
206.546	708
206.614	1267
206.682	923
206.750	629
206.818	641
206.885	1505
206.953	-51
207.021	969
207.089	687
207.157	714
207.225	636
207.292	894
207.360	1017
207.428	1295
207.496	961
207.563	1616
207.631	1119
207.699	1096
207.767	1258
207.834	-140
207.902	887
207.970	1562
208.038	1432
208.105	1306
208.173	1549
208.241	689
208.309	1740
208.376	1542
208.444	1776
208.512	884
208.579	172
208.647	1501
208.715	1113
208.782	605
208.850	1355
208.918	1711
208.985	941
209.053	1563
209.120	1742
209.188	671
209.256	672
209.323	903
209.391	1753
209.459	2154
209.526	1240
209.594	645
209.661	1279
209.729	1711
209.796	1236
209.864	1221
209.932	141
209.999	2098
210.067	1376
210.134	1445
210.202	2171
210.269	1967
210.337	1846
210.404	1258
210.472	1678
210.539	1760
210.607	1273
210.674	1406
210.742	1761
210.809	1921
210.877	1602
210.944	2392
211.012	561
211.079	3096
211.146	1537
211.214	1223
211.281	1083
211.349	2246
211.416	1962
211.484	1682
211.551	1451
211.618	2008
211.686	1709
211.753	457
211.821	1991
211.888	1623
211.955	1169
212.023	1748
212.090	1757
212.157	1136
212.225	1275
212.292	2308
212.359	2830
212.427	5155
212.494	2976
212.561	2090
212.629	2159
212.696	1960
212.763	1355
212.831	2309
212.898	1759
212.965	1367
213.032	1263
213.100	2056
213.167	685
213.234	2100
213.301	2067
213.369	1954
213.436	1602
213.503	1683
213.570	2408
213.638	1693
213.705	1313
213.772	1071
213.839	1380
213.906	2350
213.973	2288
214.041	1732
214.108	2554
214.175	1530
214.242	2227
214.309	2082
214.376	2237
214.444	1650
214.511	2226
214.578	1247
214.645	1794
214.712	2097
214.779	2113
214.846	1787
214.913	2118
214.980	2518
215.048	2540
215.115	1883
215.182	2394
215.249	3159
215.316	2223
215.383	2737
215.450	1845
215.517	1492
215.584	2868
215.651	1626
215.718	2331
215.785	2372
215.852	2273
215.919	3147
215.986	2394
216.053	2330
216.120	1354
216.187	2943
216.254	2716
216.321	1707
216.388	1425
216.455	2425
216.522	1879
216.589	2097
216.656	3382
216.722	2859
216.789	3384
216.856	3115
216.923	2344
216.990	2851
217.057	2551
217.124	3055
217.191	2805
217.258	4404
217.324	3923
217.391	3832
217.458	4038
217.525	3093
217.592	2971
217.659	1779
217.725	2758
217.792	2119
217.859	3464
217.926	2511
217.993	3016
218.059	2676
218.126	2175
218.193	1976
218.260	1889
218.327	1227
218.393	1975
218.460	1945
218.527	1532
218.594	1965
218.660	2878
218.727	3945
218.794	1664
218.860	2143
218.927	1768
218.994	1376
219.061	1953
219.127	1865
219.194	3255
219.261	1716
219.327	1561
219.394	1985
219.461	1877
219.527	2198
219.594	2110
219.661	2328
219.727	999
219.794	2224
219.860	1685
219.927	1584
219.994	2481
220.060	3100
220.127	3437
220.193	3363
220.260	2795
220.326	3905
220.393	4973
220.460	5602
220.526	4522
220.593	3445
220.659	5099
220.726	3475
220.792	4998
220.859	5488
220.925	7763
220.992	8343
221.058	7981
221.125	5927
221.191	5361
221.258	3010
221.324	3233
221.391	2651
221.457	1889
221.524	2993
221.590	3139
221.657	4472
221.723	3411
221.789	3920
221.856	4150
221.922	2323
221.989	3753
222.055	2218
222.121	1799
222.188	3445
222.254	2557
222.321	2149
222.387	1554
222.453	2191
222.520	2491
222.586	1582
222.652	2028
222.719	1379
222.785	2312
222.851	1952
222.918	1521
222.984	2274
223.050	1930
223.116	963
223.183	3224
223.249	525
223.315	1726
223.382	2016
223.448	1509
223.514	1432
223.580	1994
223.647	872
223.713	1243
223.779	1600
223.845	2345
223.911	2436
223.978	2154
224.044	2266
224.110	1121
224.176	2790
224.242	2614
224.309	1128
224.375	1654
224.441	1968
224.507	1540
224.573	1188
224.639	2430
224.705	1469
224.772	2249
224.838	1258
224.904	2326
224.970	1820
225.036	2218
225.102	1441
225.168	2319
225.234	1906
225.300	1089
225.366	1447
225.432	1734
225.499	1897
225.565	1505
225.631	1458
225.697	2410
225.763	2331
225.829	3568
225.895	3648
225.961	3936
226.027	3028
226.093	3350
226.159	5317
226.225	6191
226.291	10390
226.357	13525
226.423	9149
226.489	6696
226.554	5107
226.620	4287
226.686	4668
226.752	7292
226.818	9266
226.884	15110
226.950	13580
227.016	8678
227.082	6184
227.148	3835
227.214	4372
227.279	3510
227.345	4226
227.411	4171
227.477	3470
227.543	3994
227.609	4693
227.674	4507
227.740	3222
227.806	3534
227.872	2548
227.938	2738
228.003	4774
228.069	2860
228.135	1948
228.201	3261
228.267	2301
228.332	2978
228.398	2892
228.464	2900
228.530	1302
228.595	2445
228.661	2052
228.727	2990
228.792	3445
228.858	1863
228.924	806
228.990	3876
229.055	1342
229.121	3287
229.187	1706
229.252	2471
229.318	1369
229.384	2732
229.449	2374
229.515	948
229.581	678
229.646	3821
229.712	2241
229.777	3234
229.843	3355
229.909	4311
229.974	4274
230.040	3455
230.105	3640
230.171	3240
230.236	4176
230.302	4649
230.368	3452
230.433	2727
230.499	3539
230.564	4081
230.630	2456
230.695	2965
230.761	3496
230.826	1222
230.892	4055
230.957	2433
231.023	2692
231.088	3125
231.154	3741
231.219	3202
231.284	3054
231.350	4522
231.415	2120
231.481	3608
231.546	3495
231.612	2798
231.677	2281
231.742	1251
231.808	4350
231.873	1717
231.939	832
232.004	3927
232.069	3527
232.135	2818
232.200	2707
232.265	2610
232.331	2240
232.396	1755
232.461	1888
232.527	2012
232.592	2150
232.657	2588
232.723	1841
232.788	2617
232.853	3108
232.918	1878
232.984	2411
233.049	1516
233.114	1211
233.179	2658
233.245	2718
233.310	3546
233.375	1261
233.440	2675
233.506	1548
233.571	2098
233.636	2480
233.701	2643
233.766	2398
233.832	3180
233.897	1682
233.962	988
234.027	3487
234.092	2492
234.157	1729
234.222	2127
234.288	2478
234.353	5327
234.418	5040
234.483	5586
234.548	5167
234.613	4241
234.678	3950
234.743	3661
234.808	6089
234.873	3991
234.938	4528
235.004	3931
235.069	3589
235.134	3131
235.199	3338
235.264	3316
235.329	2737
235.394	4302
235.459	3741
235.524	3498
235.589	2581
235.654	3042
235.719	1668
235.784	3084
235.849	3459
235.913	3946
235.978	4304
236.043	4169
236.108	3130
236.173	2626
236.238	2990
236.303	2975
236.368	2165
236.433	4090
236.498	4604
236.563	5681
236.627	9579
236.692	20809
236.757	19664
236.822	10292
236.887	6681
236.952	7173
237.017	4821
237.081	6847
237.146	8100
237.211	13811
237.276	20407
237.341	26712
237.405	17500
237.470	10070
237.535	6438
237.600	5742
237.664	5665
237.729	3337
237.794	4851
237.859	10326
237.923	5645
237.988	3990
238.053	5185
238.118	4285
238.182	6595
238.247	6531
238.312	2920
238.376	4981
238.441	1557
238.506	5140
238.570	1717
238.635	3972
238.700	3248
238.764	2378
238.829	4177
238.893	3667
238.958	3968
239.023	3726
239.087	2713
239.152	4079
239.216	2211
239.281	2857
239.346	3936
239.410	3159
239.475	2825
239.539	6088
239.604	4587
239.668	3434
239.733	2775
239.797	3416
239.862	5292
239.926	5770
239.991	4044
240.055	2503
240.120	2638
240.184	2733
240.249	2051
240.313	2953
240.378	2602
240.442	4913
240.507	5220
240.571	3679
240.635	3383
240.700	4870
240.764	3349
240.829	2726
240.893	2016
240.957	2846
241.022	4588
241.086	6011
241.151	3743
241.215	2779
241.279	4244
241.344	3503
241.408	4178
241.472	4013
241.537	5564
241.601	4747
241.665	2876
241.730	3481
241.794	5495
241.858	4426
241.922	5073
241.987	4133
242.051	3124
242.115	3180
242.179	4898
242.244	3417
242.308	4354
242.372	5047
242.436	4546
242.501	5079
242.565	2733
242.629	4061
242.693	4183
242.757	2668
242.822	3683
242.886	4003
242.950	4001
243.014	3545
243.078	4119
243.142	4343
243.206	3308
243.271	3988
243.335	3762
243.399	4804
243.463	8708
243.527	19417
243.591	8987
243.655	4975
243.719	3166
243.783	4501
243.847	5135
243.911	6279
243.975	7170
244.040	4805
244.104	5298
244.168	4023
244.232	3998
244.296	5894
244.360	5791
244.424	3216
244.488	3574
244.552	3020
244.615	2329
244.679	3711
244.743	3943
244.807	3206
244.871	2576
244.935	3545
244.999	1841
245.063	3021
245.127	4009
245.191	4658
245.255	4062
245.319	3961
245.383	2619
245.446	5532
245.510	2325
245.574	3389
245.638	3187
245.702	2898
245.766	6950
245.829	4560
245.893	3220
245.957	3073
246.021	4399
246.085	3883
246.149	3993
246.212	8863
246.276	12187
246.340	6498
246.404	5995
246.467	5063
246.531	5686
246.595	5187
246.659	6095
246.722	3556
246.786	5191
246.850	5752
246.913	6538
246.977	3218
247.041	5045
247.104	4253
247.168	4575
247.232	8351
247.295	14734
247.359	9119
247.423	5425
247.486	6951
247.550	5730
247.614	3804
247.677	6290
247.741	3793
247.804	4150
247.868	5546
247.932	6088
247.995	15430
248.059	6240
248.122	4246
248.186	5554
248.249	9505
248.313	21738
248.376	24275
248.440	16969
248.503	6639
248.567	7909
248.630	9130
248.694	11657
248.757	16072
248.821	25960
248.884	18635
248.948	15239
249.011	22199
249.075	28153
249.138	25061
249.202	12624
249.265	9086
249.328	8447
249.392	8156
249.455	6950
249.519	6506
249.582	6100
249.645	10391
249.709	8076
249.772	7327
249.835	6864
249.899	5995
249.962	6404
250.025	5433
250.089	11048
250.152	14221
250.215	8940
250.279	6174
250.342	6247
250.405	6249
250.468	5166
250.532	7758
250.595	8769
250.658	19911
250.721	32644
250.785	15200
250.848	10558
250.911	6497
250.974	7412
251.038	9007
251.101	16632
251.164	9901
251.227	9289
251.290	9077
251.354	11631
251.417	27459
251.480	29629
251.543	21697
251.606	45555
251.669	39316
251.732	19060
251.795	19519
251.859	20300
251.922	31689
251.985	22230
252.048	11463
252.111	10038
252.174	9613
252.237	15053
252.300	28419
252.363	26394
252.426	41511
252.489	21421
252.552	11773
252.615	8096
252.678	10169
252.741	21724
252.804	24054
252.867	42338
252.930	32264
252.993	18622
253.056	12807
253.119	8831
253.182	5764
253.245	8774
253.308	8627
253.371	7701
253.434	7577
253.497	7565
253.559	14577
253.622	10144
253.685	11297
253.748	12597
253.811	6808
253.874	7004
253.937	7279
254.000	5521
254.062	10372
254.125	16069
254.188	15380
254.251	11491
254.314	5736
254.376	9600
254.439	11597
254.502	9573
254.565	10118
254.628	18201
254.690	10786
254.753	5479
254.816	5751
254.878	6382
254.941	10724
255.004	11275
255.067	5222
255.129	5162
255.192	3890
255.255	3069
255.317	4078
255.380	3559
255.443	2910
255.505	2190
255.568	2539
255.631	2761
255.693	3777
255.756	2758
255.819	3430
255.881	2349
255.944	2860
256.006	2906
256.069	3435
256.132	2783
256.194	3190
256.257	5300
256.319	4937
256.382	4532
256.444	6632
256.507	3796
256.569	4001
256.632	5041
256.694	6604
256.757	15397
256.819	39263
256.882	19450
256.944	9172
257.007	7389
257.069	6987
257.132	4517
257.194	6155
257.257	4696
257.319	4808
257.381	6042
257.444	13260
257.506	40493
257.569	48520
257.631	20069
257.693	13134
257.756	6546
257.818	5952
257.880	4511
257.943	5271
258.005	4189
258.067	3914
258.130	4148
258.192	5374
258.254	6254
258.317	4599
258.379	4078
258.441	8019
258.503	9305
258.566	6950
258.628	7931
258.690	3329
258.753	5699
258.815	8316
258.877	5341
258.939	4870
259.001	4147
259.064	3403
259.126	3156
259.188	4893
259.250	4393
259.312	4501
259.375	5859
259.437	4881
259.499	4061
259.561	3451
259.623	4612
259.685	3803
259.747	3896
259.809	6641
259.872	9688
259.934	14704
259.996	18180
260.058	8076
260.120	3573
260.182	3125
260.244	3416
260.306	3137
260.368	3943
260.430	3378
260.492	7480
260.554	10388
260.616	5166
260.678	10185
260.740	10532
260.802	4494
260.864	4582
260.926	3526
260.988	4641
261.050	4362
261.112	9199
261.174	16853
261.236	9867
261.298	4676
261.359	5809
261.421	7268
261.483	3633
261.545	4555
261.607	2076
261.669	4312
261.731	4430
261.793	8690
261.854	5299
261.916	5063
261.978	4486
262.040	4499
262.102	3420
262.164	3704
262.225	3479
262.287	3724
262.349	8183
262.411	7044
262.472	3407
262.534	3964
262.596	6035
262.658	3957
262.719	2178
262.781	4751
262.843	4305
262.904	3786
262.966	3392
263.028	4331
263.090	10181
263.151	26158
263.213	12721
263.275	10415
263.336	4280
263.398	4018
263.459	2445
263.521	3444
263.583	7836
263.644	6372
263.706	3083
263.767	1749
263.829	2373
263.891	2041
263.952	2003
264.014	2168
264.075	4786
264.137	12222
264.198	6152
264.260	2864
264.321	2853
264.383	7578
264.444	18049
264.506	6616
264.567	4302
264.629	8042
264.690	14960
264.752	6393
264.813	4296
264.875	2678
264.936	4072
264.998	3253
265.059	2391
265.120	3281
265.182	5683
265.243	22892
265.305	25890
265.366	7905
265.427	4019
265.489	4019
265.550	1730
265.611	3628
265.673	2763
265.734	3482
265.795	3387
265.857	3591
265.918	3126
265.979	8457
266.040	34228
266.102	32677
266.163	10514
266.224	8074
266.286	5177
266.347	3117
266.408	3923
266.469	3159
266.530	2668
266.592	2755
266.653	6533
266.714	8622
266.775	3869
266.836	2959
266.898	2707
266.959	4767
267.020	3998
267.081	4602
267.142	2657
267.203	2524
267.264	1560
267.326	4480
267.387	1941
267.448	2649
267.509	2619
267.570	2998
267.631	1918
267.692	2159
267.753	3107
267.814	2302
267.875	4353
267.936	10422
267.997	6302
268.058	4412
268.119	3110
268.180	2888
268.241	2353
268.302	3238
268.363	2093
268.424	3143
268.485	3302
268.546	2928
268.607	2450
268.668	2835
268.729	1881
268.790	2883
268.851	2447
268.912	5859
268.972	8075
269.033	4430
269.094	2407
269.155	3026
269.216	2332
269.277	2919
269.338	3066
269.398	3041
269.459	2896
269.520	4184
269.581	4413
269.642	6592
269.702	3953
269.763	3182
269.824	3548
269.885	3133
269.945	6789
270.006	3667
270.067	2355
270.128	2657
270.188	2012
270.249	1864
270.310	1686
270.370	3599
270.431	2614
270.492	2309
270.553	3390
270.613	5458
270.674	10790
270.734	5093
270.795	3589
270.856	4038
270.916	2972
270.977	2604
271.038	4033
271.098	3973
271.159	6004
271.219	6570
271.280	3051
271.340	2519
271.401	2154
271.462	4148
271.522	4653
271.583	3241
271.643	3213
271.704	2765
271.764	3950
271.825	8673
271.885	25861
271.946	32704
272.006	12875
272.066	15529
272.127	26235
272.187	8822
272.248	5939
272.308	5557
272.369	16057
272.429	10699
272.489	7482
272.550	8323
272.610	8582
272.671	7221
272.731	4734
272.791	6273
272.852	5278
272.912	4639
272.972	3163
273.033	2906
273.093	3827
273.153	5618
273.214	3886
273.274	3854
273.334	12864
273.394	23946
273.455	10483
273.515	9231
273.575	21112
273.635	8692
273.696	11243
273.756	22068
273.816	10691
273.876	5718
273.936	6137
273.997	10037
274.057	5037
274.117	4467
274.177	7307
274.237	28011
274.297	23602
274.358	12264
274.418	18252
274.478	15425
274.538	6424
274.598	3267
274.658	7332
274.718	10180
274.778	6089
274.838	4055
274.898	5704
274.958	10647
275.018	20112
275.078	15260
275.138	6737
275.198	3765
275.258	3351
275.318	3946
275.378	7621
275.438	8776
275.498	6402
275.558	7566
275.618	15375
275.678	15917
275.738	11629
275.798	9181
275.858	5458
275.918	3409
275.978	4025
276.038	4712
276.098	2958
276.157	6213
276.217	18188
276.277	8806
276.337	6417
276.397	4086
276.457	4298
276.517	3683
276.576	3191
276.636	2631
276.696	4440
276.756	10905
276.815	8380
276.875	4539
276.935	4611
276.995	3883
277.055	2685
277.114	3596
277.174	4147
277.234	15228
277.293	6646
277.353	3860
277.413	3013
277.472	3542
277.532	3280
277.592	3696
277.651	8884
277.711	15154
277.771	6376
277.830	19032
277.890	17173
277.950	10547
278.009	27921
278.069	11866
278.128	11797
278.188	15451
278.248	7714
278.307	16711
278.367	10860
278.426	4603
278.486	3182
278.545	3257
278.605	2498
278.664	3029
278.724	3127
278.783	8626
278.843	21602
278.902	7041
278.962	3788
279.021	4944
279.081	4302
279.140	4362
279.199	4843
279.259	4009
279.318	5175
279.378	6529
279.437	6616
279.496	21874
279.556	46434
279.615	39134
279.675	11611
279.734	8073
279.793	12279
279.853	19023
279.912	8079
279.971	5235
280.031	5178
280.090	8132
280.149	13847
280.208	9254
280.268	33144
280.327	35126
280.386	10199
280.445	10012
280.505	10861
280.564	5605
280.623	4013
280.682	7216
280.742	12855
280.801	4421
280.860	3525
280.919	3198
280.978	3467
281.037	3379
281.097	2015
281.156	3714
281.215	2454
281.274	3102
281.333	13703
281.392	11417
281.451	3148
281.510	2704
281.569	2668
281.628	1573
281.688	1787
281.747	3002
281.806	2633
281.865	2496
281.924	2851
281.983	2683
282.042	1782
282.101	1834
282.160	2133
282.219	2303
282.278	2294
282.337	9244
282.396	5863
282.454	2399
282.513	3251
282.572	13315
282.631	9149
282.690	3673
282.749	2272
282.808	3995
282.867	4365
282.926	4129
282.985	2409
283.043	2618
283.102	2402
283.161	3135
283.220	7017
283.279	15182
283.338	5686
283.396	4205
283.455	2936
283.514	3105
283.573	6250
283.631	4905
283.690	3402
283.749	2873
283.808	6361
283.866	7900
283.925	3074
283.984	3346
284.043	4697
284.101	4846
284.160	3666
284.219	4731
284.277	3862
284.336	5823
284.395	18543
284.453	15740
284.512	5683
284.570	8748
284.629	7157
284.688	6320
284.746	6402
284.805	8223
284.863	10357
284.922	12551
284.981	15145
285.039	21285
285.098	36902
285.156	73334
285.215	95507
285.273	99217
285.332	80777
285.390	46066
285.449	28476
285.507	20114
285.566	14524
285.624	12287
285.683	9978
285.741	8360
285.799	7028
285.858	6105
285.916	6437
285.975	5137
286.033	3704
286.091	4678
286.150	2513
286.208	4289
286.267	4546
286.325	5028
286.383	6985
286.442	6353
286.500	3230
286.558	3247
286.616	2653
286.675	4149
286.733	3981
286.791	3653
286.850	3534
286.908	4943
286.966	8276
287.024	4652
287.083	2659
287.141	2715
287.199	3899
287.257	5327
287.315	3251
287.374	3567
287.432	10152
287.490	5901
287.548	3952
287.606	2551
287.664	3240
287.723	5109
287.781	5236
287.839	3580
287.897	3596
287.955	4295
288.013	6412
288.071	11680
288.129	37489
288.187	99302
288.245	51837
288.303	18114
288.361	9460
288.419	6523
288.477	4705
288.535	4030
288.593	3506
288.651	3268
288.709	2461
288.767	2722
288.825	2983
288.883	1937
288.941	2331
288.999	2391
289.057	2301
289.115	1956
289.173	2073
289.231	2499
289.289	1744
289.346	1782
289.404	3194
289.462	4380
289.520	4879
289.578	3637
289.636	1738
289.694	2084
289.751	2217
289.809	2442
289.867	2005
289.925	3625
289.983	3131
290.040	2016
290.098	1897
290.156	2058
290.214	2495
290.271	2164
290.329	1518
290.387	2051
290.444	1854
290.502	1798
290.560	2290
290.617	1809
290.675	2467
290.733	2570
290.790	2143
290.848	2487
290.906	1644
290.963	2425
291.021	2408
291.078	2016
291.136	2561
291.194	8038
291.251	18923
291.309	6053
291.366	2844
291.424	2555
291.481	2821
291.539	2133
291.596	2744
291.654	1784
291.711	1144
291.769	2840
291.826	4099
291.884	4003
291.941	1347
291.999	2164
292.056	2700
292.114	2930
292.171	1684
292.228	2438
292.286	2581
292.343	3790
292.401	5132
292.458	3220
292.515	2433
292.573	3554
292.630	2804
292.687	2756
292.745	2616
292.802	3629
292.859	10219
292.917	16575
292.974	11103
293.031	4186
293.089	1955
293.146	2119
293.203	2741
293.260	2349
293.318	2443
293.375	4831
293.432	3176
293.489	2748
293.546	2325
293.604	4144
293.661	10274
293.718	26273
293.775	14603
293.832	6348
293.889	4776
293.947	4133
294.004	3552
294.061	3457
294.118	8229
294.175	18375
294.232	22124
294.289	8983
294.346	5794
294.403	6648
294.460	4209
294.517	3094
294.574	2940
294.631	3612
294.688	4063
294.745	9039
294.802	30312
294.859	35748
294.916	13168
294.973	5932
295.030	5759
295.087	4474
295.144	3785
295.201	4372
295.258	2848
295.315	4729
295.372	10988
295.429	21635
295.486	10925
295.542	7032
295.599	14669
295.656	26520
295.713	18376
295.770	21738
295.827	9776
295.883	6569
295.940	5553
295.997	6701
296.054	6740
296.111	4645
296.167	4071
296.224	2936
296.281	3067
296.338	3094
296.394	4027
296.451	4347
296.508	10058
296.564	19470
296.621	14126
296.678	25807
296.734	37602
296.791	15480
296.848	8704
296.904	8701
296.961	17764
297.018	24421
297.074	18474
297.131	9615
297.187	6569
297.244	7303
297.301	22469
297.357	39550
297.414	15778
297.470	7586
297.527	5462
297.583	4343
297.640	4461
297.696	3896
297.753	3718
297.809	3627
297.866	3201
297.922	3663
297.979	3506
298.035	2980
298.092	5061
298.148	14117
298.204	15004
298.261	7433
298.317	12861
298.374	31431
298.430	19404
298.486	8347
298.543	6400
298.599	5795
298.656	7425
298.712	10129
298.768	20238
298.824	13013
298.881	6163
298.937	4560
298.993	3895
299.050	4686
299.106	5135
299.162	3521
299.218	4865
299.275	3661
299.331	4108
299.387	7339
299.443	24986
299.500	26538
299.556	11448
299.612	5679
299.668	5083
299.724	5764
299.780	5145
299.837	4201
299.893	5616
299.949	21147
300.005	23757
300.061	20924
300.117	36384
300.173	18974
300.229	10022
300.285	11871
300.341	13195
300.397	7188
300.453	4467
300.510	4696
300.566	4253
300.622	4766
300.678	8981
300.734	19796
300.790	20147
300.845	25423
300.901	15859
300.957	21230
301.013	16508
301.069	6814
301.125	6492
301.181	6194
301.237	4992
301.293	3728
301.349	3317
301.405	3501
301.461	4852
301.516	6113
301.572	6095
301.628	9064
301.684	7316
301.740	10417
301.796	17615
301.851	12757
301.907	18699
301.963	19071
302.019	26151
302.074	65066
302.130	68923
302.186	36617
302.242	15955
302.297	11151
302.353	9516
302.409	16626
302.464	14922
302.520	11898
302.576	24947
302.631	31471
302.687	19484
302.743	10012
302.798	6524
302.854	5868
302.910	5637
302.965	6680
303.021	10343
303.076	9553
303.132	11870
303.187	14314
303.243	8872
303.299	6531
303.354	4840
303.410	4492
303.465	5121
303.521	4604
303.576	4007
303.632	5273
303.687	8631
303.743	23742
303.798	22211
303.853	10851
303.909	6424
303.964	5331
304.020	7481
304.075	11900
304.130	9913
304.186	17762
304.241	18867
304.297	15312
304.352	8416
304.358	8134
304.407	5843
304.449	5759
304.463	5735
304.518	5737
304.539	5496
304.573	5081
304.629	5772
304.630	5810
304.684	8019
304.720	14620
304.739	17824
304.794	28118
304.811	24814
304.850	16369
304.902	8635
304.905	8177
304.960	5798
304.992	6096
305.015	6360
305.071	7196
305.083	7162
305.126	6696
305.173	5038
305.181	4807
305.236	3996
305.264	4212
305.292	4504
305.347	5129
305.354	5292
305.402	6442
305.445	6874
305.457	6940
305.512	7250
305.535	7519
305.567	7802
305.622	7325
305.626	7449
305.678	13164
305.716	25104
305.733	28638
305.788	30912
305.807	27395
305.843	22414
305.897	28530
305.898	28566
305.953	27237
305.988	18878
306.008	14635
306.063	10107
306.078	9048
306.118	6955
306.168	4730
306.173	4562
306.228	4091
306.259	4137
306.283	4287
306.338	4481
306.349	4542
306.393	5068
306.440	5928
306.448	5988
306.503	6043
306.530	6163
306.558	8174
306.613	14041
306.620	15087
306.668	22850
306.711	31619
306.723	31783
306.778	24793
306.801	19396
306.833	13879
306.888	7293
306.892	6966
306.943	5361
306.982	4844
306.997	4793
307.052	5040
307.072	4915
307.107	5322
307.162	6776
307.163	6791
307.217	9786
307.253	11464
307.272	11527
307.327	11537
307.343	11155
307.381	10499
307.434	9937
307.436	10325
307.491	20072
307.524	28363
307.546	29568
307.600	30398
307.614	28195
307.655	18679
307.704	9725
307.710	9683
307.765	12520
307.795	14327
307.819	16527
307.874	23309
307.885	24143
307.929	22120
307.975	19232
307.984	20283
308.038	29358
308.065	35369
308.093	58665
308.148	114403
308.156	124557
308.202	170723
308.246	203313
308.257	196397
308.312	124598
308.336	93313
308.366	74094
308.421	46567
308.426	43972
308.475	29593
308.517	19688
308.530	18436
308.585	16024
308.607	15100
308.639	15093
308.694	15872
308.697	15941
308.748	24946
308.787	32665
308.803	31725
308.857	26150
308.877	23428
308.912	22750
308.967	23724
308.967	23708
309.021	33962
309.058	41695
309.076	53637
309.130	93308
309.148	107761
309.185	161901
309.238	248127
309.239	249039
309.293	258478
309.328	250795
309.348	222951
309.402	130925
309.418	105296
309.457	77050
309.508	45803
309.511	45221
309.566	37731
309.598	34172
309.620	36664
309.674	44467
309.688	46616
309.729	44122
309.778	38869
309.783	38305
309.837	30004
309.868	25896
309.892	33807
309.946	53901
309.959	59222
310.001	75523
310.049	91130
310.055	87839
310.109	52280
310.139	32723
310.163	27009
310.218	15898
310.229	13832
310.272	11964
310.319	10032
310.326	9782
310.381	8296
310.409	7644
310.435	7802
310.489	7722
310.499	7765
310.543	8025
310.589	8134
310.598	8254
310.652	9062
310.679	9310
310.706	8517
310.760	6924
310.769	6651
310.814	5985
310.859	5448
310.868	5567
310.923	6005
310.948	6258
310.977	6972
311.031	8384
311.038	8573
311.085	8041
311.128	7143
311.139	7259
311.193	7962
311.218	8269
311.247	7698
311.301	6551
311.308	6405
311.356	7066
311.398	7458
311.410	7398
311.464	7151
311.488	6978
311.518	7112
311.572	7459
311.578	7470
311.626	10730
311.668	13614
311.680	13452
311.734	12395
311.758	11900
311.788	11496
311.842	10703
311.847	10590
311.896	15121
311.937	18998
311.950	18867
312.004	17985
312.027	17519
312.058	14849
312.112	9998
312.117	9484
312.165	8693
312.207	7972
312.297	14704
312.386	10863
312.476	10733
312.566	22264
312.656	10481
312.745	7293
312.835	9350
312.925	9891
313.015	9126
313.104	8192
313.194	7914
313.284	8412
313.374	14758
313.463	12024
313.553	7408
313.643	8027
313.732	6572
313.822	6160
313.912	7791
314.001	9637
314.091	11632
314.180	15714
314.270	13230
314.360	13053
314.449	11876
314.539	7770
314.628	7501
314.718	8374
314.808	10641
314.897	6900
314.987	8098
315.076	9830
315.166	12874
315.255	11014
315.345	12455
315.434	10580
315.524	10049
315.613	11501
315.703	15253
315.792	14406
315.881	13213
315.971	9665
316.060	19763
316.150	26685
316.239	25966
316.328	10963
316.418	7475
316.507	7930
316.597	11397
316.686	9816
316.775	13070
316.865	25511
316.954	8327
317.043	5971
317.133	8389
317.222	6888
317.311	7564
317.400	5686
317.490	12026
317.579	12868
317.668	7434
317.757	10323
317.847	14313
317.936	20186
318.025	29412
318.114	14140
318.203	12906
318.293	18100
318.382	35339
318.471	29944
318.560	41191
318.649	85505
318.738	19279
318.828	13794
318.917	15070
319.006	14427
319.095	37547
319.184	104573
319.273	62860
319.362	34979
319.451	13073
319.540	11362
319.629	28143
319.718	45347
319.807	18502
319.896	36498
319.985	126942
320.074	49021
320.163	13979
320.252	17320
320.341	19812
320.430	18680
320.519	23810
320.608	13958
320.697	11562
320.786	10759
320.875	13652
320.964	17730
321.053	30724
321.142	43285
321.230	44152
321.319	31156
321.408	81963
321.497	31160
321.586	30041
321.675	30338
321.764	32919
321.852	21459
321.941	46656
322.030	28105
322.119	31960
322.207	79656
322.296	44232
322.385	23589
322.474	27951
322.562	94222
322.651	46631
322.740	30279
322.829	39931
322.917	36556
323.006	26538
323.095	23027
323.183	16115
323.272	24702
323.361	39045
323.449	95722
323.538	32804
323.626	69407
323.715	38540
323.804	18772
323.892	66223
323.981	40450
324.069	13126
324.158	33128
324.246	32782
324.335	18397
324.424	29202
324.512	11644
324.601	17681
324.689	39902
324.778	74188
324.866	29325
324.954	10600
325.043	10638
325.131	18544
325.220	28268
325.308	30379
325.397	25431
325.485	16617
325.574	6354
325.662	7517
325.750	9628
325.839	7719
325.927	6306
326.015	10323
326.104	11685
326.192	16369
326.280	7427
326.369	8001
326.457	13352
326.545	26195
326.634	11448
326.722	6221
326.810	7236
326.898	7381
326.987	8098
327.075	22054
327.163	19128
327.251	10968
327.340	28523
327.428	45466
327.516	7071
327.604	6753
327.692	6525
327.781	7846
327.869	12865
327.957	10766
328.045	10414
328.133	6080
328.221	7166
328.309	8239
328.397	7269
328.485	10199
328.574	13883
328.662	49890
328.750	24271
328.838	9322
328.926	6381
329.014	7513
329.102	10947
329.190	32461
329.278	21093
329.366	6427
329.454	5205
329.542	5909
329.630	4747
329.718	6178
329.806	8622
329.893	8772
329.981	6740
330.069	6476
330.157	11194
330.245	27982
330.333	14793
330.421	7700
330.509	14496
330.597	62604
330.684	39014
330.772	14278
330.860	18483
330.948	27629
331.036	12067
331.123	6089
331.211	6302
331.299	8833
331.387	22982
331.475	42441
331.562	12060
331.650	7544
331.738	7043
331.825	9938
331.913	5456
332.001	5703
332.089	8158
332.176	16811
332.264	34223
332.352	27561
332.439	11298
332.527	8706
332.614	6704
332.702	8295
332.790	6415
332.877	17362
332.965	30661
333.052	9021
333.140	10059
333.228	20323
333.315	7737
333.403	8158
333.490	19621
333.578	16885
333.665	23632
333.753	13483
333.840	6172
333.928	8813
334.015	20730
334.103	36146
334.190	114748
334.278	28888
334.365	10689
334.452	7786
334.540	5503
334.627	8256
334.715	10483
334.802	20243
334.889	102188
334.977	94471
335.064	12491
335.151	8093
335.239	8564
335.326	15722
335.413	60536
335.501	82413
335.588	11778
335.675	8849
335.762	12469
335.850	22710
335.937	10879
336.024	26417
336.111	120265
336.199	46309
336.286	9255
336.373	7165
336.460	4915
336.547	6248
336.635	9409
336.722	9195
336.809	7470
336.896	13603
336.983	44278
337.070	101496
337.157	123531
337.245	74972
337.332	49269
337.419	10244
337.506	7032
337.593	9968
337.680	32616
337.767	106151
337.854	28168
337.941	33791
338.028	34985
338.115	15241
338.202	16106
338.289	23357
338.376	75066
338.463	28952
338.550	60146
338.637	61857
338.724	17266
338.811	24531
338.898	6535
338.984	7467
339.071	10906
339.158	12231
339.245	34597
339.332	23010
339.419	19272
339.506	18986
339.593	5258
339.679	7214
339.766	5882
339.853	10820
339.940	23744
340.027	9506
340.113	8433
340.200	12803
340.287	8415
340.374	12551
340.460	23207
340.547	12504
340.634	14304
340.720	57884
340.807	32140
340.894	7244
340.980	7803
341.067	7143
341.154	8874
341.240	17383
341.327	32767
341.414	16456
341.500	22250
341.587	9095
341.674	6874
341.760	21007
341.847	24188
341.933	8955
342.020	3913
342.106	5022
342.193	7599
342.279	16771
342.366	13948
342.452	22206
342.539	10485
342.625	26884
342.712	64318
342.798	27391
342.885	11141
342.971	4780
343.058	3936
343.144	5931
343.230	6570
343.317	9607
343.403	7845
343.490	5131
343.576	4624
343.662	6874
343.749	8317
343.835	10308
343.921	15418
344.008	92511
344.094	203378
344.180	46111
344.267	20674
344.353	62662
344.439	63458
344.525	35433
344.612	32122
344.698	32931
344.784	18795
344.870	9663
344.957	9321
345.043	12925
345.129	9488
345.215	22370
345.301	16442
345.387	13490
345.474	4173
345.560	5710
345.646	6780
345.732	8057
345.818	13580
345.904	11151
345.990	8430
346.076	9104
346.162	20949
346.249	10615
346.335	6171
346.421	6318
346.507	23786
346.593	85352
346.679	21966
346.765	8438
346.851	6136
346.937	7633
347.023	5587
347.108	9686
347.194	7841
347.280	8955
347.366	8795
347.452	24379
347.538	97794
347.624	75521
347.710	63680
347.796	10664
347.882	7303
347.967	7051
348.053	9984
348.139	8546
348.225	4887
348.311	6492
348.397	6079
348.482	9186
348.568	10738
348.654	4759
348.740	4114
348.825	4670
348.911	10861
348.997	45835
349.083	88260
349.168	16267
349.254	12507
349.340	13915
349.425	5087
349.511	10101
349.597	11075
349.682	21041
349.768	67216
349.854	31690
349.939	7810
350.025	6698
350.110	6784
350.196	7413
350.282	6185
350.367	5452
350.453	8488
350.538	10513
350.624	12110
350.709	11227
350.795	5128
350.880	6886
350.966	8308
351.051	13567
351.137	7150
351.222	8268
351.308	22962
351.393	65429
351.479	22842
351.564	11243
351.649	6927
351.735	4744
351.820	4685
351.906	7323
351.991	8900
352.076	39636
352.162	60221
352.247	13123
352.332	10729
352.418	28015
352.503	31300
352.588	93006
352.673	78393
352.759	18143
352.844	8495
352.929	11766
353.014	14902
353.100	7979
353.185	9129
353.270	21552
353.355	24134
353.441	7694
353.526	7430
353.611	20203
353.696	25376
353.781	15125
353.866	7180
353.952	7932
354.037	19688
354.122	49512
354.207	43293
354.292	16411
354.377	6743
354.462	6044
354.547	10218
354.632	9184
354.717	11189
354.802	9998
354.887	4955
354.972	5811
355.057	4721
355.142	4709
355.227	7885
355.312	14048
355.397	31044
355.482	75398
355.567	35624
355.652	25108
355.737	26775
355.822	73683
355.907	59281
355.991	11309
356.076	6439
356.161	7586
356.246	5501
356.331	6822
356.416	15609
356.501	102576
356.585	110005
356.670	22691
356.755	12653
356.840	16271
356.924	70019
357.009	252831
357.094	101516
357.179	27736
357.263	16813
357.348	17388
357.433	18348
357.517	17907
357.602	13377
357.687	10224
357.771	15673
357.856	57337
357.941	34402
358.025	60166
358.110	242590
358.195	122588
358.279	23793
358.364	16966
358.448	54235
358.533	149061
358.617	107913
358.702	103719
358.787	39606
358.871	25325
358.956	21713
359.040	7724
359.125	6054
359.209	7361
359.294	26942
359.378	47893
359.462	20445
359.547	11171
359.631	7086
359.716	6463
359.800	7820
359.885	13706
359.969	7449
360.053	7085
360.138	7057
360.222	12143
360.306	24057
360.391	17707
360.475	32991
360.559	75031
360.644	58103
360.728	39907
360.812	56534
360.896	156813
360.981	75975
361.065	44823
361.149	12724
361.233	12176
361.318	9114
361.402	10628
361.486	9291
361.570	7463
361.654	9815
361.739	26281
361.823	104290
361.907	160174
361.991	34031
362.075	19289
362.159	43006
362.243	30169
362.327	19020
362.411	16741
362.495	12538
362.580	9473
362.664	5945
362.748	5783
362.832	6472
362.916	8564
363.000	23353
363.084	94694
363.168	176353
363.252	45753
363.336	17157
363.420	24308
363.503	87271
363.587	101601
363.671	19039
363.755	15044
363.839	21224
363.923	10850
364.007	22390
364.091	24127
364.175	28415
364.258	127980
364.342	69841
364.426	34366
364.510	20530
364.594	23952
364.677	30863
364.761	134826
364.845	97606
364.929	40043
365.013	32007
365.096	26759
365.180	31585
365.264	35864
365.347	134432
365.431	61757
365.515	18863
365.598	9676
365.682	8121
365.766	19220
365.849	23638
365.933	11952
366.017	15977
366.100	13287
366.184	4582
366.267	6560
366.351	7086
366.435	5540
366.518	4067
366.602	5003
366.685	6232
366.769	8371
366.852	15625
366.936	31318
367.019	16286
367.103	13832
367.186	26977
367.270	8357
367.353	4251
367.436	6459
367.520	5254
367.603	9310
367.687	13130
367.770	27170
367.853	14137
367.937	43906
368.020	76514
368.104	18830
368.187	19901
368.270	31809
368.353	28921
368.437	28072
368.520	51458
368.603	39839
368.687	53830
368.770	103173
368.853	26233
368.936	28842
369.020	28811
369.103	11182
369.186	5925
369.269	8377
369.352	17231
369.436	26772
369.519	16641
369.602	6753
369.685	9075
369.768	10637
369.851	8474
369.934	5778
370.018	7999
370.101	23744
370.184	18769
370.267	13528
370.350	19849
370.433	31495
370.516	71132
370.599	81656
370.682	25626
370.765	64135
370.848	70790
370.931	119410
371.014	47531
371.097	10963
371.180	8549
371.263	5972
371.346	3858
371.429	5735
371.511	6441
371.594	15523
371.677	25067
371.760	30070
371.843	22856
371.926	97231
372.009	216627
372.091	75168
372.174	47815
372.257	107085
372.340	42726
372.423	38420
372.505	46913
372.588	19684
372.671	37318
372.754	118503
372.836	58206
372.919	45670
373.002	90927
373.085	28376
373.167	21149
373.250	55151
373.332	109667
373.415	139396
373.498	276520
373.580	110996
373.663	121945
373.746	171951
373.828	47825
373.911	21573
373.993	22926
374.076	84557
374.159	78476
374.241	34570
374.324	104046
374.406	70673
374.489	79796
374.571	227095
374.654	99032
374.736	45403
374.819	138340
374.901	195169
374.983	198105
375.066	38817
375.148	15761
375.231	64910
375.313	129531
375.395	53612
375.478	12215
375.560	8770
375.643	11585
375.725	41267
375.807	164689
375.890	129071
375.972	52551
376.054	32443
376.136	41807
376.219	20532
376.301	46890
376.383	147548
376.465	58289
376.548	40694
376.630	45741
376.712	127456
376.794	59062
376.877	8624
376.959	5392
377.041	8682
377.123	20992
377.205	26950
377.287	5121
377.369	5710
377.452	6105
377.534	6435
377.616	6459
377.698	6765
377.780	4622
377.862	6965
377.944	7440
378.026	3474
378.108	4843
378.190	4978
378.272	4621
378.354	4231
378.436	3913
378.518	11432
378.600	45480
378.682	38446
378.764	73462
378.846	60607
378.928	18200
379.010	27593
379.091	14709
379.173	7561
379.255	5899
379.337	10313
379.419	34413
379.501	102167
379.583	41523
379.664	11619
379.746	27529
379.828	78383
379.910	103268
379.991	86395
380.073	15159
380.155	10783
380.237	7907
380.318	5158
380.400	6973
380.482	16742
380.564	26450
380.645	22008
380.727	22172
380.809	14712
380.890	9158
380.972	7136
381.053	6748
381.135	9251
381.217	25066
381.298	81119
381.380	39640
381.461	30551
381.543	123586
381.624	156429
381.706	30689
381.787	16613
381.869	17628
381.951	55288
382.032	204896
382.113	137840
382.195	33446
382.276	19552
382.358	37828
382.439	115204
382.521	124522
382.602	189139
382.684	89220
382.765	161741
382.846	160758
382.928	181750
383.009	101388
383.090	74700
383.172	255883
383.253	376202
383.334	148051
383.416	166480
383.497	88866
383.578	39294
383.659	69321
383.741	230310
383.822	543839
383.903	285839
383.984	120304
384.066	218363
384.147	142398
384.228	29699
384.309	21968
384.390	16812
384.471	11470
384.553	15392
384.634	21203
384.715	21299
384.796	10425
384.877	14277
384.958	64213
385.039	86549
385.120	32999
385.201	14492
385.282	18046
385.363	17858
385.444	13675
385.525	24839
385.606	87967
385.687	79857
385.768	21582
385.849	28429
385.930	105987
386.011	180278
386.092	51351
386.173	13423
386.254	10383
386.335	11945
386.416	12645
386.496	44108
386.577	78025
386.658	29595
386.739	17974
386.820	16227
386.901	13292
386.981	11566
387.062	7203
387.143	15980
387.224	71253
387.304	70318
387.385	24895
387.466	14589
387.547	17823
387.627	11443
387.708	25470
387.789	120867
387.869	146996
387.950	39593
388.031	7141
388.111	8551
388.192	26486
388.273	39968
388.353	21836
388.434	12239
388.514	24402
388.595	105423
388.676	146911
388.756	77365
388.837	74530
388.917	48203
388.998	8853
389.078	9464
389.159	7535
389.239	6477
389.320	13931
389.400	13357
389.480	28191
389.561	78201
389.641	37439
389.722	14096
389.802	24944
389.883	33054
389.963	86269
390.043	55190
390.124	18471
390.204	25944
390.284	85256
390.365	57256
390.445	59082
390.525	123634
390.605	105191
390.686	45667
390.766	13856
390.846	8315
390.927	5142
391.007	6363
391.087	8175
391.167	8457
391.247	4760
391.328	12341
391.408	23054
391.488	17168
391.568	4571
391.648	10174
391.728	17353
391.808	15019
391.888	16743
391.969	41074
392.049	71030
392.129	31578
392.209	31846
392.289	83847
392.369	46519
392.449	44054
392.529	25064
392.609	17417
392.689	20947
392.769	75662
392.849	65356
392.929	41166
393.009	108447
393.089	70067
393.169	23051
393.248	66981
393.328	312244
393.408	346907
393.488	70905
393.568	21895
393.648	14277
393.728	11554
393.807	9019
393.887	10958
393.967	11614
394.047	17256
394.127	23635
394.206	42383
394.286	143145
394.366	475775
394.446	519785
394.525	170429
394.605	49987
394.685	34770
394.764	64187
394.844	104336
394.924	69729
395.003	22879
395.083	15453
395.163	14113
395.242	13262
395.322	15176
395.402	9932
395.481	15124
395.561	40950
395.640	111374
395.720	77604
395.799	112812
395.879	98913
395.958	73238
396.038	218521
396.117	599229
396.197	654542
396.276	286493
396.356	106978
396.435	68122
396.515	37892
396.594	31894
396.673	37559
396.753	91569
396.832	312291
396.912	272951
396.991	82157
397.070	21222
397.150	11751
397.229	10541
397.308	8658
397.388	12955
397.467	9244
397.546	6785
397.625	4673
397.705	11571
397.784	11971
397.863	6759
397.942	4768
398.022	6839
398.101	30261
398.180	98951
398.259	54617
398.338	15005
398.417	9719
398.497	6424
398.576	7831
398.655	4729
398.734	4156
398.813	6440
398.892	27826
398.971	102881
399.050	51526
399.129	6279
399.208	2867
399.287	5776
399.366	3204
399.445	4800
399.524	5900
399.603	5387
399.682	11349
399.761	35103
399.840	105930
399.919	82824
399.998	11866
400.077	3865
400.156	3722
400.235	7444
400.313	4964
400.392	8517
400.471	40720
400.550	71044
400.629	18647
400.708	8702
400.786	8804
400.865	28102
400.944	31928
401.023	15197
401.102	3259
401.180	3622
401.259	3384
401.338	6638
401.416	9199
401.495	8328
401.574	6219
401.652	5414
401.731	8315
401.810	6604
401.888	3404
401.967	2955
402.046	3167
402.124	8184
402.203	11450
402.281	7327
402.360	8288
402.438	33667
402.517	25670
402.596	8420
402.674	7192
402.753	5668
402.831	3455
402.910	5915
402.988	14771
403.066	43068
403.145	25741
403.223	16159
403.302	34999
403.380	24510
403.459	21425
403.537	10386
403.615	5984
403.694	2067
403.772	3709
403.850	3751
403.929	4033
404.007	4547
404.085	7446
404.164	7910
404.242	10529
404.320	41757
404.398	124551
404.477	131377
404.555	181003
404.633	164286
404.711	102055
404.789	67460
404.868	16186
404.946	7619
405.024	4939
405.102	4404
405.180	2828
405.258	3394
405.336	3990
405.415	5193
405.493	11163
405.571	8860
405.649	2786
405.727	4835
405.805	10131
405.883	7044
405.961	7494
406.039	10500
406.117	4985
406.195	8711
406.273	38220
406.351	141714
406.429	88034
406.507	16976
406.585	6150
406.663	7171
406.740	8943
406.818	8237
406.896	5131
406.974	5228
407.052	12342
407.130	83516
407.208	121317
407.285	25709
407.363	4357
407.441	5545
407.519	4345
407.596	5403
407.674	11135
407.752	25658
407.830	34343
407.907	19350
407.985	5460
408.063	4610
408.141	3181
408.218	8993
408.296	7108
408.373	4166
408.451	5807
408.529	6614
408.606	2364
408.684	2332
408.762	2393
408.839	1454
408.917	1257
408.994	2296
409.072	1635
409.149	1901
409.227	3298
409.304	3501
409.382	2318
409.459	2436
409.537	3894
409.614	5346
409.692	3202
409.769	3590
409.846	4501
409.924	6484
410.001	5058
410.079	4974
410.156	3572
410.233	4391
410.311	2152
410.388	2664
410.465	3407
410.543	4017
410.620	2949
410.697	4648
410.775	5591
410.852	1723
410.929	5100
411.006	8565
411.083	2969
411.161	9549
411.238	11825
411.315	8549
411.392	3682
411.469	5741
411.547	5477
411.624	1997
411.701	2628
411.778	5362
411.855	12994
411.932	7504
412.009	3336
412.086	3419
412.163	4628
412.240	6358
412.317	7229
412.394	6288
412.471	2110
412.548	3309
412.625	2788
412.702	5753
412.779	10668
412.856	7884
412.933	1592
413.010	3327
413.087	7103
413.164	38377
413.241	59344
413.318	14498
413.395	8081
413.471	12432
413.548	6007
413.625	4135
413.702	5054
413.779	5250
413.855	1944
413.932	1701
414.009	1724
414.086	3433
414.162	3224
414.239	7851
414.316	37338
414.393	87042
414.469	31281
414.546	3919
414.623	2367
414.699	3218
414.776	5341
414.853	3456
414.929	3351
415.006	4804
415.082	5412
415.159	4237
415.236	3253
415.312	4235
415.389	8446
415.465	13900
415.542	7133
415.618	4114
415.695	8848
415.771	6498
415.848	4481
415.924	4568
416.000	4011
416.077	3701
416.153	232
416.230	906
416.306	1541
416.383	2716
416.459	2404
416.535	1718
416.612	709
416.688	1596
416.764	1406
416.841	2285
416.917	2333
416.993	3286
417.069	3629
417.146	8396
417.222	13752
417.298	7533
417.374	3056
417.451	4610
417.527	6645
417.603	7877
417.679	4005
417.755	3931
417.831	2204
417.908	2472
417.984	1760
418.060	2337
418.136	10234
418.212	14834
418.288	5927
418.364	3867
418.440	3538
418.516	8093
418.592	9887
418.668	20615
418.744	29600
418.820	22220
418.896	4944
418.972	2361
419.048	2794
419.124	13075
419.200	10584
419.276	2870
419.352	625
419.428	2733
419.504	3515
419.579	6444
419.655	3495
419.731	4168
419.807	17218
419.883	33355
419.959	22580
420.034	6424
420.110	13534
420.186	54667
420.262	43034
420.337	7188
420.413	5609
420.489	3280
420.565	2673
420.640	2962
420.716	3746
420.792	1864
420.867	3217
420.943	2391
421.019	7342
421.094	6770
421.170	2605
421.245	2124
421.321	2474
421.397	2802
421.472	5168
421.548	12843
421.623	12056
421.699	5851
421.774	5191
421.850	3714
421.925	8542
422.001	7501
422.076	3878
422.152	6017
422.227	11071
422.302	9966
422.378	10650
422.453	20108
422.529	48097
422.604	180742
422.679	349924
422.755	201508
422.830	52554
422.905	18521
422.981	9770
423.056	6812
423.131	4424
423.207	4794
423.282	5686
423.357	17284
423.432	11714
423.508	9225
423.583	26575
423.658	21937
423.733	5740
423.808	7742
423.883	8742
423.959	6385
424.034	4099
424.109	2856
424.184	949
424.259	1813
424.334	2506
424.409	2624
424.484	2140
424.559	2816
424.634	2502
424.709	5109
424.784	7043
424.859	4127
424.934	8242
425.009	38819
425.084	65240
425.159	24284
425.234	3631
425.309	3580
425.384	15165
425.459	29468
425.534	8167
425.609	4294
425.683	2971
425.758	2415
425.833	3962
425.908	5347
425.983	22500
426.058	67214
426.132	28723
426.207	6209
426.282	9506
426.357	9128
426.431	3009
426.506	3932
426.581	3215
426.655	3853
426.730	1913
426.805	3429
426.879	3630
426.954	3427
427.029	10065
427.103	54546
427.178	128937
427.253	56910
427.327	7227
427.402	12777
427.476	33692
427.551	16189
427.625	5169
427.700	5235
427.774	2194
427.849	5670
427.923	2240
427.998	3092
428.072	3736
428.147	9273
428.221	27251
428.296	54053
428.370	22301
428.444	5623
428.519	11791
428.593	26137
428.667	22150
428.742	26553
428.816	20772
428.890	47202
428.965	67543
429.039	31999
429.113	29566
429.188	11605
429.262	2718
429.336	9808
429.410	31829
429.485	21890
429.559	21451
429.633	17433
429.707	4178
429.781	12460
429.855	60557
429.930	84652
430.004	62780
430.078	110355
430.152	84050
430.226	71423
430.300	66501
430.374	10673
430.448	6079
430.522	33325
430.596	101346
430.670	55474
430.744	83746
430.818	136167
430.892	30267
430.966	6949
431.040	3054
431.114	2543
431.188	1843
431.262	2327
431.336	1416
431.410	11000
431.484	33536
431.557	21975
431.631	2466
431.705	2255
431.779	9066
431.853	37188
431.927	25408
432.000	3960
432.074	2544
432.148	4427
432.222	3791
432.295	2960
432.369	2393
432.443	7254
432.516	48189
432.590	122600
432.664	46395
432.737	6833
432.811	1716
432.885	1988
432.958	2011
433.032	1842
433.106	-87
433.179	924
433.253	734
433.326	1832
433.400	583
433.473	1503
433.547	573
433.620	2935
433.694	7200
433.767	7724
433.841	1505
433.914	2439
433.988	1008
434.061	1370
434.134	1567
434.208	1520
434.281	749
434.355	1859
434.428	2326
434.501	1632
434.575	802
434.648	2711
434.721	689
434.795	1524
434.868	728
434.941	1168
435.014	453
435.088	2020
435.161	3467
435.234	6599
435.307	7353
435.381	3592
435.454	1614
435.527	2364
435.600	1386
435.673	2328
435.746	606
435.819	2231
435.892	1255
435.966	1131
436.039	1918
436.112	2680
436.185	315
436.258	992
436.331	-663
436.404	483
436.477	297
436.550	1384
436.623	361
436.696	1491
436.769	1929
436.842	2799
436.915	1955
436.987	5334
437.060	1665
437.133	988
437.206	980
437.279	2171
437.352	1262
437.425	970
437.498	2039
437.570	9646
437.643	8629
437.716	2594
437.789	386
437.861	5215
437.934	12955
438.007	6503
438.080	1481
438.152	3786
438.225	8076
438.298	59205
438.370	158197
438.443	63315
438.516	13536
438.588	3254
438.661	1502
438.734	2060
438.806	2544
438.879	4037
438.951	3474
439.024	6879
439.096	1908
439.169	1743
439.241	231
439.314	1486
439.386	4160
439.459	6427
439.531	6921
439.604	3436
439.676	592
439.749	1278
439.821	233
439.893	1513
439.966	1325
440.038	2998
440.110	2935
440.183	1664
440.255	483
440.327	4937
440.400	25402
440.472	110382
440.544	67344
440.617	8538
440.689	5545
440.761	7900
440.833	11384
440.905	8281
440.978	635
441.050	1607
441.122	1507
441.194	1045
441.266	1243
441.338	2244
441.411	4593
441.483	37856
441.555	55345
441.627	10590
441.699	6360
441.771	7662
441.843	1485
441.915	1257
441.987	422
442.059	2182
442.131	2707
442.203	5439
442.275	6887
442.347	5121
442.419	3158
442.491	12759
442.563	29291
442.635	18178
442.706	29050
442.778	23253
442.850	3002
442.922	1850
442.994	3538
443.066	6934
443.137	3135
443.209	2758
443.281	4258
443.353	7934
443.425	22179
443.496	61416
443.568	50724
443.640	17694
443.711	4822
443.783	3094
443.855	1921
443.926	1339
443.998	2585
444.070	5241
444.141	2610
444.213	7329
444.285	8217
444.356	6305
444.428	3602
444.499	2565
444.571	691
444.642	2473
444.714	2657
444.785	6555
444.857	7964
444.928	21510
445.000	10727
445.071	13197
445.143	13318
445.214	5254
445.285	10194
445.357	33345
445.428	56341
445.500	112792
445.571	68673
445.642	27123
445.714	22263
445.785	32067
445.856	8670
445.928	8734
445.999	5673
446.070	4023
446.141	6164
446.213	8896
446.284	3226
446.355	5197
446.426	2215
446.497	2224
446.569	6776
446.640	11524
446.711	7148
446.782	1336
446.853	3653
446.924	4936
446.995	3107
447.066	3987
447.138	7916
447.209	4177
447.280	111
447.351	1065
447.422	955
447.493	2952
447.564	4694
447.635	7514
447.706	2020
447.777	1896
447.847	583
447.918	1340
447.989	3243
448.060	6417
448.131	14631
448.202	13226
448.273	8988
448.344	2953
448.414	1329
448.485	2761
448.556	1125
448.627	1141
448.698	1210
448.768	649
448.839	1584
448.910	7768
448.981	6552
449.051	2898
449.122	659
449.193	1030
449.263	1366
449.334	1241
449.405	3273
449.475	11127
449.546	5537
449.616	8615
449.687	6919
449.758	1414
449.828	1151
449.899	909
449.969	221
450.040	1258
450.110	2288
450.181	2629
450.251	1413
450.322	1675
450.392	1703
450.463	2257
450.533	1195
450.604	1693
450.674	1165
450.744	1935
450.815	882
450.885	1553
450.955	661
451.026	1546
451.096	1646
451.166	2781
451.237	8464
451.307	23450
451.377	7624
451.447	2581
451.518	501
451.588	1538
451.658	1793
451.728	6669
451.799	25681
451.869	26514
451.939	4902
452.009	2061
452.079	1452
452.149	2681
452.219	5618
452.289	29213
452.360	19553
452.430	4551
452.500	2768
452.570	4199
452.640	4655
452.710	14851
452.780	24976
452.850	17049
452.920	16703
452.990	4980
453.060	3425
453.129	6459
453.199	7168
453.269	28263
453.339	57134
453.409	86066
453.479	91857
453.549	136433
453.619	145806
453.688	51628
453.758	8043
453.828	3890
453.898	2206
453.968	2484
454.037	2315
454.087	2922
454.107	3164
454.168	2079
454.177	1908
454.247	1865
454.249	1878
454.316	1769
454.330	2120
454.386	3354
454.411	6961
454.456	12802
454.492	16718
454.525	20221
454.574	9891
454.595	5432
454.655	3100
454.665	2743
454.734	2949
454.736	3115
454.804	7873
454.817	11102
454.873	23901
454.898	25124
454.943	27219
454.979	16578
455.013	7024
455.060	4966
455.082	4280
455.141	5245
455.152	5312
455.221	18282
455.222	18537
455.291	34247
455.303	32503
455.360	24026
455.384	31483
455.430	44231
455.465	34921
455.499	26129
455.546	24797
455.569	23964
455.627	15586
455.638	14160
455.707	3244
455.708	3260
455.777	3009
455.789	2993
455.846	2784
455.869	2929
455.916	3151
455.950	2909
455.985	2658
456.031	3092
456.054	3238
456.112	2094
456.124	1899
456.193	2595
456.193	2577
456.262	2961
456.274	3252
456.332	4471
456.355	4315
456.401	3703
456.436	3606
456.470	3488
456.516	2488
456.540	2088
456.597	2417
456.609	2450
456.678	1759
456.678	1740
456.747	1971
456.759	1837
456.817	1302
456.840	1475
456.886	1823
456.920	2008
456.955	2202
457.001	2707
457.024	2923
457.082	3043
457.093	3092
457.162	4299
457.163	4321
457.232	4513
457.243	4360
457.301	3445
457.324	2864
457.370	1799
457.405	2094
457.439	2536
457.485	2546
457.508	2517
457.566	3387
457.577	3499
457.646	3798
457.647	3806
457.715	4102
457.727	4162
457.784	4355
457.808	5047
457.853	6059
457.889	6599
457.922	6627
457.969	5698
457.991	5657
458.050	5935
458.060	5960
458.129	8395
458.130	8453
458.198	8319
458.211	7774
458.267	5332
458.292	4446
458.336	3463
458.372	3511
458.405	4186
458.453	4928
458.474	5403
458.533	8483
458.543	8850
458.611	12264
458.614	12368
458.680	10013
458.694	8594
458.749	4995
458.775	4436
458.818	3859
458.855	3280
458.887	2983
458.936	3321
458.955	3437
459.016	3595
459.024	3605
459.093	4046
459.097	4064
459.162	4326
459.177	4437
459.230	5008
459.257	5539
459.299	5789
459.338	5476
459.368	5297
459.418	5491
459.437	5506
459.499	5470
459.505	5488
459.574	4787
459.579	4814
459.643	4557
459.659	4373
459.711	4130
459.740	4351
459.780	4970
459.820	5141
459.849	5045
459.900	5156
459.917	5141
459.981	5534
459.986	5559
460.054	5833
460.061	5789
460.123	5409
460.141	5563
460.191	6806
460.222	7349
460.260	7733
460.302	9193
460.328	9143
460.382	7095
460.397	6861
460.462	6174
460.465	6224
460.534	7885
460.543	8149
460.602	17445
460.623	21077
460.671	29402
460.703	39191
460.739	39356
460.783	33159
460.808	28133
460.864	8490
460.876	6755
460.944	5180
460.945	5155
461.013	5480
461.024	5434
461.081	5024
461.104	5259
461.150	5838
461.184	5560
461.218	5113
461.264	5038
461.286	5168
461.345	5163
461.355	5160
461.423	5807
461.425	5808
461.491	5602
461.505	5675
461.559	9588
461.585	11303
461.628	15883
461.665	21389
461.696	23904
461.745	31323
461.764	29450
461.825	12075
461.832	11432
461.901	6346
461.905	6335
461.969	6165
461.985	5918
462.037	6155
462.065	6488
462.105	6847
462.145	7140
462.173	9158
462.225	13157
462.241	14193
462.305	20288
462.310	19909
462.378	13386
462.385	12035
462.446	6945
462.465	6342
462.514	6367
462.545	6270
462.582	5936
462.625	6063
462.650	6226
462.705	6056
462.718	6067
462.785	6649
462.786	6687
462.854	8367
462.865	8841
462.922	11437
462.945	12447
462.990	10439
463.025	7676
463.058	6869
463.104	6194
463.126	5914
463.184	5968
463.194	6149
463.262	6632
463.264	6672
463.330	6822
463.344	6796
463.398	7395
463.424	7531
463.466	7294
463.504	7307
463.533	7500
463.583	7863
463.601	8119
463.663	8497
463.669	8609
463.737	10589
463.743	10726
463.805	14997
463.823	16302
463.873	22748
463.903	27104
463.940	28986
463.982	32183
464.008	27764
464.062	13921
464.076	12856
464.142	8003
464.144	7949
464.211	7412
464.221	7428
464.279	7189
464.301	6952
464.347	7758
464.381	8627
464.414	9042
464.461	9272
464.482	9765
464.540	11735
464.550	11647
464.617	9713
464.620	9661
464.685	10681
464.699	10809
464.753	11822
464.779	12554
464.820	14376
464.859	15848
464.888	14988
464.938	13422
464.956	13720
465.018	14763
465.023	14686
465.091	13198
465.098	13021
465.158	12225
465.177	12095
465.226	12288
465.257	12179
465.293	12413
465.336	12852
465.361	13301
465.416	14133
465.428	14970
465.495	19748
465.496	19841
465.563	29868
465.575	31712
465.631	38636
465.654	41873
465.698	28796
465.734	16149
465.765	14176
465.813	11739
465.833	11333
465.893	10852
465.900	10898
465.968	11060
465.972	11062
466.035	11041
466.052	10981
466.102	10387
466.131	10088
466.170	10493
466.210	10849
466.237	10994
466.290	11245
466.304	11310
466.369	11424
466.372	11452
466.439	11796
466.449	11817
466.506	12542
466.528	12776
466.573	17115
466.607	20402
466.641	29310
466.687	41643
466.708	45519
466.766	56533
466.775	52497
466.842	21070
466.845	19536
466.909	14129
466.925	12985
466.977	12044
467.004	11557
467.044	13248
467.083	14944
467.111	16557
467.163	19487
467.178	20039
467.242	22186
467.245	22094
467.312	19356
467.321	18961
467.379	18545
467.400	18341
467.446	19041
467.480	19489
467.559	19453
467.638	17339
467.717	17825
467.796	18339
467.875	19507
467.955	19050
468.034	25848
468.113	51959
468.192	72554
468.271	25055
468.350	15847
468.429	17041
468.508	16843
468.588	15426
468.667	15929
468.746	16024
468.825	17599
468.904	14769
468.983	18535
469.062	24573
469.141	28316
469.220	16134
469.299	16188
469.378	17606
469.456	21085
469.535	19296
469.614	17803
469.693	18631
469.772	22054
469.851	27064
469.930	20849
470.009	15769
470.088	16441
470.166	17625
470.245	20281
470.324	21623
470.403	19111
470.482	16715
470.560	16072
470.639	17078
470.718	18080
470.797	16878
470.875	17604
470.954	20737
471.033	24798
471.111	13774
471.190	15324
471.269	13766
471.347	14452
471.426	15702
471.505	17477
471.583	18605
471.662	19111
471.740	16397
471.819	16360
471.898	16026
471.976	15889
472.055	15016
472.133	16199
472.212	21930
472.290	20848
472.369	16569
472.447	15242
472.526	14874
472.604	15833
472.683	15045
472.761	15547
472.839	15452
472.918	15234
472.996	15620
473.075	17655
473.153	16706
473.231	14358
473.310	15819
473.388	16392
473.466	16592
473.545	17702
473.623	20413
473.701	20225
473.780	15730
473.858	14866
473.936	15943
474.014	14859
474.093	16478
474.171	20935
474.249	26384
474.327	20037
474.405	14653
474.484	14076
474.562	14079
474.640	14346
474.718	14931
474.796	14886
474.874	13112
474.952	12705
475.030	12814
475.108	12937
475.187	13032
475.265	13442
475.343	15093
475.421	17600
475.499	13590
475.577	14896
475.655	19362
475.733	29640
475.811	47956
475.889	42519
475.966	32039
476.044	15168
476.122	14472
476.200	16249
476.278	15806
476.356	14942
476.434	15971
476.512	15806
476.590	16868
476.667	16895
476.745	13678
476.823	15432
476.901	16235
476.979	15201
477.056	16196
477.134	15635
477.212	16860
477.290	14870
477.367	14124
477.445	14085
477.523	13930
477.601	14610
477.678	13395
477.756	16495
477.834	18245
477.911	14091
477.989	13820
478.066	14025
478.144	15236
478.222	15947
478.299	14856
478.377	15487
478.454	13484
478.532	12543
478.609	14132
478.687	14538
478.764	13696
478.842	15043
478.919	15529
478.997	14525
479.074	13825
479.152	15898
479.229	17260
479.307	13897
479.384	12632
479.461	12858
479.539	12699
479.616	15927
479.694	13949
479.771	13935
479.848	15039
479.926	17442
480.003	21005
480.080	12858
480.157	13407
480.235	12878
480.312	13345
480.389	14575
480.467	20917
480.544	24496
480.621	15857
480.698	14774
480.775	16530
480.853	16752
480.930	15223
481.007	14339
481.084	16558
481.161	17077
481.238	17646
481.315	14142
481.392	13637
481.470	14363
481.547	13832
481.624	13282
481.701	14036
481.778	14258
481.855	14763
481.932	20112
482.009	29551
482.086	25743
482.163	15051
482.240	14186
482.317	16016
482.393	16262
482.470	14088
482.547	14024
482.624	13901
482.701	14252
482.778	13498
482.855	12965
482.932	12009
483.009	12835
483.085	13664
483.162	14432
483.239	14432
483.316	12286
483.393	12329
483.469	13117
483.546	14619
483.623	15815
483.699	13217
483.776	13539
483.853	15589
483.930	20678
484.006	44269
484.083	75590
484.160	49466
484.236	66529
484.313	54023
484.389	42309
484.466	36704
484.543	34503
484.619	35603
484.696	37186
484.772	36735
484.849	39750
484.925	34987
485.002	34063
485.078	35937
485.155	35276
485.231	33265
485.308	32657
485.384	32668
485.461	38471
485.537	51740
485.614	62024
485.690	33926
485.766	31694
485.843	33064
485.919	39677
485.995	42929
486.072	30696
486.148	29781
486.224	29253
486.301	30628
486.377	33109
486.453	33070
486.530	34062
486.606	42749
486.682	47461
486.758	50217
486.835	56328
486.911	46160
486.987	63941
487.063	70884
487.139	78143
487.215	60859
487.292	38175
487.368	31905
487.444	34477
487.520	36342
487.596	33428
487.672	37347
487.748	53417
487.824	67900
487.900	44725
487.976	33224
488.052	33115
488.128	36717
488.204	32499
488.280	30356
488.356	35492
488.432	56709
488.508	83352
488.584	40531
488.660	27495
488.736	28040
488.812	29410
488.888	34540
488.964	41544
489.039	69910
489.115	105931
489.191	75777
489.267	30656
489.343	28990
489.418	26690
489.494	26508
489.570	24205
489.646	26343
489.722	25510
489.797	26084
489.873	35054
489.949	62033
490.024	60032
490.100	25194
490.176	25209
490.251	28583
490.327	33437
490.403	26004
490.478	23524
490.554	21035
490.629	22163
490.705	20910
490.781	24178
490.856	22517
490.932	25239
491.007	24947
491.083	24240
491.158	23166
491.234	28990
491.309	48839
491.385	56111
491.460	24441
491.536	24576
491.611	22069
491.686	22913
491.762	28408
491.837	47173
491.913	79475
491.988	100474
492.063	134279
492.139	49796
492.214	31538
492.289	20122
492.365	19062
492.440	22636
492.515	22088
492.590	21940
492.666	18729
492.741	22932
492.816	32757
492.891	22586
492.967	19597
493.042	17472
493.117	18129
493.192	20100
493.267	28746
493.342	66409
493.418	90778
493.493	26957
493.568	18114
493.643	17771
493.718	21732
493.793	27210
493.868	30952
493.943	22866
494.018	19936
494.093	18563
494.168	18618
494.243	17299
494.318	16599
494.393	15921
494.468	16529
494.543	16258
494.618	17717
494.693	18178
494.768	16727
494.842	18276
494.917	14956
494.992	16835
495.067	16582
495.142	15220
495.217	17357
495.292	15956
495.366	19251
495.441	23525
495.516	27359
495.591	34901
495.665	92138
495.740	208800
495.815	120644
495.890	29078
495.964	21650
496.039	24912
496.114	22384
496.188	22884
496.263	23274
496.338	20968
496.412	21679
496.487	26950
496.561	24812
496.636	28177
496.710	23790
496.785	23189
496.860	26524
496.934	22381
497.009	21695
497.083	20119
497.158	22721
497.232	24227
497.307	27861
497.381	23134
497.455	25667
497.530	30933
497.604	24834
497.679	23415
497.753	31834
497.827	38003
497.902	29832
497.976	35625
498.050	88757
498.125	319059
498.199	372060
498.273	55643
498.348	32508
498.422	28024
498.496	28741
498.570	28076
498.645	21596
498.719	23020
498.793	27228
498.867	37713
498.941	55372
499.016	140354
499.090	366948
499.164	171525
499.238	24920
499.312	21619
499.386	26931
499.460	25760
499.534	21667
499.609	26118
499.683	36140
499.757	35964
499.831	66793
499.905	244807
499.979	276309
500.053	48075
500.127	44610
500.201	33513
500.275	24574
500.349	23618
500.422	25440
500.496	32862
500.570	61614
500.644	151431
500.718	280275
500.792	87728
500.866	24490
500.940	31032
501.013	27554
501.087	25229
501.161	38984
501.235	52830
501.309	91354
501.382	243374
501.456	253853
501.530	58908
501.603	89125
501.677	49459
501.751	19821
501.825	23679
501.898	39949
501.972	102707
502.046	83965
502.119	25341
502.193	49826
502.266	113670
502.340	71531
502.413	52955
502.487	103205
502.561	64962
502.634	27860
502.708	20444
502.781	17512
502.855	17081
502.928	15653
503.002	16499
503.075	15663
503.149	17093
503.222	17421
503.295	17851
503.369	20757
503.442	25821
503.516	74700
503.589	189339
503.662	144166
503.736	46615
503.809	86669
503.882	86956
503.956	104680
504.029	113836
504.102	44021
504.175	45420
504.249	24251
504.322	21874
504.395	21342
504.468	17264
504.542	17031
504.615	14674
504.688	14828
504.761	13447
504.834	18322
504.907	21101
504.980	30324
505.053	21369
505.127	21653
505.200	29621
505.273	22865
505.346	17578
505.419	14764
505.492	14813
505.565	12955
505.638	12588
505.711	13347
505.784	13179
505.857	12545
505.930	15218
506.003	13718
506.076	15528
506.149	17801
506.221	21551
506.294	21220
506.367	43963
506.440	140714
506.513	100736
506.586	23121
506.659	16638
506.731	15174
506.804	15584
506.877	21434
506.950	19080
507.022	14277
507.095	16043
507.168	20525
507.241	15061
507.313	12142
507.386	14111
507.459	18189
507.531	13876
507.604	12661
507.677	14018
507.749	12175
507.822	15754
507.894	29064
507.967	39883
508.040	25537
508.112	20919
508.185	20278
508.257	20225
508.330	27614
508.402	22230
508.475	20008
508.547	21259
508.620	20469
508.692	26512
508.765	22459
508.837	16621
508.909	16677
508.982	17061
509.054	19610
509.127	16789
509.199	16950
509.271	16474
509.344	16323
509.416	16744
509.488	15896
509.560	17877
509.633	17621
509.705	20710
509.777	20921
509.849	25689
509.922	22643
509.994	20267
510.066	20279
510.138	21712
510.210	35411
510.283	34637
510.355	28986
510.427	24903
510.499	23639
510.571	23545
510.643	22287
510.715	31621
510.787	30889
510.859	23087
510.931	25380
511.003	31979
511.076	33772
511.148	22489
511.219	22543
511.291	30203
511.363	35694
511.435	23203
511.507	19573
511.579	21235
511.651	20914
511.723	20258
511.795	19096
511.867	20183
511.939	21810
512.010	33321
512.082	32086
512.154	19190
512.226	20364
512.298	27439
512.369	39588
512.441	30957
512.513	27013
512.585	23525
512.656	25075
512.728	25678
512.800	21948
512.871	20258
512.943	20537
513.015	19027
513.086	20402
513.158	21214
513.230	21605
513.301	24706
513.373	28367
513.444	21514
513.516	19254
513.588	19024
513.659	20405
513.731	21865
513.802	20211
513.874	34534
513.945	56158
514.016	30108
514.088	19350
514.159	19576
514.231	25160
514.302	34408
514.374	27571
514.445	26092
514.516	39353
514.588	34384
514.659	23418
514.730	36700
514.802	33138
514.873	19297
514.944	22385
515.016	21116
515.087	25014
515.158	29646
515.229	39655
515.301	19938
515.372	19697
515.443	17256
515.514	17801
515.585	16312
515.656	18762
515.728	17743
515.799	17412
515.870	19269
515.941	19339
516.012	18949
516.083	25769
516.154	26456
516.225	29624
516.296	28666
516.367	25034
516.438	25468
516.509	28375
516.580	39863
516.651	95787
516.722	302258
516.793	204063
516.864	47465
516.935	44515
517.006	42002
517.077	51803
517.148	109858
517.219	287918
517.289	494945
517.360	217132
517.431	93608
517.502	30918
517.573	28222
517.643	28812
517.714	31644
517.785	31815
517.856	30004
517.926	33398
517.997	35513
518.068	36973
518.138	44576
518.209	62801
518.280	193532
518.350	659920
518.421	350469
518.492	54019
518.562	34428
518.633	30704
518.703	28516
518.774	34216
518.845	45721
518.915	45228
518.986	33305
519.056	32779
519.127	50021
519.197	77986
519.268	168465
519.338	135589
519.408	37269
519.479	41424
519.549	34055
519.620	24591
519.690	21521
519.760	21932
519.831	23162
519.901	23976
519.971	20413
520.042	21233
520.112	23351
520.182	26603
520.253	29830
520.323	22746
520.393	30152
520.463	46992
520.534	32646
520.604	59474
520.674	34640
520.744	29161
520.814	59859
520.885	64594
520.955	60240
521.025	191489
521.095	106637
521.165	23726
521.235	22498
521.305	20897
521.375	19494
521.445	22177
521.515	24566
521.585	29069
521.655	29386
521.725	23468
521.795	23604
521.865	18155
521.935	27820
522.005	26840
522.075	18107
522.145	19754
522.215	20981
522.285	26889
522.355	33356
522.424	54716
522.494	53068
522.564	32608
522.634	46772
522.704	130874
522.774	75790
522.843	21358
522.913	19669
522.983	22827
523.053	21166
523.122	19837
523.192	24434
523.262	62022
523.331	77896
523.401	23973
523.471	16323
523.540	17416
523.610	15017
523.680	15834
523.749	16862
523.819	19028
523.888	20323
523.958	16309
524.027	17736
524.097	19318
524.166	17821
524.236	17608
524.305	19437
524.375	15818
524.444	16210
524.514	19319
524.583	17223
524.653	20738
524.722	23906
524.791	17306
524.861	17850
524.930	15877
524.999	16450
525.069	23196
525.138	20287
525.207	22565
525.277	18431
525.346	18071
525.415	16300
525.484	17711
525.554	17845
525.623	19243
525.692	16593
525.761	17828
525.830	17156
525.900	16715
525.969	21615
526.038	24056
526.107	29654
526.176	67422
526.245	65238
526.314	37299
526.383	49729
526.452	59723
526.522	83997
526.591	111676
526.660	69835
526.729	39851
526.797	35516
526.867	75744
526.935	312904
527.004	362078
527.073	172511
527.142	28817
527.211	19823
527.280	20329
527.349	22402
527.418	14786
527.487	16346
527.555	14038
527.624	14788
527.693	13795
527.762	15173
527.831	13571
527.899	14570
527.968	14571
528.037	13355
528.106	16959
528.174	25589
528.243	26208
528.312	28269
528.380	40645
528.449	19576
528.518	14848
528.586	12398
528.655	13271
528.723	13914
528.792	13954
528.861	15104
528.929	13555
528.998	15032
529.066	13594
529.135	15117
529.203	15023
529.272	14316
529.340	16681
529.409	17390
529.477	15486
529.545	18355
529.614	22477
529.682	21131
529.751	25267
529.819	24995
529.887	23040
529.956	18219
530.024	19553
530.092	16738
530.161	19155
530.229	24273
530.297	20300
530.365	17598
530.434	17873
530.502	16927
530.570	17372
530.638	15399
530.707	17277
530.775	18997
530.843	15866
530.911	16952
530.979	16950
531.047	17675
531.115	19523
531.183	17694
531.252	18146
531.320	17641
531.388	16447
531.456	18489
531.524	16484
531.592	17561
531.660	20956
531.728	17863
531.796	18346
531.864	18244
531.932	19782
532.000	19050
532.067	19782
532.135	21759
532.203	24064
532.271	25824
532.339	34859
532.407	64960
532.475	52443
532.542	31092
532.610	30179
532.678	37103
532.746	104139
532.814	292873
532.881	104289
532.949	27760
533.017	22267
533.084	20607
533.152	19591
533.220	20484
533.287	21869
533.355	20771
533.423	20467
533.490	19725
533.558	20318
533.625	21216
533.693	23008
533.761	22883
533.828	23854
533.896	25049
533.963	39015
534.031	48336
534.098	58537
534.166	40997
534.233	29941
534.300	29751
534.368	28644
534.435	28012
534.503	27268
534.570	27823
534.637	24653
534.705	22810
534.772	24374
534.840	26259
534.907	43307
534.974	54703
535.041	24419
535.109	23088
535.176	20167
535.243	19094
535.310	19052
535.378	19214
535.445	18740
535.512	18223
535.579	18030
535.646	18251
535.714	20185
535.781	24647
535.848	24047
535.915	27072
535.982	30003
536.049	30880
536.116	31069
536.183	28039
536.250	26205
536.317	25693
536.384	26195
536.451	29496
536.518	29540
536.585	24616
536.652	28108
536.719	31232
536.786	28392
536.853	24696
536.920	29432
536.987	40504
537.053	43252
537.120	140944
537.187	160428
537.254	25640
537.321	19136
537.388	19306
537.454	16776
537.521	16340
537.588	16515
537.654	18667
537.721	22253
537.788	20427
537.855	17250
537.921	16794
537.988	18719
538.055	18620
538.121	17370
538.188	17993
538.254	22438
538.321	36809
538.388	28112
538.454	18783
538.521	18028
538.587	16011
538.654	15396
538.720	16147
538.787	16506
538.853	17369
538.920	20252
538.986	20049
539.053	18695
539.119	18590
539.185	18963
539.252	21893
539.318	27337
539.385	25160
539.451	22148
539.517	23243
539.583	25706
539.650	47435
539.716	128634
539.782	50898
539.849	18331
539.915	18362
539.981	18407
540.047	20306
540.114	20247
540.180	21612
540.246	19257
540.312	22722
540.378	37481
540.444	40586
540.510	46506
540.576	138265
540.643	61904
540.709	18775
540.775	18647
540.841	19414
540.907	23695
540.973	34481
541.039	29748
541.105	28530
541.171	21187
541.237	19009
541.303	20114
541.369	20763
541.435	24251
541.500	33836
541.566	25727
541.632	17830
541.698	16893
541.764	18356
541.830	17291
541.896	16218
541.961	17302
542.027	16859
542.093	18060
542.159	18308
542.224	19704
542.290	27737
542.356	34814
542.421	39741
542.487	25998
542.553	20432
542.618	23180
542.684	20604
542.750	19844
542.815	23883
542.881	35664
542.947	113035
543.012	109862
543.078	22718
543.143	19003
543.209	20426
543.274	20271
543.340	23182
543.405	45466
543.471	87591
543.536	27820
543.602	19065
543.667	17801
543.732	19744
543.798	16694
543.863	19796
543.928	18109
543.994	16163
544.059	17777
544.124	17311
544.190	17952
544.255	19302
544.320	18470
544.386	18906
544.451	23415
544.516	26539
544.581	28424
544.646	69035
544.712	135465
544.777	34818
544.842	25422
544.907	26523
544.972	23094
545.037	23084
545.102	24806
545.168	24543
545.233	25893
545.298	27014
545.363	28637
545.428	32000
545.493	45743
545.558	103395
545.623	57653
545.688	25408
545.753	24747
545.818	22853
545.883	25553
545.947	25062
546.012	25762
546.077	27277
546.142	25670
546.207	24761
546.272	27511
546.337	29549
546.401	26780
546.466	24785
546.531	23765
546.596	25104
546.661	26113
546.725	25067
546.790	22874
546.855	23740
546.919	22307
546.984	23643
547.049	24769
547.113	28404
547.178	25112
547.243	27797
547.307	29557
547.372	31118
547.436	33501
547.501	27947
547.565	27762
547.630	30112
547.695	31710
547.759	31622
547.823	31067
547.888	27171
547.952	25836
548.017	28049
548.081	31246
548.146	36181
548.210	34182
548.274	28658
548.339	27122
548.403	26342
548.468	26045
548.532	25612
548.596	26201
548.660	25457
548.725	27969
548.789	30791
548.853	32302
548.917	29523
548.982	34788
549.046	37848
549.110	26969
549.174	25649
549.238	25385
549.303	26378
549.367	27658
549.431	26807
549.495	25163
549.559	26308
549.623	27525
549.687	32179
549.751	43665
549.815	37297
549.879	32109
549.943	30879
550.007	33257
550.071	34303
550.135	39865
550.199	35771
550.263	31247
550.327	32123
550.391	38707
550.455	33427
550.519	31570
550.582	33492
550.646	41717
550.710	48468
550.774	34213
550.838	32061
550.901	34167
550.965	34487
551.029	35312
551.093	39509
551.156	44793
551.220	70403
551.284	80550
551.347	46669
551.411	77244
551.475	95947
551.538	39218
551.602	32057
551.666	31120
551.729	28375
551.793	29742
551.856	31073
551.920	30465
551.983	30960
552.047	29902
552.110	29717
552.174	28863
552.237	29701
552.301	29401
552.364	28147
552.428	28763
552.491	28119
552.554	29230
552.618	29024
552.681	31175
552.745	30221
552.808	37567
552.871	43184
552.934	36555
552.998	31606
553.061	33805
553.124	31306
553.187	31903
553.251	33364
553.314	34842
553.377	36913
553.440	49393
553.503	113583
553.567	217185
553.630	61172
553.693	31994
553.756	31973
553.819	29880
553.882	28419
553.945	28789
554.008	27864
554.071	27854
554.134	27898
554.197	27347
554.260	26248
554.323	29330
554.386	29528
554.449	27913
554.512	28534
554.575	27235
554.638	28438
554.701	28504
554.764	26549
554.827	26829
554.889	26612
554.952	24634
555.015	24724
555.078	25029
555.141	26315
555.203	25250
555.266	24646
555.329	26594
555.391	24919
555.454	25789
555.517	26188
555.580	24135
555.642	23427
555.705	23866
555.768	25648
555.830	25317
555.893	23613
555.955	23909
556.018	23930
556.080	24192
556.143	23871
556.206	24037
556.268	25141
556.330	26235
556.393	25420
556.455	24527
556.518	30970
556.580	33620
556.643	24206
556.705	22923
556.767	22778
556.830	25167
556.892	24939
556.955	33910
557.017	30581
557.079	24384
557.142	23340
557.204	26122
557.266	40464
557.328	40365
557.391	23872
557.453	22093
557.515	23045
557.577	26429
557.639	27200
557.701	22964
557.764	20958
557.826	21694
557.888	23936
557.950	23392
558.012	22776
558.074	25671
558.136	34675
558.198	62385
558.260	38725
558.322	25922
558.384	25665
558.446	26995
558.508	28013
558.570	32795
558.632	47565
558.694	71981
558.756	57351
558.818	115011
558.880	295525
558.942	120977
559.003	66316
559.065	45771
559.127	27754
559.189	27032
559.251	29657
559.312	34190
559.374	58111
559.436	167989
559.498	111614
559.559	30707
559.621	27885
559.683	30325
559.744	45591
559.806	92576
559.868	138578
559.929	47210
559.991	31977
560.052	35676
560.114	63577
560.176	54518
560.237	45133
560.299	68200
560.360	34972
560.422	25574
560.483	26412
560.545	25368
560.606	25483
560.667	25442
560.729	25256
560.790	24564
560.852	24671
560.913	24918
560.974	24105
561.036	24293
561.097	24247
561.158	25195
561.220	24438
561.281	24007
561.342	25344
561.403	28810
561.465	32044
561.526	55849
561.587	78736
561.648	34819
561.709	26133
561.771	25145
561.832	25047
561.893	24702
561.954	23636
562.015	23922
562.076	24535
562.137	25033
562.198	24204
562.259	24516
562.320	25078
562.381	26484
562.442	30964
562.503	29768
562.564	24474
562.625	23938
562.686	23586
562.747	24824
562.808	25196
562.869	25063
562.930	32385
562.991	30141
563.051	28167
563.112	26661
563.173	25309
563.234	24375
563.294	25070
563.355	24393
563.416	25166
563.477	25057
563.537	24651
563.598	26709
563.659	26222
563.720	26122
563.780	27751
563.841	26928
563.901	25545
563.962	25256
564.023	26015
564.083	25606
564.144	25041
564.204	27485
564.265	26416
564.325	28685
564.386	41733
564.446	41922
564.507	25453
564.567	24236
564.628	25322
564.688	24122
564.749	24902
564.809	26807
564.869	29621
564.930	25583
564.990	23654
565.050	24327
565.111	24985
565.171	23344
565.231	23174
565.292	23631
565.352	22990
565.412	24657
565.472	22884
565.532	24460
565.593	23549
565.653	22614
565.713	23995
565.773	25824
565.833	26471
565.893	30929
565.953	25083
566.013	23841
566.074	24597
566.134	29675
566.194	39694
566.254	41411
566.314	30564
566.374	25728
566.434	24865
566.494	24634
566.554	25106
566.614	23840
566.673	23695
566.733	24057
566.793	25554
566.853	25822
566.913	25797
566.973	25494
567.033	25616
567.092	26221
567.152	25036
567.212	25840
567.272	25624
567.331	25488
567.391	25423
567.451	25526
567.511	30548
567.570	31700
567.630	24710
567.690	23630
567.749	23613
567.809	23370
567.868	24539
567.928	24151
567.988	25068
568.047	24795
568.107	23671
568.166	25135
568.226	23933
568.285	27218
568.345	26573
568.404	25936
568.464	26083
568.523	25694
568.582	26334
568.642	26162
568.701	25798
568.761	27864
568.820	29065
568.879	32605
568.939	34885
568.998	30210
569.057	26130
569.116	26080
569.176	24406
569.235	23520
569.294	22971
569.353	22234
569.413	23201
569.472	24049
569.531	22875
569.590	21351
569.649	22005
569.708	21309
569.767	22870
569.827	24367
569.886	22995
569.945	21919
570.004	21085
570.063	23202
570.122	23062
570.181	24389
570.240	24926
570.299	25789
570.358	24720
570.417	21565
570.475	21737
570.534	22384
570.593	21980
570.652	22866
570.711	22820
570.770	20844
570.829	22852
570.887	22932
570.946	23995
571.005	21872
571.064	20918
571.122	21310
571.181	22739
571.240	21481
571.299	20169
571.357	22093
571.416	22716
571.475	23070
571.533	25039
571.592	21195
571.650	22228
571.709	19733
571.768	20793
571.826	20378
571.885	19504
571.943	19283
572.002	19539
572.060	19700
572.119	19385
572.177	19176
572.236	18042
572.294	19144
572.352	18675
572.411	18267
572.469	18346
572.528	18893
572.586	19726
572.644	20242
572.703	21650
572.761	19959
572.819	18997
572.877	18921
572.936	18017
572.994	17610
573.052	18509
573.110	18432
573.169	18752
573.227	17300
573.285	17638
573.343	18148
573.401	18219
573.459	17933
573.517	17571
573.576	17863
573.634	18078
573.692	18111
573.750	18207
573.808	18010
573.866	18712
573.924	21302
573.982	20444
574.040	17991
574.098	17184
574.155	16749
574.213	17319
574.271	17051
574.329	17093
574.387	15441
574.445	15991
574.503	16483
574.560	15943
574.618	15042
574.676	16068
574.734	15999
574.792	16416
574.849	16122
574.907	15036
574.965	16258
575.022	15825
575.080	14802
575.138	15674
575.195	16293
575.253	16157
575.311	17921
575.368	16545
575.426	15447
575.483	16399
575.541	16211
575.598	15775
575.656	16648
575.713	16423
575.771	16190
575.828	16053
575.886	15511
575.943	17398
576.001	17582
576.058	18155
576.115	16988
576.173	19796
576.230	21696
576.287	22460
576.345	20372
576.402	17611
576.459	17932
576.517	17738
576.574	19377
576.631	19685
576.688	18042
576.746	18201
576.803	17626
576.860	17965
576.917	17613
576.974	17759
577.031	17131
577.089	17384
577.146	17886
577.203	17767
577.260	19071
577.317	18391
577.374	20912
577.431	17123
577.488	18347
577.545	17981
577.602	18064
577.659	17968
577.716	19456
577.773	20907
577.830	19454
577.886	20086
577.943	18456
578.000	19157
578.057	22703
578.114	24304
578.171	28128
578.227	37724
578.284	42096
578.341	37694
578.398	31803
578.454	27969
578.511	25797
578.568	24362
578.625	21347
578.681	19803
578.738	18650
578.794	18926
578.851	18973
578.908	18958
578.964	19939
579.021	19244
579.077	17630
579.134	18745
579.190	17295
579.247	17066
579.303	17999
579.360	16911
579.416	17455
579.473	16946
579.529	17380
579.586	17587
579.642	18449
579.698	18288
579.755	20033
579.811	19692
579.867	20188
579.924	21159
579.980	23882
580.036	29038
580.093	36332
580.149	51915
580.205	64729
580.261	57752
580.317	47960
580.374	40339
580.430	34967
580.486	29947
580.542	26090
580.598	24139
580.619	23345
580.654	21991
580.692	21501
580.710	21296
580.765	20383
580.767	20373
580.823	21048
580.838	20650
580.879	19685
580.911	19333
580.935	19104
580.984	19262
580.991	19308
581.047	20147
581.057	20253
581.103	20839
581.130	22229
581.159	23697
581.203	26078
581.215	26725
581.270	26642
581.276	26472
581.326	25080
581.349	24318
581.382	23170
581.422	22496
581.438	22263
581.494	21733
581.494	21707
581.550	20365
581.567	20399
581.606	20456
581.640	20022
581.661	19787
581.713	19559
581.717	19555
581.773	18290
581.786	18457
581.829	19049
581.859	18926
581.885	18844
581.932	19343
581.940	19417
581.996	18991
582.004	18988
582.052	19193
582.077	18682
582.107	18034
582.150	18885
582.163	19173
582.219	18343
582.223	18375
582.274	18821
582.296	18948
582.330	19120
582.368	19167
582.386	19198
582.441	18852
582.441	18854
582.497	19188
582.514	19102
582.552	19238
582.587	20139
582.608	20574
582.659	20678
582.663	20679
582.719	19916
582.732	19760
582.774	19486
582.805	20039
582.830	20448
582.877	19986
582.885	19934
582.941	21484
582.950	21573
582.996	22021
583.023	23324
583.052	25015
583.095	26944
583.107	27618
583.162	34359
583.168	34904
583.218	38691
583.240	37300
583.273	34771
583.313	32035
583.328	31096
583.384	28338
583.385	28243
583.439	25376
583.458	24686
583.494	23463
583.531	22254
583.549	21860
583.603	21466
583.605	21441
583.660	19819
583.676	19768
583.715	19751
583.748	19469
583.770	19308
583.820	19845
583.825	19877
583.881	19441
583.893	19360
583.936	19104
583.965	18549
583.991	18042
584.038	18297
584.046	18409
584.101	18173
584.110	18247
584.156	18290
584.183	18383
584.211	18549
584.255	18285
584.266	18173
584.321	18060
584.328	18062
584.376	18771
584.400	19084
584.431	18987
584.472	18727
584.486	18711
584.541	18736
584.545	18707
584.596	18268
584.617	18266
584.651	18589
584.689	19929
584.706	20352
584.761	20466
584.762	20461
584.816	20382
584.834	20217
584.871	19533
584.906	19873
584.926	20056
584.978	19437
584.980	19436
585.035	20442
585.051	20611
585.090	21152
585.123	21480
585.145	21515
585.195	21609
585.200	21687
585.254	22856
585.267	23076
585.309	24138
585.340	25727
585.364	26235
585.412	25320
585.419	25132
585.473	23703
585.484	23722
585.528	25312
585.556	26765
585.583	28949
585.628	33535
585.637	35337
585.692	53525
585.700	57214
585.747	73026
585.772	66550
585.801	51468
585.845	30979
585.856	27833
585.910	24590
585.917	24196
585.965	23084
585.989	23050
586.019	23377
586.061	23761
586.074	23881
586.128	23734
586.133	23813
586.183	24943
586.205	25444
586.237	25822
586.277	25497
586.292	25351
586.346	24349
586.349	24364
586.401	25080
586.421	25240
586.455	26389
586.493	28404
586.509	30601
586.564	37025
586.565	37319
586.618	56805
586.637	59469
586.672	49117
586.709	34737
586.727	30435
586.781	26118
586.781	26134
586.835	25783
586.853	25641
586.889	25337
586.925	24931
586.944	24677
586.996	24616
586.998	24656
587.052	25339
587.068	25568
587.106	26169
587.140	26143
587.161	25800
587.212	25707
587.215	25828
587.269	28468
587.284	28852
587.323	28147
587.356	27847
587.377	28098
587.427	28396
587.431	28410
587.485	28257
587.499	28154
587.539	28476
587.571	29071
587.593	29618
587.643	30235
587.648	30306
587.702	31283
587.715	31468
587.755	31918
587.786	32052
587.810	32009
587.858	31628
587.864	31838
587.917	35085
587.930	35490
587.971	36932
588.001	38510
588.025	39082
588.073	39140
588.079	39270
588.133	40973
588.145	41274
588.187	43550
588.217	45354
588.241	47231
588.288	51226
588.295	51885
588.348	57442
588.360	58564
588.402	64919
588.431	69415
588.456	72779
588.503	79284
588.510	80615
588.564	92439
588.575	95003
588.617	106538
588.646	115911
588.671	127480
588.718	153542
588.725	160917
588.778	226877
588.789	243886
588.832	394075
588.861	511652
588.886	721339
588.932	1162296
588.939	1202652
588.993	1435648
589.004	1446760
589.047	928632
589.075	572699
589.100	420600
589.147	203542
589.154	194539
589.207	150103
589.218	142323
589.261	136555
589.290	135717
589.314	143060
589.361	162049
589.368	170436
589.421	248544
589.433	268632
589.475	482656
589.504	651705
589.528	853299
589.576	1252468
589.582	1219886
589.635	751799
589.647	645753
589.689	336982
589.718	154962
589.742	126639
589.790	83918
589.795	82688
589.849	74190
589.861	72975
589.902	73799
589.932	72960
589.955	65461
590.004	48631
590.009	48018
590.062	43277
590.075	41938
590.115	40611
590.146	39962
590.168	39616
590.218	38264
590.222	38283
590.275	38528
590.289	38495
590.328	38567
590.360	38347
590.381	37823
590.431	36131
590.435	36138
590.488	35963
590.503	35830
590.541	36525
590.574	37094
590.594	36780
590.645	35430
590.647	35466
590.700	34915
590.716	34786
590.753	34819
590.787	34690
590.806	34727
590.859	34767
590.859	34812
590.912	33880
590.930	33648
590.965	34349
591.001	34824
591.018	34799
591.071	34472
591.072	34410
591.124	34287
591.143	34244
591.177	35032
591.214	35714
591.230	36126
591.283	37225
591.285	37198
591.336	37200
591.356	37090
591.389	37063
591.427	36842
591.442	36348
591.495	34193
591.498	33982
591.547	35248
591.569	35687
591.600	35197
591.640	34425
591.653	34666
591.706	35370
591.711	35391
591.759	37380
591.782	38256
591.811	39989
591.853	42372
591.864	41629
591.917	37170
591.924	36462
591.969	36970
591.995	37216
592.022	36837
592.066	35933
592.075	36694
592.127	40971
592.137	41710
592.180	45736
592.208	48091
592.233	44765
592.279	38076
592.285	37929
592.338	36161
592.350	35689
592.390	35038
592.421	34467
592.443	35101
592.491	36229
592.495	36246
592.548	35523
592.562	35263
592.600	34928
592.633	34512
592.653	34856
592.704	35394
592.705	35568
592.775	34043
592.846	34567
592.916	35567
592.987	37611
593.058	35406
593.128	34163
593.199	34121
593.270	33449
593.341	33225
593.411	33041
593.482	33283
593.553	34372
593.623	32356
593.694	34250
593.764	37090
593.835	33952
593.906	32416
593.976	32473
594.047	34773
594.117	38814
594.188	40916
594.258	33178
594.329	31331
594.399	32054
594.470	31548
594.540	31805
594.611	31693
594.681	31421
594.751	32264
594.822	33764
594.892	34698
594.963	35489
595.033	35112
595.103	35606
595.174	36963
595.244	52046
595.314	63788
595.384	37125
595.455	33984
595.525	34476
595.595	34097
595.665	35103
595.736	34447
595.806	34356
595.876	32275
595.946	33357
596.016	33004
596.087	33349
596.157	33563
596.227	33258
596.297	34907
596.367	35742
596.437	38569
596.507	49722
596.577	61016
596.647	37411
596.717	34674
596.787	34619
596.857	35258
596.927	35191
596.997	34936
597.067	35927
597.137	39280
597.207	38098
597.277	36421
597.347	36012
597.417	35960
597.487	36551
597.557	37150
597.626	37395
597.696	39574
597.766	45401
597.836	59752
597.906	42006
597.975	34291
598.045	35198
598.115	34262
598.185	34747
598.254	36704
598.324	38164
598.394	37703
598.464	37770
598.533	36301
598.603	35056
598.672	36607
598.742	36321
598.812	35504
598.881	35255
598.951	34792
599.020	33453
599.090	33754
599.159	34968
599.229	34213
599.299	33156
599.368	34323
599.437	34117
599.507	35022
599.576	37319
599.646	37358
599.715	38725
599.785	36270
599.854	37023
599.924	39990
599.993	38483
600.062	35729
600.132	35412
600.201	36309
600.270	38673
600.340	37796
600.409	36907
600.478	38211
600.547	36324
600.617	37589
600.686	37041
600.755	36438
600.824	36975
600.894	35385
600.963	34645
601.032	33264
601.101	35545
601.170	34989
601.239	35284
601.308	36451
601.378	35852
601.447	35757
601.516	34844
601.585	36654
601.654	37025
601.723	37928
601.792	38093
601.861	40142
601.930	45423
601.999	42926
602.068	38441
602.137	38914
602.206	38669
602.275	39468
602.343	44037
602.412	43740
602.481	39906
602.550	38025
602.619	40423
602.688	39554
602.756	41009
602.825	39194
602.894	39086
602.963	39541
603.032	39046
603.100	39318
603.169	38787
603.238	40172
603.307	39606
603.375	37975
603.444	40106
603.513	38741
603.581	38264
603.650	39137
603.719	35642
603.787	35389
603.856	34978
603.924	35827
603.993	36845
604.061	36418
604.130	38102
604.198	38428
604.267	37171
604.335	38287
604.404	37007
604.472	37544
604.541	38357
604.609	39950
604.678	39237
604.746	39344
604.815	41585
604.883	39208
604.951	39991
605.020	39421
605.088	39514
605.156	37089
605.225	37956
605.293	37251
605.361	37682
605.429	36643
605.498	37647
605.566	38278
605.634	38918
605.702	39309
605.771	38798
605.839	39383
605.907	37160
605.975	38343
606.043	38303
606.111	37101
606.180	40282
606.248	41985
606.316	44706
606.384	40417
606.452	43470
606.520	41312
606.588	34023
606.656	30210
606.724	30538
606.792	29067
606.860	27198
606.928	26309
606.996	26751
607.064	24766
607.132	26800
607.200	27000
607.267	27277
607.335	26999
607.403	28414
607.471	27765
607.539	27195
607.607	26437
607.674	25736
607.742	26932
607.810	27538
607.878	26631
607.946	26190
608.013	26086
608.081	26573
608.149	27506
608.216	26983
608.284	27876
608.352	27269
608.419	28515
608.487	39411
608.555	31536
608.622	26702
608.690	26911
608.757	27808
608.825	28529
608.893	28093
608.960	30836
609.028	34869
609.095	41243
609.163	30088
609.230	27373
609.298	27646
609.365	25235
609.432	25993
609.500	28140
609.567	29769
609.635	31420
609.702	33406
609.769	33091
609.837	33990
609.904	28820
609.971	28630
610.039	34091
610.106	44112
610.173	70936
610.241	150603
610.308	187417
610.375	122639
610.442	44616
610.509	31563
610.577	29206
610.644	28891
610.711	27648
610.778	28408
610.845	27879
610.912	30267
610.980	32974
611.047	43255
611.114	34335
611.181	27501
611.248	25822
611.315	28195
611.382	27754
611.449	27644
611.516	28379
611.583	29131
611.650	28224
611.717	29225
611.784	28563
611.851	30404
611.918	34137
611.984	37817
612.051	50601
612.118	89854
612.185	204519
612.252	143541
612.319	41450
612.386	34986
612.452	31996
612.519	34295
612.586	45300
612.653	37652
612.719	30909
612.786	29483
612.853	28041
612.919	27593
612.986	28436
613.053	25996
613.120	25386
613.186	25779
613.253	27970
613.319	25519
613.386	27008
613.453	27303
613.519	29995
613.586	35046
613.652	47038
613.719	39431
613.785	36354
613.852	28826
613.918	27347
613.985	31524
614.051	41890
614.118	78429
614.184	80896
614.250	31300
614.317	26139
614.383	25785
614.449	25269
614.516	26696
614.582	27671
614.648	26542
614.715	25464
614.781	25992
614.847	26797
614.914	28590
614.980	27270
615.046	26431
615.112	24813
615.179	24583
615.245	25798
615.311	25801
615.377	27098
615.443	28001
615.509	27414
615.575	28729
615.642	27728
615.708	28799
615.774	31410
615.840	34802
615.906	38669
615.972	45334
616.038	62820
616.104	118730
616.170	278700
616.236	253796
616.302	63047
616.368	43479
616.434	36966
616.500	36233
616.565	36943
616.631	39434
616.697	37423
616.763	36361
616.829	44449
616.895	64534
616.961	64485
617.026	39472
617.092	30973
617.158	30952
617.224	29755
617.289	29151
617.355	30802
617.421	30313
617.487	31060
617.552	28750
617.618	27494
617.684	27833
617.749	30377
617.815	28058
617.880	26894
617.946	28795
618.012	28024
618.077	28109
618.143	27552
618.208	28039
618.274	29743
618.339	31222
618.405	28560
618.470	29242
618.536	30089
618.601	33964
618.667	31907
618.732	30009
618.798	29116
618.863	28057
618.928	28957
618.994	32497
619.059	34617
619.124	43706
619.190	35117
619.255	29085
619.320	29605
619.386	29955
619.451	27420
619.516	27564
619.581	28495
619.647	29560
619.712	28078
619.777	27797
619.842	28977
619.907	29874
619.972	28495
620.038	29075
620.103	27445
620.168	27955
620.233	27900
620.298	27049
620.363	27744
620.428	27882
620.493	28450
620.558	27634
620.623	28254
620.688	27715
620.753	27481
620.818	27491
620.883	27639
620.948	27726
621.013	28368
621.078	28837
621.143	28988
621.207	32047
621.272	32113
621.337	33381
621.402	35188
621.467	43385
621.532	45553
621.596	36553
621.661	34483
621.726	32399
621.791	32777
621.855	34077
621.920	36341
621.985	37591
622.049	42204
622.114	39822
622.179	36271
622.243	39096
622.308	36236
622.373	36886
622.437	37187
622.502	34485
622.566	35230
622.631	35360
622.695	36456
622.760	36190
622.824	36173
622.889	36667
622.953	38340
623.018	50038
623.082	49576
623.147	36421
623.211	34936
623.276	36011
623.340	32952
623.404	32077
623.469	33061
623.533	33912
623.597	32406
623.662	32645
623.726	32244
623.790	31990
623.854	32083
623.919	32810
623.983	31416
624.047	33352
624.111	30661
624.176	32103
624.240	33935
624.304	36284
624.368	30944
624.432	31794
624.496	32413
624.560	35672
624.625	37004
624.689	32212
624.753	30981
624.817	31890
624.881	30846
624.945	30197
625.009	30893
625.073	30655
625.137	32902
625.201	39195
625.265	38106
625.329	30771
625.393	33694
625.456	31926
625.520	31185
625.584	35098
625.648	42887
625.712	63246
625.776	139721
625.839	162038
625.903	65509
625.967	37019
626.031	59380
626.095	92656
626.158	37769
626.222	27847
626.286	26684
626.349	26045
626.413	25155
626.477	28310
626.540	25003
626.604	25025
626.668	26331
626.731	25432
626.795	26735
626.858	26737
626.922	25400
626.986	25561
627.049	23087
627.113	25514
627.176	24019
627.240	24140
627.303	24733
627.366	24487
627.430	24426
627.493	25316
627.557	25050
627.620	26180
627.684	24444
627.747	23907
627.810	22184
627.874	22991
627.937	22574
628.000	25065
628.064	24255
628.127	20666
628.190	23946
628.253	22669
628.317	22578
628.380	22687
628.443	20464
628.506	21589
628.569	22656
628.632	20124
628.696	20431
628.759	21197
628.822	20168
628.885	20466
628.948	20299
629.011	20363
629.074	20378
629.137	19506
629.200	19992
629.263	22460
629.326	19127
629.389	18926
629.452	20846
629.515	21081
629.578	19555
629.641	22149
629.704	19994
629.767	21602
629.830	19729
629.892	20266
629.955	19075
630.018	21707
630.081	19832
630.144	25110
630.207	21214
630.269	22864
630.332	22008
630.395	20676
630.458	18226
630.520	17986
630.583	18887
630.646	17447
630.708	17545
630.771	16995
630.834	18742
630.896	16765
630.959	16603
631.021	17386
631.084	18267
631.146	19282
631.209	22504
631.272	18047
631.334	16959
631.397	17013
631.459	16090
631.522	17442
631.584	17223
631.646	17875
631.709	18360
631.771	23217
631.834	18328
631.896	17039
631.958	15609
632.021	17148
632.083	16773
632.145	17909
632.208	17065
632.270	17641
632.332	15494
632.395	15775
632.457	16690
632.519	16316
632.581	16432
632.643	14527
632.706	15645
632.768	14386
632.830	15993
632.892	15012
632.954	15352
633.016	16644
633.078	14648
633.141	15027
633.203	15051
633.265	15694
633.327	15484
633.389	15049
633.451	17500
633.513	19467
633.575	19675
633.637	18649
633.698	17083
633.760	15841
633.822	15265
633.884	15321
633.946	15381
634.008	14818
634.070	15699
634.132	18277
634.193	17404
634.255	15994
634.317	14202
634.379	15462
634.441	14988
634.502	15138
634.564	14681
634.626	15023
634.687	14683
634.749	14719
634.811	14452
634.873	12034
634.934	14122
634.996	13872
635.057	12978
635.119	13341
635.181	13684
635.242	14625
635.304	12740
635.365	15506
635.427	13130
635.488	14361
635.550	13302
635.611	14600
635.673	12149
635.734	15877
635.796	13646
635.857	16609
635.918	13735
635.980	15698
636.041	13583
636.102	15009
636.164	13453
636.225	14806
636.286	12927
636.348	14495
636.409	13078
636.470	12902
636.531	14224
636.593	15682
636.654	14993
636.715	12709
636.776	12475
636.838	11952
636.899	13202
636.960	13181
637.021	12026
637.082	12106
637.143	12202
637.204	11941
637.265	11520
637.326	12009
637.387	12462
637.448	10861
637.509	12999
637.570	11558
637.631	12740
637.692	10679
637.753	10350
637.814	12330
637.875	11109
637.936	12247
637.997	11613
638.058	11842
638.119	12907
638.179	12152
638.240	11337
638.301	12219
638.362	10668
638.423	11991
638.483	12095
638.544	10480
638.605	11770
638.666	10616
638.726	11369
638.787	11748
638.848	11420
638.908	12035
638.969	12645
639.030	12359
639.090	10302
639.151	11233
639.211	12382
639.272	15656
639.332	21847
639.393	15188
639.453	9692
639.514	12064
639.574	10999
639.635	10079
639.695	11704
639.756	11143
639.816	12170
639.877	13305
639.937	19453
639.997	26100
640.058	11949
640.118	10367
640.178	10900
640.239	10479
640.299	9563
640.359	9720
640.420	10031
640.480	9931
640.540	9875
640.600	10319
640.661	11084
640.721	10725
640.781	14912
640.841	11170
640.901	11513
640.961	11712
641.021	11662
641.082	12135
641.142	15711
641.202	13676
641.262	8468
641.322	11643
641.382	9508
641.442	10789
641.502	9988
641.562	11047
641.622	8858
641.682	10361
641.742	9668
641.802	10517
641.861	11499
641.921	11681
641.981	12859
642.041	12999
642.101	14973
642.161	10487
642.221	9102
642.280	9925
642.340	10148
642.400	8757
642.460	11081
642.519	10107
642.579	9959
642.639	10503
642.698	7832
642.758	11914
642.818	9609
642.877	9406
642.937	10575
642.997	12114
643.056	15999
643.116	10368
643.175	10682
643.235	9140
643.294	10010
643.354	10649
643.414	10716
643.473	11743
643.532	10861
643.592	13309
643.651	15837
643.711	25136
643.770	41568
643.830	86672
643.889	194436
643.948	54161
644.008	14125
644.067	10740
644.126	8878
644.186	9377
644.245	10021
644.304	7866
644.363	10457
644.423	7236
644.482	8658
644.541	9178
644.600	6974
644.659	9584
644.719	9800
644.778	11746
644.837	13874
644.896	19954
644.955	37274
645.014	19832
645.073	12597
645.132	9590
645.191	9918
645.250	9276
645.309	10859
645.368	8451
645.427	9507
645.486	9737
645.545	13123
645.604	8431
645.663	9042
645.722	8374
645.781	9010
645.840	9168
645.898	10344
645.957	12503
646.016	14176
646.075	21587
646.134	34866
646.192	81309
646.251	128044
646.310	24535
646.369	11207
646.427	9915
646.486	8166
646.545	9124
646.603	9131
646.662	8966
646.721	7697
646.779	7087
646.838	7730
646.896	9141
646.955	9595
647.014	10718
647.072	12629
647.131	24359
647.189	15120
647.248	7166
647.306	8144
647.365	8598
647.423	5923
647.481	9010
647.540	6573
647.598	8282
647.657	7618
647.715	8376
647.773	7067
647.832	8408
647.890	7278
647.948	7703
648.007	8547
648.065	7511
648.123	7200
648.181	10079
648.240	10338
648.298	9721
648.356	7866
648.414	7935
648.472	8228
648.531	8336
648.589	8513
648.647	6955
648.705	6669
648.763	8099
648.821	7615
648.879	7162
648.937	8276
648.995	7880
649.053	8391
649.111	10559
649.169	12328
649.227	17339
649.285	27687
649.343	67442
649.401	43969
649.459	29245
649.516	23929
649.574	16186
649.632	32631
649.690	39444
649.748	16719
649.806	16647
649.863	25870
649.921	21412
649.979	15215
650.037	8139
650.094	6684
650.152	7940
650.210	6431
650.268	6950
650.325	7509
650.383	7722
650.440	6402
650.498	7977
650.556	6626
650.613	5925
650.671	6796
650.728	7155
650.786	7969
650.843	7514
650.901	5314
650.958	7100
651.016	6527
651.073	6529
651.131	6362
651.188	5790
651.246	7018
651.303	6072
651.360	7142
651.418	6690
651.475	6224
651.532	5621
651.590	5979
651.647	6302
651.704	5722
651.762	5947
651.819	6700
651.876	7032
651.933	6171
651.990	7406
652.048	5988
652.105	6443
652.162	7351
652.219	6688
652.276	6967
652.333	6752
652.390	4812
652.448	6598
652.505	6479
652.562	7003
652.619	7816
652.676	12033
652.733	13030
652.790	6216
652.847	5733
652.904	6401
652.961	5229
653.017	5981
653.074	6720
653.131	6289
653.188	5124
653.245	5263
653.302	6552
653.359	6269
653.415	6361
653.472	6287
653.529	5958
653.586	5176
653.642	5038
653.699	6806
653.756	4927
653.813	5560
653.869	6136
653.926	4947
653.983	5947
654.039	6345
654.096	5760
654.152	6300
654.209	5105
654.266	6497
654.322	5027
654.379	7699
654.435	8079
654.492	7200
654.548	10227
654.605	15490
654.661	10220
654.717	6498
654.774	7409
654.830	6956
654.887	6539
654.943	6441
655.000	7047
655.056	6943
655.112	7002
655.168	6161
655.225	6823
655.281	8622
655.337	8583
655.394	15194
655.450	11506
655.506	10356
655.562	14651
655.618	13539
655.675	5414
655.731	6320
655.787	6280
655.843	6274
655.899	6220
655.955	7350
656.011	6409
656.067	5619
656.123	7053
656.179	7071
656.235	8471
656.291	5589
656.347	8189
656.403	6765
656.459	7184
656.515	7685
656.571	7604
656.627	6846
656.683	6088
656.739	7290
656.795	6733
656.850	7162
656.906	6986
656.962	7390
657.018	5601
657.074	5821
657.129	5508
657.185	7423
657.241	7385
657.297	5992
657.352	6309
657.408	5687
657.464	7974
657.519	6809
657.575	5914
657.630	5979
657.686	5159
657.742	5457
657.797	5961
657.853	6253
657.908	7123
657.964	5041
658.019	6181
658.075	6131
658.130	6878
658.186	4140
658.241	5815
658.297	5802
658.352	5576
658.407	5551
658.463	5786
658.518	6655
658.573	6518
658.629	4845
658.684	5410
658.739	6163
658.795	4771
658.850	5472
658.905	5058
658.960	5904
659.016	5658
659.071	6261
659.126	6028
659.181	6617
659.236	9322
659.291	11175
659.346	7603
659.401	7470
659.457	8952
659.512	10469
659.567	8134
659.622	5521
659.677	5836
659.732	5786
659.787	6953
659.842	7070
659.897	9011
659.952	6578
660.007	5792
660.061	5951
660.116	5671
660.171	6118
660.226	5886
660.281	6676
660.336	5766
660.391	6458
660.445	5351
660.500	6966
660.555	5432
660.610	5525
660.664	5783
660.719	5843
660.774	6128
660.828	6834
660.883	6263
660.938	7257
660.992	4976
661.047	6173
661.101	5697
661.156	4980
661.211	4680
661.265	4973
661.320	4895
661.374	5917
661.429	5003
661.483	6210
661.538	4518
661.592	6517
661.647	5571
661.701	6531
661.755	6136
661.810	6149
661.864	5595
661.919	6208
661.973	6127
662.027	5150
662.081	5486
662.136	5876
662.190	6226
662.244	6381
662.299	6290
662.353	6249
662.407	5253
662.461	6815
662.515	6745
662.569	6668
662.624	6598
662.678	5694
662.732	6341
662.786	6431
662.840	5835
662.894	6180
662.948	5539
663.002	6199
663.056	6254
663.110	5073
663.164	6362
663.218	6582
663.272	5714
663.326	6370
663.380	5918
663.434	5638
663.488	5124
663.542	6168
663.595	5918
663.649	6244
663.703	6692
663.757	6318
663.811	5639
663.864	5602
663.918	6145
663.972	5244
664.026	5615
664.079	5880
664.133	5432
664.187	5231
664.240	5368
664.294	6173
664.348	6107
664.401	5755
664.455	5153
664.508	6423
664.562	6034
664.615	5515
664.669	5444
664.722	6599
664.776	5844
664.829	6349
664.883	6326
664.936	6297
664.990	6537
665.043	7033
665.097	6367
665.150	8274
665.203	5809
665.257	6544
665.310	5768
665.363	7163
665.417	6498
665.470	6482
665.523	6836
665.576	6952
665.630	6528
665.683	5873
665.736	6229
665.789	7181
665.842	6647
665.895	6314
665.949	6265
666.002	5692
666.055	6887
666.108	7108
666.161	5348
666.214	7458
666.267	5844
666.320	8012
666.373	7214
666.426	6056
666.479	6798
666.532	7793
666.585	8408
666.638	8889
666.691	7167
666.744	7865
666.796	8452
666.849	8596
666.902	7371
666.955	6750
667.008	4876
667.060	5760
667.113	4906
667.166	6208
667.219	5681
667.271	6654
667.324	5898
667.377	6620
667.430	5950
667.482	7887
667.535	8128
667.587	6795
667.640	7844
667.693	8144
667.745	10418
667.798	11566
667.850	7272
667.903	7190
667.955	6679
668.008	5936
668.060	7258
668.113	7921
668.165	7592
668.218	8458
668.270	7296
668.322	7369
668.375	6131
668.427	7559
668.479	6464
668.532	6982
668.584	6228
668.636	7370
668.689	6980
668.741	6548
668.793	6781
668.845	5755
668.898	6775
668.950	6711
669.002	7046
669.054	7269
669.106	6541
669.158	7563
669.211	6858
669.263	7839
669.315	9636
669.367	10149
669.419	8413
669.471	9634
669.523	9681
669.575	12626
669.627	11063
669.679	8642
669.731	8059
669.783	9165
669.835	10050
669.886	8865
669.938	8495
669.990	9242
670.042	8435
670.094	9031
670.146	9733
670.197	11715
670.249	13884
670.301	17300
670.353	23813
670.404	32063
670.456	45295
670.508	65826
670.560	98394
670.611	154923
670.663	258636
670.715	550734
670.766	886657
670.818	388142
670.869	82389
670.921	37475
670.972	25490
671.024	18913
671.075	15734
671.127	13745
671.178	11118
671.230	11263
671.281	9959
671.333	10077
671.384	9517
671.436	10676
671.487	9620
671.538	9678
671.590	9329
671.641	11080
671.692	12241
671.744	16361
671.795	14632
671.846	11583
671.897	9138
671.949	8601
672.000	6931
672.051	6897
672.102	7734
672.153	7713
672.204	6697
672.256	7752
672.307	7601
672.358	8422
672.409	7096
672.460	7892
672.511	5868
672.562	7016
672.613	6687
672.664	6862
672.715	7329
672.766	7147
672.817	5879
672.868	6539
672.919	6756
672.970	7045
673.021	6539
673.071	6922
673.122	6572
673.173	6096
673.224	6201
673.275	7063
673.326	6066
673.376	6063
673.427	5956
673.478	6218
673.528	7008
673.579	6416
673.630	6064
673.680	7073
673.731	6239
673.782	5837
673.832	6165
673.883	7023
673.934	6483
673.984	6137
674.035	5771
674.085	6271
674.136	6310
674.186	6383
674.237	8871
674.287	11622
674.338	7461
674.388	6494
674.438	6450
674.489	6463
674.539	6887
674.589	6335
674.640	6519
674.690	6669
674.740	7346
674.791	7472
674.841	7387
674.891	7148
674.942	6720
674.992	6255
675.042	5908
675.092	5515
675.142	5332
675.193	6369
675.243	5767
675.293	6109
675.343	5410
675.393	6223
675.443	6458
675.493	5780
675.543	6382
675.593	6537
675.643	5633
675.693	5624
675.743	5762
675.793	6577
675.843	5089
675.893	6290
675.943	5936
675.993	6149
676.043	5798
676.093	6231
676.142	4352
676.192	6988
676.242	6047
676.292	6372
676.341	5556
676.391	6434
676.441	5269
676.491	5807
676.540	4177
676.590	5909
676.640	3889
676.689	6210
676.739	3727
676.789	5233
676.838	4631
676.888	5979
676.937	4763
676.987	5623
677.037	5185
677.086	5365
677.136	4806
677.185	5040
677.235	4125
677.284	5149
677.333	5080
677.383	4287
677.432	4214
677.482	5482
677.531	4573
677.580	4782
677.630	4899
677.679	4157
677.728	4350
677.778	4676
677.827	4996
677.876	6101
677.925	4881
677.975	4923
678.024	3950
678.073	5339
678.122	5154
678.171	6421
678.220	5631
678.269	6164
678.319	5418
678.368	5162
678.417	5740
678.466	6239
678.515	5865
678.564	5253
678.613	5190
678.662	5665
678.711	5639
678.760	5181
678.809	5434
678.857	5482
678.906	4841
678.955	5668
679.004	5491
679.053	4894
679.102	4817
679.151	5849
679.199	5825
679.248	4660
679.297	5708
679.346	5455
679.394	4999
679.443	5134
679.492	5100
679.540	5192
679.589	5079
679.638	5286
679.686	4841
679.735	4857
679.784	5102
679.832	5056
679.881	5183
679.929	4366
679.978	4466
680.026	4045
680.075	4323
680.123	4456
680.172	4001
680.220	4713
680.268	4211
680.317	4436
680.365	4539
680.414	4101
680.462	4145
680.510	5107
680.559	4963
680.607	4228
680.655	4133
680.703	4365
680.752	4245
680.800	3263
680.848	4304
680.896	3210
680.945	3372
680.993	4297
681.041	3990
681.089	3689
681.137	4281
681.185	4413
681.233	4424
681.258	4440
681.281	4443
681.329	4082
681.377	4488
681.380	4493
681.425	4348
681.473	4725
681.502	4455
681.521	4237
681.569	5096
681.617	4918
681.624	4932
681.665	4936
681.713	4325
681.745	4897
681.761	5146
681.809	4516
681.857	4678
681.867	4633
681.904	4428
681.952	5184
681.989	4389
682.000	4133
682.048	4862
682.096	5081
682.111	5003
682.143	4768
682.191	4367
682.233	5042
682.239	5140
682.286	5055
682.334	4800
682.354	4600
682.382	4263
682.430	4868
682.476	4458
682.477	4439
682.525	5171
682.572	4592
682.598	4785
682.620	4938
682.667	4332
682.715	5086
682.720	5043
682.763	4478
682.810	5220
682.841	4895
682.857	4710
682.905	5081
682.952	4666
682.963	4813
683.000	5309
683.047	4632
683.085	5540
683.095	5764
683.142	4858
683.190	4271
683.206	4341
683.237	4456
683.284	5177
683.328	4910
683.332	4871
683.379	5475
683.426	4455
683.449	4933
683.473	5462
683.521	4528
683.568	5130
683.571	5118
683.615	4725
683.662	4510
683.693	4877
683.709	5056
683.757	4428
683.804	5591
683.814	5497
683.851	5181
683.898	5224
683.936	5324
683.945	5325
683.992	4712
684.039	5056
684.057	4955
684.086	4845
684.133	5717
684.179	4788
684.180	4742
684.227	5935
684.274	5663
684.300	5888
684.321	6092
684.368	4910
684.415	5846
684.422	5771
684.462	5228
684.509	5285
684.543	4957
684.556	4838
684.603	5190
684.649	4922
684.665	4962
684.696	5134
684.743	5790
684.786	6014
684.790	6012
684.837	5499
684.883	6233
684.908	6323
684.930	6416
684.977	6689
685.023	6199
685.029	6148
685.070	5553
685.117	5838
685.150	5959
685.164	6076
685.210	6690
685.257	7494
685.272	7369
685.303	6979
685.350	6481
685.393	6389
685.396	6381
685.443	6817
685.490	6656
685.514	7171
685.536	7534
685.583	7042
685.629	6743
685.636	6685
685.675	6407
685.722	6725
685.757	6684
685.768	6667
685.815	6955
685.861	6429
685.878	6732
685.908	7236
685.954	6980
686.000	7517
686.000	7524
686.047	7683
686.093	8351
686.121	8420
686.139	8258
686.185	7267
686.232	6867
686.242	6799
686.278	6722
686.324	6582
686.363	6797
686.370	6842
686.416	6904
686.463	6760
686.484	6742
686.509	6690
686.555	6597
686.601	6386
686.606	6416
686.647	6643
686.693	6425
686.727	6617
686.739	6739
686.785	6842
686.831	6807
686.848	6987
686.877	7119
686.923	6626
686.969	5855
686.969	5851
687.015	6148
687.061	6490
687.090	6540
687.107	6522
687.153	6513
687.199	6466
687.211	6464
687.245	6625
687.291	7496
687.332	7017
687.336	6974
687.382	7383
687.428	7119
687.453	7627
687.474	7788
687.520	6887
687.565	6491
687.574	6494
687.611	6850
687.657	6944
687.695	6710
687.702	6678
687.748	7488
687.794	7604
687.816	7648
687.839	7575
687.885	6952
687.931	7190
687.937	7139
687.976	6925
688.022	6747
688.058	7342
688.067	7545
688.113	7886
688.158	7219
688.179	7378
688.204	7318
688.249	7682
688.295	7395
688.300	7373
688.340	7560
688.386	8237
688.421	7688
688.431	7489
688.477	7065
688.522	7246
688.542	7256
688.567	7353
688.613	7224
688.658	7784
688.663	7754
688.703	7642
688.749	7733
688.784	8086
688.794	8117
688.839	7709
688.884	7589
688.905	7426
688.930	7289
688.975	7044
689.020	6924
689.026	6972
689.065	7523
689.110	7439
689.146	7481
689.155	7503
689.201	7387
689.246	7580
689.267	7631
689.291	7589
689.336	7640
689.381	7649
689.388	7606
689.426	7593
689.471	7987
689.509	7750
689.516	7698
689.561	7990
689.606	8100
689.630	7963
689.651	7857
689.696	7623
689.741	8341
689.750	8286
689.785	8042
689.830	7955
689.871	7731
689.875	7727
689.920	8161
689.965	7912
689.992	7797
690.010	7747
690.054	8314
690.099	8391
690.112	8387
690.144	8430
690.189	8262
690.233	8198
690.233	8207
690.278	8840
690.323	8453
690.354	8587
690.367	8661
690.412	8650
690.457	9031
690.474	9131
690.501	9499
690.546	9372
690.590	10611
690.595	10661
690.635	11330
690.680	11484
690.716	11991
690.724	12331
690.769	14787
690.813	17173
690.836	17959
690.857	20128
690.902	26408
690.946	31825
690.957	33428
690.991	45709
691.035	63385
691.077	82052
691.080	82235
691.124	76388
691.168	66097
691.198	60791
691.213	55500
691.257	41966
691.301	28373
691.318	23481
691.346	21407
691.390	17793
691.434	14704
691.439	14294
691.478	13184
691.522	11904
691.559	10794
691.567	10752
691.611	10978
691.655	10688
691.680	10483
691.699	10295
691.743	9919
691.787	9858
691.800	9755
691.831	9742
691.875	10086
691.919	9940
691.921	9918
691.964	9942
692.008	10278
692.041	10441
692.052	10475
692.096	10286
692.139	10777
692.162	10627
692.183	10240
692.227	10257
692.271	9750
692.282	9590
692.315	9620
692.359	9705
692.402	9913
692.403	9931
692.447	9882
692.490	10434
692.523	10538
692.534	10580
692.578	10621
692.622	10471
692.643	10645
692.666	10732
692.709	10304
692.753	10490
692.763	10431
692.797	10496
692.840	10358
692.884	10555
692.884	10576
692.928	10858
692.971	11155
693.004	11208
693.015	11195
693.059	11272
693.102	11143
693.124	10999
693.146	11159
693.189	11838
693.233	12223
693.245	12434
693.276	13457
693.320	14327
693.363	15587
693.365	15599
693.407	17037
693.450	18812
693.485	20087
693.493	21011
693.537	26032
693.580	30808
693.605	33922
693.624	39679
693.667	52948
693.710	66816
693.725	71947
693.753	95206
693.797	132657
693.840	173124
693.845	176978
693.883	165659
693.926	145569
693.966	129639
693.970	126585
694.013	95061
694.056	64252
694.086	43401
694.099	41076
694.142	33562
694.185	26146
694.206	22594
694.229	21577
694.272	19378
694.315	17736
694.326	17104
694.358	16248
694.401	15556
694.444	14712
694.446	14645
694.487	14130
694.530	13497
694.566	12809
694.573	12734
694.616	12047
694.659	11694
694.686	11321
694.702	11170
694.745	10816
694.787	10365
694.806	10215
694.830	10297
694.873	10386
694.916	10411
694.926	10325
694.959	10086
695.002	10101
695.044	9842
695.046	9830
695.087	10357
695.130	10398
695.166	10473
695.172	10488
695.215	10696
695.258	10654
695.286	10543
695.301	10480
695.343	10471
695.386	10332
695.406	10301
695.428	10295
695.471	10162
695.514	10009
695.526	9915
695.556	9975
695.599	10193
695.641	10391
695.646	10373
695.684	10262
695.726	10228
695.766	10089
695.769	10113
695.811	10372
695.854	10557
695.886	10534
695.896	10515
695.938	10377
695.981	10306
696.005	10188
696.023	10222
696.065	10351
696.108	10355
696.125	10376
696.150	10424
696.192	10493
696.235	10566
696.245	10562
696.277	10762
696.319	10840
696.361	11035
696.365	11019
696.404	11219
696.446	11570
696.485	11820
696.488	11842
696.530	11688
696.572	11612
696.604	11502
696.614	11386
696.656	10752
696.698	10115
696.724	9713
696.740	9755
696.783	9800
696.825	9822
696.844	9855
696.867	9922
696.909	9918
696.951	9930
696.964	9922
696.992	9934
697.034	9906
697.076	9732
697.083	9714
697.118	10089
697.160	10401
697.202	10742
697.203	10725
697.244	10538
697.286	10327
697.323	10109
697.327	10098
697.369	9827
697.411	9467
697.442	9231
697.453	9403
697.494	9917
697.536	10528
697.562	10880
697.578	10832
697.620	10677
697.661	10321
697.682	10196
697.703	10403
697.744	10753
697.786	11132
697.801	11228
697.828	11232
697.869	11145
697.911	11047
697.921	11015
697.952	11039
697.994	10972
698.035	10991
698.040	10952
698.077	10384
698.118	9803
698.160	9186
698.160	9161
698.201	9362
698.243	9511
698.279	9680
698.284	9742
698.325	10048
698.367	10402
698.399	10624
698.408	10571
698.449	10210
698.491	9850
698.518	9586
698.532	9690
698.573	9952
698.614	10203
698.638	10303
698.656	10413
698.697	10636
698.738	10850
698.757	10934
698.779	10815
698.820	10515
698.862	10215
698.877	10083
698.903	10447
698.944	10984
698.985	11517
698.996	11638
699.026	11280
699.067	10744
699.116	10081
699.235	10625
699.354	10680
699.474	10717
699.593	10753
699.713	12066
699.832	10997
699.951	11303
700.070	11172
700.190	10458
700.309	10512
700.428	10918
700.547	10318
700.667	10549
700.786	11691
700.905	9696
701.024	10632
701.143	10063
701.262	9436
701.381	9529
701.500	10462
701.619	11428
701.738	9902
701.857	9672
701.976	9195
702.095	9507
702.214	10565
702.333	10499
702.452	9765
702.571	9327
702.690	9471
702.809	9160
702.928	9538
703.047	9577
703.165	9503
703.284	9310
703.403	9114
703.522	11031
703.640	10096
703.759	12535
703.878	14503
703.997	10656
704.115	9640
704.234	10057
704.353	8690
704.471	8687
704.590	8832
704.708	8108
704.827	9034
704.946	9689
705.064	9899
705.183	9547
705.301	11465
705.420	18086
705.538	14962
705.656	12701
705.775	13662
705.893	23177
706.012	27064
706.130	12859
706.249	13155
706.367	13834
706.485	13963
706.604	12737
706.722	13116
706.840	15213
706.958	15103
707.077	13022
707.195	12202
707.313	12843
707.431	11604
707.549	12012
707.668	12422
707.786	12260
707.904	12153
708.022	12206
708.140	11592
708.258	11515
708.376	11623
708.494	12450
708.612	13628
708.730	19534
708.848	17351
708.966	16651
709.084	14945
709.202	14323
709.320	14685
709.438	15197
709.556	14439
709.674	15811
709.791	15466
709.909	15123
710.027	15069
710.145	14791
710.263	14796
710.380	14861
710.498	13624
710.616	14425
710.733	14397
710.851	14691
710.969	14396
711.086	14063
711.204	14138
711.322	14432
711.439	14526
711.557	14982
711.674	14204
711.792	14225
711.909	15209
712.027	15173
712.144	13417
712.262	13405
712.379	15164
712.497	22033
712.614	21069
712.732	18014
712.849	17558
712.966	17259
713.084	19100
713.201	17552
713.318	18037
713.436	17198
713.553	18030
713.670	18289
713.787	18408
713.905	18447
714.022	17220
714.139	17115
714.256	17055
714.373	17210
714.490	19262
714.608	26078
714.725	65041
714.842	59337
714.959	17850
715.076	15395
715.193	15241
715.310	14833
715.427	15452
715.544	14603
715.661	14517
715.778	15645
715.895	16677
716.011	16053
716.128	15645
716.245	15067
716.362	15213
716.479	15550
716.596	14784
716.713	14980
716.829	14883
716.946	15641
717.063	14026
717.180	13674
717.296	13848
717.413	14456
717.530	13721
717.646	13549
717.763	13593
717.880	13210
717.996	13324
718.113	13897
718.229	13023
718.346	11928
718.462	13101
718.579	14901
718.695	19685
718.812	16949
718.928	16393
719.045	13440
719.161	12076
719.277	12578
719.394	11966
719.510	12808
719.626	13387
719.743	14688
719.859	13516
719.975	15095
720.092	23748
720.208	35814
720.324	14956
720.440	13626
720.557	15072
720.673	18249
720.789	23886
720.905	45255
721.021	19607
721.137	12405
721.253	12916
721.369	13121
721.486	14305
721.602	17570
721.718	11916
721.834	11710
721.950	12061
722.066	11329
722.181	11586
722.297	12411
722.413	10999
722.529	10981
722.645	11585
722.761	11039
722.877	11674
722.993	11259
723.108	10871
723.224	11406
723.340	11295
723.456	10946
723.571	11941
723.687	9614
723.803	11720
723.918	10515
724.034	10367
724.150	10985
724.265	11764
724.381	20106
724.497	22354
724.612	10212
724.728	10449
724.843	10201
724.959	12087
725.074	20038
725.190	20261
725.305	11261
725.421	10432
725.536	8961
725.651	9053
725.767	9047
725.882	8917
725.997	8144
726.113	8878
726.228	9094
726.343	9637
726.459	9007
726.574	9016
726.689	8814
726.804	8814
726.920	9844
727.035	9876
727.150	9669
727.265	8904
727.380	9734
727.495	9326
727.610	8732
727.725	9175
727.841	10419
727.956	17337
728.071	13779
728.186	8255
728.301	7390
728.416	8967
728.531	8762
728.645	7844
728.760	8878
728.875	8102
728.990	8596
729.105	8577
729.220	8266
729.335	8126
729.449	8051
729.564	7149
729.679	8362
729.794	7637
729.908	8941
730.023	8602
730.138	7695
730.253	7914
730.367	7616
730.482	7592
730.596	8171
730.711	8389
730.826	8774
730.940	7737
731.055	8138
731.169	6943
731.284	7404
731.398	7057
731.513	8307
731.627	8056
731.742	8095
731.856	8295
731.970	8099
732.085	8304
732.199	9093
732.313	8909
732.428	10689
732.542	18941
732.656	14157
732.771	7022
732.885	7875
732.999	7538
733.113	7766
733.227	7886
733.342	7773
733.456	7069
733.570	6320
733.684	7190
733.798	7192
733.912	7040
734.026	6247
734.140	6833
734.254	8731
734.368	10891
734.482	13656
734.596	7182
734.710	7233
734.824	6171
734.938	6548
735.052	6247
735.166	8093
735.280	7766
735.393	6811
735.507	7704
735.621	9261
735.735	13692
735.849	7340
735.962	7112
736.076	7671
736.190	7960
736.303	9472
736.417	10827
736.531	7450
736.644	6946
736.758	6590
736.872	6681
736.985	6466
737.099	6192
737.212	6401
737.326	6314
737.439	6557
737.553	6303
737.666	6349
737.780	5821
737.893	5931
738.007	6660
738.120	6014
738.233	5744
738.347	5941
738.460	6768
738.573	7200
738.687	6263
738.800	6837
738.913	7305
739.026	7257
739.140	6895
739.253	6264
739.366	6456
739.479	6451
739.592	5803
739.705	6273
739.818	5729
739.932	6170
740.045	6281
740.158	6236
740.271	5707
740.384	5339
740.497	6502
740.610	5906
740.723	6640
740.836	6566
740.949	6545
741.062	8215
741.174	6945
741.287	5674
741.400	6678
741.513	6707
741.626	7141
741.739	6322
741.851	6172
741.964	6629
742.077	6522
742.189	6248
742.302	6293
742.415	6350
742.527	5631
742.640	5416
742.753	6600
742.865	6091
742.978	5869
743.090	5890
743.203	6244
743.316	6315
743.428	5394
743.541	5586
743.653	5902
743.766	6134
743.878	6650
743.990	7135
744.103	7886
744.215	7029
744.327	6392
744.440	6919
744.552	8103
744.664	6917
744.777	5865
744.889	5203
745.001	6454
745.113	5578
745.226	5285
745.338	6239
745.450	5712
745.562	6263
745.674	6422
745.786	5895
745.898	5523
746.010	5847
746.122	6020
746.234	6173
746.347	5777
746.459	6254
746.570	5349
746.682	6648
746.794	6668
746.906	6752
747.018	5203
747.130	5362
747.242	5725
747.354	5919
747.466	5976
747.577	5846
747.689	6507
747.801	6630
747.913	5295
748.024	5611
748.136	5930
748.248	6060
748.359	6539
748.471	5808
748.583	6184
748.694	6033
748.806	8345
748.918	8047
749.029	6673
749.141	6632
749.252	6597
749.364	7102
749.475	9186
749.587	8037
749.698	5902
749.809	7437
749.921	5693
750.032	6684
750.144	5785
750.255	6733
750.366	5716
750.478	6029
750.589	6209
750.700	6964
750.811	6987
750.923	6975
751.034	10363
751.145	10265
751.256	5908
751.367	5724
751.479	6483
751.590	5668
751.701	6335
751.812	5988
751.923	6261
752.034	6585
752.145	5873
752.256	5958
752.367	6729
752.478	6575
752.589	6139
752.700	6089
752.811	6261
752.922	7353
753.032	6653
753.143	7727
753.254	7185
753.365	7493
753.476	6052
753.586	6709
753.697	6562
753.808	6976
753.919	7063
754.029	6505
754.140	7192
754.251	6958
754.361	6442
754.472	7055
754.582	7216
754.693	7226
754.804	7781
754.914	7283
755.025	7016
755.135	6211
755.246	7825
755.356	7759
755.466	6813
755.577	7987
755.687	7989
755.798	7109
755.908	7384
756.018	6963
756.129	7364
756.239	8059
756.349	8409
756.460	7914
756.570	8107
756.680	7868
756.790	8100
756.900	8192
757.011	8995
757.121	8279
757.231	8143
757.341	9160
757.451	8203
757.561	8439
757.671	9319
757.781	8190
757.891	9307
758.001	8813
758.111	9643
758.221	10109
758.331	9676
758.441	10221
758.551	10296
758.661	10816
758.771	10853
758.880	10497
758.990	10563
759.100	10652
759.210	11183
759.320	12028
759.429	11330
759.539	11286
759.649	11414
759.758	12206
759.868	12589
759.978	11911
760.087	11754
760.197	13056
760.307	14127
760.416	13451
760.526	12538
760.635	14847
760.745	13726
760.854	14019
760.964	14360
761.073	14905
761.182	14871
761.292	15812
761.401	16772
761.511	15682
761.620	16439
761.729	18216
761.839	18025
761.948	18742
762.057	18029
762.166	19007
762.276	18680
762.385	20430
762.494	20649
762.603	21180
762.712	22361
762.822	22690
762.931	24489
763.040	25313
763.149	25930
763.258	27770
763.367	29128
763.476	30206
763.585	32047
763.694	34699
763.803	36346
763.912	37408
764.021	39772
764.130	41483
764.238	46046
764.347	48738
764.456	53436
764.565	57209
764.674	63623
764.783	69608
764.891	76107
765.000	87255
765.109	98084
765.217	113550
765.326	133662
765.435	159709
765.543	193357
765.652	241118
765.761	311438
765.869	411055
765.978	562372
766.086	777738
766.195	1056589
766.303	1201168
766.412	849140
766.520	1031848
766.629	1243331
766.737	928895
766.846	649308
766.954	462106
767.062	346158
767.171	268411
767.279	209881
767.387	169205
767.496	143755
767.604	124600
767.712	107732
767.820	95764
767.928	88130
768.037	82459
768.145	77214
768.253	75037
768.361	73213
768.469	73409
768.577	75001
768.685	78579
768.793	85487
768.901	95186
769.009	109906
769.117	135398
769.225	174403
769.333	241160
769.441	358924
769.549	557404
769.657	872282
769.765	1045898
769.873	883045
769.981	1074862
770.088	740950
770.196	456188
770.304	308425
770.412	226360
770.519	172987
770.627	138464
770.735	112373
770.842	95092
770.950	82895
771.058	72033
771.165	64467
771.273	57804
771.380	52860
771.488	47168
771.595	42622
771.703	41083
771.810	37113
771.918	35552
772.025	32931
772.133	30463
772.240	29392
772.348	28235
772.455	27619
772.562	25430
772.670	23540
772.777	24051
772.884	22342
772.991	20482
773.099	21954
773.206	19154
773.313	18970
773.420	18721
773.528	17080
773.635	17204
773.742	17566
773.849	16872
773.956	15209
774.063	16194
774.170	15476
774.277	15999
774.384	15245
774.491	13911
774.598	13371
774.705	13327
774.812	13755
774.919	13839
775.026	13286
775.133	13205
775.239	12377
775.346	12223
775.453	11802
775.560	11733
775.667	11639
775.773	11766
775.880	11787
775.987	11435
776.093	10662
776.200	10297
776.307	10442
776.413	11107
776.520	9867
776.627	10703
776.733	10200
776.840	8610
776.946	10517
777.053	10907
777.159	11987
777.266	9693
777.372	12624
777.478	10065
777.585	8185
777.691	9024
777.798	8090
777.904	9357
778.010	9333
778.117	9561
778.223	8067
778.329	8359
778.435	7443
778.542	8747
778.648	7220
778.754	7072
778.860	7937
778.966	7806
779.072	7696
779.178	7092
779.284	7587
779.391	8580
779.497	9008
779.603	14791
779.708	21090
779.815	52903
779.920	182351
780.026	227331
780.132	34458
780.238	10975
780.344	9724
780.450	8654
780.556	7201
780.661	6685
780.767	6991
780.873	5859
780.979	6780
781.085	5932
781.190	5515
781.296	6449
781.402	6287
781.507	4980
781.613	5266
781.719	5095
781.824	5305
781.930	6145
782.035	6099
782.141	5464
782.246	5811
782.352	5180
782.457	5540
782.563	5081
782.668	4944
782.773	5125
782.879	6135
782.984	5804
783.090	6428
783.195	6319
783.300	5462
783.405	5378
783.511	5799
783.616	5276
783.721	4924
783.826	5290
783.932	4820
784.037	5941
784.142	5052
784.247	3784
784.352	5837
784.457	4748
784.562	4885
784.667	4464
784.772	5053
784.877	4469
784.982	4575
785.087	4550
785.192	5019
785.297	4327
785.402	3874
785.507	4817
785.611	4661
785.716	4563
785.821	4359
785.926	3759
786.031	4293
786.135	4400
786.240	3927
786.345	3034
786.450	4177
786.554	3671
786.659	3017
786.763	3065
786.868	4238
786.973	4404
787.077	3790
787.182	3599
787.286	3840
787.391	3434
787.495	3299
787.600	3637
787.704	3011
787.809	3157
787.913	2889
788.017	3430
788.122	3947
788.226	2771
788.330	2831
788.435	3042
788.539	4267
788.643	3158
788.747	3180
788.852	3835
788.956	2472
789.060	3401
789.164	4216
789.268	2430
789.372	3304
789.476	3444
789.580	2985
789.684	2503
789.788	3145
789.892	2562
789.996	3616
790.100	2549
790.204	3101
790.308	3526
790.412	3011
790.516	4473
790.620	3856
790.724	3054
790.828	3283
790.931	3196
791.035	3641
791.139	3563
791.242	2011
791.346	3518
791.450	2248
791.554	2185
791.657	1548
791.761	3201
791.864	4030
791.968	2372
792.072	2882
792.175	3140
792.279	2258
792.382	2753
792.486	2476
792.589	3065
792.693	3091
792.796	1819
792.899	3955
793.003	2800
793.106	1317
793.209	2295
793.313	3344
793.416	1927
793.519	2982
793.623	4456
793.726	3124
793.829	2797
793.932	3231
794.035	2220
794.138	3630
794.242	3623
794.345	5918
794.448	11549
794.551	29451
794.654	102084
794.757	133293
794.860	20244
794.963	5083
795.066	3126
795.169	4487
795.272	2654
795.375	2957
795.477	2083
795.580	2633
795.683	783
795.786	2672
795.889	1913
795.991	2672
796.094	2918
796.197	1004
796.300	3121
796.402	1620
796.505	1565
796.608	1951
796.710	2496
796.813	2003
796.915	1591
797.018	2971
797.120	1388
797.223	1128
797.326	3154
797.428	2158
797.530	1796
797.633	1690
797.735	3109
797.838	3400
797.940	3695
798.042	1072
798.145	1787
798.247	1764
798.349	727
798.452	1908
798.554	1654
798.656	761
798.758	3398
798.860	2269
798.962	1081
799.065	1375
799.167	1495
799.269	2186
799.371	2296
799.473	2808
799.575	1130
799.677	2717
799.779	4141
799.881	1369
799.983	1660
800.085	2219
800.187	2034
800.289	1462
800.390	1354
800.492	1834
800.594	3338
800.696	724
800.798	2239
800.899	1515
801.001	2015
801.103	1510
801.205	1931
801.306	1230
801.408	1321
801.509	710
801.611	1082
801.713	1684
801.814	581
801.916	1236
802.017	1142
802.119	388
802.220	1804
802.322	241
802.423	3060
802.525	827
802.626	1528
802.727	771
802.829	2011
802.930	-323
803.031	2442
803.133	890
803.234	1228
803.335	1020
803.436	201
803.538	1204
803.639	-354
803.740	894
803.841	387
803.942	1704
804.043	1740
804.144	795
804.245	823
804.346	836
804.447	139
804.548	2034
804.649	2007
804.750	804
804.851	916
804.952	960
805.053	1011
805.154	-122
805.255	1042
805.355	1220
805.456	1462
805.557	705
805.658	942
805.758	1413
805.859	1531
805.960	778
806.061	698
806.161	1151
806.262	1345
806.362	1465
806.463	988
806.564	1629
806.664	1441
806.765	1228
806.865	1420
806.966	1212
807.066	341
807.166	1516
807.267	1620
807.367	503
807.468	1499
807.568	-218
807.668	2063
807.769	1044
807.869	1025
807.969	1002
808.069	493
808.170	1325
808.270	328
808.370	1671
808.470	1934
808.570	270
808.670	912
808.770	379
808.870	961
808.970	793
809.070	520
809.170	266
809.271	1348
809.370	987
809.470	641
809.570	463
809.670	428
809.770	771
809.870	1405
809.970	606
810.070	252
810.169	784
810.269	138
810.369	2075
810.469	231
810.568	259
810.668	214
810.768	377
810.867	338
810.967	-638
811.066	942
811.166	584
811.265	1422
811.365	368
811.464	934
811.564	986
811.663	1142
811.763	-576
811.862	724
811.962	-9
812.061	203
812.160	-767
812.260	422
812.359	1192
812.458	1795
812.557	6230
812.657	5346
812.756	2304
812.855	1118
812.954	241
813.053	1112
813.153	901
813.252	-84
813.351	1057
813.450	467
813.549	-265
813.648	955
813.747	-439
813.846	655
813.945	-479
814.044	-215
814.143	144
814.242	496
814.341	-608
814.439	1336
814.538	758
814.637	451
814.736	-447
814.835	121
814.933	-614
815.032	643
815.131	-402
815.229	533
815.328	860
815.427	388
815.525	-96
815.624	887
815.722	-446
815.821	455
815.919	107
816.018	-323
816.116	483
816.215	445
816.313	112
816.412	170
816.510	258
816.609	991
816.707	391
816.805	256
816.904	22
817.002	32
817.100	782
817.198	543
817.296	240
817.395	562
817.493	748
817.591	-503
817.689	188
817.787	222
817.885	575
817.983	2574
818.081	5745
818.179	11402
818.277	28045
818.375	20967
818.473	5100
818.571	1364
818.669	1510
818.767	1680
818.865	1408
818.963	1859
819.061	2656
819.158	3800
819.256	12491
819.354	26692
819.452	57251
819.549	30751
819.647	7310
819.745	2858
819.842	1967
819.940	1423
820.038	265
820.135	493
820.233	1726
820.330	768
820.428	-26
820.525	1171
820.623	457
820.720	-324
820.818	608
820.915	1179
821.012	305
821.110	-800
821.207	1415
821.304	-137
821.402	811
821.499	1677
821.596	668
821.693	425
821.791	765
821.888	1762
821.985	1647
822.082	1412
822.179	1160
822.276	-9
822.373	940
822.470	256
822.567	578
822.664	-90
822.761	1016
822.858	139
822.955	490
823.052	-223
823.149	-50
823.246	775
823.343	-179
823.440	-181
823.536	132
823.633	-861
823.730	178
823.827	323
823.923	687
824.020	895
824.117	-81
824.213	-364
824.310	999
824.407	749
824.503	639
824.600	325
824.696	-284
824.793	885
824.889	-779
824.986	14
825.082	-69
825.179	88
825.275	-316
825.371	502
825.468	869
825.564	-898
825.660	1012
825.757	-395
825.853	596
825.949	-930
826.045	313
826.142	12
826.238	-657
826.334	234
826.430	-487
826.526	443
826.622	-842
826.718	295
826.814	-670
826.910	819
827.006	-793
827.102	-849
827.198	1071
827.294	-418
827.390	-273
827.486	664
827.582	140
827.678	-573
827.774	857
827.869	-1033
827.965	421
828.061	-445
828.157	-429
828.252	49
828.348	-1054
828.444	376
828.539	-1174
828.635	-1083
828.731	65
828.826	-885
828.922	316
829.017	-660
829.113	59
829.208	-246
829.304	-231
829.399	1086
829.495	-919
829.590	216
829.685	-1011
829.781	13
829.876	-710
829.971	166
830.066	-383
830.162	-267
830.257	-765
830.352	-349
830.447	1646
830.543	-50
830.638	-1512
830.733	976
830.828	-798
830.923	874
831.018	-562
831.113	-22
831.208	-1045
831.303	265
831.398	440
831.493	-394
831.588	222
831.683	-1282
831.778	752
831.873	-443
831.967	609
832.062	-1114
832.157	-1249
832.252	30
832.346	166
832.441	405
832.536	430
832.631	2400
832.725	1162
832.820	-727
832.914	-805
833.009	-647
833.104	453
833.198	247
833.293	186
833.387	612
833.482	-57
833.576	-854
833.670	504
833.765	85
833.859	-551
833.954	-238
834.048	-820
834.142	707
834.237	-801
834.331	-574
834.425	-117
834.519	-1613
834.613	779
834.708	-601
834.802	-320
834.896	-1486
834.990	-32
835.084	606
835.178	-337
835.272	155
835.366	-686
835.460	-148
835.554	-397
835.648	-3
835.742	-1167
835.836	-811
835.930	-1282
836.024	-21
836.117	590
836.211	-129
836.305	-314
836.399	1559
836.493	-585
836.586	141
836.680	24
836.774	-611
836.867	352
836.961	-1180
837.055	-1552
837.148	-429
837.242	-250
837.335	-450
837.429	303
837.522	-336
837.616	197
837.709	1268
837.803	560
837.896	539
837.989	-946
838.083	1311
838.176	1594
838.269	1784
838.363	1004
838.456	-1874
838.549	1175
838.642	348
838.735	1910
838.829	653
838.922	-948
839.015	-421
839.108	-1034
839.201	-276
839.294	141
839.387	-373
839.480	-1385
839.573	287
839.666	166
839.759	-872
839.852	-937
839.945	-841
840.038	-753
840.131	-400
840.223	-334
840.316	-151
840.409	-1042
840.502	-883
840.594	580
840.687	-1107
840.780	165
840.873	-923
840.965	-717
841.058	550
841.150	1766
841.243	921
841.336	1415
841.428	-842
841.521	-322
841.613	-933
841.706	-462
841.798	-540
841.890	-589
841.983	-384
842.075	88
842.167	-560
842.260	258
842.352	935
842.444	211
842.537	2578
842.629	2874
842.721	62
842.813	-491
842.905	-952
842.997	-649
843.090	-128
843.182	420
843.274	1121
843.366	5900
843.458	12707
843.550	7854
843.642	489
843.734	1177
843.826	155
843.918	619
844.009	-25
844.101	-821
844.193	-566
844.285	-281
844.377	594
844.469	398
844.560	361
844.652	282
844.744	-38
844.835	-524
844.927	-89
845.019	-12
845.110	-110
845.202	-249
845.293	-351
845.385	-711
845.476	-694
845.568	592
845.659	-660
845.751	569
845.842	-278
845.934	-1275
846.025	-893
846.116	-185
846.208	-460
846.299	-145
846.390	1124
846.482	247
846.573	-437
846.664	677
846.755	873
846.846	650
846.937	-1744
847.029	-683
847.120	-551
847.211	-443
847.302	-106
847.393	-1928
847.484	-126
847.575	452
847.666	22
847.757	-552
847.847	-577
847.938	148
848.029	-279
848.120	-690
848.211	-330
848.302	-865
848.392	-736
848.483	38
848.574	-995
848.664	-1256
848.755	-289
848.846	224
848.936	-96
849.027	-495
849.118	-770
849.208	-974
849.299	-522
849.389	-56
849.480	-274
849.570	623
849.661	919
849.751	2625
849.841	34
849.932	-19
850.022	-1152
850.112	-544
850.203	-1089
850.293	-1029
850.383	-725
850.474	-1323
850.564	-431
850.654	81
850.744	-354
850.834	-1142
850.924	-119
851.014	-317
851.104	-793
851.194	-823
851.284	-10
851.374	-213
851.464	-223
851.554	-308
851.644	288
851.734	1052
851.824	582
851.914	633
852.004	2632
852.094	653
852.183	-245
852.273	-338
852.363	-594
852.452	-1159
852.542	-737
852.632	-773
852.721	-776
852.811	-870
852.901	-75
852.990	-1254
853.080	-304
853.169	-647
853.259	-1088
853.348	-1189
853.438	-347
853.527	249
853.617	-432
853.706	224
853.795	-149
853.885	2726
853.974	5805
854.063	12350
854.152	18467
854.242	6681
854.331	-580
854.420	-863
854.509	20
854.598	-796
854.687	-274
854.777	-956
854.866	-445
854.955	-35
855.044	-1129
855.133	-1585
855.222	-755
855.311	-886
855.400	-671
855.488	-558
855.577	-572
855.666	-602
855.755	605
855.844	-427
855.933	52
856.021	160
856.110	-642
856.199	-1337
856.288	-1175
856.376	-1039
856.465	-1236
856.554	53
856.642	-902
856.731	-497
856.819	-670
856.908	-1352
856.996	-70
857.085	-947
857.173	-233
857.262	-518
857.350	-131
857.438	-1336
857.527	-483
857.615	-1102
857.703	-722
857.792	-446
857.880	-1565
857.968	-1170
858.056	-1414
858.145	-408
858.233	-1476
858.321	-802
858.409	62
858.497	-1989
858.585	-914
858.673	-304
858.761	-1322
858.849	-493
858.937	-1432
859.025	-342
859.113	170
859.201	-785
859.289	-109
859.377	-1296
859.465	-576
859.552	-1048
859.640	-567
859.728	-1354
859.816	-500
859.903	-537
859.991	-727
860.079	-486
860.166	-579
860.254	-331
860.342	-213
860.429	-568
860.517	-739
860.604	-85
860.692	-572
860.779	-468
860.867	-765
860.954	-771
861.042	-402
861.129	-530
861.216	-570
861.304	-1889
861.391	-628
861.478	-1236
861.565	-252
861.653	129
861.740	-1383
861.827	-643
861.914	-850
862.001	-621
862.089	-985
862.176	-809
862.263	-1414
862.350	-670
862.437	-739
862.524	-1167
862.611	-1767
862.698	-720
862.785	-483
862.871	-478
862.958	-1017
863.045	-1378
863.132	-664
863.219	-614
863.306	-1169
863.392	-1019
863.479	-1574
863.566	-44
863.652	-1050
863.739	-1004
863.826	-1316
863.912	-827
863.999	-971
864.086	-972
864.172	-836
864.259	-1020
864.345	-843
864.432	-596
864.518	-830
864.604	-472
864.691	-1387
864.777	-1368
864.863	-662
864.950	-546
865.036	-791
865.122	-762
865.209	-350
865.295	-1198
865.381	-1223
865.467	-1060
865.553	-1346
865.639	-1493
865.726	-1029
865.812	1082
865.898	2408
865.984	3363
866.070	7662
866.156	8356
866.242	372
866.328	-945
866.414	-1739
866.499	-990
866.585	-1106
866.671	-1257
866.757	-1209
866.843	-1204
866.928	-316
867.014	-737
867.100	-1271
867.186	-1722
867.271	-198
867.357	223
867.442	-501
867.528	-941
867.614	-898
867.699	-457
867.785	-338
867.870	-595
867.956	-647
868.041	-277
868.127	-1144
868.212	-504
868.297	-960
868.383	-411
868.468	494
868.553	61
868.639	638
868.724	2005
868.809	2050
868.894	-1111
868.979	-610
869.065	-243
869.150	-2312
869.235	-533
869.320	-1638
869.405	-1372
869.490	-1746
869.575	-777
869.660	-650
869.745	-1042
869.830	-977
869.915	-1252
870.000	-1016
870.085	-958
870.169	-1134
870.254	-178
870.339	-1477
870.424	-1318
870.509	-1488
870.593	-768
870.678	-1702
870.763	-1316
870.847	-478
870.932	-1124
871.016	-222
871.101	-1452
871.186	-870
871.270	-1555
871.355	-1772
871.439	-764
871.523	-1161
871.608	-417
871.692	-921
871.777	-723
871.861	-921
871.945	-1548
872.030	-955
872.114	-905
872.198	-840
872.282	-1291
872.367	-1387
872.451	-1556
872.535	-1381
872.619	-1353
872.703	-1431
872.787	-1035
872.871	-1559
872.955	-711
873.039	-1351
873.123	-1736
873.207	-1271
873.291	-1481
873.375	-1447
873.459	-424
873.543	-2066
873.627	-641
873.711	-931
873.794	-920
873.878	-1159
873.962	-1373
874.045	-1269
874.129	-965
874.137	-949
874.213	-796
874.245	-1047
874.296	-1449
874.352	-1481
874.380	-1499
874.460	-838
874.464	-813
874.547	-1449
874.568	-1153
874.631	-278
874.676	-539
874.714	-759
874.784	-1052
874.798	-1107
874.881	-3
874.892	-135
874.965	-1060
874.999	-993
875.048	-900
875.107	-1208
875.131	-1345
875.215	-373
875.215	-374
875.298	-1234
875.323	-1133
875.381	-870
875.430	-1020
875.465	-1111
875.538	-1039
875.548	-1041
875.631	-1288
875.646	-1311
875.714	-1383
875.753	-1173
875.798	-947
875.861	-855
875.881	-801
875.964	-865
875.968	-861
876.047	-978
876.076	-585
876.130	235
876.183	-295
876.213	-576
876.291	-395
876.296	-389
876.379	6
876.398	-172
876.462	-719
876.506	-864
876.545	-990
876.613	-481
876.628	-375
876.711	-913
876.721	-867
876.794	-461
876.828	-379
876.877	-322
876.935	-511
876.960	-529
877.043	-89
877.043	-90
877.125	-377
877.150	-269
877.208	100
877.258	215
877.291	295
877.365	31
877.374	-22
877.456	-18
877.472	-17
877.539	100
877.579	-89
877.622	-263
877.687	15
877.704	59
877.787	77
877.794	46
877.869	-62
877.901	-59
877.952	-223
878.008	-439
878.034	-506
878.115	-324
878.117	-313
878.199	-730
878.222	-511
878.282	-186
878.329	-609
878.364	-924
878.437	-532
878.447	-445
878.529	-602
878.544	-517
878.611	-232
878.651	-186
878.694	-99
878.758	244
878.776	334
878.858	92
878.865	95
878.941	-68
878.972	-111
879.023	7
879.078	-267
879.105	-356
879.185	51
879.187	55
879.269	-78
879.292	-129
879.351	67
879.399	42
879.433	-202
879.506	150
879.516	266
879.598	229
879.613	214
879.680	-284
879.720	-409
879.762	-473
879.827	-558
879.844	-484
879.926	-40
879.933	-37
880.007	-317
880.040	-256
880.089	-139
880.147	27
880.171	177
880.253	858
880.254	860
880.335	1752
880.360	1826
880.417	2370
880.467	3487
880.499	4143
880.574	5038
880.580	4987
880.662	1977
880.680	1545
880.744	530
880.787	267
880.825	265
880.893	263
880.907	268
880.989	12
881.000	42
881.070	120
881.106	-95
881.152	-188
881.213	-19
881.233	4
881.315	124
881.319	109
881.396	200
881.426	248
881.478	54
881.532	25
881.559	51
881.639	74
881.641	83
881.722	-122
881.745	16
881.803	546
881.852	565
881.885	283
881.958	-6
881.966	23
882.047	541
882.064	563
882.129	899
882.171	1111
882.210	1457
882.277	2394
882.291	2356
882.372	845
882.383	728
882.454	253
882.489	149
882.535	337
882.596	498
882.616	462
882.697	154
882.702	115
882.778	367
882.808	658
882.859	711
882.914	553
882.940	519
883.020	256
883.021	263
883.102	747
883.127	846
883.183	1040
883.233	988
883.264	865
883.339	411
883.345	399
883.426	364
883.445	442
883.507	663
883.551	676
883.587	734
883.657	802
883.668	842
883.749	967
883.763	995
883.830	810
883.869	551
883.910	464
883.975	732
883.991	848
884.072	1006
884.081	1058
884.152	730
884.187	424
884.233	488
884.292	662
884.314	691
884.394	446
884.398	441
884.475	687
884.504	764
884.555	609
884.610	448
884.636	549
884.716	717
884.716	726
884.797	1056
884.821	1104
884.877	1258
884.927	1122
884.958	976
885.033	1042
885.038	1051
885.118	1091
885.139	991
885.199	923
885.244	1176
885.279	1329
885.350	1235
885.359	1233
885.439	1050
885.456	1082
885.520	1216
885.561	1133
885.600	843
885.667	385
885.680	553
885.760	1643
885.773	1776
885.840	1398
885.878	1317
885.920	1405
885.984	1134
886.000	990
886.080	762
886.089	694
886.160	1243
886.195	1505
886.240	1439
886.300	1537
886.320	1540
886.400	1237
886.406	1223
886.480	958
886.511	809
886.560	1425
886.616	1856
886.640	1785
886.720	1951
886.722	1939
886.800	1693
886.827	1720
886.879	1792
886.932	1500
886.959	1653
887.038	2434
887.039	2432
887.119	1083
887.143	713
887.198	1275
887.248	1639
887.278	1507
887.354	1288
887.358	1333
887.437	2087
887.459	2227
887.517	1918
887.564	1787
887.596	1799
887.669	1514
887.676	1498
887.755	1407
887.774	1360
887.835	1903
887.880	2289
887.914	1991
887.985	1310
887.994	1341
888.073	1585
888.090	1601
888.153	1940
888.195	2228
888.232	2098
888.300	1798
888.311	1850
888.391	2093
888.405	2126
888.470	2064
888.510	2012
888.549	1978
888.615	1914
888.628	1968
888.708	2242
888.720	2258
888.787	2177
888.825	2154
888.866	2232
888.930	2298
888.945	2205
889.024	1703
889.035	1619
889.103	1544
889.140	1514
889.182	1850
889.245	2333
889.261	2369
889.340	2460
889.349	2463
889.419	2471
889.454	2458
889.498	2470
889.559	2464
889.577	2347
889.656	1793
889.664	1731
889.735	2238
889.768	2466
889.814	3001
889.873	3686
889.978	2963
890.083	3343
890.187	2966
890.292	2423
890.397	3038
890.501	2268
890.606	2332
890.710	2864
890.815	2640
890.919	3011
891.024	2562
891.128	2795
891.233	2150
891.337	2378
891.442	2878
891.546	1618
891.650	2516
891.755	2264
891.859	3363
891.963	1941
892.068	1746
892.172	2483
892.276	2192
892.380	2536
892.484	2329
892.589	1179
892.693	2756
892.797	2005
892.901	1170
893.005	2133
893.109	2021
893.213	1776
893.317	2775
893.421	2564
893.525	2542
893.629	1747
893.733	2282
893.837	2273
893.941	2287
894.045	2917
894.148	3928
894.252	6454
894.356	3393
894.460	1949
894.564	1558
894.667	1061
894.771	2343
894.875	1552
894.978	2389
895.082	1051
895.186	2132
895.289	1832
895.393	1809
895.496	1309
895.600	2429
895.703	1508
895.807	1569
895.910	2029
896.014	2591
896.117	1194
896.221	1937
896.324	2350
896.427	2208
896.531	724
896.634	1833
896.737	1920
896.840	1479
896.944	961
897.047	993
897.150	2191
897.253	1673
897.356	1939
897.460	1405
897.563	916
897.666	1741
897.769	1642
897.872	1570
897.975	1132
898.078	1653
898.181	1557
898.284	1090
898.387	2498
898.490	1699
898.593	1892
898.695	1447
898.798	1234
898.901	1254
899.004	1167
899.107	1822
899.209	1679
899.312	1222
899.415	1127
899.518	1333
899.620	1125
899.723	1259
899.826	2524
899.928	2335
900.031	1016
900.133	2075
900.236	1254
900.338	976
900.441	1818
900.543	2075
900.646	1406
900.748	1367
900.851	1847
900.953	1702
901.055	2382
901.158	1667
901.260	1351
901.362	1195
901.465	1504
901.567	1112
901.669	1518
901.771	1719
901.873	1162
901.976	939
902.078	1436
902.180	1117
902.282	1072
902.384	2418
902.486	1900
902.588	1707
902.690	1970
902.792	2348
902.894	1319
902.996	1712
903.098	1633
903.200	1877
903.302	1274
903.404	1885
903.505	1496
903.607	1142
903.709	1644
903.811	1324
903.913	1204
904.014	1658
904.116	655
904.218	1434
904.319	1980
904.421	2750
904.523	1774
904.624	2269
904.726	2028
904.827	1862
904.929	1297
905.030	1987
905.132	1769
905.233	1621
905.335	1252
905.436	1037
905.537	2217
905.639	1715
905.740	1870
905.841	1875
905.943	1876
906.044	1135
906.145	1919
906.247	1355
906.348	1166
906.449	1281
906.550	967
906.651	1446
906.752	1371
906.854	1822
906.955	747
907.056	1483
907.157	1181
907.258	1932
907.359	1368
907.460	2233
907.561	1658
907.662	1971
907.762	1379
907.863	2068
907.964	832
908.065	2667
908.166	1944
908.267	1388
908.367	603
908.468	1754
908.569	1008
908.670	2053
908.770	2317
908.871	2281
908.971	1701
909.072	1446
909.173	1280
909.273	2193
909.374	1068
909.474	1632
909.575	1438
909.675	1137
909.776	1779
909.876	1228
909.977	2309
910.077	2325
910.177	1840
910.278	2255
910.378	1135
910.478	1231
910.579	1855
910.679	2263
910.779	1847
910.879	2441
910.980	1284
911.080	1214
911.180	797
911.280	2052
911.380	1428
911.480	1337
911.580	1403
911.680	1519
911.780	1826
911.880	1800
911.980	762
912.080	1489
912.180	1931
912.280	1757
912.380	1603
912.480	985
912.580	2011
912.679	2016
912.779	2075
912.879	1901
912.979	1687
913.078	1423
913.178	1846
913.278	1238
913.377	1677
913.477	1499
913.577	1709
913.676	2091
913.776	1354
913.875	2218
913.975	1678
914.074	1540
914.174	1446
914.273	1392
914.373	2200
914.472	1304
914.572	1521
914.671	1507
914.770	2207
914.870	1122
914.969	1311
915.068	1649
915.167	2022
915.267	1853
915.366	692
915.465	1078
915.564	1327
915.663	1600
915.763	1282
915.862	2099
915.961	1260
916.060	1480
916.159	940
916.258	921
916.357	1381
916.456	2327
916.555	1659
916.654	1391
916.752	948
916.851	1814
916.950	1504
917.049	1960
917.148	1195
917.247	1329
917.345	907
917.444	1999
917.543	1098
917.642	1085
917.740	1309
917.839	1781
917.937	1547
918.036	1687
918.135	787
918.233	671
918.332	1630
918.430	1958
918.529	1116
918.627	1026
918.726	859
918.824	1749
918.923	994
919.021	1738
919.119	1224
919.218	1631
919.316	1096
919.414	1610
919.512	1590
919.611	1243
919.709	1348
919.807	1201
919.905	1323
920.003	1132
920.102	1319
920.200	1175
920.298	1265
920.396	2333
920.494	1732
920.592	1364
920.690	1272
920.788	1289
920.886	1046
920.984	2234
921.082	935
921.180	2790
921.277	1248
921.375	2022
921.473	645
921.571	1941
921.669	2214
921.766	1380
921.864	1397
921.962	1898
922.060	1577
922.157	2079
922.255	1473
922.352	529
922.450	1344
922.548	1325
922.645	1132
922.743	1258
922.840	2020
922.938	1704
923.035	2447
923.133	2405
923.230	1805
923.327	2297
923.425	2539
923.522	2006
923.619	1564
923.717	1564
923.814	2427
923.911	2126
924.008	2465
924.106	1263
924.203	2400
924.300	1719
924.397	1166
924.494	2571
924.591	1906
924.688	2439
924.786	1210
924.883	2387
924.979	1516
925.077	1783
925.173	2204
925.270	1404
925.367	1226
925.464	2369
925.561	2155
925.658	2968
925.755	2384
925.852	2358
925.948	1808
926.045	1939
926.142	2582
926.239	2169
926.335	2339
926.432	2255
926.529	2098
926.625	1594
926.722	2042
926.818	2364
926.915	862
927.011	2016
927.108	1550
927.204	1818
927.301	1084
927.397	2235
927.494	976
927.590	1162
927.687	1706
927.783	1511
927.879	1696
927.976	2124
928.072	2035
928.168	1148
928.264	783
928.361	2218
928.457	1721
928.553	1944
928.649	2346
928.745	1474
928.841	1308
928.937	2209
929.033	877
929.129	2297
929.225	1599
929.321	849
929.417	397
929.513	1710
929.609	1075
929.705	1209
929.801	1086
929.897	876
929.993	1767
930.089	1485
930.184	293
930.280	2475
930.376	1870
930.471	1240
930.567	838
930.663	1454
930.758	515
930.854	1758
930.950	683
931.045	1668
931.141	1198
931.236	1200
931.332	1173
931.427	1499
931.523	2145
931.618	1390
931.714	589
931.809	1699
931.905	2789
932.000	1332
932.095	1367
932.191	1890
932.286	1044
932.381	747
932.476	1090
932.572	1632
932.667	1462
932.762	1459
932.857	1330
932.952	1443
933.047	1624
933.142	958
933.237	1597
933.332	1256
933.427	1522
933.522	1446
933.617	1130
933.712	1550
933.807	1725
933.902	1251
933.997	1472
934.092	1314
934.187	1313
934.282	1866
934.376	755
934.471	857
934.566	1327
934.661	1529
934.755	1426
934.850	842
934.945	1579
935.039	1208
935.134	1308
935.228	995
935.323	1115
935.417	1771
935.512	1693
935.606	1670
935.701	1225
935.795	2371
935.890	1540
935.984	1800
936.079	1043
936.173	1300
936.267	629
936.362	519
936.456	1286
936.550	2083
936.644	1494
936.738	1453
936.833	1640
936.927	2134
937.021	1317
937.115	1463
937.209	957
937.303	2153
937.397	962
937.491	916
937.585	1891
937.679	1152
937.773	785
937.867	1509
937.961	1029
938.055	840
938.149	1229
938.243	1459
938.337	1970
938.430	1245
938.524	1945
938.618	2433
938.712	2166
938.805	1290
938.899	1562
938.993	1231
939.086	965
939.180	1740
939.274	2432
939.367	1059
939.461	1156
939.554	550
939.648	1023
939.741	1089
939.835	860
939.928	1393
940.022	1418
940.115	694
940.208	1487
940.302	1913
940.395	1669
940.488	899
940.582	1903
940.675	88
940.768	990
940.861	738
940.954	1266
941.048	996
941.141	1216
941.234	1327
941.327	1754
941.420	2025
941.513	283
941.606	1063
941.699	2143
941.792	-22
941.885	987
941.978	1235
942.071	478
942.164	389
942.257	1197
942.349	2514
942.442	956
942.535	377
942.628	1427
942.721	1312
942.813	366
942.906	2008
942.999	173
943.091	803
943.184	1435
943.277	814
943.369	1453
943.462	652
943.554	1693
943.647	-334
943.739	1299
943.832	746
943.924	21
944.017	1623
944.109	287
944.201	1311
944.294	1311
944.386	1379
944.478	158
944.571	1917
944.663	924
944.755	1539
944.847	40
944.940	1772
945.032	410
945.124	300
945.216	1650
945.308	1326
945.400	521
945.492	182
945.584	880
945.676	1040
945.768	938
945.860	1446
945.952	588
946.044	1393
946.136	768
946.228	1109
946.320	231
946.412	1521
946.503	874
946.595	1783
946.687	852
946.779	674
946.870	372
946.962	347
947.054	814
947.145	1615
947.237	139
947.329	1875
947.420	894
947.512	1317
947.603	935
947.695	688
947.786	195
947.878	769
947.969	665
948.061	62
948.152	445
948.243	1166
948.335	1317
948.426	248
948.517	1058
948.609	985
948.700	1098
948.791	337
948.882	1456
948.973	-34
949.065	871
949.156	658
949.247	349
949.338	802
949.429	816
949.520	1443
949.611	573
949.702	1531
949.793	641
949.884	725
949.975	606
950.066	490
950.157	1361
950.247	2140
950.338	2
950.429	828
950.520	959
950.611	525
950.701	719
950.792	364
950.883	732
950.973	719
951.064	953
951.155	993
951.245	396
951.336	1238
951.427	795
951.517	1649
951.608	682
951.698	928
951.788	623
951.879	-59
951.969	286
952.060	1238
952.150	815
952.240	1321
952.331	-1317
952.421	1694
952.511	540
952.602	858
952.692	528
952.782	926
952.872	814
952.962	685
953.052	794
953.143	642
953.233	1276
953.323	1880
953.413	627
953.503	748
953.593	541
953.683	590
953.773	341
953.863	910
953.953	367
954.042	1392
954.132	-11
954.222	1148
954.312	718
954.402	1554
954.492	1372
954.581	2190
954.671	191
954.761	-33
954.850	1789
954.940	418
955.030	443
955.119	799
955.209	800
955.298	709
955.388	894
955.477	1989
955.567	640
955.656	1400
955.746	858
955.835	1438
955.925	680
956.014	1418
956.103	1024
956.193	1474
956.282	589
956.371	1712
956.461	1257
956.550	681
956.639	1022
956.728	648
956.817	1216
956.906	1040
956.995	1837
957.085	1173
957.174	2157
957.263	1285
957.352	1438
957.441	1896
957.530	1370
957.619	2105
957.708	1484
957.796	1659
957.885	761
957.974	1719
958.063	1537
958.152	761
958.241	2072
958.329	1593
958.418	1338
958.507	1787
958.596	2659
958.684	1374
958.773	2738
958.861	2547
958.950	2948
959.039	2684
959.127	1862
959.216	3131
959.304	2088
959.393	1982
959.481	2064
959.570	2878
959.658	2261
959.746	2626
959.835	3607
959.923	2872
960.011	1933
960.100	2097
960.188	2884
960.276	2279
960.365	1886
960.453	1770
960.541	783
960.629	2351
960.717	1822
960.805	1363
960.893	803
960.981	637
961.069	1814
961.158	1084
961.245	1919
961.333	1943
961.421	70
961.509	1161
961.597	1204
961.685	387
961.773	762
961.861	1036
961.949	144
962.036	965
962.124	1271
962.212	993
962.299	1304
962.387	-133
962.475	695
962.562	216
962.650	1057
962.738	1437
962.825	391
962.913	860
963.000	484
963.088	768
963.175	611
963.263	818
963.350	1047
963.438	1065
963.525	842
963.612	1784
963.700	4502
963.787	7969
963.874	2652
963.962	1078
964.049	358
964.136	1164
964.223	-336
964.310	863
964.398	159
964.485	553
964.572	585
964.659	1603
964.746	912
964.833	560
964.920	476
965.007	1136
965.094	488
965.181	441
965.268	624
965.355	167
965.441	95
965.528	-936
965.615	50
965.702	466
965.789	-25
965.875	1047
965.962	-242
966.049	-343
966.136	193
966.222	-302
966.309	626
966.395	-396
966.482	575
966.569	-87
966.655	-242
966.742	-90
966.828	162
966.915	-37
967.001	-237
967.087	-348
967.174	683
967.260	960
967.347	727
967.433	3187
967.519	4828
967.605	1666
967.692	282
967.778	246
967.864	-387
967.950	65
968.036	-1005
968.123	217
968.209	-186
968.295	-640
968.381	314
968.467	356
968.553	-795
968.639	930
968.725	-84
968.811	1906
968.897	866
968.983	279
969.069	-559
969.154	92
969.240	-136
969.326	-815
969.412	469
969.497	102
969.583	-1114
969.669	837
969.755	-862
969.840	-892
969.926	600
970.012	-145
970.097	80
970.183	-88
970.268	-134
970.354	999
970.439	782
970.525	3447
970.610	-371
970.696	-66
970.781	-239
970.866	-1108
970.952	-122
971.037	-377
971.122	-426
971.208	187
971.293	-352
971.378	-1041
971.463	-168
971.549	-531
971.634	-951
971.719	-313
971.804	-596
971.889	-166
971.974	-253
972.059	-19
972.144	-216
972.229	-32
972.314	-377
972.399	582
972.484	-961
972.569	133
972.654	271
972.739	1640
972.824	1153
972.908	-459
972.993	-559
973.078	-74
973.163	-264
973.247	268
973.332	-1750
973.417	354
973.501	-219
973.586	-64
973.671	-690
973.755	32
973.840	167
973.924	276
974.009	-287
974.093	-668
974.178	389
974.262	1417
974.346	-378
974.431	459
974.515	-388
974.600	-574
974.684	-33
974.768	-115
974.852	-350
974.937	-914
975.021	90
975.105	-798
975.189	-1165
975.273	-559
975.358	-328
975.442	-1033
975.526	489
975.610	-1290
975.694	-472
975.778	147
975.862	-792
975.946	-2286
976.030	1254
976.114	-177
976.198	-703
976.281	-223
976.365	60
976.449	7
976.533	61
976.617	-974
976.700	-1243
976.784	-202
976.868	-106
976.951	589
977.035	-976
977.119	-478
977.202	-459
977.286	-163
977.369	233
977.453	205
977.536	-800
977.620	-55
977.703	-131
977.787	-747
977.870	-648
977.953	-182
978.037	-1248
978.120	1056
978.203	80
978.287	1399
978.370	-617
978.453	147
978.536	-151
978.620	926
978.703	325
978.786	-267
978.869	-1141
978.952	-929
979.035	-9
979.118	-216
979.201	-1390
979.284	923
979.367	-906
979.450	739
979.533	-655
979.616	-548
979.699	-240
979.782	-214
979.865	-472
979.948	-203
980.030	-67
980.113	-92
980.196	-1038
980.279	72
980.361	-997
980.444	-1030
980.526	179
980.609	-383
980.692	-440
980.774	63
980.857	-993
980.939	-404
981.022	-678
981.104	-613
981.187	-727
981.269	-774
981.352	-23
981.434	-855
981.516	-686
981.599	266
981.681	-127
981.763	720
981.846	-328
981.928	-561
982.010	-284
982.092	-564
982.174	-272
982.256	-1497
982.339	-408
982.421	-1005
982.503	-503
982.585	-1531
982.667	-837
982.749	781
982.831	-400
982.913	-865
982.995	138
983.077	-745
983.158	35
983.240	-1157
983.322	-313
983.404	-440
983.486	-1263
983.568	-5
983.649	-417
983.731	-45
983.813	-507
983.894	-643
983.976	-2092
984.058	-242
984.139	-453
984.221	-1052
984.302	-523
984.384	-70
984.465	-1111
984.547	-555
984.628	-1278
984.710	-663
984.791	-610
984.872	-632
984.954	-371
985.035	-804
985.116	-511
985.198	-360
985.279	537
985.360	-873
985.441	-1328
985.522	-133
985.604	-719
985.685	-1875
985.766	-36
985.847	1156
985.928	-1245
986.009	191
986.090	-132
986.171	616
986.252	-798
986.333	-749
986.414	-1179
986.495	-853
986.576	-788
986.656	-175
986.737	-405
986.818	-115
986.899	-1008
986.980	-1278
987.060	-800
987.141	-765
987.222	-621
987.302	-987
987.383	261
987.464	-494
987.544	-280
987.625	-670
987.705	-483
987.786	-200
987.866	-683
987.947	-594
988.027	-538
988.108	-958
988.188	404
988.268	-1010
988.349	-294
988.429	-481
988.509	-981
988.589	-1362
988.670	-1726
988.750	560
988.830	-552
988.910	296
988.990	-860
989.070	-1222
989.151	-953
989.231	-1246
989.311	-36
989.391	-966
989.471	-1536
989.551	-811
989.631	-764
989.711	-488
989.791	-1223
989.870	-398
989.950	271
990.030	-677
990.110	-485
990.190	-916
990.269	-840
990.349	-521
990.429	-606
990.509	-270
990.588	-1327
990.668	-741
990.747	-487
990.827	-1041
990.907	-400
990.986	-1369
991.066	-559
991.145	-716
991.225	-597
991.304	-318
991.383	-981
991.463	-761
991.542	-301
991.622	-1037
991.701	-704
991.780	-679
991.859	-1252
991.939	-688
992.018	-1290
992.097	-69
992.176	-975
992.256	-647
992.335	-907
992.414	168
992.493	-704
992.572	-425
992.651	-10
992.730	-1935
992.809	-1515
992.888	-1271
992.967	-569
993.046	-62
993.125	-1616
993.203	-1069
993.282	-1280
993.361	-1063
993.440	-1170
993.519	-1863
993.597	-1254
993.676	-773
993.755	-1000
993.834	-1146
993.912	-1248
993.991	948
994.069	-1427
994.148	-846
994.226	-1260
994.305	-895
994.384	-1791
994.462	-652
994.540	-1519
994.619	-578
994.697	-99
994.776	-1474
994.854	-506
994.932	-1513
995.011	-797
995.089	-1494
995.167	-798
995.245	-854
995.324	-1960
995.402	132
995.480	-1198
995.558	-125
995.636	-2256
995.714	-1243
995.792	-10
995.870	-605
995.948	-1417
996.026	-987
996.104	-1914
996.182	195
996.260	-1839
996.338	-860
996.416	-1878
996.494	-1452
996.572	-329
996.649	-651
996.727	-1916
996.805	-1665
996.883	-1922
996.960	-1454
997.038	-1333
997.116	-1231
997.193	-1139
997.271	-1488
997.348	-1603
997.426	-764
997.504	-1402
997.581	-472
997.658	-567
997.736	-1422
997.813	-1916
997.891	-1011
997.968	-947
998.046	-713
998.123	-1330
998.200	-382
998.277	-2790
998.355	-1286
998.432	-1579
998.509	-401
998.586	-438
998.663	-1017
998.741	-1195
998.818	-1574
998.895	-1418
998.972	-694
999.049	-1139
999.126	-1302
999.203	-367
999.280	-1860
999.357	-866
999.434	-1301
999.511	-2109
999.587	-341
999.664	-1432
999.741	-324
999.818	-1144
999.895	-1432
999.971	-1338
1000.048	-2141
1000.125	-690
1000.202	-1708
1000.278	-1515
1000.355	-1141
1000.431	-1523
1000.508	-1603
1000.584	-1510
1000.661	-976
1000.738	-1980
1000.814	-1673
1000.890	-1298
1000.967	-1472
1001.043	-687
1001.120	-2179
1001.196	-1530
1001.272	-1148
1001.349	-928
1001.425	-606
1001.501	-1066
1001.577	-1413
1001.654	-1427
1001.730	-1666
1001.806	-2047
1001.882	-1291
1001.958	-1119
1002.034	-544
1002.110	-2188
1002.186	-1623
1002.262	-2234
1002.338	-1720
1002.414	-920
1002.490	-1428
1002.566	-2283
1002.642	-1663
1002.718	-919
1002.794	-1200
1002.870	-1675
1002.945	-1320
1003.021	-1052
1003.097	-1053
1003.173	-639
1003.248	-1020
1003.324	-1706
1003.400	-809
1003.475	-1185
1003.551	-1091
1003.626	-1522
1003.702	-1032
1003.777	-1624
1003.853	-1851
1003.928	-1383
1004.004	-1961
1004.079	-1112
1004.155	-661
1004.230	-2818
1004.305	-206
1004.381	-2438
1004.456	-1674
1004.531	-1583
1004.607	-2062
1004.682	-1263
1004.757	-1813
1004.832	-1552
1004.907	-1829
1004.982	-1400
1005.057	-1475
1005.133	-1772
1005.208	-2086
1005.283	-1952
1005.358	-794
1005.433	-1452
1005.508	-932
1005.583	-2098
1005.657	-1558
1005.732	-1238
1005.807	-1497
1005.882	-1100
1005.957	-1673
1006.032	-930
1006.106	-975
1006.181	-852
1006.256	-969
1006.331	-2016
1006.405	-1175
1006.480	-1339
1006.554	-1103
1006.629	-1406
1006.704	-2128
1006.778	-1550
1006.853	-1749
1006.927	-1702
1007.002	-2241
1007.076	-2287
1007.150	-1735
1007.225	-1557
1007.299	-2005
1007.373	-2523
1007.448	-916
1007.522	-789
1007.596	-986
1007.671	-2046
1007.745	-1050
1007.819	-1832
1007.893	-1864
1007.967	-1656
1008.041	-2616
1008.115	-1793
1008.190	-2080
1008.264	-1120
1008.338	-2036
1008.412	-1540
1008.486	-1562
1008.560	-1397
1008.633	-2042
1008.707	-1347
1008.781	-314
1008.855	-2069
1008.929	-1337
1009.003	-1893
1009.076	-1858
1009.150	-2185
1009.224	-1572
1009.298	-1685
1009.371	-2440
1009.445	-1087
1009.519	-1441
1009.592	-1925
1009.666	-1397
1009.739	-1606
1009.813	-2161
1009.886	-829
1009.960	-2322
1010.033	-1129
1010.107	-1123
1010.180	-2112
1010.253	-1503
1010.327	-1508
1010.400	-2130
1010.473	-1872
1010.547	-705
1010.620	-1452
1010.693	-948
1010.766	-2263
1010.840	-858
1010.913	-2362
1010.986	-2596
1011.059	-2432
1011.132	-1215
1011.205	-594
1011.278	-1447
1011.351	-1768
1011.424	-1143
1011.497	-1711
1011.570	-1763
1011.643	-2059
1011.716	-985
1011.789	-1291
1011.862	-921
1011.934	-1306
1012.007	-2189
1012.080	-1200
1012.153	-1226
1012.225	-1327
1012.298	-1671
1012.371	-1963
1012.443	-947
1012.516	-2267
1012.588	-1530
1012.661	-1095
1012.733	-1666
1012.806	-1485
1012.879	-1892
1012.951	-1402
1013.023	-1920
1013.096	-1323
1013.168	-2022
1013.241	-173
1013.313	-1315
1013.385	-1963
1013.458	-941
1013.530	-374
1013.602	-1671
1013.674	-1192
1013.746	-1907
1013.819	-1587
1013.891	-1612
1013.963	-1884
1014.035	-815
1014.107	-1201
1014.179	-1694
1014.251	-2493
1014.323	-894
1014.395	-1740
1014.467	-1140
1014.539	-1519
1014.611	-1732
1014.683	-1292
1014.754	-1369
1014.826	-1836
1014.898	-1303
1014.970	-2108
1015.042	-933
1015.113	-1234
1015.185	-1239
1015.257	-2388
1015.328	-666
1015.400	-1853
1015.471	-1569
1015.543	-2492
1015.615	-947
1015.686	-1810
1015.757	-1231
1015.829	-1241
1015.901	-1386
1015.972	-1767
1016.043	-1096
1016.115	-920
1016.186	-1701
1016.257	-2141
1016.328	-721
1016.400	-1183
1016.471	-1750
1016.542	-2534
1016.613	-1028
1016.685	-1194
1016.756	-1214
1016.827	-1688
1016.898	-1805
1016.969	-1055
1017.040	-660
1017.111	-1729
1017.182	-1603
1017.253	-2010
1017.324	-1104
1017.395	-2161
1017.466	-745
1017.537	-2153
1017.608	-1214
1017.678	-1285
1017.749	-1563
1017.820	-1696
1017.891	-1778
1017.961	-1675
1018.032	-1468
1018.103	-1936
1018.173	-688
1018.244	-2295
1018.315	-1497
1018.385	-1011
1018.456	-1276
1018.526	-2160
1018.597	-1357
1018.667	-1223
1018.738	-1869
1018.808	-1973
1018.878	-1696
1018.949	-773
1019.019	-1664
1019.089	-2322
1019.160	-286
1019.230	-1269
1019.300	-995
1019.371	-2255
1019.441	-1282
1019.511	-563
1019.581	-1737
1019.651	-1319
1019.721	-1538
1019.791	-1762
1019.861	-1354
1019.931	-1564
1020.001	-976
1020.071	-1404
1020.141	-1397
1020.211	-1082
1020.281	-1916
1020.351	-2439
1020.421	-1436
1020.491	-673
1020.560	-1048
1020.630	-1759
1020.700	-994
1020.770	-1514
1020.839	-1272
1020.909	-1920
1020.979	-1726
1021.048	-1719
1021.118	-1003
1021.187	-1134
1021.257	-1672
1021.326	-938
1021.396	-1548
1021.465	-627
1021.535	-1609
1021.604	-2515
1021.674	-1404
1021.743	-1363
1021.812	-857
1021.882	-2221
1021.951	-1955
1022.020	-1870
1022.089	-658
1022.159	-2468
1022.228	-1230
1022.297	-1585
1022.366	-812
1022.435	-1189
1022.504	-927
1022.573	-1754
1022.642	-766
1022.711	-1825
1022.781	-710
1022.849	-1526
1022.918	-2147
1022.987	-2158
1023.056	-1672
1023.125	-1410
1023.194	-1232
1023.263	-1259
1023.331	-1465
1023.400	-994
1023.469	-1281
1023.538	-1384
1023.606	-1830
1023.675	-1972
1023.744	-755
1023.812	-1712
1023.881	-1711
1023.949	-2164
1024.018	-1171
1024.086	-1861
1024.155	-778
1024.223	-2023
1024.292	-971
1024.360	-1443
1024.429	-1977
1024.497	-1419
1024.565	-1725
1024.634	-1992
1024.702	-593
1024.770	-1944
1024.838	-1384
1024.907	-1193
1024.975	-1771
1025.043	-1362
1025.111	-2173
1025.179	-1382
1025.247	-1766
1025.315	-1431
1025.383	-1622
1025.451	-1858
1025.519	-1892
1025.587	-2235
1025.655	-471
1025.723	-2001
1025.791	-1399
1025.859	-1154
1025.927	-935
1025.995	-1603
1026.062	-1399
1026.130	-1526
1026.198	-1291
1026.266	-2108
1026.333	-1029
1026.401	-1623
1026.469	-2124
1026.536	-1819
1026.604	-1505
1026.671	-1364
1026.739	-1339
1026.806	-1467
1026.874	-1955
1026.941	-1347
1027.009	-966
1027.076	-1904
1027.144	-844
1027.211	-2532
1027.278	-1635
1027.345	-1450
1027.413	-1213
1027.480	-2445
1027.547	-880
1027.614	-2062
1027.682	-1165
1027.749	-1752
1027.816	-1230
1027.883	-1919
1027.950	-787
1028.017	-2193
1028.084	-1259
1028.151	-1973
1028.218	-1687
1028.285	-1673
1028.352	-1464
1028.419	-1535
1028.486	-1964
1028.553	-1322
1028.619	-2018
1028.686	-2299
1028.753	-1874
1028.820	-1319
1028.886	-1818
1028.953	-1597
1029.020	-1593
1029.086	-2002
1029.153	-1349
1029.220	-2265
1029.286	-905
1029.353	-1633
1029.419	-748
1029.486	-1714
1029.552	-1631
1029.619	-1479
1029.685	-1685
1029.751	-2265
1029.818	-520
1029.884	-1391
1029.951	-132
1030.017	-1711
1030.083	-1376
1030.149	-1624
1030.216	-1461
1030.282	-1276
1030.348	-1326
1030.414	-1570
1030.480	-1419
1030.546	-2419
1030.612	-1843
1030.678	-1961
1030.744	-1626
1030.810	-2393
1030.876	-1352
1030.942	-1378
1031.008	-959
1031.074	-1960
1031.140	-1494
1031.206	-755
1031.272	-2038
1031.337	-1399
1031.403	-988
1031.469	-2224
1031.534	-1656
1031.600	-1807
1031.666	-1687
1031.731	-1587
1031.797	-989
1031.863	-2906
1031.928	-2036
1031.994	-1860
1032.059	-1362
1032.125	-2155
1032.190	-1574
1032.256	-2563
1032.321	-1852
1032.386	-1247
1032.452	-1539
1032.517	-1179
1032.582	-955
1032.647	-389
1032.713	-2145
1032.778	-1360
1032.843	-1524
1032.908	-2269
1032.974	-1746
1033.039	-1768
1033.104	-2042
1033.169	-2378
1033.234	-1529
1033.299	-1800
1033.364	-1742
1033.429	-1876
1033.494	-1987
1033.559	-2502
1033.624	-2083
1033.688	-2072
1033.753	-1310
1033.818	-1586
1033.883	-1547
1033.948	-1426
1034.013	-1493
1034.077	-2221
1034.142	-1343
1034.207	-1748
1034.271	-1514
1034.336	-883
1034.400	-891
1034.465	-2069
1034.530	-1604
1034.594	-2153
1034.658	-1128
1034.723	-1917
1034.787	-2089
1034.852	-2076
1034.916	-2480
1034.981	-1829
1035.045	-1708
1035.109	-2422
1035.173	-2377
1035.238	-2634
1035.302	-496
1035.366	-1287
1035.430	-1864
1035.495	-1993
1035.559	-1816
1035.623	-1844
1035.687	-1648
1035.751	-1847
1035.815	-1476
1035.879	-1976
1035.943	-1564
1036.007	-2249
1036.071	-2148
1036.135	-2802
1036.198	-1671
1036.262	-2501
1036.326	-1876
1036.390	-1299
1036.454	-2129
1036.517	-1493
1036.581	-1897
1036.645	-2145
1036.709	-2453
1036.772	-2199
1036.836	-1963
1036.900	-1400
1036.963	-2440
1037.026	-1921
1037.090	-2134
1037.154	-2320
1037.217	-1877
1037.280	-2679
1037.344	-1984
1037.407	-2216
1037.471	-2031
1037.534	-2231
1037.597	-2017
1037.661	-1320
1037.724	-1819
1037.787	-2115
1037.850	-1877
1037.913	-2334
1037.977	-1475
1038.040	-2189
1038.103	-1919
1038.166	-2203
1038.229	-2247
1038.292	-2660
1038.355	-1716
1038.418	-2533
1038.481	-1579
1038.544	-1995
1038.607	-1547
1038.670	-2360
1038.732	-1967
1038.795	-2372
1038.858	-2417
1038.921	-2380
1038.984	-2146
1039.046	-1684
1039.109	-1371
1039.172	-1847
1039.234	-1360
1039.297	-2490
1039.360	-2065
1039.422	-2809
1039.485	-1864
1039.547	-1793
1039.610	-1485
1039.672	-2460
1039.734	-1852
1039.797	-2917
1039.859	-2360
1039.922	-2384
1039.984	-2141
1040.046	-2136
1040.109	-2735
1040.171	-2284
1040.233	-2146
1040.295	-2544
1040.358	-1893
1040.420	-2932
1040.482	-1462
1040.544	-2708
1040.606	-2265
1040.668	-2782
1040.730	-1483
1040.792	-2212
1040.854	-1867
1040.916	-2439
1040.978	-1823
1041.040	-2113
1041.102	-1856
1041.164	-2335
1041.225	-2707
1041.287	-2335
1041.349	-1797
1041.411	-1773
1041.472	-1944
1041.534	-2644
1041.596	-2175
1041.657	-1936
1041.719	-1444
1041.781	-2705
1041.842	-2165
1041.904	-1958
1041.965	-2172
1042.027	-2793
1042.088	-1112
1042.150	-2912
1042.211	-2510
1042.272	-2481
1042.334	-2500
1042.395	-2387
1042.456	-1690
1042.518	-2099
1042.579	-1913
1042.640	-2670
1042.701	-1787
1042.763	-2541
1042.824	-2482
1042.885	-2028
1042.946	-1889
1043.007	-2687
1043.068	-2527
1043.129	-3007
1043.190	-1466
1043.251	-2211
1043.312	-2646
1043.373	-1745
1043.434	-2057
1043.495	-1431
1043.556	-2236
1043.616	-1912
1043.677	-2081
1043.738	-2796
1043.799	-1838
1043.859	-2154
1043.920	-2229
1043.981	-2455
1044.041	-1843
1044.102	-1107
1044.162	-1189
1044.223	-2214
1044.284	-2299
1044.344	-1726
1044.405	-1814
1044.465	-2367
1044.525	-2492
1044.586	-2049
1044.646	-2014
1044.707	-1906
1044.767	-1389
1044.827	-2340
1044.887	-2014
1044.948	-2478
1045.008	-2149
1045.068	-2655
1045.128	-1083
1045.188	-2940
1045.249	-2272
1045.309	-2148
1045.369	-1242
1045.429	-1651
1045.489	-1379
1045.549	-2320
1045.609	-2037
1045.669	-1910
1045.729	-1485
1045.789	-1983
1045.848	-2115
1045.908	-2304
1045.968	-608
1046.028	-1795
1046.088	-1603
1046.147	-1627
1046.207	-1721
1046.267	-1800
1046.326	-1416
1046.386	-2272
1046.446	-1192
1046.505	-2400
1046.565	-328
1046.624	-804
1046.684	-1289
1046.743	-1010
1046.803	-682
1046.862	-465
1046.922	0
