'Start Wavelength	183.907
'End Wavelength	1046.922
'Gate Delay	5.000
'Gate Width (ms)	1.050
'Laser Output Level	0.000
'X Position	0.000
'Y Position	0.000
'Z Position	0.000
'Grid Point Number	1.000
'Shot Number	100.000
183.907	713.000
183.977	328.000
184.047	-176
184.116	91
184.186	-38
184.256	189
184.325	-503
184.395	-760
184.465	938
184.534	-123
184.604	-777
184.674	-531
184.743	-421
184.813	165
184.883	-634
184.952	321
185.022	6
185.092	98
185.161	-227
185.231	-532
185.301	-535
185.370	435
185.440	-423
185.509	-721
185.579	-4
185.649	-249
185.718	-577
185.788	-10
185.857	-789
185.927	-217
185.996	-510
186.066	-491
186.136	-400
186.205	-396
186.275	-535
186.344	127
186.414	-634
186.483	-367
186.553	708
186.622	381
186.692	353
186.761	-519
186.831	86
186.900	-629
186.970	440
187.039	297
187.109	242
187.178	163
187.248	537
187.317	-241
187.387	-463
187.456	313
187.526	-495
187.595	-371
187.664	190
187.734	-97
187.803	-101
187.873	-238
187.942	-529
188.012	85
188.081	-76
188.150	288
188.220	135
188.289	-380
188.358	-132
188.428	9
188.497	-378
188.567	620
188.636	-488
188.705	-160
188.775	-505
188.844	-298
188.913	247
188.983	295
189.052	149
189.121	-191
189.191	-432
189.260	3
189.329	-133
189.399	123
189.468	-491
189.537	-227
189.606	-355
189.676	988
189.745	609
189.814	65
189.883	-223
189.953	385
190.022	-697
190.091	283
190.161	-448
190.230	-23
190.299	-98
190.368	261
190.437	-332
190.507	-199
190.576	-434
190.645	-101
190.714	-448
190.783	-705
190.853	253
190.922	-476
190.991	-169
191.060	-139
191.129	-931
191.198	-182
191.268	-299
191.337	-715
191.406	350
191.475	-231
191.544	-773
191.613	351
191.682	-86
191.752	351
191.821	212
191.890	154
191.959	430
192.028	-24
192.097	326
192.166	60
192.235	-196
192.304	398
192.373	347
192.442	133
192.511	-461
192.580	7
192.650	146
192.719	-152
192.788	-421
192.857	123
192.926	-243
192.995	-251
193.064	-257
193.133	564
193.202	-104
193.271	419
193.340	20
193.409	675
193.478	896
193.547	641
193.615	759
193.684	869
193.753	-63
193.822	241
193.891	286
193.960	272
194.029	52
194.098	647
194.167	-2
194.236	498
194.305	25
194.374	-538
194.443	-746
194.512	511
194.580	-547
194.649	298
194.718	38
194.787	-1
194.856	-631
194.925	648
194.994	-182
195.062	162
195.131	-501
195.200	492
195.269	-119
195.338	-159
195.407	-130
195.475	-276
195.544	332
195.613	-252
195.682	97
195.751	121
195.819	-273
195.888	505
195.957	61
196.026	-171
196.094	144
196.163	-79
196.232	-110
196.301	37
196.369	-98
196.438	-153
196.507	-110
196.576	-126
196.644	524
196.713	391
196.782	-298
196.850	333
196.919	-605
196.988	-218
197.056	-564
197.125	-17
197.194	-406
197.262	-578
197.331	-376
197.400	181
197.468	-117
197.537	-803
197.606	248
197.674	367
197.743	-798
197.812	82
197.880	774
197.949	398
198.017	-278
198.086	-907
198.155	20
198.223	-202
198.292	717
198.360	-2
198.429	-349
198.497	37
198.566	274
198.635	-167
198.703	561
198.772	243
198.840	84
198.909	246
198.977	-90
199.046	-476
199.114	1178
199.183	375
199.251	458
199.320	-93
199.388	282
199.457	-193
199.525	347
199.594	-244
199.662	-237
199.731	141
199.799	-323
199.867	215
199.936	-154
200.004	713
200.073	241
200.141	-421
200.210	-163
200.278	146
200.346	876
200.415	544
200.483	268
200.552	-157
200.620	343
200.688	-198
200.757	461
200.825	-420
200.893	-770
200.962	-556
201.030	-135
201.098	-169
201.167	137
201.235	151
201.303	104
201.372	57
201.440	188
201.508	613
201.577	-117
201.645	-154
201.713	563
201.781	252
201.850	14
201.918	322
201.986	215
202.055	414
202.123	-342
202.191	-157
202.259	-333
202.327	-112
202.396	35
202.464	78
202.532	-294
202.600	566
202.669	688
202.737	-21
202.805	38
202.873	-249
202.941	440
203.009	246
203.078	-463
203.146	509
203.214	-351
203.282	-292
203.350	-175
203.418	512
203.487	-138
203.555	-391
203.623	339
203.691	-11
203.759	-524
203.827	87
203.895	129
203.963	710
204.031	11
204.099	34
204.168	-247
204.236	98
204.304	-305
204.372	-496
204.440	-292
204.508	495
204.576	-129
204.644	476
204.712	-304
204.780	-112
204.848	833
204.916	-134
204.984	-573
205.052	561
205.120	-456
205.188	-106
205.256	-140
205.324	179
205.392	257
205.460	1261
205.528	-613
205.596	520
205.664	-744
205.732	386
205.799	582
205.867	1644
205.935	-513
206.003	293
206.071	-170
206.139	181
206.207	678
206.275	204
206.343	-502
206.411	113
206.478	734
206.546	501
206.614	121
206.682	250
206.750	-80
206.818	-492
206.885	446
206.953	-652
207.021	1205
207.089	538
207.157	652
207.225	642
207.292	-143
207.360	585
207.428	-170
207.496	-544
207.563	179
207.631	-13
207.699	472
207.767	663
207.834	-92
207.902	646
207.970	-541
208.038	94
208.105	405
208.173	49
208.241	240
208.309	452
208.376	-155
208.444	767
208.512	-150
208.579	-415
208.647	203
208.715	1404
208.782	256
208.850	222
208.918	-199
208.985	888
209.053	547
209.120	278
209.188	-511
209.256	311
209.323	-1156
209.391	667
209.459	1399
209.526	647
209.594	282
209.661	-287
209.729	-81
209.796	-182
209.864	267
209.932	-576
209.999	1469
210.067	761
210.134	867
210.202	581
210.269	838
210.337	1608
210.404	522
210.472	171
210.539	18
210.607	0
210.674	238
210.742	-3
210.809	-129
210.877	239
210.944	945
211.012	-742
211.079	1268
211.146	-431
211.214	169
211.281	547
211.349	695
211.416	778
211.484	630
211.551	-9
211.618	36
211.686	271
211.753	420
211.821	272
211.888	182
211.955	1212
212.023	845
212.090	-217
212.157	474
212.225	756
212.292	852
212.359	1266
212.427	3809
212.494	2054
212.561	720
212.629	-89
212.696	-128
212.763	852
212.831	301
212.898	974
212.965	394
213.032	1507
213.100	601
213.167	416
213.234	1090
213.301	263
213.369	444
213.436	647
213.503	-576
213.570	4
213.638	87
213.705	82
213.772	-248
213.839	-213
213.906	1056
213.973	1033
214.041	-147
214.108	841
214.175	-225
214.242	767
214.309	139
214.376	599
214.444	501
214.511	27
214.578	-382
214.645	1683
214.712	1128
214.779	399
214.846	69
214.913	1156
214.980	1424
215.048	1037
215.115	1121
215.182	513
215.249	731
215.316	201
215.383	447
215.450	434
215.517	33
215.584	66
215.651	157
215.718	971
215.785	519
215.852	-661
215.919	131
215.986	-11
216.053	176
216.120	-227
216.187	306
216.254	698
216.321	-365
216.388	683
216.455	246
216.522	1091
216.589	572
216.656	566
216.722	717
216.789	1019
216.856	799
216.923	1148
216.990	1141
217.057	924
217.124	1602
217.191	1311
217.258	1944
217.324	1539
217.391	2351
217.458	881
217.525	2026
217.592	1063
217.659	170
217.725	557
217.792	835
217.859	1280
217.926	507
217.993	89
218.059	146
218.126	-421
218.193	-45
218.260	602
218.327	-2
218.393	298
218.460	357
218.527	-116
218.594	357
218.660	145
218.727	957
218.794	-180
218.860	541
218.927	168
218.994	-590
219.061	339
219.127	-160
219.194	-14
219.261	-479
219.327	-673
219.394	301
219.461	-257
219.527	205
219.594	-125
219.661	-319
219.727	-541
219.794	-164
219.860	-350
219.927	100
219.994	1069
220.060	1656
220.127	2187
220.193	512
220.260	124
220.326	1191
220.393	3764
220.460	3789
220.526	2765
220.593	1267
220.659	2799
220.726	1163
220.792	1982
220.859	3160
220.925	5607
220.992	6565
221.058	5897
221.125	3705
221.191	3013
221.258	1124
221.324	1638
221.391	1076
221.457	666
221.524	683
221.590	122
221.657	2408
221.723	837
221.789	851
221.856	1651
221.922	62
221.989	1427
222.055	436
222.121	-325
222.188	1659
222.254	454
222.321	374
222.387	-495
222.453	-396
222.520	-244
222.586	-155
222.652	349
222.719	-730
222.785	1172
222.851	-468
222.918	-61
222.984	-152
223.050	-237
223.116	-1699
223.183	953
223.249	-378
223.315	92
223.382	314
223.448	-373
223.514	-782
223.580	196
223.647	-763
223.713	777
223.779	476
223.845	-1093
223.911	-59
223.978	-967
224.044	-287
224.110	434
224.176	-209
224.242	-952
224.309	-896
224.375	280
224.441	307
224.507	-540
224.573	-771
224.639	570
224.705	-280
224.772	-210
224.838	-956
224.904	610
224.970	-535
225.036	-133
225.102	-459
225.168	352
225.234	587
225.300	-453
225.366	113
225.432	-418
225.499	271
225.565	284
225.631	105
225.697	-414
225.763	-319
225.829	740
225.895	82
225.961	147
226.027	504
226.093	446
226.159	2329
226.225	4046
226.291	6093
226.357	9757
226.423	5438
226.489	2658
226.554	1714
226.620	2028
226.686	1643
226.752	3545
226.818	5786
226.884	11404
226.950	10971
227.016	5022
227.082	3302
227.148	1420
227.214	1580
227.279	1620
227.345	841
227.411	1363
227.477	1445
227.543	3195
227.609	2573
227.674	2495
227.740	104
227.806	751
227.872	255
227.938	830
228.003	1174
228.069	581
228.135	-170
228.201	442
228.267	-259
228.332	1024
228.398	-565
228.464	73
228.530	167
228.595	656
228.661	-1231
228.727	-653
228.792	918
228.858	104
228.924	-1512
228.990	1109
229.055	-403
229.121	505
229.187	-52
229.252	-207
229.318	-395
229.384	231
229.449	142
229.515	-1651
229.581	-851
229.646	1149
229.712	-173
229.777	141
229.843	248
229.909	713
229.974	898
230.040	342
230.105	533
230.171	-193
230.236	627
230.302	1174
230.368	404
230.433	260
230.499	-476
230.564	1312
230.630	-42
230.695	-441
230.761	161
230.826	-1192
230.892	1272
230.957	-265
231.023	-733
231.088	196
231.154	-323
231.219	787
231.284	-76
231.350	843
231.415	-766
231.481	145
231.546	-227
231.612	-108
231.677	-568
231.742	-1246
231.808	808
231.873	-766
231.939	-1195
232.004	777
232.069	797
232.135	-178
232.200	100
232.265	487
232.331	-380
232.396	365
232.461	-136
232.527	-187
232.592	-913
232.657	209
232.723	-189
232.788	-443
232.853	236
232.918	-178
232.984	-167
233.049	-365
233.114	-820
233.179	62
233.245	577
233.310	945
233.375	-822
233.440	672
233.506	-658
233.571	-36
233.636	-774
233.701	-481
233.766	-501
233.832	994
233.897	-406
233.962	-1262
234.027	593
234.092	788
234.157	-593
234.222	-319
234.288	472
234.353	2016
234.418	1353
234.483	316
234.548	299
234.613	276
234.678	213
234.743	-178
234.808	2523
234.873	204
234.938	828
235.004	211
235.069	475
235.134	384
235.199	676
235.264	143
235.329	-1180
235.394	1356
235.459	530
235.524	67
235.589	728
235.654	773
235.719	-473
235.784	366
235.849	415
235.913	803
235.978	-130
236.043	990
236.108	682
236.173	38
236.238	342
236.303	194
236.368	93
236.433	1259
236.498	836
236.563	1495
236.627	4672
236.692	12829
236.757	12247
236.822	5097
236.887	2326
236.952	2982
237.017	633
237.081	3360
237.146	2875
237.211	8853
237.276	13123
237.341	18497
237.405	10005
237.470	4652
237.535	3072
237.600	1441
237.664	1777
237.729	1011
237.794	1158
237.859	5428
237.923	2305
237.988	1259
238.053	878
238.118	462
238.182	1761
238.247	2850
238.312	66
238.376	1184
238.441	-1319
238.506	1329
238.570	-1002
238.635	1295
238.700	614
238.764	-375
238.829	589
238.893	442
238.958	738
239.023	921
239.087	234
239.152	682
239.216	406
239.281	568
239.346	-83
239.410	132
239.475	-57
239.539	2030
239.604	273
239.668	927
239.733	625
239.797	2606
239.862	6318
239.926	4738
239.991	1487
240.055	1165
240.120	-242
240.184	-228
240.249	687
240.313	-81
240.378	708
240.442	685
240.507	2287
240.571	529
240.635	50
240.700	665
240.764	396
240.829	165
240.893	-1628
240.957	214
241.022	1336
241.086	2025
241.151	-136
241.215	-398
241.279	804
241.344	32
241.408	550
241.472	74
241.537	769
241.601	1222
241.665	-615
241.730	-198
241.794	1291
241.858	-93
241.922	-215
241.987	-112
242.051	-852
242.115	-135
242.179	860
242.244	-482
242.308	350
242.372	665
242.436	-694
242.501	486
242.565	-559
242.629	-113
242.693	912
242.757	-29
242.822	329
242.886	749
242.950	892
243.014	-319
243.078	600
243.142	208
243.206	74
243.271	305
243.335	370
243.399	1798
243.463	3558
243.527	14769
243.591	4371
243.655	1835
243.719	-104
243.783	1780
243.847	1281
243.911	2753
243.975	1471
244.040	18
244.104	2079
244.168	231
244.232	909
244.296	1344
244.360	2202
244.424	61
244.488	490
244.552	307
244.615	-594
244.679	1250
244.743	283
244.807	-1049
244.871	744
244.935	478
244.999	-1058
245.063	52
245.127	576
245.191	940
245.255	663
245.319	796
245.383	-826
245.446	1446
245.510	-459
245.574	283
245.638	802
245.702	-628
245.766	1230
245.829	1871
245.893	-299
245.957	-340
246.021	558
246.085	-239
246.149	-395
246.212	2118
246.276	2453
246.340	856
246.404	1058
246.467	959
246.531	-257
246.595	1455
246.659	1300
246.722	-61
246.786	645
246.850	1602
246.913	782
246.977	-354
247.041	81
247.104	824
247.168	894
247.232	2032
247.295	4120
247.359	2513
247.423	348
247.486	1611
247.550	1366
247.614	297
247.677	671
247.741	1130
247.804	131
247.868	571
247.932	966
247.995	4306
248.059	1078
248.122	31
248.186	1703
248.249	1195
248.313	7676
248.376	7548
248.440	4580
248.503	711
248.567	2477
248.630	1036
248.694	2321
248.757	4156
248.821	7573
248.884	5642
248.948	3408
249.011	6060
249.075	9255
249.138	8945
249.202	2959
249.265	827
249.328	2169
249.392	978
249.455	1732
249.519	1340
249.582	1304
249.645	2744
249.709	2106
249.772	1622
249.835	1430
249.899	1676
249.962	1266
250.025	413
250.089	2509
250.152	4358
250.215	1906
250.279	1046
250.342	1243
250.405	2338
250.468	648
250.532	2292
250.595	3236
250.658	11455
250.721	23011
250.785	8116
250.848	4822
250.911	2232
250.974	2121
251.038	2497
251.101	4883
251.164	1995
251.227	3203
251.290	2535
251.354	4405
251.417	18398
251.480	19818
251.543	12521
251.606	33746
251.669	26416
251.732	8998
251.795	7833
251.859	9337
251.922	21448
251.985	14063
252.048	5358
252.111	2948
252.174	2473
252.237	4148
252.300	10790
252.363	11744
252.426	27770
252.489	11006
252.552	4713
252.615	2457
252.678	4095
252.741	7609
252.804	10444
252.867	28248
252.930	15121
252.993	7213
253.056	4357
253.119	2586
253.182	1802
253.245	3528
253.308	3323
253.371	1207
253.434	2066
253.497	2373
253.559	3373
253.622	2591
253.685	2767
253.748	2972
253.811	935
253.874	1901
253.937	798
254.000	898
254.062	2458
254.125	3975
254.188	5312
254.251	3022
254.314	1233
254.376	2180
254.439	3286
254.502	1924
254.565	2148
254.628	5462
254.690	2626
254.753	1080
254.816	965
254.878	1209
254.941	2123
255.004	2948
255.067	1707
255.129	476
255.192	689
255.255	-29
255.317	423
255.380	230
255.443	466
255.505	166
255.568	-359
255.631	-1055
255.693	1139
255.756	-755
255.819	813
255.881	-284
255.944	-185
256.006	-255
256.069	-273
256.132	-419
256.194	486
256.257	656
256.319	994
256.382	832
256.444	1499
256.507	1192
256.569	1008
256.632	621
256.694	2232
256.757	8160
256.819	25302
256.882	10268
256.944	3052
257.007	3082
257.069	1066
257.132	1353
257.194	2327
257.257	350
257.319	995
257.381	867
257.444	6756
257.506	26295
257.569	31498
257.631	10886
257.693	5290
257.756	1775
257.818	1016
257.880	1171
257.943	1553
258.005	35
258.067	707
258.130	9
258.192	908
258.254	911
258.317	1053
258.379	935
258.441	2279
258.503	2846
258.566	1536
258.628	3687
258.690	-613
258.753	389
258.815	1509
258.877	325
258.939	284
259.001	1127
259.064	1126
259.126	-278
259.188	963
259.250	1204
259.312	707
259.375	1352
259.437	1161
259.499	861
259.561	602
259.623	547
259.685	71
259.747	292
259.809	2171
259.872	4166
259.934	6938
259.996	7797
260.058	2186
260.120	590
260.182	687
260.244	11
260.306	-272
260.368	659
260.430	54
260.492	2041
260.554	3741
260.616	1085
260.678	4034
260.740	4864
260.802	340
260.864	703
260.926	-273
260.988	1361
261.050	199
261.112	2757
261.174	8739
261.236	4552
261.298	1043
261.359	1829
261.421	2415
261.483	-651
261.545	1383
261.607	-1042
261.669	345
261.731	867
261.793	2376
261.854	140
261.916	1117
261.978	616
262.040	282
262.102	436
262.164	-346
262.225	720
262.287	238
262.349	1222
262.411	1627
262.472	347
262.534	133
262.596	1946
262.658	1171
262.719	-545
262.781	1344
262.843	1383
262.904	415
262.966	172
263.028	415
263.090	5455
263.151	18981
263.213	6432
263.275	2797
263.336	137
263.398	1041
263.459	-390
263.521	919
263.583	1765
263.644	1521
263.706	-457
263.767	-772
263.829	502
263.891	-136
263.952	-334
264.014	-57
264.075	911
264.137	4147
264.198	1317
264.260	291
264.321	931
264.383	1799
264.444	7157
264.506	1886
264.567	908
264.629	3105
264.690	5301
264.752	1684
264.813	1392
264.875	-837
264.936	869
264.998	530
265.059	71
265.120	838
265.182	1642
265.243	13682
265.305	16787
265.366	3176
265.427	1048
265.489	856
265.550	-609
265.611	327
265.673	219
265.734	257
265.795	617
265.857	250
265.918	730
265.979	3385
266.040	21300
266.102	19939
266.163	5664
266.224	2339
266.286	1342
266.347	-173
266.408	43
266.469	376
266.530	-389
266.592	474
266.653	172
266.714	1563
266.775	-229
266.836	200
266.898	-150
266.959	704
267.020	-228
267.081	1135
267.142	-121
267.203	222
267.264	-566
267.326	857
267.387	-947
267.448	-406
267.509	-934
267.570	686
267.631	-340
267.692	-778
267.753	473
267.814	-287
267.875	331
267.936	2830
267.997	739
268.058	435
268.119	-710
268.180	-247
268.241	-548
268.302	-390
268.363	3
268.424	94
268.485	50
268.546	-615
268.607	-916
268.668	-525
268.729	-490
268.790	-785
268.851	-412
268.912	418
268.972	1491
269.033	-195
269.094	-282
269.155	390
269.216	-642
269.277	-440
269.338	-505
269.398	-383
269.459	-1099
269.520	433
269.581	846
269.642	939
269.702	-241
269.763	311
269.824	-395
269.885	291
269.945	455
270.006	286
270.067	-476
270.128	-234
270.188	-906
270.249	195
270.310	-699
270.370	108
270.431	-227
270.492	-612
270.553	-350
270.613	705
270.674	2564
270.734	22
270.795	-534
270.856	861
270.916	-170
270.977	-765
271.038	-491
271.098	-372
271.159	45
271.219	-37
271.280	-145
271.340	-756
271.401	-438
271.462	514
271.522	443
271.583	-626
271.643	270
271.704	-249
271.764	107
271.825	1618
271.885	6571
271.946	10715
272.006	2837
272.066	2949
272.127	7934
272.187	2676
272.248	1085
272.308	782
272.369	4645
272.429	3047
272.489	1191
272.550	1191
272.610	2048
272.671	522
272.731	142
272.791	1324
272.852	330
272.912	1033
272.972	-63
273.033	-379
273.093	-306
273.153	1335
273.214	239
273.274	609
273.334	3896
273.394	8319
273.455	2018
273.515	2976
273.575	6631
273.635	2807
273.696	2902
273.756	7181
273.816	2270
273.876	1723
273.936	2182
273.997	4042
274.057	546
274.117	1351
274.177	1827
274.237	9444
274.297	8194
274.358	3122
274.418	5774
274.478	4483
274.538	1121
274.598	202
274.658	2940
274.718	3887
274.778	1412
274.838	-185
274.898	1149
274.958	4032
275.018	6929
275.078	4405
275.138	1058
275.198	1084
275.258	260
275.318	309
275.378	1240
275.438	1522
275.498	246
275.558	2909
275.618	6032
275.678	5436
275.738	2867
275.798	2158
275.858	1056
275.918	305
275.978	186
276.038	377
276.098	-151
276.157	590
276.217	5097
276.277	2213
276.337	1343
276.397	553
276.457	867
276.517	-220
276.576	530
276.636	-646
276.696	629
276.756	2401
276.815	1238
276.875	872
276.935	-163
276.995	539
277.055	279
277.114	267
277.174	533
277.234	3491
277.293	1325
277.353	-4
277.413	71
277.472	347
277.532	-213
277.592	447
277.651	4694
277.711	11075
277.771	3133
277.830	10932
277.890	9938
277.950	5148
278.009	20434
278.069	7780
278.128	7709
278.188	11198
278.248	3419
278.307	11182
278.367	8182
278.426	1839
278.486	657
278.545	417
278.605	-649
278.664	508
278.724	997
278.783	2059
278.843	9182
278.902	2499
278.962	1066
279.021	965
279.081	805
279.140	1093
279.199	650
279.259	1348
279.318	1445
279.378	2269
279.437	3864
279.496	14581
279.556	45786
279.615	41610
279.675	10339
279.734	4631
279.793	5784
279.853	10012
279.912	4039
279.971	2376
280.031	2585
280.090	3813
280.149	8493
280.208	5721
280.268	31674
280.327	36824
280.386	8009
280.445	4302
280.505	4110
280.564	2340
280.623	1253
280.682	2854
280.742	4049
280.801	961
280.860	1064
280.919	467
280.978	501
281.037	346
281.097	79
281.156	516
281.215	205
281.274	321
281.333	4964
281.392	3969
281.451	682
281.510	117
281.569	816
281.628	-34
281.688	391
281.747	819
281.806	485
281.865	-288
281.924	-356
281.983	163
282.042	-374
282.101	-55
282.160	115
282.219	469
282.278	-37
282.337	1453
282.396	2025
282.454	12
282.513	346
282.572	4361
282.631	2467
282.690	721
282.749	-1266
282.808	-94
282.867	850
282.926	847
282.985	145
283.043	240
283.102	-76
283.161	42
283.220	2832
283.279	5951
283.338	1645
283.396	60
283.455	-419
283.514	678
283.573	925
283.631	1285
283.690	1051
283.749	354
283.808	2070
283.866	1967
283.925	278
283.984	386
284.043	668
284.101	1314
284.160	700
284.219	1820
284.277	1408
284.336	1653
284.395	7222
284.453	6700
284.512	2043
284.570	2908
284.629	2416
284.688	2769
284.746	2741
284.805	2884
284.863	4630
284.922	6167
284.981	7682
285.039	10730
285.098	18682
285.156	40589
285.215	62139
285.273	61267
285.332	48054
285.390	25379
285.449	15391
285.507	9875
285.566	7245
285.624	5324
285.683	5317
285.741	3497
285.799	3209
285.858	2363
285.916	2757
285.975	1755
286.033	866
286.091	1859
286.150	570
286.208	1665
286.267	1623
286.325	1149
286.383	1988
286.442	2398
286.500	698
286.558	754
286.616	174
286.675	983
286.733	903
286.791	214
286.850	1303
286.908	328
286.966	1863
287.024	903
287.083	176
287.141	457
287.199	787
287.257	1495
287.315	1576
287.374	81
287.432	2194
287.490	2218
287.548	559
287.606	858
287.664	854
287.723	1536
287.781	1996
287.839	1181
287.897	1401
287.955	2062
288.013	2994
288.071	6903
288.129	28009
288.187	86904
288.245	42854
288.303	12787
288.361	6067
288.419	4429
288.477	2549
288.535	2334
288.593	2608
288.651	1113
288.709	718
288.767	333
288.825	233
288.883	759
288.941	331
288.999	-56
289.057	125
289.115	-176
289.173	154
289.231	589
289.289	-676
289.346	-165
289.404	58
289.462	1717
289.520	1092
289.578	445
289.636	42
289.694	116
289.751	271
289.809	-336
289.867	682
289.925	289
289.983	493
290.040	372
290.098	467
290.156	-318
290.214	-267
290.271	158
290.329	-105
290.387	462
290.444	-985
290.502	-403
290.560	-341
290.617	0
290.675	456
290.733	162
290.790	620
290.848	414
290.906	-140
290.963	319
291.021	547
291.078	127
291.136	557
291.194	2691
291.251	7306
291.309	1967
291.366	171
291.424	46
291.481	864
291.539	138
291.596	566
291.654	310
291.711	164
291.769	779
291.826	980
291.884	206
291.941	-270
291.999	62
292.056	187
292.114	673
292.171	399
292.228	694
292.286	932
292.343	840
292.401	1517
292.458	1239
292.515	-190
292.573	1011
292.630	-1
292.687	623
292.745	832
292.802	824
292.859	4065
292.917	6331
292.974	3827
293.031	1434
293.089	593
293.146	-7
293.203	-120
293.260	19
293.318	1156
293.375	2284
293.432	826
293.489	794
293.546	542
293.604	572
293.661	3534
293.718	9752
293.775	5827
293.832	2479
293.889	1181
293.947	1114
294.004	620
294.061	1300
294.118	2367
294.175	7552
294.232	13248
294.289	4872
294.346	1713
294.403	1857
294.460	847
294.517	809
294.574	436
294.631	1471
294.688	1190
294.745	2767
294.802	12251
294.859	19077
294.916	6781
294.973	1715
295.030	1508
295.087	1638
295.144	190
295.201	1568
295.258	1072
295.315	1246
295.372	3052
295.429	8527
295.486	4867
295.542	2586
295.599	7214
295.656	15714
295.713	8144
295.770	9195
295.827	3710
295.883	1587
295.940	1374
295.997	2424
296.054	2059
296.111	1648
296.167	803
296.224	377
296.281	642
296.338	884
296.394	1132
296.451	273
296.508	3427
296.564	7413
296.621	5067
296.678	8668
296.734	14356
296.791	6541
296.848	2378
296.904	3310
296.961	4985
297.018	9382
297.074	8267
297.131	2782
297.187	2314
297.244	2545
297.301	7861
297.357	17801
297.414	6298
297.470	2629
297.527	1841
297.583	786
297.640	1420
297.696	1210
297.753	360
297.809	990
297.866	575
297.922	534
297.979	320
298.035	885
298.092	1561
298.148	5267
298.204	5693
298.261	2881
298.317	4532
298.374	11588
298.430	7105
298.486	3009
298.543	1508
298.599	2464
298.656	1616
298.712	3699
298.768	10521
298.824	9381
298.881	2094
298.937	2632
298.993	729
299.050	1085
299.106	1428
299.162	1039
299.218	689
299.275	1563
299.331	530
299.387	3114
299.443	9885
299.500	16843
299.556	10030
299.612	4402
299.668	2537
299.724	6848
299.780	10175
299.837	4008
299.893	2846
299.949	11066
300.005	16626
300.061	12248
300.117	21426
300.173	10868
300.229	3081
300.285	2974
300.341	4159
300.397	2591
300.453	1559
300.510	1014
300.566	2164
300.622	3176
300.678	12759
300.734	21584
300.790	12753
300.845	13326
300.901	9755
300.957	16707
301.013	11222
301.069	3208
301.125	2649
301.181	2068
301.237	1199
301.293	717
301.349	1291
301.405	1177
301.461	1002
301.516	1593
301.572	1100
301.628	2385
301.684	1742
301.740	3572
301.796	6648
301.851	4320
301.907	6328
301.963	6515
302.019	8554
302.074	27066
302.130	30028
302.186	15119
302.242	5357
302.297	3980
302.353	2735
302.409	6495
302.464	6076
302.520	3987
302.576	10568
302.631	13345
302.687	8126
302.743	3175
302.798	1984
302.854	1966
302.910	1798
302.965	3371
303.021	3614
303.076	3741
303.132	2853
303.187	5776
303.243	3259
303.299	2733
303.354	1296
303.410	1922
303.465	1342
303.521	1487
303.576	1935
303.632	2021
303.687	3461
303.743	9875
303.798	9006
303.853	3908
303.909	1584
303.964	2532
304.020	1640
304.075	4451
304.130	3244
304.186	6230
304.241	6701
304.297	6260
304.352	3299
304.358	3197
304.407	2366
304.449	2771
304.463	2911
304.518	1848
304.539	1928
304.573	2054
304.629	2009
304.630	2000
304.684	1741
304.720	5610
304.739	7531
304.794	10658
304.811	9365
304.850	6245
304.902	2356
304.905	2109
304.960	2042
304.992	2135
305.015	2165
305.071	2342
305.083	2226
305.126	1844
305.173	1413
305.181	1350
305.236	1202
305.264	1307
305.292	1427
305.347	1928
305.354	2033
305.402	2624
305.445	2264
305.457	2153
305.512	3022
305.535	2721
305.567	2363
305.622	3245
305.626	3294
305.678	5009
305.716	10229
305.733	11979
305.788	13822
305.807	12132
305.843	9409
305.897	10235
305.898	10233
305.953	10373
305.988	7457
306.008	5856
306.063	3313
306.078	3024
306.118	2472
306.168	1418
306.173	1333
306.228	1617
306.259	1266
306.283	1003
306.338	845
306.349	1072
306.393	2009
306.440	2331
306.448	2357
306.503	2736
306.530	2563
306.558	2965
306.613	6285
306.620	6701
306.668	9010
306.711	10964
306.723	11087
306.778	9015
306.801	7252
306.833	5323
306.888	2817
306.892	2709
306.943	1732
306.982	1630
306.997	1632
307.052	1885
307.072	1852
307.107	1893
307.162	2573
307.163	2578
307.217	3615
307.253	4837
307.272	5193
307.327	5712
307.343	5263
307.381	4134
307.434	3482
307.436	3569
307.491	6594
307.524	10263
307.546	11327
307.600	11400
307.614	10253
307.655	6731
307.704	4335
307.710	4306
307.765	4586
307.795	5720
307.819	6828
307.874	11270
307.885	11503
307.929	10309
307.975	9169
307.984	9536
308.038	13274
308.065	16123
308.093	26428
308.148	54315
308.156	60428
308.202	90290
308.246	110015
308.257	107635
308.312	65209
308.336	46565
308.366	34586
308.421	19560
308.426	18422
308.475	11867
308.517	8786
308.530	8090
308.585	6611
308.607	6259
308.639	6364
308.694	6288
308.697	6385
308.748	10393
308.787	14635
308.803	14825
308.857	12165
308.877	10812
308.912	9716
308.967	9780
308.967	9798
309.021	13908
309.058	17127
309.076	21122
309.130	36382
309.148	42474
309.185	72137
309.238	123765
309.239	124146
309.293	132609
309.328	126828
309.348	112974
309.402	61749
309.418	48321
309.457	34483
309.508	20800
309.511	20329
309.566	16279
309.598	15042
309.620	16001
309.674	19791
309.688	21146
309.729	20760
309.778	17312
309.783	16887
309.837	12052
309.868	9528
309.892	10056
309.946	12278
309.959	13286
310.001	16226
310.049	18223
310.055	17634
310.109	11366
310.139	7458
310.163	5865
310.218	3400
310.229	2977
310.272	2697
310.319	2830
310.326	2815
310.381	2576
310.409	2542
310.435	2446
310.489	2238
310.499	2187
310.543	2183
310.589	2358
310.598	2444
310.652	2983
310.679	3110
310.706	2634
310.760	1796
310.769	1674
310.814	1809
310.859	1914
310.868	1958
310.923	2114
310.948	2256
310.977	2322
311.031	2478
311.038	2482
311.085	1884
311.128	1289
311.139	1379
311.193	1910
311.218	2152
311.247	2013
311.301	1791
311.308	1742
311.356	1915
311.398	2206
311.410	2144
311.464	1753
311.488	1585
311.518	1737
311.572	2022
311.578	2053
311.626	2406
311.668	2709
311.680	2704
311.734	2650
311.758	2624
311.788	2642
311.842	2709
311.847	2712
311.896	3572
311.937	4359
311.950	4216
312.004	3569
312.027	3274
312.058	2794
312.112	1959
312.117	1880
312.165	2157
312.207	2405
312.297	2479
312.386	2223
312.476	2033
312.566	3516
312.656	1808
312.745	2045
312.835	1790
312.925	2877
313.015	2927
313.104	2818
313.194	2229
313.284	2196
313.374	2887
313.463	2431
313.553	1631
313.643	1669
313.732	2991
313.822	1942
313.912	1921
314.001	2052
314.091	3073
314.180	3729
314.270	3248
314.360	3524
314.449	3338
314.539	1894
314.628	2445
314.718	3321
314.808	3520
314.897	2672
314.987	2132
315.076	2301
315.166	4212
315.255	3278
315.345	3409
315.434	2731
315.524	3239
315.613	3351
315.703	3480
315.792	7434
315.881	27676
315.971	8734
316.060	5567
316.150	7393
316.239	7762
316.328	3880
316.418	2051
316.507	1957
316.597	3499
316.686	3506
316.775	4806
316.865	8664
316.954	2877
317.043	2242
317.133	1860
317.222	1979
317.311	2152
317.400	1166
317.490	3597
317.579	3253
317.668	3299
317.757	4534
317.847	13433
317.936	45905
318.025	14613
318.114	9052
318.203	4736
318.293	5412
318.382	8548
318.471	7908
318.560	11457
318.649	25210
318.738	6001
318.828	2626
318.917	2921
319.006	4917
319.095	10426
319.184	30289
319.273	13868
319.362	4903
319.451	2574
319.540	2348
319.629	4587
319.718	6558
319.807	4204
319.896	9615
319.985	35889
320.074	10582
320.163	3571
320.252	5106
320.341	5064
320.430	3993
320.519	4213
320.608	3169
320.697	2697
320.786	2644
320.875	3365
320.964	4763
321.053	4394
321.142	7549
321.230	7909
321.319	7016
321.408	13849
321.497	7187
321.586	6722
321.675	8087
321.764	7972
321.852	6011
321.941	7315
322.030	5509
322.119	6628
322.207	14162
322.296	12684
322.385	8249
322.474	8131
322.562	15738
322.651	9512
322.740	7188
322.829	8538
322.917	10697
323.006	5942
323.095	4811
323.183	4194
323.272	6349
323.361	11558
323.449	33801
323.538	11026
323.626	22509
323.715	12495
323.804	6082
323.892	20252
323.981	9614
324.069	4085
324.158	11850
324.246	9963
324.335	4262
324.424	4117
324.512	2379
324.601	2841
324.689	2498
324.778	4572
324.866	6488
324.954	2280
325.043	1890
325.131	4327
325.220	8580
325.308	9043
325.397	6018
325.485	4447
325.574	1210
325.662	1338
325.750	1099
325.839	2671
325.927	1784
326.015	2261
326.104	3919
326.192	5057
326.280	1556
326.369	2233
326.457	2615
326.545	4003
326.634	2390
326.722	1765
326.810	1318
326.898	1842
326.987	2391
327.075	3535
327.163	5487
327.251	2137
327.340	2518
327.428	3067
327.516	2424
327.604	1394
327.692	2249
327.781	2345
327.869	3429
327.957	2490
328.045	1419
328.133	1751
328.221	1756
328.309	1920
328.397	1753
328.485	2477
328.574	2860
328.662	7700
328.750	4970
328.838	2810
328.926	2127
329.014	1559
329.102	2826
329.190	5956
329.278	3672
329.366	1572
329.454	1328
329.542	1738
329.630	1361
329.718	1957
329.806	1744
329.893	2035
329.981	1251
330.069	1582
330.157	2503
330.245	6709
330.333	3773
330.421	981
330.509	1911
330.597	8831
330.684	5802
330.772	3230
330.860	4476
330.948	6269
331.036	2305
331.123	1341
331.211	1584
331.299	2320
331.387	4971
331.475	8552
331.562	2776
331.650	1697
331.738	1513
331.825	2754
331.913	969
332.001	980
332.089	1757
332.176	3960
332.264	10354
332.352	7944
332.439	2815
332.527	1980
332.614	1408
332.702	2025
332.790	1660
332.877	4719
332.965	10390
333.052	3291
333.140	3608
333.228	7771
333.315	1983
333.403	2652
333.490	5721
333.578	5930
333.665	9208
333.753	4672
333.840	1827
333.928	3425
334.015	7018
334.103	12327
334.190	38565
334.278	9973
334.365	7304
334.452	5476
334.540	3825
334.627	4698
334.715	5577
334.802	10535
334.889	45482
334.977	45573
335.064	10016
335.151	5161
335.239	4221
335.326	5382
335.413	21763
335.501	25931
335.588	4065
335.675	3765
335.762	4906
335.850	8595
335.937	7859
336.024	18802
336.111	57289
336.199	27959
336.286	8002
336.373	4285
336.460	2337
336.547	2764
336.635	3762
336.722	2440
336.809	2475
336.896	3178
336.983	10722
337.070	28981
337.157	39775
337.245	27990
337.332	17577
337.419	2180
337.506	2314
337.593	2228
337.680	9750
337.767	27990
337.854	6851
337.941	7734
338.028	8665
338.115	3106
338.202	4543
338.289	8516
338.376	25653
338.463	7328
338.550	16590
338.637	16935
338.724	5092
338.811	7916
338.898	2261
338.984	1220
339.071	2296
339.158	2572
339.245	4629
339.332	3303
339.419	5363
339.506	4825
339.593	1201
339.679	1670
339.766	1418
339.853	1996
339.940	2896
340.027	2017
340.113	1832
340.200	1995
340.287	1562
340.374	2239
340.460	3063
340.547	1320
340.634	2025
340.720	7964
340.807	4419
340.894	1228
340.980	1611
341.067	1049
341.154	1618
341.240	1587
341.327	3826
341.414	2086
341.500	1149
341.587	1769
341.674	856
341.760	3137
341.847	3625
341.933	1767
342.020	393
342.106	1293
342.193	1742
342.279	3043
342.366	1395
342.452	2756
342.539	2167
342.625	3777
342.712	8104
342.798	4239
342.885	1526
342.971	914
343.058	1287
343.144	814
343.230	1126
343.317	1160
343.403	505
343.490	1747
343.576	743
343.662	950
343.749	367
343.835	2203
343.921	3677
344.008	22022
344.094	45806
344.180	8642
344.267	3075
344.353	12358
344.439	12633
344.525	4290
344.612	5085
344.698	4522
344.784	2216
344.870	1590
344.957	457
345.043	3342
345.129	1355
345.215	2191
345.301	1674
345.387	1029
345.474	284
345.560	1711
345.646	1041
345.732	1802
345.818	1230
345.904	1433
345.990	930
346.076	1785
346.162	3786
346.249	2208
346.335	1216
346.421	1733
346.507	5512
346.593	18053
346.679	2679
346.765	2403
346.851	1754
346.937	838
347.023	1840
347.108	1870
347.194	1443
347.280	1120
347.366	2338
347.452	7929
347.538	23455
347.624	15994
347.710	11850
347.796	1898
347.882	1479
347.967	1551
348.053	2350
348.139	1594
348.225	984
348.311	1119
348.397	515
348.482	2181
348.568	2391
348.654	1643
348.740	4894
348.825	4175
348.911	3280
348.997	11018
349.083	20598
349.168	3142
349.254	1337
349.340	788
349.425	1354
349.511	1904
349.597	2290
349.682	3865
349.768	11420
349.854	5751
349.939	1327
350.025	929
350.110	1800
350.196	509
350.282	1142
350.367	1345
350.453	1585
350.538	2772
350.624	1136
350.709	1814
350.795	1008
350.880	932
350.966	2160
351.051	2162
351.137	1388
351.222	1114
351.308	2753
351.393	9075
351.479	1977
351.564	1303
351.649	1567
351.735	1277
351.820	1225
351.906	1147
351.991	1880
352.076	6498
352.162	8158
352.247	1771
352.332	1163
352.418	1812
352.503	3182
352.588	13391
352.673	9751
352.759	3248
352.844	807
352.929	2154
353.014	1619
353.100	1752
353.185	2124
353.270	2981
353.355	2536
353.441	1252
353.526	1145
353.611	3222
353.696	3119
353.781	2840
353.866	920
353.952	2387
354.037	2704
354.122	6293
354.207	5256
354.292	2258
354.377	1242
354.462	1594
354.547	1552
354.632	2388
354.717	2325
354.802	1583
354.887	400
354.972	1391
355.057	925
355.142	934
355.227	1395
355.312	1660
355.397	3383
355.482	9488
355.567	3440
355.652	4345
355.737	4149
355.822	13320
355.907	10335
355.991	2237
356.076	836
356.161	1932
356.246	924
356.331	1830
356.416	3243
356.501	25904
356.585	24282
356.670	3013
356.755	3323
356.840	2518
356.924	15567
357.009	56764
357.094	19807
357.179	4037
357.263	3550
357.348	3001
357.433	2731
357.517	2826
357.602	2188
357.687	1392
357.771	4221
357.856	12314
357.941	7321
358.025	12783
358.110	55820
358.195	24282
358.279	2598
358.364	3014
358.448	8057
358.533	23824
358.617	16330
358.702	17678
358.787	6361
358.871	3579
358.956	2650
359.040	1460
359.125	1697
359.209	1738
359.294	5683
359.378	10092
359.462	2978
359.547	2371
359.631	1576
359.716	468
359.800	1604
359.885	3258
359.969	1291
360.053	2155
360.138	1690
360.222	2200
360.306	2102
360.391	3124
360.475	5383
360.559	12195
360.644	8752
360.728	5657
360.812	14463
360.896	37863
360.981	14477
361.065	7000
361.149	3578
361.233	2861
361.318	1763
361.402	1912
361.486	3399
361.570	2196
361.654	1872
361.739	4834
361.823	24020
361.907	37397
361.991	6485
362.075	3495
362.159	6414
362.243	8306
362.327	14924
362.411	23075
362.495	9029
362.580	4342
362.664	3689
362.748	3239
362.832	5167
362.916	11545
363.000	40302
363.084	72990
363.168	56400
363.252	13144
363.336	5775
363.420	6983
363.503	28671
363.587	32163
363.671	5453
363.755	4197
363.839	5958
363.923	2227
364.007	5242
364.091	8211
364.175	13010
364.258	55613
364.342	58692
364.426	89298
364.510	43721
364.594	14356
364.677	11382
364.761	32998
364.845	23744
364.929	6273
365.013	4840
365.096	5630
365.180	5202
365.264	12305
365.347	46604
365.431	18088
365.515	4127
365.598	1396
365.682	3288
365.766	4296
365.849	5674
365.933	2171
366.017	4350
366.100	2353
366.184	1222
366.267	2368
366.351	1365
366.435	814
366.518	1053
366.602	1275
366.685	1363
366.769	1511
366.852	4061
366.936	4982
367.019	2812
367.103	2695
367.186	6473
367.270	1656
367.353	513
367.436	2044
367.520	1533
367.603	2179
367.687	2367
367.770	3555
367.853	3295
367.937	10101
368.020	14266
368.104	2948
368.187	3381
368.270	4510
368.353	3870
368.437	5526
368.520	16410
368.603	8782
368.687	9515
368.770	18453
368.853	5188
368.936	5332
369.020	5854
369.103	2450
369.186	927
369.269	663
369.352	3170
369.436	4074
369.519	3092
369.602	152
369.685	3069
369.768	768
369.851	1582
369.934	677
370.018	1751
370.101	2560
370.184	3633
370.267	3579
370.350	3699
370.433	5728
370.516	17530
370.599	27043
370.682	6249
370.765	9261
370.848	11584
370.931	23824
371.014	10336
371.097	1681
371.180	1997
371.263	1961
371.346	-22
371.429	2042
371.511	1350
371.594	1882
371.677	4721
371.760	7288
371.843	3928
371.926	20114
372.009	44179
372.091	14942
372.174	9790
372.257	25365
372.340	9566
372.423	7624
372.505	10668
372.588	3853
372.671	7904
372.754	22177
372.836	12744
372.919	13243
373.002	25914
373.085	6269
373.167	4614
373.250	9719
373.332	22064
373.415	31318
373.498	62364
373.580	23198
373.663	39807
373.746	47909
373.828	9114
373.911	4942
373.993	4937
374.076	25608
374.159	22539
374.241	8174
374.324	18858
374.406	13285
374.489	18421
374.571	52971
374.654	19666
374.736	11403
374.819	33026
374.901	46273
374.983	47026
375.066	8393
375.148	4118
375.231	20882
375.313	40554
375.395	12254
375.478	3278
375.560	3459
375.643	3139
375.725	10559
375.807	42233
375.890	35234
375.972	14002
376.054	8033
376.136	12627
376.219	5914
376.301	12246
376.383	34609
376.465	12784
376.548	6334
376.630	9264
376.712	28747
376.794	12566
376.877	2731
376.959	980
377.041	2232
377.123	5554
377.205	6046
377.287	1033
377.369	1523
377.452	1668
377.534	881
377.616	863
377.698	1251
377.780	-62
377.862	1382
377.944	2190
378.026	222
378.108	1546
378.190	838
378.272	1175
378.354	262
378.436	546
378.518	1529
378.600	9145
378.682	6103
378.764	12410
378.846	9598
378.928	3502
379.010	2796
379.091	2966
379.173	2183
379.255	741
379.337	978
379.419	5213
379.501	19173
379.583	7436
379.664	2293
379.746	3654
379.828	12918
379.910	16359
379.991	15488
380.073	2860
380.155	2238
380.237	1293
380.318	1390
380.400	1124
380.482	3077
380.564	3404
380.645	2979
380.727	3540
380.809	2890
380.890	1835
380.972	225
381.053	1180
381.135	1136
381.217	4551
381.298	13506
381.380	6223
381.461	6354
381.543	28792
381.624	34544
381.706	5995
381.787	3014
381.869	4801
381.951	13167
382.032	48120
382.113	30614
382.195	5457
382.276	5804
382.358	8323
382.439	25983
382.521	31092
382.602	48328
382.684	19811
382.765	37147
382.846	44137
382.928	68753
383.009	36467
383.090	26780
383.172	102142
383.253	149005
383.334	48383
383.416	43421
383.497	22684
383.578	12000
383.659	22844
383.741	90366
383.822	223833
383.903	109697
383.984	33003
384.066	49470
384.147	27944
384.228	7718
384.309	5323
384.390	4451
384.471	4281
384.553	4135
384.634	4218
384.715	4406
384.796	2463
384.877	4015
384.958	13012
385.039	13822
385.120	5542
385.201	4139
385.282	3722
385.363	5441
385.444	4046
385.525	7400
385.606	21696
385.687	18755
385.768	6060
385.849	5949
385.930	24252
386.011	39399
386.092	10156
386.173	3529
386.254	3412
386.335	4206
386.416	3852
386.496	9125
386.577	13645
386.658	6943
386.739	3659
386.820	5043
386.901	2834
386.981	4121
387.062	3097
387.143	4381
387.224	14008
387.304	14442
387.385	6846
387.466	4525
387.547	7325
387.627	4669
387.708	7872
387.789	26257
387.869	30084
387.950	9949
388.031	2828
388.111	1778
388.192	8720
388.273	11635
388.353	5658
388.434	3519
388.514	6353
388.595	25570
388.676	29662
388.756	12864
388.837	11671
388.917	7575
388.998	1458
389.078	3263
389.159	2516
389.239	1327
389.320	4182
389.400	1845
389.480	6888
389.561	15472
389.641	8072
389.722	3241
389.802	3420
389.883	7528
389.963	18844
390.043	12363
390.124	3515
390.204	5033
390.284	14947
390.365	9434
390.445	17938
390.525	42199
390.605	33406
390.686	8165
390.766	5009
390.846	3988
390.927	1602
391.007	1095
391.087	3146
391.167	3101
391.247	1774
391.328	4788
391.408	6952
391.488	5997
391.568	1059
391.648	2612
391.728	4342
391.808	4383
391.888	3576
391.969	9943
392.049	13825
392.129	9333
392.209	9074
392.289	19188
392.369	12727
392.449	14441
392.529	8527
392.609	7590
392.689	9924
392.769	20634
392.849	19933
392.929	20003
393.009	36572
393.089	33980
393.169	48518
393.248	141923
393.328	389634
393.408	397908
393.488	142842
393.568	45546
393.648	23077
393.728	15409
393.807	10419
393.887	10685
393.967	9090
394.047	9335
394.127	9345
394.206	16997
394.286	56610
394.366	200745
394.446	210430
394.525	57857
394.605	15780
394.685	11721
394.764	19865
394.844	32105
394.924	24568
395.003	7721
395.083	5081
395.163	5202
395.242	4322
395.322	5466
395.402	3892
395.481	7041
395.561	14386
395.640	36902
395.720	36710
395.799	42892
395.879	32683
395.958	25935
396.038	84676
396.117	259162
396.197	274434
396.276	96255
396.356	32410
396.435	23767
396.515	18127
396.594	21129
396.673	40772
396.753	141388
396.832	352025
396.912	253734
396.991	67198
397.070	24267
397.150	11169
397.229	11411
397.308	17425
397.388	31626
397.467	14708
397.546	5398
397.625	2070
397.705	5589
397.784	3455
397.863	2761
397.942	2418
398.022	2917
398.101	10685
398.180	30869
398.259	14811
398.338	5047
398.417	2678
398.497	1841
398.576	2887
398.655	764
398.734	1445
398.813	2436
398.892	9688
398.971	33715
399.050	15275
399.129	1413
399.208	1186
399.287	1627
399.366	861
399.445	1379
399.524	906
399.603	51
399.682	2202
399.761	8782
399.840	34067
399.919	25659
399.998	3757
400.077	686
400.156	-60
400.235	2864
400.313	795
400.392	784
400.471	7023
400.550	10259
400.629	1855
400.708	2066
400.786	946
400.865	7201
400.944	5780
401.023	3990
401.102	-219
401.180	655
401.259	1022
401.338	1174
401.416	1582
401.495	1236
401.574	2087
401.652	333
401.731	2310
401.810	583
401.888	364
401.967	671
402.046	936
402.124	2278
402.203	928
402.281	878
402.360	1948
402.438	8035
402.517	4388
402.596	1284
402.674	1379
402.753	1486
402.831	229
402.910	1839
402.988	4777
403.066	14567
403.145	8068
403.223	5834
403.302	11304
403.380	9047
403.459	7069
403.537	2852
403.615	1408
403.694	417
403.772	1286
403.850	946
403.929	-36
404.007	552
404.085	2411
404.164	2243
404.242	1139
404.320	8542
404.398	25915
404.477	25350
404.555	40686
404.633	37040
404.711	20142
404.789	11632
404.868	2330
404.946	1459
405.024	1090
405.102	829
405.180	-654
405.258	-752
405.336	1706
405.415	-48
405.493	2245
405.571	2512
405.649	-240
405.727	-328
405.805	1870
405.883	1443
405.961	2162
406.039	1499
406.117	-391
406.195	2401
406.273	7363
406.351	30643
406.429	18715
406.507	2426
406.585	-27
406.663	713
406.740	389
406.818	87
406.896	232
406.974	1224
407.052	604
407.130	16814
407.208	24194
407.285	4844
407.363	143
407.441	1331
407.519	191
407.596	909
407.674	7113
407.752	32477
407.830	26999
407.907	5171
407.985	363
408.063	864
408.141	447
408.218	1973
408.296	1049
408.373	1266
408.451	1420
408.529	1074
408.606	384
408.684	295
408.762	656
408.839	502
408.917	577
408.994	662
409.072	-112
409.149	797
409.227	2322
409.304	4554
409.382	4627
409.459	4422
409.537	7117
409.614	6272
409.692	4215
409.769	3065
409.846	6773
409.924	9832
410.001	5754
410.079	4297
410.156	4124
410.233	2167
410.311	1149
410.388	1433
410.465	1909
410.543	1594
410.620	1433
410.697	1260
410.775	771
410.852	-750
410.929	1993
411.006	2524
411.083	5
411.161	2820
411.238	3042
411.315	1595
411.392	332
411.469	1914
411.547	1572
411.624	-629
411.701	2
411.778	1684
411.855	1765
411.932	-153
412.009	-279
412.086	433
412.163	779
412.240	1633
412.317	1035
412.394	777
412.471	882
412.548	-607
412.625	788
412.702	979
412.779	1966
412.856	1303
412.933	497
413.010	1054
413.087	1337
413.164	5442
413.241	7744
413.318	953
413.395	1645
413.471	1702
413.548	697
413.625	1221
413.702	10
413.779	844
413.855	-43
413.932	-132
414.009	-709
414.086	-212
414.162	562
414.239	1144
414.316	5176
414.393	13469
414.469	3852
414.546	-575
414.623	-891
414.699	300
414.776	-203
414.853	-153
414.929	167
415.006	-220
415.082	710
415.159	572
415.236	-75
415.312	942
415.389	1231
415.465	729
415.542	25
415.618	-404
415.695	1466
415.771	881
415.848	75
415.924	1053
416.000	367
416.077	735
416.153	-1205
416.230	-961
416.306	-295
416.383	-236
416.459	703
416.535	-1032
416.612	-248
416.688	-115
416.764	12
416.841	-577
416.917	-494
416.993	712
417.069	902
417.146	982
417.222	1264
417.298	111
417.374	-366
417.451	708
417.527	100
417.603	147
417.679	-617
417.755	66
417.831	-1087
417.908	42
417.984	-723
418.060	-479
418.136	597
418.212	1039
418.288	-215
418.364	656
418.440	-579
418.516	985
418.592	1286
418.668	2412
418.744	2808
418.820	2068
418.896	-267
418.972	-33
419.048	175
419.124	1936
419.200	50
419.276	69
419.352	-898
419.428	86
419.504	-953
419.579	643
419.655	274
419.731	878
419.807	1906
419.883	3716
419.959	2299
420.034	801
420.110	1501
420.186	7930
420.262	6021
420.337	1631
420.413	576
420.489	508
420.565	1160
420.640	403
420.716	1418
420.792	105
420.867	1246
420.943	582
421.019	1121
421.094	1620
421.170	949
421.245	961
421.321	2271
421.397	2003
421.472	7150
421.548	20396
421.623	11952
421.699	3337
421.774	4182
421.850	3493
421.925	5539
422.001	6014
422.076	7341
422.152	9359
422.227	12654
422.302	19165
422.378	27821
422.453	52309
422.529	110976
422.604	208616
422.679	228173
422.755	198942
422.830	114178
422.905	55986
422.981	30638
423.056	21732
423.131	15706
423.207	11409
423.282	8340
423.357	8921
423.432	5901
423.508	5393
423.583	6775
423.658	5038
423.733	3321
423.808	3660
423.883	3745
423.959	3220
424.034	3471
424.109	3883
424.184	1316
424.259	2739
424.334	1463
424.409	858
424.484	1315
424.559	745
424.634	613
424.709	1572
424.784	929
424.859	1323
424.934	1719
425.009	5751
425.084	9161
425.159	3033
425.234	683
425.309	739
425.384	3119
425.459	5043
425.534	1704
425.609	567
425.683	506
425.758	16
425.833	387
425.908	1332
425.983	2725
426.058	9818
426.132	3997
426.207	480
426.282	2582
426.357	1689
426.431	781
426.506	1196
426.581	-192
426.655	616
426.730	-27
426.805	566
426.879	1193
426.954	404
427.029	1641
427.103	9572
427.178	24978
427.253	10318
427.327	1476
427.402	1598
427.476	5975
427.551	2290
427.625	334
427.700	589
427.774	-654
427.849	323
427.923	71
427.998	226
428.072	900
428.147	4676
428.221	20648
428.296	67945
428.370	34902
428.444	4328
428.519	3096
428.593	6549
428.667	5380
428.742	7913
428.816	9681
428.890	44083
428.965	67145
429.039	18680
429.113	8112
429.188	2170
429.262	777
429.336	1352
429.410	3575
429.485	3847
429.559	4747
429.633	4440
429.707	1874
429.781	6885
429.855	44347
429.930	63523
430.004	25773
430.078	33512
430.152	38020
430.226	86985
430.300	82939
430.374	14017
430.448	4459
430.522	10547
430.596	30483
430.670	22825
430.744	59646
430.818	72991
430.892	12712
430.966	1640
431.040	1376
431.114	424
431.188	-318
431.262	-103
431.336	-44
431.410	2518
431.484	6336
431.557	4061
431.631	289
431.705	1807
431.779	14232
431.853	63210
431.927	42612
432.000	4727
432.074	437
432.148	886
432.222	1023
432.295	246
432.369	322
432.443	556
432.516	9910
432.590	27012
432.664	9480
432.737	976
432.811	-513
432.885	-445
432.958	115
433.032	-622
433.106	-176
433.179	-1043
433.253	-540
433.326	51
433.400	-386
433.473	-259
433.547	-958
433.620	-281
433.694	-404
433.767	1174
433.841	-445
433.914	-617
433.988	-761
434.061	-315
434.134	-565
434.208	-390
434.281	-801
434.355	184
434.428	-302
434.501	-671
434.575	-1334
434.648	-201
434.721	-334
434.795	54
434.868	-915
434.941	-367
435.014	-596
435.088	-863
435.161	208
435.234	1335
435.307	1626
435.381	594
435.454	1433
435.527	3345
435.600	3154
435.673	2848
435.746	1897
435.819	1439
435.892	101
435.966	325
436.039	-193
436.112	1306
436.185	-599
436.258	-833
436.331	-912
436.404	-272
436.477	-953
436.550	-143
436.623	-701
436.696	-274
436.769	-80
436.842	-299
436.915	-182
436.987	874
437.060	-35
437.133	-765
437.206	-1079
437.279	-13
437.352	-777
437.425	51
437.498	250
437.570	872
437.643	-115
437.716	365
437.789	-1017
437.861	528
437.934	2845
438.007	441
438.080	-383
438.152	-481
438.225	920
438.298	14321
438.370	40040
438.443	15420
438.516	2847
438.588	-196
438.661	-841
438.734	57
438.806	76
438.879	442
438.951	219
439.024	1210
439.096	-490
439.169	-119
439.241	-821
439.314	513
439.386	-252
439.459	907
439.531	1453
439.604	244
439.676	-42
439.749	-476
439.821	-286
439.893	-58
439.966	-388
440.038	158
440.110	19
440.183	-424
440.255	-474
440.327	906
440.400	5193
440.472	23129
440.544	15193
440.617	1638
440.689	961
440.761	1094
440.833	1708
440.905	1493
440.978	-912
441.050	-800
441.122	-325
441.194	-626
441.266	-612
441.338	-325
441.411	-7
441.483	5546
441.555	8839
441.627	1748
441.699	1240
441.771	1818
441.843	-275
441.915	187
441.987	-1012
442.059	-459
442.131	700
442.203	1035
442.275	2121
442.347	3413
442.419	7065
442.491	42814
442.563	99059
442.635	43486
442.706	12293
442.778	6472
442.850	1805
442.922	780
442.994	1774
443.066	1764
443.137	1815
443.209	2797
443.281	3787
443.353	12043
443.425	50482
443.496	161765
443.568	165111
443.640	66186
443.711	12288
443.783	4141
443.855	2517
443.926	901
443.998	1461
444.070	883
444.141	861
444.213	1259
444.285	2114
444.356	1797
444.428	1540
444.499	1019
444.571	615
444.642	481
444.714	-128
444.785	1557
444.857	3100
444.928	5662
445.000	3970
445.071	4794
445.143	5897
445.214	5368
445.285	10182
445.357	29904
445.428	104162
445.500	213327
445.571	151525
445.642	92228
445.714	31929
445.785	16366
445.856	4250
445.928	2860
445.999	1748
446.070	1779
446.141	1797
446.213	1543
446.284	118
446.355	1284
446.426	308
446.497	-890
446.569	812
446.640	2562
446.711	406
446.782	48
446.853	-171
446.924	941
446.995	-1
447.066	-43
447.138	1914
447.209	1146
447.280	-715
447.351	-165
447.422	-243
447.493	-853
447.564	-235
447.635	897
447.706	570
447.777	-845
447.847	-134
447.918	-835
447.989	730
448.060	1256
448.131	2517
448.202	2314
448.273	341
448.344	142
448.414	410
448.485	-407
448.556	-140
448.627	-314
448.698	-76
448.768	-627
448.839	-493
448.910	783
448.981	1154
449.051	84
449.122	-295
449.193	-464
449.263	262
449.334	-90
449.405	596
449.475	1255
449.546	592
449.616	1856
449.687	1461
449.758	302
449.828	-778
449.899	-813
449.969	-707
450.040	-1184
450.110	579
450.181	558
450.251	-478
450.322	-655
450.392	-328
450.463	235
450.533	-548
450.604	-15
450.674	-329
450.744	190
450.815	-47
450.885	311
450.955	195
451.026	121
451.096	-89
451.166	170
451.237	2051
451.307	6508
451.377	3237
451.447	442
451.518	-96
451.588	-24
451.658	913
451.728	1995
451.799	6389
451.869	7624
451.939	1153
452.009	-119
452.079	718
452.149	1183
452.219	1963
452.289	7900
452.360	6211
452.430	1704
452.500	530
452.570	2062
452.640	4529
452.710	12715
452.780	17039
452.850	8971
452.920	4446
452.990	2435
453.060	1335
453.129	1161
453.199	1358
453.269	9819
453.339	19945
453.409	30117
453.479	30583
453.549	43476
453.619	45489
453.688	17586
453.758	3073
453.828	466
453.898	505
453.968	451
454.037	409
454.087	703
454.107	798
454.168	508
454.177	436
454.247	-82
454.249	-43
454.316	82
454.330	310
454.386	995
454.411	2036
454.456	3241
454.492	4791
454.525	6139
454.574	3175
454.595	1898
454.655	825
454.665	676
454.734	1488
454.736	1606
454.804	3093
454.817	4338
454.873	8015
454.898	8369
454.943	8556
454.979	5283
455.013	2663
455.060	2445
455.082	2629
455.141	3246
455.152	3318
455.221	9659
455.222	9897
455.291	16018
455.303	16736
455.360	18255
455.384	23530
455.430	28863
455.465	21907
455.499	16269
455.546	12115
455.569	9894
455.627	5644
455.638	5061
455.707	2027
455.708	2059
455.777	1960
455.789	1867
455.846	1199
455.869	1474
455.916	1930
455.950	1849
455.985	1716
456.031	1424
456.054	1195
456.112	1741
456.124	1878
456.193	2169
456.193	2138
456.262	2736
456.274	2931
456.332	3555
456.355	3270
456.401	2307
456.436	2172
456.470	2213
456.516	2232
456.540	2086
456.597	1637
456.609	1578
456.678	2374
456.678	2349
456.747	1971
456.759	1912
456.817	1794
456.840	2061
456.886	2367
456.920	2575
456.955	2873
457.001	2598
457.024	2389
457.082	3228
457.093	3380
457.162	3765
457.163	3803
457.232	4312
457.243	4396
457.301	3960
457.324	3430
457.370	2914
457.405	3053
457.439	3172
457.485	3773
457.508	4106
457.566	4817
457.577	5174
457.646	7187
457.647	7258
457.715	14328
457.727	15826
457.784	26672
457.808	33377
457.853	39210
457.889	44473
457.922	41865
457.969	29146
457.991	31333
458.050	40285
458.060	42441
458.129	69555
458.130	70459
458.198	58970
458.211	52916
458.267	30847
458.292	20831
458.336	15085
458.372	14782
458.405	21847
458.453	34027
458.474	43304
458.533	74573
458.543	76428
458.611	105894
458.614	106681
458.680	58866
458.694	44862
458.749	22635
458.775	15911
458.818	10410
458.855	8806
458.887	7870
458.936	6824
458.955	6445
459.016	5827
459.024	5794
459.093	5851
459.097	5862
459.162	5286
459.177	5417
459.230	6501
459.257	6668
459.299	6511
459.338	6962
459.368	7478
459.418	7933
459.437	7583
459.499	6091
459.505	6051
459.574	6133
459.579	6160
459.643	5699
459.659	5458
459.711	5569
459.740	6039
459.780	6544
459.820	6940
459.849	6960
459.900	6925
459.917	6851
459.981	6602
459.986	6627
460.054	7631
460.061	7686
460.123	7577
460.141	7493
460.191	7765
460.222	8201
460.260	8558
460.302	9322
460.328	9405
460.382	8722
460.397	8739
460.462	9296
460.465	9678
460.534	18800
460.543	19993
460.602	50668
460.623	62296
460.671	97195
460.703	126356
460.739	106893
460.783	76859
460.808	63497
460.864	16908
460.876	14044
460.944	8608
460.945	8544
461.013	7298
461.024	7255
461.081	7113
461.104	7040
461.150	7030
461.184	7031
461.218	6831
461.264	6567
461.286	6734
461.345	7128
461.355	7128
461.423	7781
461.425	7773
461.491	7570
461.505	7671
461.559	12380
461.585	14448
461.628	20759
461.665	27275
461.696	28628
461.745	31306
461.764	27066
461.825	9962
461.832	9731
461.901	7581
461.905	7564
461.969	7122
461.985	6992
462.037	7630
462.065	7798
462.105	8175
462.145	9087
462.173	11779
462.225	16309
462.241	17716
462.305	24087
462.310	23387
462.378	12394
462.385	10963
462.446	8794
462.465	8379
462.514	7929
462.545	7848
462.582	8273
462.625	8388
462.650	7960
462.705	7306
462.718	7625
462.785	9245
462.786	9280
462.854	11164
462.865	11463
462.922	13495
462.945	14260
462.990	10817
463.025	7999
463.058	7786
463.104	7794
463.126	7778
463.184	7339
463.194	7410
463.262	7809
463.264	7837
463.330	8256
463.344	8287
463.398	9379
463.424	9764
463.466	9237
463.504	8974
463.533	9089
463.583	9240
463.601	9452
463.663	10062
463.669	10248
463.737	12227
463.743	12403
463.805	17526
463.823	19065
463.873	27946
463.903	33416
463.940	33514
463.982	33686
464.008	27511
464.062	13357
464.076	12750
464.142	9620
464.144	9608
464.211	9237
464.221	9214
464.279	8757
464.301	8593
464.347	9441
464.381	9975
464.414	11081
464.461	12631
464.482	12852
464.540	13403
464.550	13086
464.617	10715
464.620	10612
464.685	12643
464.699	13114
464.753	16587
464.779	18271
464.820	20533
464.859	22708
464.888	21571
464.938	19278
464.956	19372
465.018	19582
465.023	19375
465.091	16092
465.098	15764
465.158	16683
465.177	16949
465.226	16734
465.257	16427
465.293	16064
465.336	15736
465.361	16438
465.416	17803
465.428	18887
465.495	24635
465.496	24749
465.563	35981
465.575	37930
465.631	44998
465.654	47948
465.698	31785
465.734	17924
465.765	16781
465.813	15015
465.833	15017
465.893	15311
465.900	15418
465.968	15963
465.972	15978
466.035	15232
466.052	15014
466.102	15132
466.131	15131
466.170	14713
466.210	14221
466.237	15050
466.290	16624
466.304	16398
466.369	15044
466.372	15103
466.439	16163
466.449	16266
466.506	16504
466.528	16550
466.573	22153
466.607	26291
466.641	35806
466.687	48967
466.708	52881
466.766	63502
466.775	58735
466.842	21838
466.845	20043
466.909	17603
466.925	17022
466.977	17125
467.004	17165
467.044	18689
467.083	20144
467.111	22502
467.163	26793
467.178	27558
467.242	30490
467.245	30363
467.312	26413
467.321	25834
467.379	25704
467.400	25581
467.446	26737
467.480	27476
467.559	25718
467.638	22409
467.717	23588
467.796	24135
467.875	25892
467.955	26038
468.034	35198
468.113	64758
468.192	88220
468.271	32797
468.350	32911
468.429	39380
468.508	39472
468.588	30370
468.667	26014
468.746	24633
468.825	24007
468.904	20667
468.983	24271
469.062	30830
469.141	33524
469.220	20118
469.299	22341
469.378	23361
469.456	30357
469.535	26095
469.614	24982
469.693	25308
469.772	29422
469.851	34878
469.930	27459
470.009	23045
470.088	22854
470.166	25180
470.245	29184
470.324	30489
470.403	25791
470.482	22997
470.560	21248
470.639	20691
470.718	23773
470.797	20535
470.875	23424
470.954	27313
471.033	30404
471.111	19177
471.190	19936
471.269	18136
471.347	19116
471.426	20851
471.505	24220
471.583	25282
471.662	24930
471.740	21473
471.819	22461
471.898	20315
471.976	20818
472.055	20397
472.133	23502
472.212	28447
472.290	27870
472.369	20544
472.447	20361
472.526	18509
472.604	20394
472.683	19602
472.761	20026
472.839	20021
472.918	20210
472.996	19328
473.075	22104
473.153	19945
473.231	19659
473.310	20582
473.388	19770
473.466	20029
473.545	22948
473.623	23653
473.701	22848
473.780	19988
473.858	19942
473.936	20891
474.014	19286
474.093	23346
474.171	29255
474.249	33779
474.327	24313
474.405	18655
474.484	18634
474.562	17177
474.640	18339
474.718	18104
474.796	17682
474.874	16383
474.952	16078
475.030	16372
475.108	16182
475.187	16534
475.265	17457
475.343	19737
475.421	23092
475.499	17190
475.577	19204
475.655	21869
475.733	35193
475.811	54976
475.889	49743
475.966	32679
476.044	18216
476.122	18148
476.200	20614
476.278	17780
476.356	17149
476.434	17442
476.512	18226
476.590	19966
476.667	19629
476.745	15202
476.823	17586
476.901	17512
476.979	17542
477.056	17043
477.134	18757
477.212	17057
477.290	17616
477.367	16473
477.445	16248
477.523	15210
477.601	16545
477.678	15534
477.756	19243
477.834	19107
477.911	15764
477.989	16186
478.066	15492
478.144	17598
478.222	16827
478.299	18913
478.377	20934
478.454	16744
478.532	14803
478.609	15005
478.687	16343
478.764	12761
478.842	15976
478.919	14963
478.997	15836
479.074	14306
479.152	16416
479.229	19326
479.307	14685
479.384	13472
479.461	14004
479.539	14000
479.616	17047
479.694	14737
479.771	16096
479.848	16102
479.926	20062
480.003	21313
480.080	15499
480.157	14217
480.235	13721
480.312	13645
480.389	14822
480.467	21166
480.544	26134
480.621	16096
480.698	16552
480.775	18236
480.853	17068
480.930	15052
481.007	15990
481.084	19920
481.161	27905
481.238	18905
481.315	14812
481.392	13589
481.470	15059
481.547	15609
481.624	14624
481.701	13635
481.778	14898
481.855	15941
481.932	22111
482.009	32796
482.086	23674
482.163	15983
482.240	18818
482.317	21628
482.393	19679
482.470	15550
482.547	16071
482.624	14770
482.701	15145
482.778	13692
482.855	13968
482.932	14399
483.009	15099
483.085	17844
483.162	22347
483.239	21749
483.316	16666
483.393	16412
483.469	16290
483.546	16341
483.623	17651
483.699	14398
483.776	15376
483.853	16538
483.930	21877
484.006	47888
484.083	79995
484.160	57214
484.236	89432
484.313	66433
484.389	51048
484.466	46035
484.543	45909
484.619	48582
484.696	50720
484.772	47232
484.849	46851
484.925	40676
485.002	41027
485.078	42061
485.155	41068
485.231	38075
485.308	38334
485.384	38962
485.461	43748
485.537	60019
485.614	64852
485.690	36868
485.766	35896
485.843	36583
485.919	38993
485.995	38800
486.072	34109
486.148	32017
486.224	33811
486.301	33718
486.377	36714
486.453	36455
486.530	39038
486.606	52174
486.682	56934
486.758	58376
486.835	62119
486.911	51538
486.987	69808
487.063	62680
487.139	64956
487.215	57165
487.292	44083
487.368	43276
487.444	48640
487.520	56401
487.596	66680
487.672	112550
487.748	292067
487.824	424474
487.900	138906
487.976	56861
488.052	45878
488.128	44836
488.204	38595
488.280	36710
488.356	40366
488.432	63822
488.508	84486
488.584	36126
488.660	31987
488.736	31167
488.812	32289
488.888	37443
488.964	41224
489.039	54320
489.115	70720
489.191	48668
489.267	31917
489.343	30492
489.418	28251
489.494	28720
489.570	27639
489.646	28606
489.722	28833
489.797	29072
489.873	39609
489.949	67188
490.024	54585
490.100	26383
490.176	28297
490.251	27670
490.327	31330
490.403	24155
490.478	26068
490.554	21462
490.629	25184
490.705	21911
490.781	25342
490.856	22830
490.932	26746
491.007	23992
491.083	25032
491.158	22931
491.234	31416
491.309	50055
491.385	48056
491.460	23115
491.536	25636
491.611	22105
491.686	22778
491.762	25118
491.837	34286
491.913	51583
491.988	65416
492.063	73176
492.139	36225
492.214	27710
492.289	19558
492.365	18585
492.440	21311
492.515	20144
492.590	23088
492.666	18354
492.741	25861
492.816	30801
492.891	21231
492.967	20393
493.042	17896
493.117	20009
493.192	22468
493.267	38011
493.342	111322
493.418	139330
493.493	27224
493.568	16091
493.643	17887
493.718	20730
493.793	24485
493.868	23586
493.943	16443
494.018	17978
494.093	16702
494.168	16180
494.243	15876
494.318	14605
494.393	15450
494.468	14071
494.543	14064
494.618	15964
494.693	15464
494.768	14566
494.842	16774
494.917	13219
494.992	17016
495.067	14730
495.142	14246
495.217	15909
495.292	15366
495.366	16810
495.441	19177
495.516	21401
495.591	25208
495.665	57131
495.740	113867
495.815	45559
495.890	19217
495.964	16201
496.039	20585
496.114	18955
496.188	27144
496.263	22440
496.338	16556
496.412	18672
496.487	20613
496.561	18857
496.636	20487
496.710	17954
496.785	19176
496.860	21167
496.934	16345
497.009	15250
497.083	17143
497.158	17783
497.232	19531
497.307	22042
497.381	18961
497.455	21071
497.530	27207
497.604	19226
497.679	20543
497.753	29034
497.827	33100
497.902	25797
497.976	36044
498.050	97280
498.125	365610
498.199	315517
498.273	34994
498.348	21473
498.422	21136
498.496	22110
498.570	21166
498.645	17732
498.719	19891
498.793	23842
498.867	36826
498.941	51779
499.016	152921
499.090	394446
499.164	109514
499.238	18813
499.312	17717
499.386	20341
499.460	19623
499.534	18746
499.609	23837
499.683	32250
499.757	31200
499.831	71813
499.905	270535
499.979	217001
500.053	36904
500.127	33790
500.201	22016
500.275	18432
500.349	19416
500.422	21078
500.496	27543
500.570	48728
500.644	143602
500.718	260520
500.792	49044
500.866	20238
500.940	25078
501.013	20551
501.087	20129
501.161	27589
501.235	37007
501.309	89487
501.382	242287
501.456	176454
501.530	44330
501.603	78257
501.677	29222
501.751	15149
501.825	20530
501.898	36708
501.972	97151
502.046	51524
502.119	20100
502.193	43456
502.266	103145
502.340	43759
502.413	49085
502.487	85362
502.561	46783
502.634	17043
502.708	15702
502.781	12609
502.855	14087
502.928	11956
503.002	12465
503.075	11787
503.149	13894
503.222	14344
503.295	15755
503.369	18099
503.442	25624
503.516	75518
503.589	174225
503.662	101190
503.736	39899
503.809	86719
503.882	68900
503.956	110287
504.029	111250
504.102	149187
504.175	203381
504.249	72492
504.322	34167
504.395	23208
504.468	17567
504.542	15742
504.615	12467
504.688	12174
504.761	10535
504.834	13395
504.907	14331
504.980	17205
505.053	13439
505.127	12143
505.200	17179
505.273	17088
505.346	12476
505.419	10672
505.492	11501
505.565	8906
505.638	9100
505.711	8789
505.784	9061
505.857	8822
505.930	12337
506.003	8539
506.076	12962
506.149	13207
506.221	16356
506.294	16695
506.367	40384
506.440	127080
506.513	55754
506.586	16160
506.659	11841
506.731	9642
506.804	11075
506.877	12551
506.950	11596
507.022	9683
507.095	12798
507.168	13468
507.241	11005
507.313	8308
507.386	9064
507.459	11608
507.531	9325
507.604	8064
507.677	9425
507.749	7804
507.822	13938
507.894	23915
507.967	31176
508.040	20032
508.112	17800
508.185	17182
508.257	14624
508.330	18606
508.402	15292
508.475	15592
508.547	16865
508.620	15160
508.692	22898
508.765	15182
508.837	12921
508.909	13510
508.982	13993
509.054	13917
509.127	12708
509.199	13028
509.271	12808
509.344	12251
509.416	13659
509.488	12484
509.560	13131
509.633	12988
509.705	14492
509.777	14514
509.849	17331
509.922	13396
509.994	15115
510.066	14222
510.138	18484
510.210	34972
510.283	28783
510.355	23481
510.427	20682
510.499	18600
510.571	17942
510.643	17272
510.715	22853
510.787	17897
510.859	19662
510.931	18925
511.003	21718
511.076	19668
511.148	16387
511.219	18113
511.291	26069
511.363	26759
511.435	17042
511.507	14892
511.579	16762
511.651	16099
511.723	15071
511.795	14599
511.867	15390
511.939	17421
512.010	29635
512.082	23153
512.154	14820
512.226	16254
512.298	25100
512.369	33143
512.441	26001
512.513	23010
512.585	19220
512.656	20116
512.728	19203
512.800	17947
512.871	18344
512.943	17528
513.015	15678
513.086	16853
513.158	18466
513.230	16699
513.301	20158
513.373	19769
513.444	16460
513.516	14182
513.588	16253
513.659	15767
513.731	17848
513.802	14891
513.874	24420
513.945	29581
514.016	17098
514.088	15800
514.159	15742
514.231	20093
514.302	29096
514.374	24041
514.445	22509
514.516	35265
514.588	25862
514.659	20317
514.730	30109
514.802	20691
514.873	15800
514.944	17979
515.016	18224
515.087	17370
515.158	22957
515.229	27947
515.301	14781
515.372	16638
515.443	13680
515.514	16147
515.585	14772
515.656	16194
515.728	15372
515.799	14307
515.870	16629
515.941	16325
516.012	17551
516.083	23125
516.154	22514
516.225	23372
516.296	23885
516.367	21065
516.438	22370
516.509	25240
516.580	37798
516.651	97848
516.722	294955
516.793	105129
516.864	34918
516.935	32699
517.006	38020
517.077	47368
517.148	100149
517.219	377210
517.289	503622
517.360	159651
517.431	52104
517.502	24339
517.573	24047
517.643	23314
517.714	27288
517.785	27209
517.856	27063
517.926	32091
517.997	32369
518.068	36675
518.138	46628
518.209	73518
518.280	258506
518.350	829353
518.421	258729
518.492	46746
518.562	39302
518.633	43584
518.703	54281
518.774	109326
518.845	265691
518.915	223630
518.986	69109
519.056	39877
519.127	43519
519.197	59812
519.268	136034
519.338	77638
519.408	27012
519.479	23925
519.549	20109
519.620	19060
519.690	16248
519.760	16625
519.831	15354
519.901	16083
519.971	15216
520.042	15820
520.112	16848
520.182	17273
520.253	18412
520.323	15708
520.393	21192
520.463	26987
520.534	20730
520.604	36364
520.674	19802
520.744	20799
520.814	38796
520.885	33161
520.955	50033
521.025	158997
521.095	50682
521.165	17798
521.235	15212
521.305	13632
521.375	14173
521.445	14873
521.515	15114
521.585	17684
521.655	14570
521.725	15557
521.795	15397
521.865	11954
521.935	21132
522.005	16277
522.075	13117
522.145	15374
522.215	16076
522.285	18351
522.355	25495
522.424	43657
522.494	33379
522.564	18517
522.634	27412
522.704	57117
522.774	23086
522.843	13444
522.913	13504
522.983	14783
523.053	12315
523.122	12835
523.192	16370
523.262	31383
523.331	27846
523.401	14124
523.471	11084
523.540	12308
523.610	10544
523.680	11476
523.749	12224
523.819	16164
523.888	15414
523.958	11045
524.027	12639
524.097	13188
524.166	11800
524.236	11368
524.305	13966
524.375	10000
524.444	11392
524.514	13253
524.583	12104
524.653	14747
524.722	17564
524.791	10818
524.861	14042
524.930	10308
524.999	11528
525.069	14398
525.138	13877
525.207	16144
525.277	14157
525.346	12982
525.415	14491
525.484	14961
525.554	17930
525.623	19550
525.692	22576
525.761	23873
525.830	26345
525.900	32612
525.969	49419
526.038	86931
526.107	193499
526.176	522823
526.245	370438
526.314	114270
526.383	271164
526.452	340820
526.522	569389
526.591	459284
526.660	83236
526.729	50122
526.797	59806
526.867	103525
526.935	354420
527.004	952912
527.073	478787
527.142	54475
527.211	27930
527.280	21895
527.349	19070
527.418	14166
527.487	14981
527.555	11736
527.624	11328
527.693	10388
527.762	12408
527.831	9613
527.899	11484
527.968	10608
528.037	9554
528.106	11216
528.174	15705
528.243	15013
528.312	19655
528.380	19335
528.449	11013
528.518	10210
528.586	7999
528.655	9077
528.723	9745
528.792	9556
528.861	9962
528.929	7822
528.998	11143
529.066	12708
529.135	18203
529.203	16219
529.272	20389
529.340	23475
529.409	24103
529.477	21156
529.545	23360
529.614	24468
529.682	29644
529.751	31395
529.819	33918
529.887	32754
529.956	29435
530.024	28757
530.092	25937
530.161	25840
530.229	29944
530.297	27549
530.365	27872
530.434	30031
530.502	29258
530.570	26680
530.638	24202
530.707	23290
530.775	23962
530.843	23188
530.911	26969
530.979	25375
531.047	29238
531.115	28701
531.183	25347
531.252	24331
531.320	24457
531.388	23318
531.456	28343
531.524	27009
531.592	29076
531.660	32973
531.728	28904
531.796	27214
531.864	27639
531.932	27093
532.000	27968
532.067	30570
532.135	31102
532.203	33796
532.271	35855
532.339	40290
532.407	49114
532.475	38665
532.542	34821
532.610	33270
532.678	38379
532.746	73365
532.814	123343
532.881	48217
532.949	34391
533.017	30572
533.084	29791
533.152	28086
533.220	28796
533.287	29426
533.355	30533
533.423	31213
533.490	31323
533.558	29909
533.625	30996
533.693	28548
533.761	29454
533.828	28504
533.896	29709
533.963	37546
534.031	38422
534.098	41422
534.166	35073
534.233	30642
534.300	33170
534.368	31094
534.435	30507
534.503	31405
534.570	33761
534.637	33059
534.705	36703
534.772	42443
534.840	69138
534.907	250803
534.974	262164
535.041	41070
535.109	29780
535.176	22973
535.243	26004
535.310	24184
535.378	23664
535.445	22936
535.512	22211
535.579	21537
535.646	21490
535.714	22596
535.781	26117
535.848	25093
535.915	27046
535.982	28429
536.049	27422
536.116	25298
536.183	22801
536.250	21118
536.317	21124
536.384	21194
536.451	23242
536.518	23996
536.585	20816
536.652	25151
536.719	25045
536.786	20392
536.853	20324
536.920	23382
536.987	27342
537.053	26187
537.120	64423
537.187	48117
537.254	18947
537.321	18607
537.388	20261
537.454	17730
537.521	17086
537.588	15914
537.654	21103
537.721	21082
537.788	20151
537.855	18295
537.921	19421
537.988	17492
538.055	18603
538.121	15495
538.188	17390
538.254	17888
538.321	23132
538.388	19707
538.454	17237
538.521	17425
538.587	17332
538.654	17157
538.720	17159
538.787	16180
538.853	17259
538.920	18153
538.986	16636
539.053	15833
539.119	16730
539.185	15120
539.252	18236
539.318	19056
539.385	20638
539.451	19461
539.517	18683
539.583	21056
539.650	29173
539.716	46871
539.782	19968
539.849	14903
539.915	16986
539.981	15279
540.047	16864
540.114	16374
540.180	17709
540.246	16180
540.312	18715
540.378	23374
540.444	23285
540.510	26684
540.576	49370
540.643	20936
540.709	15172
540.775	15644
540.841	16061
540.907	18845
540.973	25048
541.039	20540
541.105	19669
541.171	17014
541.237	16743
541.303	16556
541.369	19090
541.435	18487
541.500	23184
541.566	15486
541.632	14361
541.698	13712
541.764	15674
541.830	13637
541.896	14204
541.961	15191
542.027	13931
542.093	15021
542.159	17161
542.224	16550
542.290	21100
542.356	21417
542.421	23003
542.487	17485
542.553	16235
542.618	16672
542.684	15448
542.750	14279
542.815	18091
542.881	21462
542.947	47435
543.012	31324
543.078	14455
543.143	13426
543.209	16107
543.274	14758
543.340	16877
543.405	24689
543.471	29169
543.536	15661
543.602	15947
543.667	13771
543.732	16060
543.798	14044
543.863	16286
543.928	14255
543.994	14417
544.059	14385
544.124	16548
544.190	14454
544.255	15702
544.320	15440
544.386	16191
544.451	17963
544.516	17722
544.581	18021
544.646	35890
544.712	41917
544.777	19468
544.842	17838
544.907	17634
544.972	17608
545.037	17805
545.102	19626
545.168	18302
545.233	18889
545.298	20202
545.363	20735
545.428	22840
545.493	27331
545.558	39428
545.623	23827
545.688	19074
545.753	18856
545.818	19668
545.883	21409
545.947	21333
546.012	22412
546.077	22294
546.142	23343
546.207	22700
546.272	24798
546.337	25118
546.401	26278
546.466	26964
546.531	25440
546.596	27897
546.661	28152
546.725	29207
546.790	27741
546.855	31756
546.919	32609
546.984	36582
547.049	38435
547.113	44710
547.178	46626
547.243	52688
547.307	59175
547.372	67582
547.436	68084
547.501	67036
547.565	71048
547.630	67461
547.695	65636
547.759	68054
547.823	66242
547.888	66413
547.952	68010
548.017	71974
548.081	76450
548.146	77644
548.210	75562
548.274	77481
548.339	74278
548.403	69968
548.468	65045
548.532	65300
548.596	67326
548.660	67686
548.725	73771
548.789	81615
548.853	78492
548.917	73450
548.982	75748
549.046	68528
549.110	58204
549.174	62205
549.238	69057
549.303	76002
549.367	78670
549.431	73869
549.495	68709
549.559	71185
549.623	81892
549.687	88602
549.751	91072
549.815	103279
549.879	103290
549.943	100153
550.007	104256
550.071	102410
550.135	93941
550.199	88348
550.263	87366
550.327	85060
550.391	91591
550.455	97467
550.519	99384
550.582	105906
550.646	120329
550.710	120891
550.774	115305
550.838	119277
550.901	122595
550.965	131228
551.029	135487
551.093	148252
551.156	163967
551.220	203210
551.284	214414
551.347	159058
551.411	158509
551.475	152367
551.538	128528
551.602	119227
551.666	111916
551.729	105142
551.793	104809
551.856	103388
551.920	101594
551.983	101702
552.047	99758
552.110	99750
552.174	101213
552.237	103727
552.301	95818
552.364	92386
552.428	89600
552.491	92568
552.554	94381
552.618	94834
552.681	95650
552.745	93232
552.808	102893
552.871	112340
552.934	100856
552.998	96315
553.061	93515
553.124	91101
553.187	89960
553.251	94563
553.314	95110
553.377	98506
553.440	115830
553.503	176635
553.567	205589
553.630	109210
553.693	100734
553.756	99402
553.819	97819
553.882	92987
553.945	94265
554.008	95909
554.071	94170
554.134	96132
554.197	90269
554.260	90015
554.323	91702
554.386	92905
554.449	95119
554.512	95554
554.575	90601
554.638	90555
554.701	91053
554.764	90137
554.827	85107
554.889	84076
554.952	79247
555.015	78417
555.078	78623
555.141	78744
555.203	78345
555.266	77952
555.329	77299
555.391	73663
555.454	73581
555.517	70750
555.580	69464
555.642	67154
555.705	64896
555.768	66411
555.830	63672
555.893	59833
555.955	58290
556.018	58577
556.080	58845
556.143	60979
556.206	58570
556.268	58912
556.330	56168
556.393	55871
556.455	54323
556.518	57246
556.580	55550
556.643	50742
556.705	49069
556.767	46819
556.830	48049
556.892	47612
556.955	49331
557.017	45990
557.079	46126
557.142	44296
557.204	44606
557.266	50094
557.328	43861
557.391	39198
557.453	39004
557.515	39330
557.577	40497
557.639	40592
557.701	39573
557.764	39934
557.826	40205
557.888	43173
557.950	43761
558.012	51712
558.074	69355
558.136	154590
558.198	324257
558.260	102246
558.322	47802
558.384	49418
558.446	51748
558.508	57854
558.570	65400
558.632	82921
558.694	113947
558.756	188135
558.818	534238
558.880	1048710
558.942	349967
559.003	346927
559.065	145715
559.127	64180
559.189	63113
559.251	77043
559.312	117381
559.374	282028
559.436	787078
559.498	327870
559.559	71121
559.621	65784
559.683	81002
559.744	140080
559.806	422198
559.868	538391
559.929	102452
559.991	73738
560.052	122435
560.114	324784
560.176	182309
560.237	192614
560.299	270788
560.360	56108
560.422	27943
560.483	26940
560.545	23934
560.606	23797
560.667	22087
560.729	21744
560.790	21159
560.852	21204
560.913	20983
560.974	19743
561.036	19964
561.097	20248
561.158	19188
561.220	19880
561.281	18752
561.342	19163
561.403	20082
561.465	21379
561.526	29925
561.587	32818
561.648	17818
561.709	17906
561.771	18583
561.832	17639
561.893	18112
561.954	17639
562.015	17409
562.076	17749
562.137	16482
562.198	17776
562.259	17715
562.320	17621
562.381	16384
562.442	20048
562.503	18209
562.564	17669
562.625	15772
562.686	16140
562.747	16520
562.808	16326
562.869	15598
562.930	19695
562.991	16515
563.051	17196
563.112	16051
563.173	16114
563.234	15044
563.294	15913
563.355	14744
563.416	16458
563.477	15097
563.537	16438
563.598	16042
563.659	17068
563.720	14460
563.780	16450
563.841	15352
563.901	15848
563.962	15064
564.023	15478
564.083	14993
564.144	15611
564.204	15290
564.265	16870
564.325	17189
564.386	26945
564.446	22252
564.507	14920
564.567	14562
564.628	15017
564.688	14832
564.749	14163
564.809	16286
564.869	17385
564.930	15216
564.990	14806
565.050	13426
565.111	15183
565.171	14548
565.231	14363
565.292	13492
565.352	13429
565.412	14885
565.472	14638
565.532	14478
565.593	15196
565.653	13042
565.713	14256
565.773	15430
565.833	15712
565.893	17083
565.953	14938
566.013	14604
566.074	15272
566.134	17467
566.194	23528
566.254	21857
566.314	17361
566.374	14161
566.434	14386
566.494	14378
566.554	14762
566.614	13675
566.673	14578
566.733	14704
566.793	14841
566.853	15061
566.913	15488
566.973	13648
567.033	15657
567.092	14854
567.152	16613
567.212	14149
567.272	15611
567.331	16236
567.391	15540
567.451	15935
567.511	19911
567.570	18801
567.630	15419
567.690	14465
567.749	14968
567.809	14711
567.868	15680
567.928	14935
567.988	16793
568.047	14518
568.107	16001
568.166	16245
568.226	16943
568.285	17519
568.345	17485
568.404	17056
568.464	15834
568.523	15348
568.582	17408
568.642	16021
568.701	16126
568.761	17218
568.820	19786
568.879	20411
568.939	21275
568.998	17582
569.057	16022
569.116	15346
569.176	15676
569.235	12801
569.294	15101
569.353	14424
569.413	14287
569.472	14370
569.531	14306
569.590	12580
569.649	14595
569.708	13391
569.767	15776
569.827	15351
569.886	14551
569.945	13821
570.004	14295
570.063	13972
570.122	14752
570.181	15553
570.240	17066
570.299	17224
570.358	15918
570.417	14405
570.475	14507
570.534	14261
570.593	14974
570.652	14326
570.711	14199
570.770	13741
570.829	15801
570.887	14435
570.946	15348
571.005	13663
571.064	15271
571.122	15786
571.181	16007
571.240	13555
571.299	14879
571.357	14539
571.416	15114
571.475	15092
571.533	17085
571.592	14838
571.650	15340
571.709	14731
571.768	16136
571.826	16287
571.885	15144
571.943	13619
572.002	14451
572.060	13735
572.119	15394
572.177	13124
572.236	14002
572.294	13926
572.352	13789
572.411	14322
572.469	14301
572.528	12086
572.586	13720
572.644	14020
572.703	15030
572.761	13745
572.819	13143
572.877	12866
572.936	12537
572.994	12780
573.052	12337
573.110	12259
573.169	13284
573.227	12447
573.285	13543
573.343	12847
573.401	13016
573.459	12939
573.517	13264
573.576	12904
573.634	13426
573.692	13328
573.750	13288
573.808	12503
573.866	13691
573.924	15355
573.982	15403
574.040	13069
574.098	13024
574.155	12698
574.213	12175
574.271	12175
574.329	13646
574.387	11828
574.445	12305
574.503	10800
574.560	11905
574.618	11699
574.676	11872
574.734	11148
574.792	12016
574.849	10974
574.907	10946
574.965	10756
575.022	11031
575.080	10349
575.138	11760
575.195	10499
575.253	11023
575.311	12044
575.368	11342
575.426	10071
575.483	11995
575.541	10821
575.598	10327
575.656	10641
575.713	10769
575.771	10952
575.828	11842
575.886	10296
575.943	10791
576.001	10739
576.058	11070
576.115	10866
576.173	12541
576.230	12742
576.287	13270
576.345	12595
576.402	12031
576.459	11688
576.517	10979
576.574	12912
576.631	12668
576.688	10464
576.746	11820
576.803	10973
576.860	11485
576.917	11120
576.974	11147
577.031	10363
577.089	10978
577.146	10643
577.203	10832
577.260	11487
577.317	12143
577.374	12437
577.431	11735
577.488	11760
577.545	11235
577.602	11086
577.659	11924
577.716	12728
577.773	13781
577.830	11733
577.886	11707
577.943	10459
578.000	11157
578.057	12045
578.114	13314
578.171	14422
578.227	19531
578.284	17284
578.341	15791
578.398	14310
578.454	13408
578.511	12849
578.568	14285
578.625	11393
578.681	11317
578.738	11197
578.794	11055
578.851	11647
578.908	10823
578.964	12291
579.021	12390
579.077	10299
579.134	11374
579.190	11060
579.247	11637
579.303	10756
579.360	11244
579.416	10797
579.473	10183
579.529	10672
579.586	11976
579.642	11913
579.698	12213
579.755	11498
579.811	13050
579.867	12647
579.924	13263
579.980	13918
580.036	16397
580.093	18744
580.149	27031
580.205	28742
580.261	23294
580.317	18184
580.374	16938
580.430	16246
580.486	15913
580.542	13704
580.598	13761
580.619	13763
580.654	13781
580.692	13096
580.710	12778
580.765	13462
580.767	13497
580.823	13338
580.838	13237
580.879	12998
580.911	13429
580.935	13785
580.984	13052
580.991	12964
581.047	14630
581.057	14502
581.103	14013
581.130	14935
581.159	15938
581.203	16329
581.215	16444
581.270	16806
581.276	16647
581.326	15210
581.349	14846
581.382	14344
581.422	13670
581.438	13403
581.494	14986
581.494	14961
581.550	13330
581.567	13517
581.606	13990
581.640	13997
581.661	14027
581.713	14820
581.717	14886
581.773	14069
581.786	14284
581.829	15032
581.859	14587
581.885	14254
581.932	14691
581.940	14763
581.996	14406
582.004	14422
582.052	14642
582.077	14641
582.107	14587
582.150	15402
582.163	15675
582.219	14891
582.223	14906
582.274	15185
582.296	15173
582.330	15084
582.368	15631
582.386	15956
582.441	15716
582.441	15719
582.497	16133
582.514	15945
582.552	15744
582.587	17109
582.608	17919
582.659	17100
582.663	17025
582.719	17054
582.732	16848
582.774	16376
582.805	17026
582.830	17520
582.877	17993
582.885	18119
582.941	19390
582.950	19667
582.996	20986
583.023	22362
583.052	24035
583.095	24604
583.107	24703
583.162	27434
583.168	27333
583.218	25937
583.240	24742
583.273	22966
583.313	20873
583.328	20093
583.384	18806
583.385	18771
583.439	17795
583.458	17785
583.494	17922
583.531	17062
583.549	16600
583.603	16969
583.605	16980
583.660	16204
583.676	16355
583.715	16841
583.748	16267
583.770	15850
583.820	16513
583.825	16567
583.881	15693
583.893	15545
583.936	15277
583.965	15823
583.991	16136
584.038	16334
584.046	16393
584.101	16805
584.110	16826
584.156	16785
584.183	16842
584.211	17000
584.255	16880
584.266	16855
584.321	16923
584.328	16975
584.376	17458
584.400	17606
584.431	17635
584.472	17660
584.486	17681
584.541	17764
584.545	17799
584.596	18585
584.617	18523
584.651	18489
584.689	19794
584.706	20184
584.761	19334
584.762	19338
584.816	20110
584.834	20254
584.871	20213
584.906	20344
584.926	20560
584.978	20409
584.980	20403
585.035	22539
585.051	22709
585.090	23346
585.123	24076
585.145	24487
585.195	25731
585.200	25914
585.254	28705
585.267	29754
585.309	32680
585.340	34784
585.364	36604
585.412	38567
585.419	38859
585.473	46307
585.484	48454
585.528	60131
585.556	73599
585.583	95204
585.628	148020
585.637	166149
585.692	333651
585.700	362568
585.747	477025
585.772	399338
585.801	246610
585.845	92553
585.856	71339
585.910	40256
585.917	37449
585.965	31237
585.989	29358
586.019	27830
586.061	26081
586.074	25647
586.128	25289
586.133	25189
586.183	24512
586.205	24396
586.237	23962
586.277	23194
586.292	23094
586.346	22954
586.349	22955
586.401	22538
586.421	22380
586.455	22428
586.493	23176
586.509	24084
586.564	26775
586.565	26940
586.618	36208
586.637	36803
586.672	33188
586.709	28470
586.727	27026
586.781	27028
586.781	27029
586.835	22767
586.853	22208
586.889	21565
586.925	19948
586.944	19585
586.996	20819
586.998	20844
587.052	20214
587.068	20254
587.106	20331
587.140	20095
587.161	20098
587.212	20080
587.215	20093
587.269	20351
587.284	20508
587.323	20721
587.356	20552
587.377	20477
587.427	20892
587.431	20964
587.485	21396
587.499	21587
587.539	21715
587.571	21638
587.593	21860
587.643	23152
587.648	23254
587.702	23080
587.715	23309
587.755	24299
587.786	24677
587.810	24651
587.858	24227
587.864	24271
587.917	24899
587.930	25088
587.971	25992
588.001	26879
588.025	27342
588.073	27152
588.079	27179
588.133	28384
588.145	28690
588.187	30131
588.217	30645
588.241	31223
588.288	33684
588.295	34151
588.348	37076
588.360	37811
588.402	40721
588.431	42583
588.456	43973
588.503	47720
588.510	48505
588.564	55047
588.575	56585
588.617	62921
588.646	67951
588.671	73893
588.718	88444
588.725	92192
588.778	126737
588.789	136020
588.832	218489
588.861	284796
588.886	396357
588.932	641574
588.939	664040
588.993	789308
589.004	785367
589.047	482064
589.075	295224
589.100	214678
589.147	108265
589.154	104170
589.207	81901
589.218	78226
589.261	76460
589.290	76583
589.314	80709
589.361	92129
589.368	96731
589.421	140283
589.433	151773
589.475	268188
589.504	362904
589.528	470615
589.576	686283
589.582	669881
589.635	394691
589.647	338126
589.689	176154
589.718	84380
589.742	71432
589.790	50706
589.795	49984
589.849	44800
589.861	43997
589.902	43648
589.932	42135
589.955	39130
590.004	32712
590.009	32464
590.062	30556
590.075	30110
590.115	29399
590.146	28726
590.168	28268
590.218	27514
590.222	27587
590.275	28078
590.289	28218
590.328	28565
590.360	28618
590.381	28431
590.431	28042
590.435	28022
590.488	27071
590.503	26925
590.541	28213
590.574	29047
590.594	28956
590.645	28640
590.647	28656
590.700	28263
590.716	28141
590.753	28359
590.787	28476
590.806	28634
590.859	29182
590.859	29212
590.912	29017
590.930	28977
590.965	29798
591.001	30555
591.018	30322
591.071	29620
591.072	29581
591.124	29220
591.143	29223
591.177	29688
591.214	30036
591.230	30183
591.283	30634
591.285	30611
591.336	30401
591.356	30312
591.389	30550
591.427	30649
591.442	30772
591.495	31162
591.498	31147
591.547	29716
591.569	29087
591.600	29778
591.640	30443
591.653	30531
591.706	30874
591.711	30875
591.759	31926
591.782	32416
591.811	33402
591.853	34787
591.864	34578
591.917	33092
591.924	32846
591.969	33392
591.995	33701
592.022	33334
592.066	32553
592.075	32935
592.127	35138
592.137	35516
592.180	37523
592.208	38689
592.233	37670
592.279	35588
592.285	35730
592.338	36593
592.350	36741
592.390	35773
592.421	34972
592.443	35264
592.491	35767
592.495	35898
592.548	37097
592.562	37376
592.600	36868
592.633	36357
592.653	36641
592.704	37060
592.705	37267
592.775	37014
592.846	37862
592.916	38313
592.987	38190
593.058	38261
593.128	38649
593.199	38486
593.270	39071
593.341	38445
593.411	40025
593.482	41194
593.553	42613
593.623	41587
593.694	42598
593.764	45217
593.835	45149
593.906	44446
593.976	45417
594.047	46373
594.117	51111
594.188	52139
594.258	48769
594.329	48507
594.399	50449
594.470	50585
594.540	52644
594.611	54389
594.681	52944
594.751	53446
594.822	55318
594.892	57834
594.963	58489
595.033	59683
595.103	61120
595.174	62154
595.244	68388
595.314	73594
595.384	66730
595.455	66206
595.525	69246
595.595	70690
595.665	71505
595.736	70362
595.806	72310
595.876	72670
595.946	74498
596.016	75212
596.087	77245
596.157	77692
596.227	78623
596.297	81354
596.367	87449
596.437	92230
596.507	93737
596.577	98487
596.647	94640
596.717	97479
596.787	98949
596.857	98478
596.927	99562
596.997	99734
597.067	103170
597.137	107156
597.207	105865
597.277	105986
597.347	102298
597.417	100419
597.487	101708
597.557	102944
597.626	105621
597.696	106972
597.766	108629
597.836	108725
597.906	98495
597.975	95567
598.045	98499
598.115	101084
598.185	108020
598.254	118946
598.324	127142
598.394	130120
598.464	127445
598.533	124989
598.603	119174
598.672	115874
598.742	120141
598.812	121602
598.881	122878
598.951	123428
599.020	125334
599.090	128286
599.159	134258
599.229	126666
599.299	126399
599.368	129404
599.437	128965
599.507	121306
599.576	120024
599.646	120757
599.715	121157
599.785	119803
599.854	117834
599.924	118612
599.993	118457
600.062	118571
600.132	124574
600.201	128079
600.270	145160
600.340	153394
600.409	150600
600.478	152611
600.547	155056
600.617	147218
600.686	127218
600.755	119362
600.824	119755
600.894	117530
600.963	119269
601.032	120449
601.101	120352
601.170	118526
601.239	118601
601.308	119501
601.378	120989
601.447	123027
601.516	127190
601.585	127243
601.654	132156
601.723	135166
601.792	137697
601.861	141554
601.930	151327
601.999	153261
602.068	150418
602.137	153234
602.206	152557
602.275	155422
602.343	158019
602.412	158578
602.481	161133
602.550	162462
602.619	164122
602.688	165135
602.756	167274
602.825	164771
602.894	171349
602.963	170154
603.032	173743
603.100	173900
603.169	170169
603.238	176708
603.307	170882
603.375	172044
603.444	180455
603.513	168140
603.581	174688
603.650	184459
603.719	159042
603.787	153954
603.856	158717
603.924	162135
603.993	166581
604.061	171229
604.130	176646
604.198	181660
604.267	184558
604.335	188229
604.404	189178
604.472	194914
604.541	193948
604.609	199321
604.678	203627
604.746	204121
604.815	215986
604.883	210437
604.951	206749
605.020	211930
605.088	201812
605.156	195998
605.225	198928
605.293	196120
605.361	197492
605.429	197927
605.498	202595
605.566	201962
605.634	212157
605.702	215671
605.771	221201
605.839	222919
605.907	211776
605.975	213968
606.043	206059
606.111	201727
606.180	213485
606.248	204361
606.316	199451
606.384	208324
606.452	183694
606.520	166608
606.588	169751
606.656	170723
606.724	166862
606.792	159646
606.860	143344
606.928	131131
606.996	128693
607.064	125040
607.132	128090
607.200	135798
607.267	139689
607.335	141836
607.403	146417
607.471	141271
607.539	136418
607.607	139267
607.674	123593
607.742	122198
607.810	121064
607.878	120793
607.946	125443
608.013	128393
608.081	131069
608.149	130149
608.216	134472
608.284	141145
608.352	138677
608.419	139323
608.487	138981
608.555	132110
608.622	135521
608.690	142959
608.757	155879
608.825	158752
608.893	155527
608.960	147876
609.028	143850
609.095	144024
609.163	141790
609.230	127182
609.298	115371
609.365	119022
609.432	130827
609.500	141307
609.567	162454
609.635	185346
609.702	194959
609.769	188970
609.837	147758
609.904	126827
609.971	128634
610.039	143553
610.106	183206
610.173	328198
610.241	723431
610.308	490481
610.375	216088
610.442	146613
610.509	132224
610.577	132153
610.644	132552
610.711	135822
610.778	139833
610.845	145752
610.912	155957
610.980	163782
611.047	169246
611.114	162023
611.181	151752
611.248	151578
611.315	161090
611.382	163768
611.449	170838
611.516	173615
611.583	170487
611.650	171938
611.717	173048
611.784	176587
611.851	183230
611.918	193502
611.984	221191
612.051	301255
612.118	552811
612.185	1234172
612.252	852558
612.319	275252
612.386	227149
612.452	207849
612.519	197404
612.586	195698
612.653	196734
612.719	202286
612.786	195063
612.853	181122
612.919	177222
612.986	179789
613.053	170137
613.120	159054
613.186	153747
613.253	157414
613.319	154964
613.386	156972
613.453	158470
613.519	159167
613.586	158389
613.652	163515
613.719	159179
613.785	160863
613.852	161773
613.918	160191
613.985	163308
614.051	173913
614.118	192197
614.184	186000
614.250	161483
614.317	165752
614.383	160144
614.449	163852
614.516	162809
614.582	164128
614.648	160488
614.715	158975
614.781	158560
614.847	157531
614.914	157536
614.980	152579
615.046	152785
615.112	157335
615.179	157450
615.245	158946
615.311	157762
615.377	158948
615.443	162159
615.509	162052
615.575	168534
615.642	166238
615.708	171354
615.774	177651
615.840	187246
615.906	198703
615.972	233297
616.038	328600
616.104	637528
616.170	1377822
616.236	1232864
616.302	377829
616.368	280989
616.434	214785
616.500	196938
616.565	212855
616.631	256409
616.697	218419
616.763	221139
616.829	307148
616.895	523227
616.961	512050
617.026	241804
617.092	178303
617.158	169170
617.224	164399
617.289	154082
617.355	146157
617.421	145710
617.487	146766
617.552	137795
617.618	137829
617.684	136842
617.749	139105
617.815	134889
617.880	128693
617.946	130235
618.012	133962
618.077	135678
618.143	130359
618.208	131052
618.274	140101
618.339	143502
618.405	119569
618.470	119698
618.536	120312
618.601	119326
618.667	111215
618.732	106437
618.798	104135
618.863	105509
618.928	103420
618.994	104692
619.059	105065
619.124	108326
619.190	105358
619.255	102744
619.320	103597
619.386	104926
619.451	104229
619.516	99427
619.581	102740
619.647	104864
619.712	105343
619.777	101219
619.842	101543
619.907	105471
619.972	105882
620.038	103471
620.103	101043
620.168	101921
620.233	103625
620.298	103622
620.363	105755
620.428	106729
620.493	108248
620.558	110010
620.623	112256
620.688	112601
620.753	111431
620.818	114398
620.883	113409
620.948	114202
621.013	111320
621.078	111723
621.143	112456
621.207	116449
621.272	113431
621.337	109874
621.402	109687
621.467	112840
621.532	113398
621.596	110333
621.661	106290
621.726	105847
621.791	105848
621.855	108896
621.920	107002
621.985	108667
622.049	111793
622.114	110891
622.179	110949
622.243	115088
622.308	117704
622.373	122953
622.437	118228
622.502	113674
622.566	112604
622.631	112659
622.695	113330
622.760	113196
622.824	113302
622.889	112207
622.953	112348
623.018	121448
623.082	123426
623.147	118837
623.211	114483
623.276	115692
623.340	111375
623.404	108539
623.469	108163
623.533	109443
623.597	108910
623.662	106665
623.726	101227
623.790	95156
623.854	94108
623.919	95368
623.983	94971
624.047	96889
624.111	96966
624.176	98476
624.240	100333
624.304	103607
624.368	97772
624.432	98192
624.496	98913
624.560	104931
624.625	105647
624.689	106102
624.753	108634
624.817	104286
624.881	100881
624.945	93078
625.009	89073
625.073	92274
625.137	93970
625.201	99526
625.265	99529
625.329	94165
625.393	94231
625.456	95775
625.520	97580
625.584	100765
625.648	103536
625.712	113209
625.776	136972
625.839	138129
625.903	95774
625.967	80385
626.031	93417
626.095	115771
626.158	92209
626.222	72919
626.286	69037
626.349	66218
626.413	61295
626.477	62771
626.540	61698
626.604	60787
626.668	62177
626.731	60979
626.795	60873
626.858	60582
626.922	59865
626.986	57840
627.049	57671
627.113	61777
627.176	59167
627.240	57193
627.303	56991
627.366	56629
627.430	57636
627.493	56847
627.557	55324
627.620	58856
627.684	59000
627.747	60061
627.810	52744
627.874	50562
627.937	48664
628.000	50888
628.064	49752
628.127	43297
628.190	43544
628.253	43725
628.317	41372
628.380	39951
628.443	38969
628.506	39056
628.569	37259
628.632	35608
628.696	34628
628.759	34706
628.822	34005
628.885	33108
628.948	33203
629.011	32730
629.074	31971
629.137	29607
629.200	30256
629.263	32500
629.326	28845
629.389	29934
629.452	29840
629.515	29551
629.578	28612
629.641	29677
629.704	29603
629.767	29941
629.830	28144
629.892	28356
629.955	27176
630.018	30617
630.081	27558
630.144	29409
630.207	26375
630.269	29600
630.332	27749
630.395	27165
630.458	25799
630.520	26050
630.583	25920
630.646	27037
630.708	25740
630.771	25606
630.834	27874
630.896	26480
630.959	27168
631.021	26245
631.084	26424
631.146	26303
631.209	28155
631.272	25759
631.334	26565
631.397	26379
631.459	25594
631.522	27601
631.584	27492
631.646	29596
631.709	29916
631.771	31702
631.834	28865
631.896	28275
631.958	25513
632.021	26668
632.083	24122
632.145	26216
632.208	25395
632.270	25696
632.332	24320
632.395	23707
632.457	25776
632.519	24523
632.581	25630
632.643	23755
632.706	23890
632.768	23078
632.830	23809
632.892	24894
632.954	23981
633.016	26488
633.078	24173
633.141	24734
633.203	24351
633.265	25169
633.327	23959
633.389	23723
633.451	25305
633.513	24457
633.575	25303
633.637	24502
633.698	25276
633.760	26214
633.822	26284
633.884	26583
633.946	26735
634.008	27151
634.070	29083
634.132	31558
634.193	31488
634.255	33122
634.317	31985
634.379	32977
634.441	29945
634.502	28653
634.564	27301
634.626	24170
634.687	24709
634.749	22392
634.811	23582
634.873	22540
634.934	23166
634.996	23795
635.057	23279
635.119	23443
635.181	24070
635.242	24569
635.304	21155
635.365	26223
635.427	23234
635.488	24437
635.550	22611
635.611	24157
635.673	21863
635.734	26607
635.796	25611
635.857	27940
635.918	27626
635.980	31921
636.041	31438
636.102	34273
636.164	33448
636.225	33499
636.286	27462
636.348	27997
636.409	24467
636.470	23491
636.531	23463
636.593	23312
636.654	22864
636.715	21201
636.776	21555
636.838	20506
636.899	20764
636.960	20279
637.021	19832
637.082	19392
637.143	19654
637.204	19193
637.265	19259
637.326	20578
637.387	20258
637.448	19239
637.509	20037
637.570	19933
637.631	19469
637.692	18313
637.753	16854
637.814	19103
637.875	18590
637.936	20113
637.997	18593
638.058	19130
638.119	18697
638.179	18758
638.240	17863
638.301	18192
638.362	17294
638.423	17904
638.483	18047
638.544	17285
638.605	17475
638.666	17070
638.726	18015
638.787	19028
638.848	18535
638.908	16407
638.969	17034
639.030	16838
639.090	15033
639.151	16394
639.211	17071
639.272	17165
639.332	19762
639.393	18360
639.453	17132
639.514	18457
639.574	16741
639.635	15835
639.695	16340
639.756	15437
639.816	16143
639.877	15421
639.937	18875
639.997	19375
640.058	15444
640.118	14989
640.178	16745
640.239	15510
640.299	15490
640.359	16201
640.420	16720
640.480	17936
640.540	18953
640.600	20298
640.661	18072
640.721	17327
640.781	21397
640.841	19651
640.901	17173
640.961	16517
641.021	16691
641.082	16730
641.142	16982
641.202	17447
641.262	14364
641.322	16680
641.382	14799
641.442	15646
641.502	14050
641.562	15796
641.622	13991
641.682	16344
641.742	17510
641.802	17224
641.861	16016
641.921	14838
641.981	15226
642.041	15186
642.101	14653
642.161	12477
642.221	13700
642.280	13802
642.340	14074
642.400	14581
642.460	15289
642.519	14370
642.579	14730
642.639	15596
642.698	12236
642.758	16878
642.818	15036
642.877	13173
642.937	14953
642.997	15272
643.056	15876
643.116	14351
643.175	15992
643.235	14542
643.294	15948
643.354	16946
643.414	17699
643.473	20327
643.532	22510
643.592	30245
643.651	47455
643.711	80721
643.770	154781
643.830	367452
643.889	768883
643.948	208663
644.008	42308
644.067	27138
644.126	20900
644.186	19019
644.245	16565
644.304	13992
644.363	16731
644.423	13976
644.482	14996
644.541	16164
644.600	15201
644.659	19760
644.719	22325
644.778	33795
644.837	55416
644.896	113562
644.955	265306
645.014	92341
645.073	24246
645.132	18231
645.191	16998
645.250	15824
645.309	17956
645.368	17477
645.427	22169
645.486	34549
645.545	60227
645.604	21878
645.663	15738
645.722	15199
645.781	15656
645.840	17157
645.898	21677
645.957	30150
646.016	41873
646.075	78324
646.134	151920
646.192	392963
646.251	591391
646.310	100073
646.369	30284
646.427	25049
646.486	18427
646.545	16916
646.603	14939
646.662	13679
646.721	13863
646.779	13737
646.838	13482
646.896	17065
646.955	22859
647.014	35464
647.072	62440
647.131	173587
647.189	86238
647.248	16872
647.306	14280
647.365	13821
647.423	9682
647.481	11960
647.540	9299
647.598	10893
647.657	10455
647.715	11416
647.773	9104
647.832	10756
647.890	9210
647.948	9128
648.007	10547
648.065	8646
648.123	8719
648.181	10990
648.240	11070
648.298	10300
648.356	8933
648.414	9840
648.472	9196
648.531	9368
648.589	8277
648.647	8949
648.705	8948
648.763	8634
648.821	8942
648.879	9637
648.937	10709
648.995	12905
649.053	14523
649.111	22227
649.169	36264
649.227	64844
649.285	136495
649.343	396256
649.401	194843
649.459	30267
649.516	19586
649.574	16169
649.632	24137
649.690	29442
649.748	20448
649.806	28081
649.863	51105
649.921	121281
649.979	84528
650.037	13973
650.094	8311
650.152	9815
650.210	7663
650.268	8957
650.325	9334
650.383	10152
650.440	6831
650.498	7289
650.556	6936
650.613	6676
650.671	7241
650.728	6724
650.786	7400
650.843	10370
650.901	6230
650.958	7524
651.016	6725
651.073	6598
651.131	5951
651.188	5177
651.246	6061
651.303	5694
651.360	5972
651.418	5527
651.475	5788
651.532	5618
651.590	6139
651.647	5057
651.704	6360
651.762	4843
651.819	6076
651.876	5873
651.933	4626
651.990	5896
652.048	4008
652.105	4007
652.162	5640
652.219	4302
652.276	5753
652.333	5500
652.390	4391
652.448	4898
652.505	5163
652.562	5285
652.619	5345
652.676	8342
652.733	8700
652.790	5512
652.847	3874
652.904	5509
652.961	3692
653.017	4262
653.074	4781
653.131	4425
653.188	3823
653.245	5002
653.302	4241
653.359	4623
653.415	4624
653.472	4586
653.529	5160
653.586	4098
653.642	4031
653.699	5511
653.756	4075
653.813	3930
653.869	5061
653.926	4865
653.983	3223
654.039	4707
654.096	3712
654.152	5621
654.209	3964
654.266	4738
654.322	3098
654.379	5649
654.435	4567
654.492	4771
654.548	5142
654.605	7250
654.661	5922
654.717	4561
654.774	4413
654.830	4056
654.887	3725
654.943	5327
655.000	6323
655.056	5361
655.112	4630
655.168	3910
655.225	4137
655.281	5408
655.337	4381
655.394	7210
655.450	6517
655.506	5504
655.562	6639
655.618	7363
655.675	4173
655.731	4559
655.787	2965
655.843	5565
655.899	3179
655.955	4435
656.011	4627
656.067	4250
656.123	4456
656.179	4518
656.235	5197
656.291	3578
656.347	5525
656.403	4161
656.459	3760
656.515	4158
656.571	5653
656.627	5219
656.683	3559
656.739	4809
656.795	4031
656.850	3942
656.906	3811
656.962	4620
657.018	3828
657.074	4946
657.129	6276
657.185	9202
657.241	18806
657.297	11573
657.352	4191
657.408	3017
657.464	5205
657.519	4616
657.575	3155
657.630	4018
657.686	3360
657.742	3145
657.797	3854
657.853	3805
657.908	5081
657.964	3644
658.019	4146
658.075	4117
658.130	4562
658.186	3597
658.241	3944
658.297	3091
658.352	3912
658.407	4320
658.463	2866
658.518	4303
658.573	4441
658.629	2975
658.684	2884
658.739	3709
658.795	2704
658.850	3755
658.905	2890
658.960	4076
659.016	3236
659.071	3843
659.126	2936
659.181	4298
659.236	5213
659.291	5110
659.346	4306
659.401	5015
659.457	4751
659.512	6011
659.567	4235
659.622	4148
659.677	3067
659.732	2299
659.787	3929
659.842	3443
659.897	4041
659.952	3912
660.007	3529
660.061	4573
660.116	3111
660.171	3150
660.226	3205
660.281	4259
660.336	3288
660.391	3412
660.445	2760
660.500	4384
660.555	2910
660.610	2480
660.664	4055
660.719	2645
660.774	3324
660.828	3217
660.883	2846
660.938	3702
660.992	1615
661.047	3588
661.101	3180
661.156	3453
661.211	2532
661.265	3848
661.320	3711
661.374	2577
661.429	2542
661.483	3820
661.538	2312
661.592	3455
661.647	3619
661.701	4616
661.755	3694
661.810	4066
661.864	2547
661.919	2731
661.973	3100
662.027	3214
662.081	3297
662.136	3452
662.190	3430
662.244	3368
662.299	3350
662.353	3548
662.407	2670
662.461	2446
662.515	3306
662.569	2947
662.624	3822
662.678	3409
662.732	3503
662.786	2961
662.840	3243
662.894	2948
662.948	3027
663.002	3319
663.056	3499
663.110	2887
663.164	2930
663.218	3245
663.272	3278
663.326	3558
663.380	3596
663.434	3263
663.488	3014
663.542	3786
663.595	3112
663.649	3344
663.703	3346
663.757	3107
663.811	1970
663.864	2753
663.918	2408
663.972	3139
664.026	2954
664.079	2699
664.133	3574
664.187	3362
664.240	3247
664.294	2734
664.348	3871
664.401	3256
664.455	2921
664.508	3244
664.562	2461
664.615	2443
664.669	1886
664.722	3108
664.776	2987
664.829	3018
664.883	2620
664.936	2713
664.990	2872
665.043	3875
665.097	2635
665.150	3849
665.203	2599
665.257	3931
665.310	3695
665.363	3542
665.417	2688
665.470	2636
665.523	3333
665.576	2939
665.630	3335
665.683	3847
665.736	3995
665.789	3262
665.842	2592
665.895	3531
665.949	2610
666.002	3128
666.055	3222
666.108	4040
666.161	3306
666.214	4273
666.267	3490
666.320	4159
666.373	3580
666.426	3988
666.479	2788
666.532	3395
666.585	3757
666.638	4347
666.691	3383
666.744	4599
666.796	3531
666.849	3696
666.902	3306
666.955	3959
667.008	3025
667.060	3654
667.113	2462
667.166	3418
667.219	3581
667.271	2230
667.324	3884
667.377	3719
667.430	3112
667.482	4785
667.535	3859
667.587	3642
667.640	3427
667.693	3065
667.745	4665
667.798	3977
667.850	2806
667.903	3568
667.955	2970
668.008	4007
668.060	4221
668.113	3622
668.165	4389
668.218	3882
668.270	3273
668.322	3197
668.375	3577
668.427	3826
668.479	3396
668.532	4092
668.584	3634
668.636	4443
668.689	4200
668.741	3632
668.793	3488
668.845	3448
668.898	3451
668.950	3292
669.002	3709
669.054	3457
669.106	2675
669.158	4287
669.211	4355
669.263	3960
669.315	4984
669.367	5565
669.419	4275
669.471	5336
669.523	4647
669.575	6201
669.627	4269
669.679	4793
669.731	3958
669.783	4633
669.835	4634
669.886	3668
669.938	3655
669.990	4294
670.042	4083
670.094	4372
670.146	4717
670.197	5354
670.249	6149
670.301	7378
670.353	10060
670.404	11877
670.456	17669
670.508	28762
670.560	47137
670.611	81188
670.663	143132
670.715	325958
670.766	497585
670.818	190230
670.869	38499
670.921	19564
670.972	13721
671.024	10614
671.075	7372
671.127	6990
671.178	5403
671.230	6197
671.281	5929
671.333	6397
671.384	5387
671.436	6891
671.487	8166
671.538	10942
671.590	14531
671.641	24174
671.692	42470
671.744	83803
671.795	60312
671.846	19337
671.897	10147
671.949	7542
672.000	5363
672.051	5991
672.102	4563
672.153	4733
672.204	3842
672.256	4387
672.307	4025
672.358	3631
672.409	3883
672.460	3572
672.511	2686
672.562	2432
672.613	2871
672.664	3725
672.715	2722
672.766	3376
672.817	2394
672.868	3378
672.919	2518
672.970	2721
673.021	2264
673.071	1926
673.122	2216
673.173	3092
673.224	2327
673.275	3370
673.326	2139
673.376	2284
673.427	1606
673.478	2697
673.528	2628
673.579	3161
673.630	2749
673.680	3367
673.731	2009
673.782	2475
673.832	2608
673.883	2503
673.934	2317
673.984	2428
674.035	3350
674.085	2847
674.136	2376
674.186	2002
674.237	2987
674.287	4704
674.338	2693
674.388	2490
674.438	2155
674.489	3269
674.539	3260
674.589	3520
674.640	2740
674.690	3359
674.740	2506
674.791	3075
674.841	3194
674.891	2872
674.942	2429
674.992	1756
675.042	1820
675.092	2164
675.142	1537
675.193	1518
675.243	1500
675.293	3064
675.343	2076
675.393	2186
675.443	2899
675.493	2659
675.543	2129
675.593	3238
675.643	2192
675.693	2415
675.743	2273
675.793	2301
675.843	1798
675.893	2065
675.943	2773
675.993	2062
676.043	2312
676.093	2240
676.142	1552
676.192	1883
676.242	1771
676.292	1942
676.341	2080
676.391	2621
676.441	2232
676.491	1850
676.540	2125
676.590	2605
676.640	2179
676.689	2163
676.739	757
676.789	1940
676.838	1543
676.888	2039
676.937	2095
676.987	1524
677.037	950
677.086	1324
677.136	1555
677.185	1755
677.235	2144
677.284	2155
677.333	1703
677.383	1380
677.432	805
677.482	2172
677.531	1516
677.580	1450
677.630	1466
677.679	2121
677.728	1523
677.778	1444
677.827	1468
677.876	1881
677.925	1536
677.975	2174
678.024	2003
678.073	1639
678.122	1339
678.171	2047
678.220	2071
678.269	2795
678.319	1710
678.368	1880
678.417	2068
678.466	2794
678.515	2150
678.564	1877
678.613	1964
678.662	1361
678.711	1650
678.760	1933
678.809	1779
678.857	1584
678.906	2345
678.955	1812
679.004	2268
679.053	2330
679.102	1590
679.151	2747
679.199	2077
679.248	1186
679.297	2214
679.346	1512
679.394	317
679.443	2059
679.492	1529
679.540	1840
679.589	1850
679.638	1945
679.686	1254
679.735	2297
679.784	1713
679.832	1945
679.881	1334
679.929	2086
679.978	1620
680.026	1945
680.075	1422
680.123	1251
680.172	1570
680.220	1399
680.268	943
680.317	744
680.365	1945
680.414	1115
680.462	1415
680.510	1955
680.559	813
680.607	1031
680.655	803
680.703	1378
680.752	1610
680.800	2107
680.848	1026
680.896	1427
680.945	595
680.993	955
681.041	1377
681.089	1619
681.137	838
681.185	1617
681.233	1117
681.258	1340
681.281	1512
681.329	1454
681.377	275
681.380	381
681.425	1525
681.473	1920
681.502	2274
681.521	2448
681.569	2258
681.617	1865
681.624	1919
681.665	1930
681.713	1791
681.745	2532
681.761	2830
681.809	1803
681.857	2797
681.867	2713
681.904	2253
681.952	2037
681.989	2597
682.000	2713
682.048	2617
682.096	2263
682.111	2478
682.143	2796
682.191	2992
682.233	3038
682.239	3003
682.286	2367
682.334	2866
682.354	2856
682.382	2763
682.430	3970
682.476	3645
682.477	3603
682.525	3478
682.572	3238
682.598	3367
682.620	3403
682.667	3391
682.715	4097
682.720	4097
682.763	3780
682.810	3877
682.841	3340
682.857	2972
682.905	3556
682.952	3944
682.963	3987
683.000	4106
683.047	3990
683.085	5194
683.095	5459
683.142	4411
683.190	4903
683.206	4817
683.237	4598
683.284	4834
683.328	4469
683.332	4409
683.379	5095
683.426	4397
683.449	5004
683.473	5559
683.521	4548
683.568	5397
683.571	5384
683.615	4787
683.662	5427
683.693	5259
683.709	5106
683.757	5227
683.804	6085
683.814	6023
683.851	5703
683.898	5735
683.936	6280
683.945	6398
683.992	5621
684.039	6182
684.057	6085
684.086	5838
684.133	6415
684.179	5855
684.180	5808
684.227	6242
684.274	5939
684.300	6239
684.321	6498
684.368	6104
684.415	6412
684.422	6485
684.462	6746
684.509	6459
684.543	6325
684.556	6255
684.603	6881
684.649	6749
684.665	6943
684.696	7277
684.743	7074
684.786	8016
684.790	8073
684.837	7638
684.883	7681
684.908	7570
684.930	7480
684.977	8330
685.023	7693
685.029	7771
685.070	7915
685.117	8017
685.150	7773
685.164	7767
685.210	8271
685.257	9018
685.272	9223
685.303	9344
685.350	8291
685.393	8641
685.396	8663
685.443	8216
685.490	8154
685.514	8615
685.536	9028
685.583	8519
685.629	9161
685.636	9130
685.675	8716
685.722	9129
685.757	8632
685.768	8513
685.815	8962
685.861	9093
685.878	9208
685.908	9342
685.954	9630
686.000	9981
686.000	9977
686.047	10495
686.093	10666
686.121	10590
686.139	10367
686.185	10072
686.232	10337
686.242	10160
686.278	9657
686.324	10029
686.363	10099
686.370	10120
686.416	9455
686.463	10000
686.484	10249
686.509	10446
686.555	9688
686.601	9664
686.606	9735
686.647	10390
686.693	10065
686.727	10308
686.739	10386
686.785	10703
686.831	10983
686.848	10796
686.877	10456
686.923	10355
686.969	10021
686.969	10018
687.015	10897
687.061	10982
687.090	11310
687.107	11369
687.153	11016
687.199	11164
687.211	10965
687.245	10491
687.291	11284
687.332	11378
687.336	11421
687.382	11474
687.428	11454
687.453	11815
687.474	11902
687.520	11632
687.565	12086
687.574	11962
687.611	11882
687.657	12833
687.695	12707
687.702	12795
687.748	14418
687.794	16107
687.816	16338
687.839	15492
687.885	14633
687.931	13113
687.937	12959
687.976	12730
688.022	12494
688.058	12199
688.067	12199
688.113	12358
688.158	12068
688.179	12053
688.204	12168
688.249	12131
688.295	12921
688.300	12887
688.340	12727
688.386	13544
688.421	13304
688.431	13207
688.477	13588
688.522	13361
688.542	13412
688.567	13446
688.613	13450
688.658	13483
688.663	13400
688.703	12946
688.749	13379
688.784	13502
688.794	13570
688.839	13639
688.884	13988
688.905	14073
688.930	14108
688.975	13759
689.020	13605
689.026	13572
689.065	13666
689.110	14319
689.146	14340
689.155	14348
689.201	14779
689.246	14885
689.267	14693
689.291	14305
689.336	14408
689.381	14148
689.388	14006
689.426	13680
689.471	14403
689.509	14761
689.516	14834
689.561	14503
689.606	14429
689.630	14354
689.651	14267
689.696	13736
689.741	14602
689.750	14566
689.785	14707
689.830	14642
689.871	14464
689.875	14463
689.920	14560
689.965	14934
689.992	14779
690.010	14721
690.054	14819
690.099	15477
690.112	15418
690.144	15210
690.189	15254
690.233	14669
690.233	14689
690.278	15233
690.323	15131
690.354	15056
690.367	15137
690.412	15564
690.457	15630
690.474	15840
690.501	16397
690.546	17271
690.590	18063
690.595	18050
690.635	18313
690.680	19270
690.716	19838
690.724	20300
690.769	22875
690.813	25728
690.836	26741
690.857	29793
690.902	36501
690.946	43908
690.957	45689
690.991	62524
691.035	85513
691.077	107232
691.080	107301
691.124	101287
691.168	95418
691.198	92004
691.213	85314
691.257	65598
691.301	45989
691.318	38161
691.346	34840
691.390	29459
691.434	24297
691.439	23678
691.478	22592
691.522	21200
691.559	19994
691.567	19978
691.611	19856
691.655	19246
691.680	19351
691.699	19464
691.743	18923
691.787	18854
691.800	18548
691.831	18140
691.875	18456
691.919	18259
691.921	18224
691.964	18433
692.008	18665
692.041	18645
692.052	18569
692.096	18036
692.139	18170
692.162	17690
692.183	17485
692.227	17969
692.271	17593
692.282	17657
692.315	18000
692.359	17738
692.402	18575
692.403	18615
692.447	18118
692.490	18364
692.523	18121
692.534	18109
692.578	18215
692.622	18462
692.643	18536
692.666	18687
692.709	18359
692.753	18505
692.763	18523
692.797	18690
692.840	18894
692.884	18755
692.884	18794
692.928	18847
692.971	19139
693.004	19251
693.015	19373
693.059	19663
693.102	19903
693.124	20043
693.146	20328
693.189	20970
693.233	21168
693.245	21254
693.276	22244
693.320	23859
693.363	24770
693.365	24763
693.407	27247
693.450	30035
693.485	31976
693.493	33077
693.537	38843
693.580	44313
693.605	47497
693.624	54765
693.667	71696
693.710	89144
693.725	95296
693.753	127884
693.797	178841
693.840	230270
693.845	235698
693.883	224487
693.926	210692
693.966	199041
693.970	194927
694.013	148308
694.056	101554
694.086	69411
694.099	66012
694.142	54462
694.185	43008
694.206	37342
694.229	35608
694.272	32262
694.315	29155
694.326	28258
694.358	27330
694.401	26129
694.444	24650
694.446	24533
694.487	23999
694.530	22981
694.566	22341
694.573	22304
694.616	21543
694.659	21006
694.686	20614
694.702	20647
694.745	20463
694.787	20300
694.806	20223
694.830	20321
694.873	20085
694.916	20262
694.926	20194
694.959	20291
695.002	20660
695.044	20662
695.046	20624
695.087	20800
695.130	20569
695.166	20670
695.172	20734
695.215	20442
695.258	20483
695.286	20307
695.301	20426
695.343	20889
695.386	21138
695.406	21205
695.428	21213
695.471	21327
695.514	21292
695.526	21194
695.556	21946
695.599	23240
695.641	24278
695.646	24340
695.684	23916
695.726	23303
695.766	22798
695.769	22850
695.811	22781
695.854	22648
695.886	22461
695.896	22401
695.938	21899
695.981	21577
696.005	21194
696.023	21558
696.065	22508
696.108	23319
696.125	23663
696.150	24015
696.192	24483
696.235	24667
696.245	24755
696.277	25146
696.319	25085
696.361	25526
696.365	25468
696.404	25379
696.446	25441
696.485	25323
696.488	25377
696.530	25232
696.572	25124
696.604	25026
696.614	25020
696.656	24586
696.698	24364
696.724	23897
696.740	23736
696.783	23663
696.825	23226
696.844	23103
696.867	23469
696.909	23777
696.951	24094
696.964	24189
696.992	24039
697.034	23524
697.076	23166
697.083	23029
697.118	23411
697.160	23883
697.202	24316
697.203	24262
697.244	24301
697.286	24425
697.323	24353
697.327	24438
697.369	24636
697.411	24897
697.442	24971
697.453	24984
697.494	24831
697.536	24677
697.562	24524
697.578	24596
697.620	24572
697.661	24474
697.682	24447
697.703	24885
697.744	25494
697.786	26175
697.801	26317
697.828	26195
697.869	25948
697.911	25714
697.921	25593
697.952	25671
697.994	25619
698.035	25632
698.040	25557
698.077	25557
698.118	25540
698.160	25423
698.160	25353
698.201	25845
698.243	26155
698.279	26407
698.284	26475
698.325	26454
698.367	26425
698.399	26310
698.408	26461
698.449	26828
698.491	27222
698.518	27395
698.532	27443
698.573	27357
698.614	27293
698.638	27167
698.656	27363
698.697	27675
698.738	27986
698.757	28047
698.779	28106
698.820	28080
698.862	28057
698.877	27972
698.903	28189
698.944	28414
698.985	28639
698.996	28626
699.026	28703
699.067	28702
699.116	28627
699.235	26601
699.354	26670
699.474	26798
699.593	26281
699.713	27133
699.832	26400
699.951	27478
700.070	26609
700.190	25084
700.309	25778
700.428	25390
700.547	24304
700.667	24582
700.786	25619
700.905	23894
701.024	24060
701.143	24044
701.262	23558
701.381	24961
701.500	25575
701.619	24809
701.738	24277
701.857	23771
701.976	23256
702.095	23400
702.214	24794
702.333	23142
702.452	23850
702.571	23274
702.690	23668
702.809	23531
702.928	22562
703.047	22850
703.165	22502
703.284	23047
703.403	21675
703.522	22421
703.640	21994
703.759	23096
703.878	25212
703.997	22670
704.115	21735
704.234	20644
704.353	21602
704.471	20691
704.590	19877
704.708	20348
704.827	20625
704.946	20877
705.064	20534
705.183	20873
705.301	23018
705.420	28106
705.538	24960
705.656	23903
705.775	24319
705.893	37400
706.012	44945
706.130	24470
706.249	24277
706.367	23560
706.485	23925
706.604	22699
706.722	23059
706.840	26297
706.958	33484
707.077	27401
707.195	21945
707.313	20945
707.431	20794
707.549	20713
707.668	20002
707.786	22147
707.904	20733
708.022	20817
708.140	20797
708.258	20956
708.376	21957
708.494	19647
708.612	20762
708.730	27850
708.848	24685
708.966	24394
709.084	22913
709.202	23345
709.320	22647
709.438	22397
709.556	22653
709.674	22867
709.791	22530
709.909	21210
710.027	21425
710.145	21349
710.263	21567
710.380	21870
710.498	21096
710.616	20852
710.733	20264
710.851	21502
710.969	21056
711.086	19597
711.204	20340
711.322	20756
711.439	20292
711.557	20355
711.674	20577
711.792	20443
711.909	21079
712.027	22435
712.144	19636
712.262	18779
712.379	20809
712.497	26354
712.614	26248
712.732	23508
712.849	22201
712.966	23124
713.084	24169
713.201	22834
713.318	23236
713.436	23345
713.553	22608
713.670	23792
713.787	25052
713.905	24161
714.022	23607
714.139	23278
714.256	27365
714.373	33172
714.490	55112
714.608	129023
714.725	525541
714.842	564067
714.959	55552
715.076	28761
715.193	24479
715.310	24308
715.427	20105
715.544	21069
715.661	20573
715.778	21412
715.895	22108
716.011	21943
716.128	20386
716.245	19663
716.362	19659
716.479	20162
716.596	18893
716.713	20239
716.829	18710
716.946	19288
717.063	17302
717.180	17481
717.296	17753
717.413	17880
717.530	17639
717.646	17549
717.763	16808
717.880	16857
717.996	17034
718.113	16661
718.229	16835
718.346	16714
718.462	16533
718.579	17049
718.695	19330
718.812	18468
718.928	18658
719.045	17219
719.161	15016
719.277	15515
719.394	16854
719.510	16620
719.626	17485
719.743	21550
719.859	27493
719.975	47773
720.092	172422
720.208	412837
720.324	55484
720.440	20651
720.557	18659
720.673	19494
720.789	22216
720.905	38365
721.021	20456
721.137	15819
721.253	16124
721.369	15222
721.486	16067
721.602	18762
721.718	14614
721.834	13930
721.950	13851
722.066	13979
722.181	14068
722.297	14221
722.413	13969
722.529	13719
722.645	13800
722.761	12959
722.877	13999
722.993	14048
723.108	16772
723.224	14209
723.340	13131
723.456	13111
723.571	13456
723.687	12508
723.803	13135
723.918	13521
724.034	12040
724.150	13019
724.265	12908
724.381	18080
724.497	21227
724.612	13344
724.728	12150
724.843	11715
724.959	12286
725.074	18224
725.190	20141
725.305	13487
725.421	11722
725.536	11767
725.651	12015
725.767	12099
725.882	11979
725.997	11494
726.113	11957
726.228	11912
726.343	11792
726.459	10306
726.574	11854
726.689	10427
726.804	12083
726.920	11323
727.035	11020
727.150	12607
727.265	11388
727.380	11099
727.495	11612
727.610	11373
727.725	11630
727.841	13124
727.956	21310
728.071	17419
728.186	11144
728.301	9266
728.416	10692
728.531	10792
728.645	9698
728.760	10718
728.875	10074
728.990	10590
729.105	10702
729.220	9944
729.335	10399
729.449	11042
729.564	10939
729.679	9883
729.794	10403
729.908	10780
730.023	10653
730.138	10068
730.253	9791
730.367	9753
730.482	10305
730.596	9908
730.711	11454
730.826	12887
730.940	13641
731.055	11089
731.169	10582
731.284	10777
731.398	10526
731.513	12301
731.627	11560
731.742	12925
731.856	15041
731.970	14649
732.085	16647
732.199	21685
732.313	35095
732.428	85146
732.542	249008
732.656	149806
732.771	30377
732.885	17969
732.999	16773
733.113	16674
733.227	16401
733.342	15007
733.456	15373
733.570	14648
733.684	13225
733.798	13617
733.912	13897
734.026	12502
734.140	13813
734.254	14026
734.368	16574
734.482	17532
734.596	12928
734.710	12895
734.824	13228
734.938	13162
735.052	12799
735.166	13504
735.280	14041
735.393	12656
735.507	12631
735.621	13640
735.735	16176
735.849	12593
735.962	12675
736.076	12352
736.190	12496
736.303	14071
736.417	15027
736.531	11224
736.644	12392
736.758	11266
736.872	12068
736.985	11102
737.099	12070
737.212	10982
737.326	11168
737.439	11101
737.553	11494
737.666	11791
737.780	10573
737.893	10810
738.007	9879
738.120	10842
738.233	9840
738.347	10601
738.460	10069
738.573	11677
738.687	11029
738.800	10833
738.913	11775
739.026	10961
739.140	10989
739.253	11726
739.366	10540
739.479	10433
739.592	10434
739.705	10153
739.818	10926
739.932	10540
740.045	10874
740.158	9558
740.271	9814
740.384	10931
740.497	9050
740.610	11144
740.723	9782
740.836	9605
740.949	10865
741.062	11016
741.174	10454
741.287	9865
741.400	10336
741.513	10077
741.626	10434
741.739	10242
741.851	9107
741.964	10093
742.077	9490
742.189	9138
742.302	10293
742.415	9835
742.527	9569
742.640	10703
742.753	8952
742.865	9412
742.978	9724
743.090	10025
743.203	9211
743.316	9550
743.428	8025
743.541	8953
743.653	8575
743.766	9713
743.878	9156
743.990	9870
744.103	9849
744.215	9241
744.327	8444
744.440	9976
744.552	9892
744.664	8932
744.777	9092
744.889	9266
745.001	8843
745.113	8411
745.226	8355
745.338	8442
745.450	9293
745.562	8810
745.674	7789
745.786	9575
745.898	9162
746.010	8933
746.122	8165
746.234	9409
746.347	9053
746.459	9044
746.570	8330
746.682	8930
746.794	10018
746.906	8530
747.018	8553
747.130	8687
747.242	8758
747.354	8235
747.466	9409
747.577	8320
747.689	8413
747.801	8600
747.913	8074
748.024	8430
748.136	8043
748.248	8735
748.359	7910
748.471	9831
748.583	7754
748.694	8742
748.806	10056
748.918	8766
749.029	8535
749.141	8420
749.252	8874
749.364	8551
749.475	9373
749.587	9232
749.698	7556
749.809	7537
749.921	7034
750.032	8481
750.144	7762
750.255	8344
750.366	7492
750.478	8054
750.589	8493
750.700	7700
750.811	8920
750.923	8449
751.034	9299
751.145	9571
751.256	7941
751.367	8483
751.479	8035
751.590	7965
751.701	8182
751.812	7335
751.923	8279
752.034	7809
752.145	7755
752.256	7571
752.367	7908
752.478	8564
752.589	8255
752.700	8257
752.811	8365
752.922	8775
753.032	8065
753.143	9441
753.254	7558
753.365	8915
753.476	8301
753.586	8194
753.697	8346
753.808	8105
753.919	7534
754.029	8299
754.140	7713
754.251	8255
754.361	8178
754.472	8322
754.582	8860
754.693	8101
754.804	9041
754.914	8106
755.025	7818
755.135	8484
755.246	9621
755.356	8487
755.466	8800
755.577	8005
755.687	8999
755.798	8789
755.908	9280
756.018	8129
756.129	8715
756.239	8903
756.349	9296
756.460	9242
756.570	9348
756.680	9142
756.790	9263
756.900	8748
757.011	8397
757.121	8430
757.231	9355
757.341	9169
757.451	8999
757.561	9964
757.671	10387
757.781	9076
757.891	10654
758.001	9847
758.111	8766
758.221	10652
758.331	10667
758.441	11143
758.551	10382
758.661	11160
758.771	10771
758.880	11220
758.990	10723
759.100	11839
759.210	11555
759.320	12441
759.429	12161
759.539	12142
759.649	12473
759.758	12819
759.868	13885
759.978	12766
760.087	13680
760.197	14356
760.307	13746
760.416	14069
760.526	14396
760.635	14743
760.745	15058
760.854	15214
760.964	15832
761.073	17396
761.182	16666
761.292	16835
761.401	16195
761.511	15225
761.620	15989
761.729	17043
761.839	16826
761.948	17286
762.057	17282
762.166	18207
762.276	17441
762.385	19778
762.494	18999
762.603	20578
762.712	20250
762.822	20382
762.931	21738
763.040	22752
763.149	23551
763.258	25949
763.367	25349
763.476	27441
763.585	28466
763.694	30090
763.803	30585
763.912	34510
764.021	35022
764.130	37081
764.238	40765
764.347	42688
764.456	46415
764.565	49384
764.674	53915
764.783	58341
764.891	63214
765.000	72536
765.109	81800
765.217	92350
765.326	107514
765.435	125311
765.543	150581
765.652	184252
765.761	231425
765.869	295083
765.978	390333
766.086	522240
766.195	700098
766.303	823065
766.412	612532
766.520	576825
766.629	782645
766.737	682581
766.846	514470
766.954	385264
767.062	291799
767.171	229829
767.279	182142
767.387	147610
767.496	123813
767.604	105803
767.712	92586
767.820	82170
767.928	76865
768.037	70013
768.145	66396
768.253	64511
768.361	62413
768.469	61716
768.577	62387
768.685	65651
768.793	70648
768.901	75748
769.009	89058
769.117	107498
769.225	133021
769.333	176464
769.441	249830
769.549	372150
769.657	576016
769.765	734916
769.873	558318
769.981	671224
770.088	564944
770.196	381158
770.304	265780
770.412	195680
770.519	151144
770.627	120933
770.735	98164
770.842	83713
770.950	71096
771.058	62949
771.165	57074
771.273	51724
771.380	48275
771.488	45285
771.595	41785
771.703	37755
771.810	36528
771.918	33668
772.025	33030
772.133	30873
772.240	29116
772.348	28759
772.455	28306
772.562	25417
772.670	24798
772.777	24227
772.884	23152
772.991	22302
773.099	22246
773.206	19774
773.313	21065
773.420	20602
773.528	18731
773.635	19093
773.742	18440
773.849	17894
773.956	17553
774.063	16717
774.170	16929
774.277	16796
774.384	16111
774.491	15752
774.598	15974
774.705	15068
774.812	15039
774.919	15332
775.026	14039
775.133	15192
775.239	14171
775.346	14303
775.453	13715
775.560	13595
775.667	13495
775.773	13449
775.880	13787
775.987	12557
776.093	13022
776.200	13038
776.307	11726
776.413	11912
776.520	12101
776.627	12342
776.733	10838
776.840	10812
776.946	13784
777.053	11582
777.159	12031
777.266	9663
777.372	11627
777.478	10720
777.585	11203
777.691	10327
777.798	10795
777.904	11227
778.010	11372
778.117	10643
778.223	9384
778.329	9997
778.435	9867
778.542	10024
778.648	9141
778.754	9009
778.860	9473
778.966	9857
779.072	9508
779.178	9550
779.284	8966
779.391	9191
779.497	10085
779.603	13496
779.708	16149
779.815	31590
779.920	100300
780.026	200609
780.132	41249
780.238	13335
780.344	10083
780.450	11845
780.556	8759
780.661	8314
780.767	8778
780.873	7501
780.979	7320
781.085	8117
781.190	7601
781.296	6901
781.402	6889
781.507	7008
781.613	7299
781.719	6912
781.824	7521
781.930	7867
782.035	6586
782.141	7196
782.246	6572
782.352	6971
782.457	6789
782.563	6808
782.668	7032
782.773	6739
782.879	6142
782.984	6482
783.090	7779
783.195	7461
783.300	6816
783.405	6494
783.511	6536
783.616	6716
783.721	6820
783.826	6558
783.932	6994
784.037	6752
784.142	6465
784.247	6097
784.352	6854
784.457	5474
784.562	6191
784.667	7376
784.772	6179
784.877	5195
784.982	6343
785.087	5529
785.192	5472
785.297	5307
785.402	5784
785.507	5490
785.611	6494
785.716	5498
785.821	5563
785.926	5269
786.031	4796
786.135	6467
786.240	5984
786.345	5453
786.450	6379
786.554	5866
786.659	4188
786.763	5172
786.868	5280
786.973	5887
787.077	5043
787.182	5165
787.286	5429
787.391	5951
787.495	4313
787.600	4639
787.704	4465
787.809	5221
787.913	5469
788.017	5463
788.122	5307
788.226	5744
788.330	3838
788.435	4711
788.539	4759
788.643	4824
788.747	4336
788.852	4167
788.956	4357
789.060	5076
789.164	5040
789.268	3918
789.372	5669
789.476	4748
789.580	3626
789.684	3399
789.788	5070
789.892	4815
789.996	5020
790.100	4347
790.204	4062
790.308	4901
790.412	4310
790.516	4796
790.620	4121
790.724	4259
790.828	4287
790.931	3329
791.035	5295
791.139	5121
791.242	3961
791.346	5089
791.450	4473
791.554	3574
791.657	3577
791.761	4507
791.864	4458
791.968	5087
792.072	4468
792.175	3796
792.279	3615
792.382	4502
792.486	3497
792.589	3546
792.693	4541
792.796	3243
792.899	4620
793.003	4340
793.106	2487
793.209	3139
793.313	4198
793.416	2743
793.519	4350
793.623	5019
793.726	5344
793.829	4036
793.932	3262
794.035	2481
794.138	4532
794.242	5939
794.345	5761
794.448	9419
794.551	16862
794.654	56129
794.757	124137
794.860	26570
794.963	6557
795.066	4419
795.169	5390
795.272	3498
795.375	5046
795.477	3186
795.580	3472
795.683	2663
795.786	3009
795.889	2430
795.991	4001
796.094	3881
796.197	2355
796.300	4526
796.402	2844
796.505	3022
796.608	3284
796.710	3730
796.813	3589
796.915	2607
797.018	3504
797.120	3167
797.223	2466
797.326	4051
797.428	3012
797.530	2248
797.633	3753
797.735	4407
797.838	3688
797.940	5134
798.042	2453
798.145	2067
798.247	3012
798.349	1505
798.452	3501
798.554	3184
798.656	3379
798.758	3726
798.860	3228
798.962	2679
799.065	1979
799.167	1918
799.269	3352
799.371	3557
799.473	3845
799.575	3682
799.677	3047
799.779	3325
799.881	1936
799.983	4048
800.085	3192
800.187	2298
800.289	1606
800.390	2736
800.492	3382
800.594	3339
800.696	2642
800.798	3797
800.899	2564
801.001	2424
801.103	3366
801.205	2999
801.306	2025
801.408	2237
801.509	3199
801.611	2521
801.713	3131
801.814	2209
801.916	2372
802.017	2341
802.119	1894
802.220	2822
802.322	1069
802.423	4567
802.525	1936
802.626	2139
802.727	3560
802.829	3398
802.930	1154
803.031	3350
803.133	2615
803.234	2527
803.335	2173
803.436	1920
803.538	2601
803.639	1550
803.740	3048
803.841	1867
803.942	2494
804.043	2775
804.144	1821
804.245	2713
804.346	1591
804.447	2237
804.548	2176
804.649	3246
804.750	1872
804.851	2705
804.952	1411
805.053	1899
805.154	815
805.255	2753
805.355	2353
805.456	1888
805.557	2331
805.658	1832
805.758	2198
805.859	2576
805.960	2458
806.061	2195
806.161	1788
806.262	2194
806.362	2238
806.463	2294
806.564	2652
806.664	1775
806.765	2613
806.865	3314
806.966	2879
807.066	1820
807.166	2521
807.267	3678
807.367	974
807.468	2619
807.568	1586
807.668	3002
807.769	2608
807.869	1720
807.969	2526
808.069	2432
808.170	2386
808.270	1660
808.370	1450
808.470	2669
808.570	1301
808.670	2087
808.770	2150
808.870	1322
808.970	1911
809.070	1487
809.170	1028
809.271	2358
809.370	1705
809.470	2504
809.570	918
809.670	1241
809.770	2076
809.870	2499
809.970	2127
810.070	2347
810.169	1344
810.269	391
810.369	2570
810.469	1965
810.568	1806
810.668	1448
810.768	2221
810.867	2752
810.967	1051
811.066	1552
811.166	1768
811.265	1860
811.365	1058
811.464	1912
811.564	1336
811.663	1739
811.763	866
811.862	1837
811.962	2524
812.061	1692
812.160	1476
812.260	1728
812.359	2265
812.458	2875
812.557	7443
812.657	11754
812.756	4043
812.855	2255
812.954	1224
813.053	2613
813.153	1583
813.252	1200
813.351	1780
813.450	2000
813.549	1376
813.648	1749
813.747	740
813.846	2266
813.945	2096
814.044	1830
814.143	1109
814.242	2903
814.341	1719
814.439	2311
814.538	3031
814.637	1498
814.736	1423
814.835	1856
814.933	1688
815.032	2763
815.131	2578
815.229	4163
815.328	5032
815.427	3719
815.525	4609
815.624	3992
815.722	2718
815.821	4546
815.919	4074
816.018	3755
816.116	4331
816.215	4229
816.313	4293
816.412	4488
816.510	5315
816.609	5221
816.707	6098
816.805	4578
816.904	4652
817.002	5074
817.100	5116
817.198	6283
817.296	4462
817.395	4852
817.493	5317
817.591	4676
817.689	5342
817.787	5071
817.885	6009
817.983	6850
818.081	9860
818.179	16208
818.277	41463
818.375	40332
818.473	12782
818.571	5308
818.669	5542
818.767	6167
818.865	5714
818.963	4338
819.061	6667
819.158	8929
819.256	17014
819.354	33080
819.452	80172
819.549	57067
819.647	16786
819.745	7917
819.842	5624
819.940	4677
820.038	4487
820.135	4403
820.233	5233
820.330	3502
820.428	3195
820.525	5387
820.623	3950
820.720	2908
820.818	4354
820.915	4874
821.012	4036
821.110	2801
821.207	3876
821.304	3760
821.402	3390
821.499	3516
821.596	3507
821.693	3758
821.791	3738
821.888	3878
821.985	4929
822.082	3404
822.179	4108
822.276	3782
822.373	2826
822.470	3178
822.567	3642
822.664	3293
822.761	4018
822.858	3006
822.955	3355
823.052	2443
823.149	2084
823.246	3002
823.343	2692
823.440	3405
823.536	2781
823.633	3017
823.730	2937
823.827	3529
823.923	3706
824.020	3548
824.117	3203
824.213	2551
824.310	2900
824.407	2510
824.503	3752
824.600	3459
824.696	1828
824.793	3258
824.889	3706
824.986	3439
825.082	2736
825.179	2820
825.275	3062
825.371	3486
825.468	3263
825.564	1590
825.660	3333
825.757	3472
825.853	3336
825.949	2027
826.045	2583
826.142	2120
826.238	2360
826.334	2860
826.430	1600
826.526	2870
826.622	1611
826.718	2628
826.814	2550
826.910	3265
827.006	1415
827.102	2128
827.198	2826
827.294	2801
827.390	2223
827.486	2717
827.582	1041
827.678	1777
827.774	3227
827.869	1816
827.965	3052
828.061	2193
828.157	3037
828.252	2675
828.348	2343
828.444	2520
828.539	1256
828.635	2709
828.731	2521
828.826	1697
828.922	3078
829.017	2343
829.113	2827
829.208	1907
829.304	1781
829.399	3837
829.495	1961
829.590	2098
829.685	2374
829.781	2867
829.876	2278
829.971	1384
830.066	1191
830.162	2395
830.257	3027
830.352	1818
830.447	2534
830.543	2502
830.638	901
830.733	3097
830.828	1631
830.923	2796
831.018	1975
831.113	2401
831.208	1390
831.303	1920
831.398	1822
831.493	1805
831.588	3086
831.683	1758
831.778	1781
831.873	1861
831.967	2724
832.062	1733
832.157	1402
832.252	2504
832.346	1747
832.441	3164
832.536	2283
832.631	3846
832.725	2757
832.820	1702
832.914	1101
833.009	778
833.104	906
833.198	2567
833.293	1592
833.387	2722
833.482	2409
833.576	1890
833.670	2690
833.765	2063
833.859	1648
833.954	2348
834.048	1982
834.142	1357
834.237	149
834.331	1347
834.425	1552
834.519	1233
834.613	1767
834.708	630
834.802	1473
834.896	1574
834.990	1401
835.084	2278
835.178	1244
835.272	1613
835.366	1852
835.460	2583
835.554	1170
835.648	1391
835.742	780
835.836	1767
835.930	612
836.024	1309
836.117	1709
836.211	1574
836.305	2267
836.399	2482
836.493	1243
836.586	2255
836.680	1476
836.774	1335
836.867	2158
836.961	1414
837.055	1305
837.148	1734
837.242	974
837.335	1641
837.429	1232
837.522	1382
837.616	1993
837.709	2678
837.803	2555
837.896	2600
837.989	1557
838.083	2636
838.176	2250
838.269	2209
838.363	1798
838.456	1308
838.549	1365
838.642	1707
838.735	3064
838.829	1723
838.922	1155
839.015	1139
839.108	406
839.201	1541
839.294	1128
839.387	1653
839.480	758
839.573	1553
839.666	1522
839.759	1747
839.852	1377
839.945	1572
840.038	1071
840.131	124
840.223	840
840.316	2107
840.409	1244
840.502	647
840.594	1876
840.687	146
840.780	1494
840.873	1127
840.965	1106
841.058	2302
841.150	2829
841.243	785
841.336	1529
841.428	1078
841.521	1403
841.613	818
841.706	1193
841.798	720
841.890	1410
841.983	225
842.075	1258
842.167	1206
842.260	914
842.352	2269
842.444	1952
842.537	3230
842.629	4007
842.721	1421
842.813	1771
842.905	100
842.997	1332
843.090	1103
843.182	1748
843.274	2598
843.366	5103
843.458	10596
843.550	8814
843.642	1350
843.734	1727
843.826	1240
843.918	1616
844.009	2415
844.101	946
844.193	1115
844.285	589
844.377	1410
844.469	1514
844.560	755
844.652	1154
844.744	1870
844.835	809
844.927	1382
845.019	1639
845.110	1005
845.202	1436
845.293	1747
845.385	306
845.476	211
845.568	1570
845.659	816
845.751	1555
845.842	751
845.934	1560
846.025	711
846.116	990
846.208	956
846.299	738
846.390	391
846.482	1501
846.573	2149
846.664	1576
846.755	601
846.846	1040
846.937	287
847.029	955
847.120	653
847.211	68
847.302	2277
847.393	637
847.484	1198
847.575	567
847.666	115
847.757	1348
847.847	1262
847.938	964
848.029	975
848.120	1445
848.211	1487
848.302	693
848.392	-106
848.483	669
848.574	1224
848.664	1185
848.755	689
848.846	1007
848.936	776
849.027	856
849.118	1742
849.208	1429
849.299	1583
849.389	2268
849.480	5297
849.570	11502
849.661	20535
849.751	36712
849.841	14080
849.932	2915
850.022	1160
850.112	1341
850.203	864
850.293	628
850.383	546
850.474	322
850.564	522
850.654	819
850.744	337
850.834	1231
850.924	1270
851.014	1425
851.104	1600
851.194	549
851.284	162
851.374	1060
851.464	1129
851.554	1037
851.644	1036
851.734	1761
851.824	2097
851.914	2250
852.004	4611
852.094	4243
852.183	1568
852.273	512
852.363	338
852.452	1510
852.542	581
852.632	361
852.721	1648
852.811	927
852.901	1138
852.990	1028
853.080	1324
853.169	191
853.259	1008
853.348	1378
853.438	1997
853.527	3109
853.617	3561
853.706	7668
853.795	12897
853.885	29474
853.974	55803
854.063	100738
854.152	161109
854.242	64533
854.331	11988
854.420	4442
854.509	4352
854.598	3115
854.687	2353
854.777	2590
854.866	1582
854.955	1646
855.044	976
855.133	1055
855.222	1133
855.311	968
855.400	403
855.488	619
855.577	684
855.666	951
855.755	757
855.844	1439
855.933	1860
856.021	1433
856.110	814
856.199	1120
856.288	469
856.376	1071
856.465	70
856.554	1067
856.642	1094
856.731	908
856.819	1130
856.908	263
856.996	1407
857.085	335
857.173	172
857.262	976
857.350	891
857.438	980
857.527	983
857.615	-158
857.703	687
857.792	359
857.880	34
857.968	152
858.056	282
858.145	360
858.233	19
858.321	359
858.409	1317
858.497	-130
858.585	-350
858.673	54
858.761	222
858.849	-251
858.937	360
859.025	-439
859.113	798
859.201	797
859.289	1005
859.377	824
859.465	778
859.552	429
859.640	474
859.728	590
859.816	671
859.903	521
859.991	770
860.079	632
860.166	984
860.254	813
860.342	200
860.429	-245
860.517	242
860.604	701
860.692	645
860.779	195
860.867	297
860.954	1303
861.042	0
861.129	787
861.216	1185
861.304	548
861.391	4
861.478	1128
861.565	607
861.653	972
861.740	-335
861.827	141
861.914	1095
862.001	621
862.089	448
862.176	865
862.263	995
862.350	245
862.437	484
862.524	415
862.611	833
862.698	743
862.785	955
862.871	1380
862.958	522
863.045	346
863.132	629
863.219	960
863.306	-298
863.392	1073
863.479	764
863.566	-104
863.652	1532
863.739	368
863.826	934
863.912	1374
863.999	1232
864.086	970
864.172	925
864.259	801
864.345	532
864.432	120
864.518	611
864.604	1021
864.691	157
864.777	1285
864.863	2748
864.950	1853
865.036	2976
865.122	4414
865.209	5519
865.295	4182
865.381	4473
865.467	4330
865.553	5162
865.639	6236
865.726	8863
865.812	16940
865.898	30737
865.984	45882
866.070	83994
866.156	96097
866.242	28627
866.328	8101
866.414	5461
866.499	4675
866.585	4624
866.671	3848
866.757	4694
866.843	3858
866.928	2836
867.014	4010
867.100	4359
867.186	3492
867.271	3082
867.357	4559
867.442	4111
867.528	3039
867.614	3188
867.699	3190
867.785	2956
867.870	2771
867.956	3081
868.041	3508
868.127	3466
868.212	3517
868.297	3173
868.383	3776
868.468	2658
868.553	3451
868.639	3826
868.724	5264
868.809	5061
868.894	3878
868.979	2580
869.065	2500
869.150	2223
869.235	2724
869.320	2670
869.405	2035
869.490	2524
869.575	2077
869.660	1530
869.745	2875
869.830	3060
869.915	2626
870.000	2730
870.085	1932
870.169	2644
870.254	3166
870.339	1840
870.424	1466
870.509	1969
870.593	3296
870.678	2257
870.763	1810
870.847	1773
870.932	2027
871.016	2370
871.101	1474
871.186	2073
871.270	2786
871.355	2041
871.439	2259
871.523	2398
871.608	1705
871.692	2294
871.777	2552
871.861	1752
871.945	1744
872.030	2229
872.114	1926
872.198	1561
872.282	2358
872.367	2380
872.451	1954
872.535	2304
872.619	2247
872.703	1748
872.787	2282
872.871	2403
872.955	1907
873.039	1755
873.123	2110
873.207	2814
873.291	2196
873.375	1937
873.459	2266
873.543	1874
873.627	1516
873.711	1092
873.794	1866
873.878	1180
873.962	946
874.045	2420
874.129	1229
874.137	1271
874.213	1686
874.245	1559
874.296	1358
874.352	1384
874.380	1400
874.460	1290
874.464	1285
874.547	1011
874.568	1288
874.631	2097
874.676	2095
874.714	2091
874.784	2081
874.798	2079
874.881	2545
874.892	2336
874.965	950
874.999	1417
875.048	2039
875.107	1677
875.131	1522
875.215	1246
875.215	1246
875.298	1218
875.323	1284
875.381	1441
875.430	1946
875.465	2286
875.538	1955
875.548	1908
875.631	776
875.646	784
875.714	813
875.753	1126
875.798	1577
875.861	2039
875.881	2133
875.964	1960
875.968	1885
876.047	688
876.076	1031
876.130	1601
876.183	1450
876.213	1390
876.291	2546
876.296	2619
876.379	1535
876.398	1433
876.462	1157
876.506	1113
876.545	1070
876.613	1357
876.628	1418
876.711	1316
876.721	1487
876.794	2790
876.828	2366
876.877	1738
876.935	1678
876.960	1654
877.043	1666
877.043	1665
877.125	1507
877.150	1763
877.208	2269
877.258	1781
877.291	1463
877.365	1252
877.374	1231
877.456	1643
877.472	1638
877.539	1645
877.579	1779
877.622	1909
877.687	1542
877.704	1414
877.787	1441
877.794	1404
877.869	1208
877.901	1392
877.952	1589
878.008	1297
878.034	1123
878.115	1126
878.117	1135
878.199	1767
878.222	1816
878.282	1740
878.329	1791
878.364	1840
878.437	2231
878.447	2296
878.529	1095
878.544	1160
878.611	1346
878.651	1021
878.694	640
878.758	985
878.776	1154
878.858	1377
878.865	1429
878.941	1576
878.972	1168
879.023	687
879.078	598
879.105	634
879.185	1552
879.187	1570
879.269	1354
879.292	1538
879.351	1718
879.399	1287
879.433	1137
879.506	1120
879.516	1073
879.598	1067
879.613	933
879.680	904
879.720	1303
879.762	1461
879.827	883
879.844	721
879.926	1115
879.933	1105
880.007	1270
880.040	1046
880.089	660
880.147	1304
880.171	1573
880.253	2095
880.254	2095
880.335	1955
880.360	2154
880.417	3156
880.467	4374
880.499	5018
880.574	5960
880.580	5939
880.662	2858
880.680	2423
880.744	1318
880.787	1125
880.825	944
880.893	1086
880.907	1153
880.989	1196
881.000	1156
881.070	868
881.106	753
881.152	692
881.213	1026
881.233	1135
881.315	1073
881.319	1068
881.396	1206
881.426	1341
881.478	1245
881.532	1179
881.559	1442
881.639	1642
881.641	1623
881.722	1133
881.745	1043
881.803	1413
881.852	1353
881.885	1078
881.958	1198
881.966	1255
882.047	1620
882.064	1535
882.129	912
882.171	713
882.210	620
882.277	1366
882.291	1552
882.372	1389
882.383	1400
882.454	1548
882.489	1508
882.535	1228
882.596	1267
882.616	1362
882.697	1368
882.702	1371
882.778	1120
882.808	1003
882.859	972
882.914	1005
882.940	982
883.020	774
883.021	777
883.102	1170
883.127	1358
883.183	1460
883.233	1119
883.264	985
883.339	1259
883.345	1254
883.426	431
883.445	471
883.507	1229
883.551	1603
883.587	1671
883.657	1660
883.668	1657
883.749	1643
883.763	1578
883.830	1346
883.869	1383
883.910	1309
883.975	1135
883.991	1125
884.072	1051
884.081	1054
884.152	1245
884.187	1331
884.233	1622
884.292	1987
884.314	1843
884.394	804
884.398	759
884.475	349
884.504	385
884.555	402
884.610	289
884.636	578
884.716	1484
884.716	1486
884.797	1283
884.821	1297
884.877	1297
884.927	1339
884.958	1495
885.033	1508
885.038	1476
885.118	1032
885.139	926
885.199	843
885.244	870
885.279	1010
885.350	1479
885.359	1533
885.439	1518
885.456	1521
885.520	1448
885.561	1385
885.600	1073
885.667	630
885.680	693
885.760	1231
885.773	1274
885.840	1020
885.878	841
885.920	693
885.984	911
886.000	1042
886.080	1056
886.089	1105
886.160	1402
886.195	1458
886.240	1452
886.300	1327
886.320	1339
886.400	1411
886.406	1419
886.480	1115
886.511	1032
886.560	1254
886.616	1273
886.640	1206
886.720	1339
886.722	1333
886.800	1493
886.827	1621
886.879	1653
886.932	1619
886.959	1661
887.038	1687
887.039	1687
887.119	1375
887.143	1270
887.198	1234
887.248	1367
887.278	1551
887.354	1648
887.358	1614
887.437	985
887.459	793
887.517	1117
887.564	1514
887.596	1433
887.669	1035
887.676	1049
887.755	1087
887.774	1175
887.835	982
887.880	759
887.914	949
887.985	1275
887.994	1300
888.073	1621
888.090	1654
888.153	1778
888.195	1885
888.232	1622
888.300	1153
888.311	1115
888.391	876
888.405	816
888.470	1196
888.510	1437
888.549	1439
888.615	1518
888.628	1588
888.708	1974
888.720	2017
888.787	1530
888.825	1286
888.866	1040
888.930	600
888.945	720
889.024	1443
889.035	1529
889.103	1666
889.140	1761
889.182	1592
889.245	1319
889.261	1441
889.340	2035
889.349	2097
889.419	1405
889.454	1071
889.498	1227
889.559	1457
889.577	1462
889.656	1477
889.664	1481
889.735	1750
889.768	1878
889.814	1938
889.873	2011
889.978	1312
890.083	1844
890.187	1338
890.292	2713
890.397	1669
890.501	1700
890.606	238
890.710	1621
890.815	2303
890.919	1746
891.024	776
891.128	1307
891.233	1411
891.337	1581
891.442	1182
891.546	868
891.650	1388
891.755	1386
891.859	1609
891.963	2137
892.068	1296
892.172	1461
892.276	1050
892.380	1215
892.484	1298
892.589	1435
892.693	516
892.797	1424
892.901	686
893.005	1664
893.109	1506
893.213	2102
893.317	2060
893.421	1814
893.525	1576
893.629	1041
893.733	1596
893.837	427
893.941	1500
894.045	1454
894.148	786
894.252	2769
894.356	1873
894.460	1790
894.564	1238
894.667	1523
894.771	1134
894.875	865
894.978	1078
895.082	768
895.186	1210
895.289	1606
895.393	1427
895.496	1156
895.600	857
895.703	994
895.807	445
895.910	755
896.014	1509
896.117	1039
896.221	1642
896.324	1614
896.427	728
896.531	885
896.634	1730
896.737	1572
896.840	-416
896.944	1740
897.047	1697
897.150	721
897.253	22
897.356	1510
897.460	316
897.563	1316
897.666	770
897.769	1686
897.872	1264
897.975	151
898.078	1356
898.181	1034
898.284	1066
898.387	1576
898.490	1180
898.593	1705
898.695	-12
898.798	1291
898.901	879
899.004	912
899.107	1206
899.209	906
899.312	1058
899.415	925
899.518	681
899.620	357
899.723	638
899.826	1680
899.928	1835
900.031	832
900.133	1057
900.236	175
900.338	629
900.441	1470
900.543	608
900.646	1254
900.748	507
900.851	1785
900.953	1275
901.055	573
901.158	1225
901.260	1358
901.362	932
901.465	857
901.567	1259
901.669	1085
901.771	-298
901.873	1289
901.976	830
902.078	601
902.180	681
902.282	956
902.384	1036
902.486	1332
902.588	966
902.690	1207
902.792	1578
902.894	945
902.996	732
903.098	1429
903.200	876
903.302	992
903.404	941
903.505	1075
903.607	898
903.709	1900
903.811	988
903.913	801
904.014	1140
904.116	648
904.218	978
904.319	1883
904.421	2009
904.523	1356
904.624	726
904.726	1355
904.827	527
904.929	-19
905.030	135
905.132	1111
905.233	1204
905.335	1273
905.436	1160
905.537	580
905.639	1197
905.740	1693
905.841	279
905.943	1363
906.044	110
906.145	1025
906.247	767
906.348	944
906.449	920
906.550	1297
906.651	102
906.752	536
906.854	766
906.955	482
907.056	404
907.157	1021
907.258	1645
907.359	454
907.460	132
907.561	724
907.662	474
907.762	88
907.863	731
907.964	727
908.065	962
908.166	1040
908.267	948
908.367	394
908.468	485
908.569	1488
908.670	876
908.770	1398
908.871	395
908.971	1152
909.072	822
909.173	870
909.273	659
909.374	1049
909.474	164
909.575	986
909.675	1100
909.776	1245
909.876	691
909.977	1092
910.077	1336
910.177	1445
910.278	1793
910.378	395
910.478	734
910.579	1274
910.679	432
910.779	484
910.879	955
910.980	1471
911.080	1266
911.180	368
911.280	485
911.380	233
911.480	402
911.580	1057
911.680	1223
911.780	995
911.880	1358
911.980	-75
912.080	398
912.180	988
912.280	856
912.380	1062
912.480	212
912.580	715
912.679	438
912.779	1041
912.879	1064
912.979	504
913.078	460
913.178	125
913.278	389
913.377	953
913.477	343
913.577	891
913.676	585
913.776	1014
913.875	453
913.975	915
914.074	692
914.174	380
914.273	356
914.373	934
914.472	792
914.572	1064
914.671	-207
914.770	571
914.870	897
914.969	247
915.068	454
915.167	1224
915.267	368
915.366	143
915.465	840
915.564	683
915.663	875
915.763	700
915.862	865
915.961	1317
916.060	811
916.159	940
916.258	353
916.357	613
916.456	774
916.555	452
916.654	365
916.752	1816
916.851	434
916.950	1099
917.049	806
917.148	622
917.247	484
917.345	689
917.444	258
917.543	943
917.642	201
917.740	135
917.839	1229
917.937	1156
918.036	979
918.135	214
918.233	44
918.332	955
918.430	437
918.529	926
918.627	239
918.726	-351
918.824	1227
918.923	904
919.021	-225
919.119	884
919.218	1099
919.316	802
919.414	226
919.512	203
919.611	897
919.709	701
919.807	259
919.905	923
920.003	1009
920.102	937
920.200	367
920.298	621
920.396	571
920.494	876
920.592	1150
920.690	778
920.788	1061
920.886	308
920.984	592
921.082	-45
921.180	1385
921.277	1133
921.375	498
921.473	1199
921.571	1643
921.669	1474
921.766	1058
921.864	1747
921.962	2367
922.060	670
922.157	1027
922.255	2118
922.352	1007
922.450	1792
922.548	1663
922.645	1601
922.743	2258
922.840	3149
922.938	4544
923.035	4448
923.133	3907
923.230	4520
923.327	5632
923.425	4865
923.522	4752
923.619	4910
923.717	4085
923.814	3820
923.911	3492
924.008	4702
924.106	3194
924.203	3802
924.300	3263
924.397	4221
924.494	4134
924.591	3685
924.688	3252
924.786	3852
924.883	3545
924.979	4036
925.077	3972
925.173	4108
925.270	3643
925.367	3072
925.464	3551
925.561	3926
925.658	4275
925.755	3758
925.852	3461
925.948	3660
926.045	3879
926.142	4403
926.239	3471
926.335	2782
926.432	3678
926.529	3823
926.625	4261
926.722	2762
926.818	4018
926.915	4304
927.011	3397
927.108	2994
927.204	3809
927.301	2889
927.397	3318
927.494	3792
927.590	2936
927.687	2053
927.783	3334
927.879	3771
927.976	3478
928.072	2583
928.168	3534
928.264	2646
928.361	2374
928.457	3349
928.553	1862
928.649	3492
928.745	3804
928.841	2434
928.937	3344
929.033	3015
929.129	2948
929.225	3164
929.321	2562
929.417	2384
929.513	3079
929.609	2861
929.705	2678
929.801	3853
929.897	2713
929.993	1911
930.089	3484
930.184	2593
930.280	2590
930.376	3574
930.471	2554
930.567	1777
930.663	2165
930.758	2968
930.854	1776
930.950	2552
931.045	2385
931.141	2837
931.236	2595
931.332	3346
931.427	1470
931.523	2928
931.618	2552
931.714	2019
931.809	2303
931.905	3066
932.000	2819
932.095	1725
932.191	2822
932.286	3762
932.381	2126
932.476	2148
932.572	2616
932.667	1467
932.762	2232
932.857	2256
932.952	2406
933.047	2169
933.142	1550
933.237	2173
933.332	2284
933.427	2345
933.522	2174
933.617	2069
933.712	1111
933.807	1923
933.902	2222
933.997	3202
934.092	1869
934.187	2294
934.282	2145
934.376	2827
934.471	2044
934.566	2520
934.661	1815
934.755	2673
934.850	2007
934.945	2498
935.039	2176
935.134	1603
935.228	1537
935.323	3249
935.417	1584
935.512	1617
935.606	1836
935.701	2285
935.795	1969
935.890	1837
935.984	2186
936.079	843
936.173	1747
936.267	2200
936.362	1000
936.456	2506
936.550	1815
936.644	2501
936.738	1715
936.833	1247
936.927	1274
937.021	2259
937.115	1148
937.209	1426
937.303	2354
937.397	1017
937.491	1426
937.585	1996
937.679	2634
937.773	1207
937.867	1095
937.961	775
938.055	2302
938.149	2402
938.243	1631
938.337	976
938.430	898
938.524	2599
938.618	2176
938.712	1085
938.805	1684
938.899	1250
938.993	2450
939.086	1684
939.180	1274
939.274	1408
939.367	1188
939.461	2843
939.554	1709
939.648	1244
939.741	1148
939.835	1469
939.928	2310
940.022	2697
940.115	1296
940.208	1497
940.302	1873
940.395	1954
940.488	603
940.582	1632
940.675	215
940.768	863
940.861	2378
940.954	2470
941.048	1534
941.141	794
941.234	343
941.327	2144
941.420	2061
941.513	1919
941.606	128
941.699	1796
941.792	1848
941.885	2202
941.978	1443
942.071	847
942.164	1004
942.257	1367
942.349	961
942.442	1692
942.535	349
942.628	1021
942.721	914
942.813	482
942.906	1235
942.999	1097
943.091	792
943.184	1030
943.277	730
943.369	1038
943.462	604
943.554	616
943.647	675
943.739	971
943.832	1026
943.924	292
944.017	484
944.109	919
944.201	1203
944.294	1772
944.386	-47
944.478	702
944.571	361
944.663	1528
944.755	417
944.847	1349
944.940	1403
945.032	569
945.124	351
945.216	1207
945.308	658
945.400	486
945.492	319
945.584	1498
945.676	1454
945.768	583
945.860	1221
945.952	1211
946.044	916
946.136	1271
946.228	838
946.320	404
946.412	559
946.503	81
946.595	2120
946.687	347
946.779	-22
946.870	920
946.962	-176
947.054	842
947.145	1137
947.237	848
947.329	648
947.420	401
947.512	747
947.603	4
947.695	675
947.786	1260
947.878	754
947.969	1173
948.061	410
948.152	688
948.243	-200
948.335	62
948.426	273
948.517	553
948.609	419
948.700	1070
948.791	534
948.882	422
948.973	404
949.065	244
949.156	342
949.247	-76
949.338	447
949.429	-132
949.520	-282
949.611	-752
949.702	877
949.793	675
949.884	197
949.975	546
950.066	-211
950.157	538
950.247	250
950.338	-196
950.429	24
950.520	237
950.611	388
950.701	493
950.792	732
950.883	905
950.973	621
951.064	1138
951.155	305
951.245	956
951.336	-98
951.427	468
951.517	679
951.608	593
951.698	-254
951.788	693
951.879	-218
951.969	341
952.060	253
952.150	481
952.240	1057
952.331	-791
952.421	1607
952.511	-955
952.602	31
952.692	-387
952.782	300
952.872	161
952.962	991
953.052	10
953.143	-393
953.233	985
953.323	1153
953.413	689
953.503	676
953.593	239
953.683	-357
953.773	44
953.863	-480
953.953	483
954.042	-191
954.132	559
954.222	693
954.312	78
954.402	-711
954.492	106
954.581	611
954.671	290
954.761	480
954.850	1082
954.940	-33
955.030	412
955.119	-137
955.209	352
955.298	-354
955.388	-232
955.477	428
955.567	-132
955.656	643
955.746	1332
955.835	82
955.925	140
956.014	262
956.103	-151
956.193	659
956.282	913
956.371	-145
956.461	777
956.550	-126
956.639	523
956.728	-245
956.817	1185
956.906	708
956.995	1278
957.085	-14
957.174	-3
957.263	763
957.352	-181
957.441	219
957.530	1030
957.619	598
957.708	488
957.796	877
957.885	879
957.974	81
958.063	239
958.152	-196
958.241	-157
958.329	633
958.418	1044
958.507	-82
958.596	1690
958.684	261
958.773	1113
958.861	466
958.950	689
959.039	-242
959.127	1031
959.216	1634
959.304	281
959.393	-193
959.481	1407
959.570	1284
959.658	437
959.746	534
959.835	1493
959.923	1670
960.011	320
960.100	1228
960.188	746
960.276	211
960.365	26
960.453	1532
960.541	-165
960.629	-394
960.717	463
960.805	-631
960.893	304
960.981	534
961.069	1227
961.158	-164
961.245	639
961.333	505
961.421	357
961.509	192
961.597	1036
961.685	212
961.773	-11
961.861	-148
961.949	1412
962.036	-216
962.124	446
962.212	518
962.299	614
962.387	525
962.475	256
962.562	-541
962.650	805
962.738	-91
962.825	-838
962.913	-48
963.000	-26
963.088	-267
963.175	677
963.263	473
963.350	-31
963.438	-606
963.525	-241
963.612	1244
963.700	2523
963.787	6241
963.874	2758
963.962	610
964.049	-212
964.136	-417
964.223	-652
964.310	-526
964.398	110
964.485	-300
964.572	298
964.659	580
964.746	1425
964.833	-772
964.920	-345
965.007	-230
965.094	475
965.181	-140
965.268	-138
965.355	-758
965.441	-92
965.528	-756
965.615	913
965.702	-359
965.789	12
965.875	136
965.962	-97
966.049	-1094
966.136	610
966.222	-1065
966.309	817
966.395	-829
966.482	694
966.569	-333
966.655	-689
966.742	-509
966.828	437
966.915	-592
967.001	-317
967.087	-846
967.174	12
967.260	264
967.347	880
967.433	1411
967.519	3085
967.605	1088
967.692	32
967.778	264
967.864	1230
967.950	479
968.036	550
968.123	-569
968.209	-365
968.295	-1094
968.381	977
968.467	629
968.553	-1100
968.639	952
968.725	162
968.811	1084
968.897	1032
968.983	-1032
969.069	350
969.154	980
969.240	1100
969.326	-1252
969.412	-523
969.497	441
969.583	-569
969.669	1312
969.755	806
969.840	-10
969.926	956
970.012	282
970.097	2282
970.183	1593
970.268	542
970.354	1079
970.439	412
970.525	2018
970.610	35
970.696	-445
970.781	320
970.866	-1221
970.952	510
971.037	-1269
971.122	-370
971.208	-223
971.293	63
971.378	-1094
971.463	-235
971.549	-4
971.634	207
971.719	-424
971.804	480
971.889	821
971.974	264
972.059	-338
972.144	-304
972.229	-168
972.314	-493
972.399	-145
972.484	-912
972.569	-64
972.654	-606
972.739	1451
972.824	861
972.908	134
972.993	-615
973.078	-462
973.163	-106
973.247	337
973.332	-1446
973.417	1066
973.501	155
973.586	462
973.671	564
973.755	-709
973.840	-384
973.924	153
974.009	303
974.093	3
974.178	1469
974.262	1134
974.346	1656
974.431	-116
974.515	175
974.600	-456
974.684	25
974.768	-719
974.852	1356
974.937	-96
975.021	708
975.105	-43
975.189	-22
975.273	485
975.358	-604
975.442	-447
975.526	566
975.610	-297
975.694	-950
975.778	794
975.862	514
975.946	-1364
976.030	1008
976.114	-714
976.198	-121
976.281	-674
976.365	961
976.449	-409
976.533	207
976.617	-61
976.700	-382
976.784	436
976.868	-265
976.951	416
977.035	382
977.119	1328
977.202	547
977.286	330
977.369	807
977.453	1090
977.536	-417
977.620	-11
977.703	71
977.787	-203
977.870	710
977.953	463
978.037	-961
978.120	695
978.203	1149
978.287	999
978.370	1079
978.453	265
978.536	-145
978.620	840
978.703	1546
978.786	-63
978.869	-300
978.952	-476
979.035	1137
979.118	387
979.201	-473
979.284	992
979.367	-153
979.450	409
979.533	-459
979.616	9
979.699	-767
979.782	-135
979.865	508
979.948	70
980.030	478
980.113	-127
980.196	-262
980.279	469
980.361	-566
980.444	26
980.526	57
980.609	433
980.692	626
980.774	1007
980.857	-626
980.939	754
981.022	-209
981.104	240
981.187	-680
981.269	743
981.352	33
981.434	-615
981.516	-46
981.599	309
981.681	9
981.763	954
981.846	-405
981.928	242
982.010	838
982.092	-818
982.174	783
982.256	-313
982.339	416
982.421	362
982.503	932
982.585	-1181
982.667	63
982.749	-51
982.831	262
982.913	-87
982.995	1228
983.077	-741
983.158	1175
983.240	-1306
983.322	471
983.404	1663
983.486	334
983.568	1089
983.649	34
983.731	430
983.813	-1032
983.894	894
983.976	77
984.058	442
984.139	1398
984.221	-274
984.302	1359
984.384	-258
984.465	-409
984.547	774
984.628	21
984.710	625
984.791	-141
984.872	492
984.954	424
985.035	765
985.116	226
985.198	-97
985.279	912
985.360	213
985.441	-559
985.522	331
985.604	889
985.685	-1421
985.766	969
985.847	841
985.928	14
986.009	-122
986.090	-149
986.171	357
986.252	-497
986.333	70
986.414	817
986.495	655
986.576	-211
986.656	920
986.737	1047
986.818	1053
986.899	406
986.980	548
987.060	1237
987.141	76
987.222	454
987.302	1196
987.383	1452
987.464	909
987.544	1448
987.625	855
987.705	1659
987.786	952
987.866	98
987.947	450
988.027	675
988.108	670
988.188	1396
988.268	1189
988.349	621
988.429	918
988.509	180
988.589	-279
988.670	-640
988.750	1064
988.830	368
988.910	413
988.990	542
989.070	664
989.151	504
989.231	74
989.311	258
989.391	120
989.471	198
989.551	909
989.631	221
989.711	1416
989.791	-37
989.870	-53
989.950	1882
990.030	-215
990.110	363
990.190	-503
990.269	687
990.349	181
990.429	1170
990.509	555
990.588	115
990.668	1072
990.747	1058
990.827	-37
990.907	901
990.986	809
991.066	1402
991.145	-421
991.225	146
991.304	512
991.383	855
991.463	165
991.542	418
991.622	-373
991.701	396
991.780	-495
991.859	-136
991.939	-322
992.018	166
992.097	-311
992.176	753
992.256	53
992.335	200
992.414	-21
992.493	395
992.572	-585
992.651	1317
992.730	-150
992.809	79
992.888	-359
992.967	-251
993.046	645
993.125	-438
993.203	136
993.282	66
993.361	-335
993.440	619
993.519	-82
993.597	169
993.676	-337
993.755	1027
993.834	4
993.912	-1055
993.991	706
994.069	-439
994.148	-143
994.226	288
994.305	172
994.384	-408
994.462	638
994.540	28
994.619	261
994.697	591
994.776	241
994.854	499
994.932	-444
995.011	75
995.089	-88
995.167	291
995.245	299
995.324	-408
995.402	723
995.480	-351
995.558	-364
995.636	-112
995.714	-572
995.792	847
995.870	-865
995.948	98
996.026	72
996.104	-903
996.182	-85
996.260	-286
996.338	462
996.416	-919
996.494	-390
996.572	596
996.649	-674
996.727	-574
996.805	222
996.883	-5
996.960	-299
997.038	-4
997.116	197
997.193	-620
997.271	-513
997.348	-1213
997.426	372
997.504	-1027
997.581	784
997.658	92
997.736	-954
997.813	-692
997.891	276
997.968	-694
998.046	-558
998.123	-116
998.200	619
998.277	-930
998.355	-372
998.432	-614
998.509	-435
998.586	-57
998.663	-354
998.741	-172
998.818	-659
998.895	-215
998.972	-354
999.049	492
999.126	-997
999.203	-110
999.280	-544
999.357	90
999.434	-864
999.511	-264
999.587	63
999.664	-858
999.741	-119
999.818	190
999.895	-734
999.971	-1088
1000.048	-195
1000.125	49
1000.202	-418
1000.278	-419
1000.355	303
1000.431	-515
1000.508	-1171
1000.584	-227
1000.661	183
1000.738	-857
1000.814	-681
1000.890	-412
1000.967	-129
1001.043	203
1001.120	-815
1001.196	126
1001.272	-580
1001.349	-360
1001.425	-118
1001.501	187
1001.577	-273
1001.654	117
1001.730	-388
1001.806	-967
1001.882	-1373
1001.958	330
1002.034	-225
1002.110	-187
1002.186	-1255
1002.262	-1462
1002.338	-785
1002.414	-36
1002.490	203
1002.566	-1121
1002.642	-349
1002.718	416
1002.794	-386
1002.870	-275
1002.945	-1342
1003.021	-113
1003.097	-859
1003.173	33
1003.248	-744
1003.324	-375
1003.400	394
1003.475	-974
1003.551	-223
1003.626	-170
1003.702	-13
1003.777	-718
1003.853	-1094
1003.928	-1139
1004.004	-791
1004.079	-617
1004.155	-100
1004.230	-1652
1004.305	272
1004.381	-863
1004.456	-42
1004.531	-264
1004.607	-377
1004.682	-917
1004.757	-523
1004.832	-317
1004.907	-686
1004.982	-230
1005.057	-320
1005.133	-8
1005.208	-641
1005.283	-508
1005.358	156
1005.433	-1141
1005.508	393
1005.583	-1270
1005.657	-886
1005.732	225
1005.807	-540
1005.882	-541
1005.957	-592
1006.032	-231
1006.106	-819
1006.181	-720
1006.256	-529
1006.331	141
1006.405	-970
1006.480	-358
1006.554	-1126
1006.629	-63
1006.704	-710
1006.778	-702
1006.853	8
1006.927	-650
1007.002	-1407
1007.076	-356
1007.150	-890
1007.225	-6
1007.299	-560
1007.373	-1362
1007.448	-1785
1007.522	-745
1007.596	-238
1007.671	-721
1007.745	157
1007.819	-1298
1007.893	-267
1007.967	-296
1008.041	-841
1008.115	-149
1008.190	-1184
1008.264	-45
1008.338	-2147
1008.412	-506
1008.486	-654
1008.560	-536
1008.633	-1228
1008.707	-110
1008.781	541
1008.855	-987
1008.929	-449
1009.003	-728
1009.076	-1270
1009.150	-83
1009.224	-671
1009.298	-786
1009.371	-1299
1009.445	118
1009.519	-327
1009.592	-1721
1009.666	-412
1009.739	-576
1009.813	-1475
1009.886	-476
1009.960	-1697
1010.033	-466
1010.107	-640
1010.180	-1405
1010.253	-1433
1010.327	-1518
1010.400	-1044
1010.473	-897
1010.547	584
1010.620	-729
1010.693	-518
1010.766	-814
1010.840	-544
1010.913	-678
1010.986	-957
1011.059	-713
1011.132	-442
1011.205	314
1011.278	-1051
1011.351	-99
1011.424	-579
1011.497	-1562
1011.570	-1210
1011.643	-429
1011.716	-953
1011.789	-470
1011.862	-502
1011.934	-796
1012.007	-2256
1012.080	-868
1012.153	-1427
1012.225	-359
1012.298	-1676
1012.371	-1372
1012.443	-452
1012.516	-1128
1012.588	-1648
1012.661	-175
1012.733	-1359
1012.806	-911
1012.879	-1705
1012.951	-441
1013.023	-1508
1013.096	-33
1013.168	-1404
1013.241	-446
1013.313	-1206
1013.385	-1200
1013.458	-592
1013.530	-367
1013.602	-1729
1013.674	-574
1013.746	-1592
1013.819	-839
1013.891	-215
1013.963	-1203
1014.035	-636
1014.107	-432
1014.179	-747
1014.251	-1075
1014.323	-350
1014.395	-707
1014.467	-989
1014.539	-1218
1014.611	-898
1014.683	-1246
1014.754	-956
1014.826	-1232
1014.898	-1064
1014.970	-2020
1015.042	67
1015.113	-847
1015.185	-686
1015.257	-1324
1015.328	-870
1015.400	-1278
1015.471	-914
1015.543	-1143
1015.615	-624
1015.686	-587
1015.757	-1797
1015.829	-11
1015.901	-1483
1015.972	-1182
1016.043	-655
1016.115	-552
1016.186	-986
1016.257	-1421
1016.328	-183
1016.400	-1082
1016.471	-1587
1016.542	-692
1016.613	-1078
1016.685	-725
1016.756	-75
1016.827	-599
1016.898	-1608
1016.969	-398
1017.040	-703
1017.111	-1169
1017.182	-713
1017.253	-787
1017.324	-1225
1017.395	-1101
1017.466	-75
1017.537	-1325
1017.608	-915
1017.678	-477
1017.749	-1347
1017.820	-634
1017.891	-1196
1017.961	-1420
1018.032	-1593
1018.103	-1409
1018.173	-1331
1018.244	-1410
1018.315	-1014
1018.385	-885
1018.456	-1282
1018.526	-1565
1018.597	-755
1018.667	-785
1018.738	-2152
1018.808	-1164
1018.878	-2043
1018.949	-1064
1019.019	-525
1019.089	-1696
1019.160	-1751
1019.230	-1798
1019.300	-1093
1019.371	-1437
1019.441	-456
1019.511	-1117
1019.581	-962
1019.651	-447
1019.721	-1022
1019.791	-1217
1019.861	-1248
1019.931	-1722
1020.001	-1661
1020.071	-1009
1020.141	-1171
1020.211	-937
1020.281	-1168
1020.351	-855
1020.421	-859
1020.491	-554
1020.560	-1350
1020.630	-1063
1020.700	-666
1020.770	-1083
1020.839	-1356
1020.909	-794
1020.979	-929
1021.048	-1438
1021.118	-984
1021.187	-1263
1021.257	-1054
1021.326	-981
1021.396	-1934
1021.465	-1260
1021.535	-1177
1021.604	-1313
1021.674	-1468
1021.743	-950
1021.812	-1950
1021.882	-1546
1021.951	-1581
1022.020	-508
1022.089	-614
1022.159	-1336
1022.228	-1369
1022.297	-1393
1022.366	-1346
1022.435	-1282
1022.504	-545
1022.573	-1426
1022.642	-873
1022.711	-1866
1022.781	-1371
1022.849	-809
1022.918	-1552
1022.987	-1788
1023.056	-1749
1023.125	-1087
1023.194	-1189
1023.263	-527
1023.331	-1496
1023.400	-1232
1023.469	-1568
1023.538	-490
1023.606	-1135
1023.675	-1437
1023.744	-672
1023.812	-1213
1023.881	-913
1023.949	-1425
1024.018	-1599
1024.086	-1340
1024.155	-1504
1024.223	-2691
1024.292	-2124
1024.360	-1298
1024.429	-1689
1024.497	-1385
1024.565	-745
1024.634	-1121
1024.702	-702
1024.770	-1096
1024.838	-2436
1024.907	-1187
1024.975	-1556
1025.043	-1202
1025.111	-1674
1025.179	-673
1025.247	-1173
1025.315	-1536
1025.383	-1623
1025.451	-1131
1025.519	-1727
1025.587	-307
1025.655	-1130
1025.723	-1348
1025.791	-871
1025.859	-1082
1025.927	-893
1025.995	-1059
1026.062	-1330
1026.130	-1442
1026.198	-1096
1026.266	-2081
1026.333	-626
1026.401	-365
1026.469	-1431
1026.536	-1324
1026.604	-1766
1026.671	-1577
1026.739	-1234
1026.806	-1490
1026.874	-1933
1026.941	-1484
1027.009	-1066
1027.076	-1942
1027.144	-1590
1027.211	-1233
1027.278	-1981
1027.345	-1568
1027.413	-1052
1027.480	-796
1027.547	-1509
1027.614	-1859
1027.682	-626
1027.749	-1357
1027.816	-1403
1027.883	-2395
1027.950	-1773
1028.017	-2314
1028.084	-466
1028.151	-1890
1028.218	-1233
1028.285	-1348
1028.352	-1691
1028.419	-1798
1028.486	-1347
1028.553	-943
1028.619	-1329
1028.686	-1231
1028.753	-2672
1028.820	-1262
1028.886	-874
1028.953	-1303
1029.020	-998
1029.086	-1595
1029.153	-1071
1029.220	-2456
1029.286	-1843
1029.353	-1315
1029.419	-1235
1029.486	-1693
1029.552	-2018
1029.619	-1531
1029.685	-1366
1029.751	-2332
1029.818	-600
1029.884	-1391
1029.951	-990
1030.017	-1644
1030.083	-1530
1030.149	-1294
1030.216	-2046
1030.282	-803
1030.348	-2042
1030.414	-2317
1030.480	-1439
1030.546	-1417
1030.612	-1899
1030.678	-1734
1030.744	-1871
1030.810	-1340
1030.876	-1398
1030.942	-1212
1031.008	-1378
1031.074	-1192
1031.140	-1754
1031.206	-910
1031.272	-1828
1031.337	-1897
1031.403	-1593
1031.469	-1146
1031.534	-1576
1031.600	-786
1031.666	-1467
1031.731	-1259
1031.797	-1503
1031.863	-1391
1031.928	-1837
1031.994	-2073
1032.059	-1199
1032.125	-1705
1032.190	-2155
1032.256	-1923
1032.321	-2697
1032.386	-1869
1032.452	-887
1032.517	-1072
1032.582	-1837
1032.647	-1408
1032.713	-1299
1032.778	-1103
1032.843	-2022
1032.908	-1322
1032.974	-1938
1033.039	-1473
1033.104	-2066
1033.169	-2145
1033.234	-1548
1033.299	-1062
1033.364	-1219
1033.429	-2058
1033.494	-1943
1033.559	-1636
1033.624	-1629
1033.688	-962
1033.753	-2027
1033.818	-1608
1033.883	-945
1033.948	-1383
1034.013	-1197
1034.077	-667
1034.142	-908
1034.207	-222
1034.271	195
1034.336	1205
1034.400	-172
1034.465	-623
1034.530	-703
1034.594	-1329
1034.658	-1318
1034.723	-1824
1034.787	-1649
1034.852	-1482
1034.916	-1730
1034.981	-1081
1035.045	-1426
1035.109	-1821
1035.173	-1998
1035.238	-1225
1035.302	-1788
1035.366	-1284
1035.430	-2104
1035.495	-1700
1035.559	-1230
1035.623	-2097
1035.687	-1833
1035.751	-1151
1035.815	-1373
1035.879	-1774
1035.943	-1935
1036.007	-1265
1036.071	-1796
1036.135	-1733
1036.198	-1679
1036.262	-2386
1036.326	-1939
1036.390	-962
1036.454	-1795
1036.517	-1615
1036.581	-1686
1036.645	-1505
1036.709	-768
1036.772	-706
1036.836	-2276
1036.900	-2014
1036.963	-2421
1037.026	-1619
1037.090	-2844
1037.154	-1963
1037.217	-1215
1037.280	-1381
1037.344	-1663
1037.407	-1922
1037.471	-1111
1037.534	-1468
1037.597	-2125
1037.661	-1972
1037.724	-1601
1037.787	-2129
1037.850	-1750
1037.913	-1474
1037.977	-1683
1038.040	-2242
1038.103	-1750
1038.166	-2016
1038.229	-1848
1038.292	-2076
1038.355	-848
1038.418	-1789
1038.481	-913
1038.544	-1970
1038.607	-1775
1038.670	-2259
1038.732	-2079
1038.795	-2817
1038.858	-1887
1038.921	-1173
1038.984	-1698
1039.046	-2503
1039.109	-1886
1039.172	-1878
1039.234	-2209
1039.297	-1309
1039.360	-1593
1039.422	-2104
1039.485	-2125
1039.547	-2359
1039.610	-1911
1039.672	-1894
1039.734	-1981
1039.797	-1425
1039.859	-1950
1039.922	-2532
1039.984	-2021
1040.046	-1990
1040.109	-2036
1040.171	-2836
1040.233	-1989
1040.295	-1964
1040.358	-2080
1040.420	-1328
1040.482	-1776
1040.544	-1934
1040.606	-1485
1040.668	-2097
1040.730	-1928
1040.792	-1891
1040.854	-2331
1040.916	-1202
1040.978	-1878
1041.040	-1763
1041.102	-1093
1041.164	-2538
1041.225	-2009
1041.287	-2045
1041.349	-2243
1041.411	-2246
1041.472	-2853
1041.534	-2285
1041.596	-2140
1041.657	-1876
1041.719	-2645
1041.781	-1443
1041.842	-2519
1041.904	-1654
1041.965	-2096
1042.027	-2035
1042.088	-2281
1042.150	-2020
1042.211	-1839
1042.272	-1480
1042.334	-2562
1042.395	-2186
1042.456	-2166
1042.518	-2358
1042.579	-1441
1042.640	-2388
1042.701	-3098
1042.763	-2277
1042.824	-2657
1042.885	-2118
1042.946	-1487
1043.007	-2183
1043.068	-2153
1043.129	-2025
1043.190	-2176
1043.251	-1489
1043.312	-3010
1043.373	-2104
1043.434	-2124
1043.495	-1620
1043.556	-2623
1043.616	-2177
1043.677	-1921
1043.738	-1067
1043.799	-2491
1043.859	-1506
1043.920	-2428
1043.981	-2374
1044.041	-1909
1044.102	-1982
1044.162	-1498
1044.223	-2008
1044.284	-2127
1044.344	-1588
1044.405	-2380
1044.465	-2618
1044.525	-2778
1044.586	-2006
1044.646	-1470
1044.707	-1556
1044.767	-2218
1044.827	-1788
1044.887	-2732
1044.948	-1823
1045.008	-2410
1045.068	-2386
1045.128	-2397
1045.188	-2371
1045.249	-2502
1045.309	-1495
1045.369	-2080
1045.429	-2042
1045.489	-1721
1045.549	-1971
1045.609	-2314
1045.669	-2354
1045.729	-2475
1045.789	-1745
1045.848	-2263
1045.908	-1086
1045.968	-1927
1046.028	-2092
1046.088	-2337
1046.147	-868
1046.207	-1641
1046.267	-1377
1046.326	-2009
1046.386	-1786
1046.446	-2311
1046.505	-1351
1046.565	-933
1046.624	-1946
1046.684	-1394
1046.743	-1174
1046.803	-419
1046.862	-1003
1046.922	0
