'Start Wavelength	183.907
'End Wavelength	1046.922
'Gate Delay	5.000
'Gate Width (ms)	1.050
'Laser Output Level	0.000
'X Position	0.000
'Y Position	0.000
'Z Position	0.000
'Grid Point Number	1.000
'Shot Number	100.000
183.907	434.000
183.977	-67.000
184.047	283
184.116	359
184.186	-159
184.256	557
184.325	53
184.395	-533
184.465	517
184.534	956
184.604	205
184.674	-430
184.743	238
184.813	744
184.883	50
184.952	105
185.022	-270
185.092	159
185.161	-148
185.231	-175
185.301	-689
185.370	672
185.440	-28
185.509	109
185.579	78
185.649	457
185.718	153
185.788	244
185.857	-625
185.927	456
185.996	237
186.066	223
186.136	-527
186.205	281
186.275	-11
186.344	811
186.414	-343
186.483	5
186.553	315
186.622	739
186.692	-494
186.761	515
186.831	-123
186.900	258
186.970	360
187.039	236
187.109	555
187.178	335
187.248	147
187.317	622
187.387	-45
187.456	469
187.526	-248
187.595	458
187.664	-42
187.734	842
187.803	-221
187.873	78
187.942	-159
188.012	326
188.081	-263
188.150	0
188.220	-256
188.289	-10
188.358	-149
188.428	920
188.497	-58
188.567	395
188.636	-376
188.705	37
188.775	-174
188.844	-49
188.913	-701
188.983	-264
189.052	-235
189.121	1005
189.191	-438
189.260	-426
189.329	-180
189.399	178
189.468	270
189.537	921
189.606	192
189.676	41
189.745	-107
189.814	673
189.883	-550
189.953	-438
190.022	303
190.091	200
190.161	49
190.230	1143
190.299	-160
190.368	231
190.437	49
190.507	878
190.576	-377
190.645	452
190.714	-325
190.783	-171
190.853	206
190.922	-50
190.991	115
191.060	285
191.129	-1291
191.198	739
191.268	-177
191.337	-269
191.406	532
191.475	657
191.544	-767
191.613	1234
191.682	12
191.752	730
191.821	-527
191.890	250
191.959	-433
192.028	-94
192.097	497
192.166	-225
192.235	-148
192.304	1014
192.373	-223
192.442	353
192.511	249
192.580	-505
192.650	-572
192.719	40
192.788	929
192.857	224
192.926	-882
192.995	400
193.064	-447
193.133	748
193.202	-552
193.271	1003
193.340	-86
193.409	-238
193.478	384
193.547	759
193.615	-28
193.684	148
193.753	537
193.822	507
193.891	11
193.960	419
194.029	-1336
194.098	886
194.167	-352
194.236	793
194.305	-133
194.374	642
194.443	47
194.512	519
194.580	1024
194.649	1156
194.718	-427
194.787	322
194.856	-617
194.925	98
194.994	-982
195.062	-111
195.131	-473
195.200	-432
195.269	253
195.338	715
195.407	-242
195.475	156
195.544	-118
195.613	71
195.682	-272
195.751	133
195.819	-680
195.888	-484
195.957	-117
196.026	-52
196.094	299
196.163	-79
196.232	-157
196.301	-122
196.369	-426
196.438	359
196.507	-371
196.576	204
196.644	96
196.713	796
196.782	-457
196.850	658
196.919	-965
196.988	1053
197.056	-412
197.125	799
197.194	-353
197.262	119
197.331	-560
197.400	492
197.468	-487
197.537	132
197.606	-66
197.674	292
197.743	-560
197.812	-173
197.880	296
197.949	228
198.017	516
198.086	500
198.155	-886
198.223	-193
198.292	50
198.360	192
198.429	-558
198.497	-502
198.566	-637
198.635	348
198.703	65
198.772	533
198.840	-760
198.909	33
198.977	-349
199.046	506
199.114	-615
199.183	367
199.251	133
199.320	-31
199.388	-865
199.457	-380
199.525	588
199.594	-166
199.662	-39
199.731	251
199.799	-541
199.867	24
199.936	-624
200.004	536
200.073	-604
200.141	60
200.210	202
200.278	-568
200.346	431
200.415	810
200.483	-149
200.552	252
200.620	-463
200.688	-76
200.757	138
200.825	24
200.893	-375
200.962	257
201.030	-216
201.098	349
201.167	-310
201.235	-295
201.303	-334
201.372	473
201.440	-868
201.508	-315
201.577	-293
201.645	22
201.713	53
201.781	492
201.850	426
201.918	580
201.986	-514
202.055	559
202.123	-490
202.191	-55
202.259	-247
202.327	45
202.396	-584
202.464	-81
202.532	-825
202.600	854
202.669	-470
202.737	125
202.805	-878
202.873	87
202.941	-444
203.009	-161
203.078	-957
203.146	-54
203.214	-325
203.282	297
203.350	-491
203.418	303
203.487	-453
203.555	155
203.623	-411
203.691	523
203.759	-77
203.827	141
203.895	-1210
203.963	416
204.031	-741
204.099	240
204.168	-488
204.236	-618
204.304	-893
204.372	-139
204.440	-216
204.508	-969
204.576	-511
204.644	-274
204.712	-293
204.780	734
204.848	-890
204.916	-334
204.984	-707
205.052	90
205.120	-713
205.188	520
205.256	-1127
205.324	802
205.392	-1462
205.460	277
205.528	-657
205.596	-344
205.664	-239
205.732	289
205.799	-644
205.867	507
205.935	-801
206.003	222
206.071	-355
206.139	-10
206.207	-431
206.275	113
206.343	-487
206.411	93
206.478	-16
206.546	-952
206.614	-754
206.682	-339
206.750	-1310
206.818	895
206.885	-875
206.953	-774
207.021	596
207.089	114
207.157	-1457
207.225	-246
207.292	-499
207.360	546
207.428	-205
207.496	-562
207.563	-73
207.631	77
207.699	-956
207.767	-148
207.834	-658
207.902	212
207.970	-924
208.038	-209
208.105	-334
208.173	263
208.241	-889
208.309	841
208.376	-953
208.444	-28
208.512	-548
208.579	-461
208.647	-650
208.715	774
208.782	-804
208.850	-105
208.918	-1160
208.985	401
209.053	-56
209.120	220
209.188	-555
209.256	-97
209.323	-1166
209.391	338
209.459	465
209.526	493
209.594	-833
209.661	-245
209.729	-121
209.796	229
209.864	-625
209.932	-947
209.999	108
210.067	496
210.134	-493
210.202	-492
210.269	-154
210.337	631
210.404	-1595
210.472	41
210.539	-858
210.607	778
210.674	-545
210.742	141
210.809	-41
210.877	471
210.944	51
211.012	-1023
211.079	378
211.146	338
211.214	-7
211.281	460
211.349	149
211.416	296
211.484	286
211.551	-1237
211.618	213
211.686	310
211.753	-813
211.821	776
211.888	-96
211.955	49
212.023	-718
212.090	555
212.157	-383
212.225	25
212.292	-390
212.359	150
212.427	571
212.494	-22
212.561	-378
212.629	-39
212.696	-889
212.763	-520
212.831	-1322
212.898	191
212.965	-873
213.032	-444
213.100	-514
213.167	-16
213.234	151
213.301	-831
213.369	197
213.436	42
213.503	-583
213.570	387
213.638	-173
213.705	-679
213.772	-1230
213.839	1137
213.906	295
213.973	-254
214.041	-1015
214.108	-48
214.175	-224
214.242	58
214.309	-572
214.376	174
214.444	-1432
214.511	-78
214.578	-392
214.645	1175
214.712	306
214.779	487
214.846	-1002
214.913	-111
214.980	-203
215.048	420
215.115	298
215.182	-178
215.249	468
215.316	292
215.383	-227
215.450	268
215.517	-1193
215.584	315
215.651	-591
215.718	-133
215.785	-303
215.852	-806
215.919	-213
215.986	216
216.053	-355
216.120	-503
216.187	-823
216.254	275
216.321	-1018
216.388	43
216.455	203
216.522	2
216.589	-950
216.656	-501
216.722	-177
216.789	168
216.856	-450
216.923	190
216.990	194
217.057	274
217.124	-394
217.191	358
217.258	371
217.324	609
217.391	121
217.458	683
217.525	-212
217.592	-140
217.659	-1482
217.725	546
217.792	-1034
217.859	324
217.926	-809
217.993	224
218.059	-160
218.126	-462
218.193	-272
218.260	-270
218.327	-580
218.393	-553
218.460	-1061
218.527	-18
218.594	-1239
218.660	218
218.727	-192
218.794	-521
218.860	460
218.927	-308
218.994	-528
219.061	-311
219.127	-804
219.194	-52
219.261	-393
219.327	92
219.394	122
219.461	-1130
219.527	-181
219.594	-149
219.661	17
219.727	-772
219.794	5
219.860	-789
219.927	-786
219.994	-42
220.060	-177
220.127	377
220.193	475
220.260	-174
220.326	-625
220.393	82
220.460	426
220.526	387
220.593	-485
220.659	1912
220.726	-645
220.792	962
220.859	-1349
220.925	421
220.992	1326
221.058	975
221.125	532
221.191	85
221.258	-943
221.324	-280
221.391	-733
221.457	-423
221.524	-613
221.590	-513
221.657	548
221.723	143
221.789	-633
221.856	629
221.922	-1013
221.989	760
222.055	-278
222.121	-1064
222.188	535
222.254	-383
222.321	-458
222.387	230
222.453	-957
222.520	-104
222.586	-912
222.652	577
222.719	-697
222.785	-34
222.851	-751
222.918	-574
222.984	-390
223.050	-304
223.116	-1552
223.183	12
223.249	-1095
223.315	-235
223.382	-459
223.448	373
223.514	-810
223.580	-375
223.647	-1738
223.713	-109
223.779	-331
223.845	-191
223.911	-635
223.978	-1240
224.044	-615
224.110	-66
224.176	-582
224.242	-202
224.309	-1113
224.375	27
224.441	-1131
224.507	-809
224.573	-1873
224.639	156
224.705	-500
224.772	109
224.838	-998
224.904	442
224.970	-420
225.036	-202
225.102	-1742
225.168	503
225.234	-179
225.300	-57
225.366	-449
225.432	-467
225.499	-901
225.565	-11
225.631	-865
225.697	-241
225.763	-1048
225.829	-221
225.895	-314
225.961	298
226.027	-941
226.093	-365
226.159	338
226.225	210
226.291	675
226.357	1294
226.423	204
226.489	414
226.554	-695
226.620	577
226.686	-1018
226.752	73
226.818	87
226.884	3030
226.950	2147
227.016	92
227.082	-653
227.148	-420
227.214	146
227.279	184
227.345	-430
227.411	460
227.477	533
227.543	2221
227.609	1505
227.674	931
227.740	-921
227.806	-246
227.872	-1049
227.938	937
228.003	-384
228.069	-207
228.135	-1043
228.201	166
228.267	-691
228.332	-206
228.398	-1419
228.464	309
228.530	-1290
228.595	-87
228.661	-1349
228.727	-715
228.792	-635
228.858	130
228.924	-1980
228.990	1209
229.055	-1528
229.121	-142
229.187	-493
229.252	-825
229.318	-949
229.384	-78
229.449	97
229.515	-2034
229.581	-1975
229.646	806
229.712	-721
229.777	-527
229.843	-1190
229.909	140
229.974	-715
230.040	-38
230.105	-1025
230.171	-233
230.236	-573
230.302	-1441
230.368	-824
230.433	-1128
230.499	-1157
230.564	352
230.630	-987
230.695	-1059
230.761	-370
230.826	-787
230.892	-107
230.957	-25
231.023	-1192
231.088	-495
231.154	-580
231.219	664
231.284	-825
231.350	-405
231.415	-1457
231.481	476
231.546	-952
231.612	24
231.677	-884
231.742	-1676
231.808	-190
231.873	-735
231.939	-3081
232.004	804
232.069	-128
232.135	-524
232.200	-923
232.265	150
232.331	-965
232.396	-137
232.461	-930
232.527	-1088
232.592	-1144
232.657	-352
232.723	-1173
232.788	-955
232.853	-656
232.918	-837
232.984	-1518
233.049	-25
233.114	-1429
233.179	-152
233.245	-487
233.310	-359
233.375	-1700
233.440	-302
233.506	-714
233.571	-993
233.636	-1158
233.701	318
233.766	-948
233.832	-310
233.897	-937
233.962	-1989
234.027	-268
234.092	44
234.157	-778
234.222	-57
234.288	-1109
234.353	-234
234.418	34
234.483	-333
234.548	-885
234.613	-1100
234.678	-865
234.743	-896
234.808	-245
234.873	-659
234.938	-170
235.004	-7
235.069	-697
235.134	-640
235.199	-860
235.264	-526
235.329	-2098
235.394	195
235.459	-485
235.524	-723
235.589	104
235.654	-499
235.719	-1516
235.784	106
235.849	-312
235.913	-846
235.978	-838
236.043	-590
236.108	-969
236.173	207
236.238	-1078
236.303	-672
236.368	-1515
236.433	502
236.498	-1663
236.563	-64
236.627	-918
236.692	3197
236.757	2057
236.822	1187
236.887	-230
236.952	737
237.017	-1614
237.081	208
237.146	-1480
237.211	1066
237.276	2836
237.341	6246
237.405	1363
237.470	716
237.535	-258
237.600	207
237.664	357
237.729	-1123
237.794	-1923
237.859	1652
237.923	-692
237.988	-205
238.053	-419
238.118	-488
238.182	-1190
238.247	1045
238.312	-1512
238.376	434
238.441	-2600
238.506	1126
238.570	-1608
238.635	624
238.700	-685
238.764	-612
238.829	-932
238.893	-458
238.958	163
239.023	8
239.087	-772
239.152	333
239.216	-1003
239.281	247
239.346	-566
239.410	-598
239.475	-1040
239.539	780
239.604	-1442
239.668	848
239.733	-533
239.797	1538
239.862	2858
239.926	1656
239.991	-71
240.055	226
240.120	-830
240.184	-22
240.249	-1247
240.313	865
240.378	-702
240.442	668
240.507	-827
240.571	-198
240.635	-1150
240.700	-253
240.764	-784
240.829	-1045
240.893	-1450
240.957	102
241.022	-1027
241.086	608
241.151	-1856
241.215	-1188
241.279	-63
241.344	-677
241.408	-38
241.472	-1292
241.537	5
241.601	-511
241.665	-1084
241.730	-1013
241.794	-127
241.858	-793
241.922	-1725
241.987	-108
242.051	-1595
242.115	-1422
242.179	-351
242.244	-1351
242.308	20
242.372	-550
242.436	-1255
242.501	-676
242.565	-1821
242.629	-825
242.693	20
242.757	-579
242.822	-965
242.886	253
242.950	-209
243.014	-541
243.078	-717
243.142	-1072
243.206	-1775
243.271	-127
243.335	-859
243.399	511
243.463	-749
243.527	2765
243.591	-308
243.655	-270
243.719	-1285
243.783	419
243.847	-765
243.911	-286
243.975	-1780
244.040	-1142
244.104	539
244.168	-362
244.232	-1561
244.296	-171
244.360	-837
244.424	-794
244.488	-1071
244.552	547
244.615	-2119
244.679	-106
244.743	-1188
244.807	-1098
244.871	-1597
244.935	-470
244.999	-1648
245.063	-323
245.127	163
245.191	-63
245.255	-1070
245.319	-257
245.383	-2012
245.446	349
245.510	-1680
245.574	-282
245.638	140
245.702	-1878
245.766	-458
245.829	577
245.893	-1777
245.957	-1072
246.021	-452
246.085	-627
246.149	-1574
246.212	63
246.276	-1108
246.340	-410
246.404	-525
246.467	916
246.531	-2948
246.595	149
246.659	92
246.722	-874
246.786	-1102
246.850	-423
246.913	-328
246.977	-1246
247.041	-930
247.104	-516
247.168	-933
247.232	-691
247.295	-120
247.359	-396
247.423	-832
247.486	662
247.550	-909
247.614	-699
247.677	-630
247.741	-1016
247.804	-1187
247.868	474
247.932	-1003
247.995	666
248.059	-1513
248.122	-518
248.186	270
248.249	-281
248.313	1313
248.376	1472
248.440	-858
248.503	-1730
248.567	270
248.630	-607
248.694	-1027
248.757	921
248.821	276
248.884	1478
248.948	-1010
249.011	1461
249.075	1415
249.138	1307
249.202	-1025
249.265	-698
249.328	-62
249.392	-1179
249.455	-372
249.519	-289
249.582	-889
249.645	-372
249.709	-818
249.772	-816
249.835	-214
249.899	-823
249.962	-623
250.025	-779
250.089	-70
250.152	327
250.215	-246
250.279	-811
250.342	600
250.405	593
250.468	-1236
250.532	-729
250.595	745
250.658	1877
250.721	5652
250.785	986
250.848	369
250.911	-383
250.974	169
251.038	-128
251.101	472
251.164	-1035
251.227	-795
251.290	-353
251.354	-240
251.417	4601
251.480	3986
251.543	1514
251.606	8256
251.669	6825
251.732	1722
251.795	1643
251.859	1494
251.922	4945
251.985	1789
252.048	1027
252.111	-166
252.174	-869
252.237	-95
252.300	1879
252.363	168
252.426	8131
252.489	1146
252.552	498
252.615	-642
252.678	-17
252.741	110
252.804	2046
252.867	6882
252.930	2650
252.993	-204
253.056	617
253.119	5
253.182	-471
253.245	-996
253.308	189
253.371	-1381
253.434	-197
253.497	-482
253.559	982
253.622	-839
253.685	-577
253.748	-636
253.811	-178
253.874	2
253.937	-1194
254.000	-480
254.062	-323
254.125	-995
254.188	894
254.251	-838
254.314	-702
254.376	-1171
254.439	-55
254.502	-672
254.565	-13
254.628	1096
254.690	-222
254.753	-1621
254.816	-385
254.878	-1210
254.941	783
255.004	-181
255.067	-179
255.129	-1385
255.192	-605
255.255	-1536
255.317	-790
255.380	-673
255.443	-393
255.505	-1620
255.568	-936
255.631	-1432
255.693	-531
255.756	-2078
255.819	623
255.881	-911
255.944	342
256.006	-1208
256.069	-1122
256.132	-731
256.194	-239
256.257	-513
256.319	-478
256.382	-1057
256.444	-277
256.507	71
256.569	-586
256.632	-1260
256.694	-993
256.757	657
256.819	6337
256.882	343
256.944	35
257.007	-344
257.069	-921
257.132	-635
257.194	383
257.257	-1191
257.319	-1522
257.381	-1056
257.444	1279
257.506	5754
257.569	7127
257.631	1548
257.693	345
257.756	-1119
257.818	-1158
257.880	-1004
257.943	-205
258.005	-1080
258.067	-828
258.130	-648
258.192	-505
258.254	-1491
258.317	-344
258.379	-1194
258.441	-218
258.503	419
258.566	-545
258.628	-439
258.690	-799
258.753	-352
258.815	-596
258.877	-1369
258.939	-1047
259.001	-844
259.064	-1239
259.126	-863
259.188	-1042
259.250	-1612
259.312	-250
259.375	-1261
259.437	-898
259.499	-858
259.561	-515
259.623	-1028
259.685	-816
259.747	-944
259.809	7
259.872	-50
259.934	825
259.996	338
260.058	-230
260.120	-1274
260.182	-903
260.244	-1163
260.306	-259
260.368	-1163
260.430	-912
260.492	-801
260.554	694
260.616	-1230
260.678	87
260.740	-1040
260.802	-704
260.864	-605
260.926	-1606
260.988	419
261.050	-960
261.112	-878
261.174	1899
261.236	-285
261.298	-917
261.359	-276
261.421	620
261.483	-1540
261.545	973
261.607	-1856
261.669	-47
261.731	-1285
261.793	-799
261.854	-1465
261.916	539
261.978	-1595
262.040	-172
262.102	-529
262.164	-696
262.225	-843
262.287	-342
262.349	-760
262.411	-255
262.472	-1089
262.534	-1254
262.596	-1910
262.658	-65
262.719	-1874
262.781	53
262.843	-2718
262.904	-737
262.966	-887
263.028	-1241
263.090	777
263.151	1857
263.213	-251
263.275	-154
263.336	-619
263.398	485
263.459	-1963
263.521	-813
263.583	-336
263.644	-585
263.706	-855
263.767	-1400
263.829	-580
263.891	-694
263.952	-1436
264.014	-1162
264.075	-959
264.137	573
264.198	-1210
264.260	-997
264.321	-325
264.383	-1169
264.444	447
264.506	-288
264.567	-715
264.629	605
264.690	-951
264.752	32
264.813	-1418
264.875	-1272
264.936	-50
264.998	-266
265.059	-1289
265.120	2
265.182	-688
265.243	1939
265.305	1591
265.366	366
265.427	-730
265.489	851
265.550	-2357
265.611	-682
265.673	-1921
265.734	-727
265.795	-605
265.857	-639
265.918	-805
265.979	1188
266.040	3828
266.102	3949
266.163	-72
266.224	-5
266.286	-693
266.347	-1396
266.408	-1476
266.469	56
266.530	-727
266.592	-918
266.653	-954
266.714	-604
266.775	-1490
266.836	-458
266.898	-1742
266.959	-624
267.020	-1493
267.081	-16
267.142	-1376
267.203	-1544
267.264	-2075
267.326	93
267.387	-1512
267.448	-968
267.509	-513
267.570	-771
267.631	-867
267.692	-1718
267.753	-702
267.814	-1165
267.875	-1160
267.936	-212
267.997	-1109
268.058	-395
268.119	-999
268.180	-670
268.241	-2361
268.302	-1018
268.363	-1752
268.424	-1344
268.485	-1147
268.546	-1349
268.607	-974
268.668	-893
268.729	-1755
268.790	-213
268.851	-967
268.912	-493
268.972	-1104
269.033	-1645
269.094	-1602
269.155	-836
269.216	-1685
269.277	-804
269.338	-1461
269.398	-463
269.459	-1536
269.520	-345
269.581	-881
269.642	-999
269.702	-951
269.763	137
269.824	-1328
269.885	-1297
269.945	-563
270.006	-1090
270.067	-2017
270.128	-87
270.188	-1799
270.249	-1246
270.310	-2002
270.370	-910
270.431	-1302
270.492	-636
270.553	-609
270.613	-728
270.674	-1110
270.734	-1778
270.795	-1811
270.856	-1480
270.916	-1973
270.977	-995
271.038	-971
271.098	-328
271.159	-1424
271.219	-630
271.280	-1291
271.340	-558
271.401	-1881
271.462	-844
271.522	-1246
271.583	-921
271.643	-1674
271.704	-1703
271.764	-681
271.825	-956
271.885	662
271.946	656
272.006	-723
272.066	237
272.127	1380
272.187	812
272.248	-1068
272.308	-734
272.369	648
272.429	-231
272.489	-1022
272.550	-1099
272.610	-652
272.671	-778
272.731	-1098
272.791	-1083
272.852	-739
272.912	-108
272.972	-1553
273.033	-617
273.093	-1779
273.153	720
273.214	-1614
273.274	-641
273.334	-1042
273.394	1185
273.455	-1563
273.515	-205
273.575	-304
273.635	-690
273.696	-563
273.756	843
273.816	-465
273.876	-303
273.936	-1108
273.997	-536
274.057	-2068
274.117	-721
274.177	-1116
274.237	1044
274.297	469
274.358	-224
274.418	404
274.478	-277
274.538	-1142
274.598	-1958
274.658	-1509
274.718	-199
274.778	-1451
274.838	-1211
274.898	-1974
274.958	-323
275.018	795
275.078	759
275.138	-724
275.198	296
275.258	-1788
275.318	-253
275.378	-1388
275.438	-631
275.498	-1159
275.558	-376
275.618	-435
275.678	122
275.738	-761
275.798	56
275.858	-597
275.918	-902
275.978	-1315
276.038	-559
276.098	-1472
276.157	-766
276.217	-298
276.277	-894
276.337	-1565
276.397	-297
276.457	-1224
276.517	-869
276.576	-630
276.636	-973
276.696	-1017
276.756	465
276.815	-547
276.875	-766
276.935	-1605
276.995	-1547
277.055	-828
277.114	-603
277.174	-1230
277.234	-139
277.293	-1064
277.353	-474
277.413	-1605
277.472	-667
277.532	-1694
277.592	-56
277.651	-958
277.711	1601
277.771	-1075
277.830	2764
277.890	1104
277.950	249
278.009	4525
278.069	985
278.128	757
278.188	1739
278.248	-933
278.307	1142
278.367	343
278.426	-688
278.486	-1462
278.545	-683
278.605	-1708
278.664	-980
278.724	-1073
278.783	193
278.843	1477
278.902	295
278.962	-1378
279.021	-691
279.081	-1162
279.140	-1372
279.199	-1968
279.259	24
279.318	-988
279.378	-331
279.437	-631
279.496	3264
279.556	13801
279.615	11861
279.675	1853
279.734	603
279.793	695
279.853	2522
279.912	907
279.971	372
280.031	-207
280.090	663
280.149	792
280.208	432
280.268	8822
280.327	10816
280.386	998
280.445	326
280.505	-510
280.564	-1060
280.623	-1053
280.682	-669
280.742	-110
280.801	-838
280.860	-1257
280.919	-1206
280.978	-906
281.037	-840
281.097	-1571
281.156	-1551
281.215	-973
281.274	-615
281.333	96
281.392	-82
281.451	-591
281.510	-601
281.569	-1322
281.628	-468
281.688	-341
281.747	-654
281.806	-1645
281.865	-712
281.924	-1718
281.983	-505
282.042	-2099
282.101	-1133
282.160	-1281
282.219	-1102
282.278	-2373
282.337	-569
282.396	-958
282.454	-1485
282.513	-724
282.572	-538
282.631	-904
282.690	-701
282.749	-1665
282.808	-1523
282.867	-917
282.926	-657
282.985	-1091
283.043	-784
283.102	-1552
283.161	-1009
283.220	-505
283.279	478
283.338	-1232
283.396	-759
283.455	-1381
283.514	-953
283.573	-783
283.631	-982
283.690	-1123
283.749	-640
283.808	-1576
283.866	-642
283.925	-1900
283.984	419
284.043	-1594
284.101	-1063
284.160	-2369
284.219	-1040
284.277	-1301
284.336	-847
284.395	544
284.453	4
284.512	-758
284.570	-370
284.629	-528
284.688	-362
284.746	-752
284.805	-645
284.863	-1299
284.922	457
284.981	-381
285.039	869
285.098	1669
285.156	7307
285.215	21419
285.273	22435
285.332	8991
285.390	4371
285.449	1977
285.507	400
285.566	-231
285.624	346
285.683	-1
285.741	-633
285.799	-1348
285.858	-564
285.916	-981
285.975	-280
286.033	-1157
286.091	-1227
286.150	-1302
286.208	-1035
286.267	-1375
286.325	-1732
286.383	-903
286.442	-1186
286.500	-1633
286.558	-982
286.616	-1587
286.675	-672
286.733	-935
286.791	-743
286.850	-1313
286.908	-677
286.966	-856
287.024	-296
287.083	-1309
287.141	121
287.199	-1099
287.257	-916
287.315	-1044
287.374	-792
287.432	-901
287.490	-260
287.548	-1007
287.606	-1004
287.664	-837
287.723	-941
287.781	-1450
287.839	-595
287.897	-1420
287.955	-163
288.013	-476
288.071	896
288.129	5180
288.187	24588
288.245	9096
288.303	1391
288.361	-599
288.419	-311
288.477	-1264
288.535	-515
288.593	-814
288.651	-531
288.709	-852
288.767	-1016
288.825	-1796
288.883	-723
288.941	-902
288.999	-1598
289.057	-623
289.115	-1092
289.173	-732
289.231	-465
289.289	-1574
289.346	-916
289.404	-1112
289.462	-886
289.520	-1557
289.578	-443
289.636	-1176
289.694	-1563
289.751	-1184
289.809	-1032
289.867	-712
289.925	19
289.983	-1136
290.040	-704
290.098	-1214
290.156	-1337
290.214	-939
290.271	-1418
290.329	-849
290.387	-686
290.444	-1139
290.502	-706
290.560	-1355
290.617	-842
290.675	-2036
290.733	-1012
290.790	-1246
290.848	-543
290.906	-1107
290.963	-722
291.021	-1608
291.078	-984
291.136	-1990
291.194	-205
291.251	757
291.309	-962
291.366	-1288
291.424	-1217
291.481	-1282
291.539	138
291.596	-1453
291.654	-371
291.711	-1132
291.769	-721
291.826	-756
291.884	-595
291.941	-1305
291.999	-243
292.056	-1543
292.114	-1063
292.171	-1416
292.228	-1104
292.286	-944
292.343	-793
292.401	-1435
292.458	-519
292.515	-1468
292.573	-514
292.630	-1562
292.687	-864
292.745	-1759
292.802	-506
292.859	289
292.917	-71
292.974	185
293.031	-1264
293.089	-1566
293.146	-961
293.203	-1029
293.260	-587
293.318	-1193
293.375	20
293.432	-966
293.489	-9
293.546	-1552
293.604	-1041
293.661	-1142
293.718	1993
293.775	-124
293.832	-591
293.889	-1786
293.947	-456
294.004	-574
294.061	-784
294.118	-1328
294.175	268
294.232	1518
294.289	361
294.346	-1202
294.403	-614
294.460	-1306
294.517	-1065
294.574	-939
294.631	-1113
294.688	-1548
294.745	-674
294.802	1839
294.859	3541
294.916	-144
294.973	-455
295.030	-1130
295.087	-845
295.144	-536
295.201	70
295.258	-1208
295.315	-872
295.372	-87
295.429	1254
295.486	-165
295.542	-793
295.599	689
295.656	2668
295.713	506
295.770	1215
295.827	-588
295.883	-447
295.940	-1118
295.997	-343
296.054	-1433
296.111	-437
296.167	-285
296.224	-278
296.281	-1998
296.338	-1629
296.394	-1780
296.451	-558
296.508	-788
296.564	242
296.621	212
296.678	1720
296.734	2796
296.791	512
296.848	-884
296.904	-413
296.961	56
297.018	438
297.074	437
297.131	-667
297.187	-1510
297.244	185
297.301	1007
297.357	4177
297.414	59
297.470	-185
297.527	-670
297.583	-898
297.640	-1295
297.696	-680
297.753	-814
297.809	-1106
297.866	-1801
297.922	-1300
297.979	-1485
298.035	-934
298.092	-1143
298.148	95
298.204	3
298.261	-214
298.317	-1
298.374	2553
298.430	667
298.486	-130
298.543	-1881
298.599	-29
298.656	-1261
298.712	-50
298.768	286
298.824	491
298.881	-1179
298.937	126
298.993	-1085
299.050	-179
299.106	-986
299.162	-588
299.218	-700
299.275	-1295
299.331	-560
299.387	-196
299.443	2400
299.500	6709
299.556	2727
299.612	-52
299.668	200
299.724	3875
299.780	4977
299.837	1874
299.893	-122
299.949	3185
300.005	5300
300.061	3818
300.117	7412
300.173	2918
300.229	49
300.285	-228
300.341	-71
300.397	-479
300.453	-1126
300.510	87
300.566	-973
300.622	1000
300.678	6636
300.734	10629
300.790	3688
300.845	4220
300.901	3340
300.957	6888
301.013	2032
301.069	216
301.125	-350
301.181	-584
301.237	-227
301.293	-1216
301.349	-1328
301.405	-698
301.461	-1084
301.516	-584
301.572	-1798
301.628	-896
301.684	-1391
301.740	-392
301.796	-109
301.851	-382
301.907	-672
301.963	514
302.019	951
302.074	6600
302.130	7452
302.186	3088
302.242	59
302.297	36
302.353	-1007
302.409	824
302.464	-64
302.520	-540
302.576	589
302.631	2127
302.687	63
302.743	-432
302.798	-163
302.854	-926
302.910	-952
302.965	-738
303.021	-938
303.076	-177
303.132	-911
303.187	-95
303.243	-1510
303.299	-518
303.354	-1167
303.410	-975
303.465	-736
303.521	-964
303.576	-1562
303.632	-699
303.687	-1157
303.743	2003
303.798	1336
303.853	-459
303.909	-852
303.964	-767
304.020	-1111
304.075	-519
304.130	-1559
304.186	-317
304.241	387
304.297	117
304.352	-1042
304.358	-1008
304.407	-738
304.449	-882
304.463	-931
304.518	-113
304.539	-654
304.573	-1531
304.629	-736
304.630	-744
304.684	-1123
304.720	214
304.739	897
304.794	1751
304.811	1780
304.850	1753
304.902	-758
304.905	-919
304.960	-877
304.992	-971
305.015	-1055
305.071	131
305.083	-211
305.126	-1425
305.173	-1004
305.181	-929
305.236	-1411
305.264	-926
305.292	-491
305.347	-1300
305.354	-1133
305.402	81
305.445	-533
305.457	-742
305.512	-563
305.535	-695
305.567	-810
305.622	-370
305.626	-353
305.678	143
305.716	1289
305.733	1643
305.788	2322
305.807	1953
305.843	1409
305.897	1899
305.898	1904
305.953	2750
305.988	1267
306.008	409
306.063	112
306.078	-42
306.118	-288
306.168	-201
306.173	-198
306.228	217
306.259	-84
306.283	-288
306.338	-674
306.349	-460
306.393	416
306.440	-36
306.448	-116
306.503	312
306.530	185
306.558	126
306.613	452
306.620	488
306.668	787
306.711	1761
306.723	1897
306.778	668
306.801	609
306.833	799
306.888	267
306.892	274
306.943	53
306.982	-576
306.997	-632
307.052	657
307.072	576
307.107	198
307.162	38
307.163	35
307.217	379
307.253	828
307.272	989
307.327	522
307.343	640
307.381	905
307.434	38
307.436	36
307.491	1749
307.524	1924
307.546	1782
307.600	2366
307.614	2261
307.655	1409
307.704	677
307.710	729
307.765	918
307.795	1419
307.819	1628
307.874	2137
307.885	2208
307.929	2725
307.975	2845
307.984	2992
308.038	4247
308.065	4980
308.093	9205
308.148	20116
308.156	22468
308.202	35274
308.246	44764
308.257	43208
308.312	22782
308.336	14591
308.366	10276
308.421	5438
308.426	5024
308.475	3350
308.517	2240
308.530	2096
308.585	2148
308.607	2044
308.639	1895
308.694	1702
308.697	1695
308.748	2651
308.787	3775
308.803	3862
308.857	3411
308.877	3107
308.912	2904
308.967	2841
308.967	2841
309.021	4863
309.058	5791
309.076	7266
309.130	12666
309.148	14592
309.185	28366
309.238	52800
309.239	53013
309.293	58103
309.328	54143
309.348	46671
309.402	22652
309.418	16577
309.457	11754
309.508	7365
309.511	7252
309.566	5848
309.598	4836
309.620	5020
309.674	6447
309.688	6737
309.729	6191
309.778	5143
309.783	5071
309.837	3563
309.868	3291
309.892	3703
309.946	4135
309.959	4350
310.001	5228
310.049	5656
310.055	5434
310.109	3738
310.139	2483
310.163	2077
310.218	1570
310.229	1423
310.272	1647
310.319	2213
310.326	2133
310.381	1132
310.409	633
310.435	773
310.489	965
310.499	1047
310.543	1312
310.589	1349
310.598	1367
310.652	1720
310.679	1717
310.706	1601
310.760	1605
310.769	1547
310.814	1252
310.859	1186
310.868	1244
310.923	1304
310.948	1360
310.977	1246
311.031	1009
311.038	986
311.085	1206
311.128	1181
311.139	1233
311.193	1674
311.218	1787
311.247	1597
311.301	1312
311.308	1277
311.356	1991
311.398	2514
311.410	2310
311.464	1248
311.488	822
311.518	1027
311.572	1322
311.578	1343
311.626	1401
311.668	1501
311.680	1544
311.734	1689
311.758	1694
311.788	1556
311.842	1405
311.847	1379
311.896	2084
311.937	2686
311.950	2640
312.004	2378
312.027	2259
312.058	1936
312.112	1332
312.117	1268
312.165	1259
312.207	1244
312.297	1967
312.386	1955
312.476	1971
312.566	2903
312.656	1972
312.745	2142
312.835	2286
312.925	2586
313.015	2214
313.104	2651
313.194	2138
313.284	2034
313.374	2701
313.463	2510
313.553	2890
313.643	1887
313.732	2479
313.822	2456
313.912	3090
314.001	3669
314.091	3268
314.180	3013
314.270	3698
314.360	3123
314.449	3150
314.539	2602
314.628	2908
314.718	3449
314.808	3442
314.897	3492
314.987	3749
315.076	4089
315.166	3763
315.255	4080
315.345	3291
315.434	2804
315.524	3089
315.613	2580
315.703	4096
315.792	8318
315.881	22878
315.971	8386
316.060	4367
316.150	4397
316.239	4346
316.328	3445
316.418	3208
316.507	3300
316.597	4090
316.686	3539
316.775	4199
316.865	4510
316.954	3771
317.043	2957
317.133	3126
317.222	2545
317.311	1625
317.400	1051
317.490	3148
317.579	2563
317.668	2343
317.757	4679
317.847	11165
317.936	36480
318.025	12786
318.114	9517
318.203	6471
318.293	4042
318.382	7530
318.471	7378
318.560	8592
318.649	13445
318.738	4528
318.828	3338
318.917	2365
319.006	2588
319.095	4509
319.184	14456
319.273	6837
319.362	3141
319.451	2066
319.540	2266
319.629	2851
319.718	3939
319.807	3057
319.896	5235
319.985	18550
320.074	6312
320.163	2912
320.252	2932
320.341	3834
320.430	3031
320.519	3137
320.608	3147
320.697	4053
320.786	3736
320.875	4863
320.964	4824
321.053	5790
321.142	6693
321.230	7674
321.319	6426
321.408	10909
321.497	7155
321.586	6865
321.675	6591
321.764	6800
321.852	6084
321.941	6472
322.030	5791
322.119	7440
322.207	10138
322.296	9865
322.385	9649
322.474	10628
322.562	12767
322.651	9743
322.740	6591
322.829	7669
322.917	6217
323.006	5437
323.095	4454
323.183	3593
323.272	4068
323.361	4899
323.449	11075
323.538	5612
323.626	7760
323.715	6298
323.804	2969
323.892	7434
323.981	4377
324.069	3565
324.158	4874
324.246	4695
324.335	3213
324.424	2801
324.512	3058
324.601	2221
324.689	2847
324.778	3341
324.866	3522
324.954	2555
325.043	2135
325.131	2373
325.220	3727
325.308	3956
325.397	2788
325.485	2707
325.574	1431
325.662	2472
325.750	1991
325.839	2611
325.927	1517
326.015	1973
326.104	1922
326.192	2721
326.280	2750
326.369	2264
326.457	1453
326.545	3057
326.634	2644
326.722	2176
326.810	2433
326.898	2315
326.987	2836
327.075	2174
327.163	3408
327.251	2256
327.340	2741
327.428	3289
327.516	4317
327.604	3281
327.692	2400
327.781	2585
327.869	1885
327.957	2053
328.045	1197
328.133	2457
328.221	1577
328.309	1049
328.397	1966
328.485	2400
328.574	4062
328.662	6790
328.750	3928
328.838	1792
328.926	2604
329.014	1510
329.102	2263
329.190	3855
329.278	2275
329.366	2020
329.454	1855
329.542	2247
329.630	1147
329.718	2073
329.806	1442
329.893	2316
329.981	1306
330.069	2417
330.157	2362
330.245	5441
330.333	2621
330.421	1944
330.509	2673
330.597	3779
330.684	3184
330.772	2509
330.860	2318
330.948	3347
331.036	2147
331.123	2282
331.211	2115
331.299	2754
331.387	3404
331.475	5195
331.562	2607
331.650	1749
331.738	1719
331.825	2460
331.913	1535
332.001	1808
332.089	1746
332.176	2964
332.264	4112
332.352	3383
332.439	2674
332.527	1911
332.614	1422
332.702	2221
332.790	1869
332.877	2842
332.965	4230
333.052	2461
333.140	2280
333.228	4284
333.315	2746
333.403	2707
333.490	3117
333.578	3206
333.665	4756
333.753	3886
333.840	2578
333.928	3950
334.015	4866
334.103	8390
334.190	19520
334.278	9736
334.365	11296
334.452	11640
334.540	7143
334.627	6844
334.715	8456
334.802	13355
334.889	28947
334.977	35507
335.064	19152
335.151	8821
335.239	6289
335.326	5770
335.413	13399
335.501	15995
335.588	5889
335.675	7150
335.762	7164
335.850	10737
335.937	14562
336.024	25647
336.111	47824
336.199	39605
336.286	17110
336.373	9367
336.460	5737
336.547	5311
336.635	4190
336.722	3523
336.809	3929
336.896	3788
336.983	6117
337.070	14413
337.157	19800
337.245	10923
337.332	7424
337.419	3597
337.506	3035
337.593	2876
337.680	6721
337.767	15647
337.854	4292
337.941	4864
338.028	4415
338.115	2682
338.202	3943
338.289	3942
338.376	7816
338.463	4340
338.550	9435
338.637	9417
338.724	2888
338.811	4295
338.898	2216
338.984	2189
339.071	2046
339.158	2427
339.245	3201
339.332	3230
339.419	3106
339.506	3037
339.593	1512
339.679	2949
339.766	1492
339.853	2970
339.940	2476
340.027	1923
340.113	2397
340.200	1994
340.287	656
340.374	1114
340.460	2405
340.547	1728
340.634	2126
340.720	4451
340.807	3141
340.894	1866
340.980	2087
341.067	1072
341.154	1606
341.240	1961
341.327	2529
341.414	2159
341.500	966
341.587	1960
341.674	2385
341.760	2093
341.847	2499
341.933	2062
342.020	1587
342.106	1741
342.193	2135
342.279	2942
342.366	1571
342.452	2625
342.539	1732
342.625	2107
342.712	3665
342.798	2219
342.885	1406
342.971	1034
343.058	1604
343.144	1465
343.230	1739
343.317	1366
343.403	1327
343.490	2524
343.576	1644
343.662	1618
343.749	1323
343.835	1746
343.921	2524
344.008	7427
344.094	17949
344.180	5340
344.267	2228
344.353	6181
344.439	5244
344.525	2645
344.612	3306
344.698	2978
344.784	1531
344.870	2636
344.957	761
345.043	3096
345.129	1077
345.215	2505
345.301	1604
345.387	1408
345.474	728
345.560	1512
345.646	835
345.732	2115
345.818	1596
345.904	1787
345.990	2155
346.076	1577
346.162	2183
346.249	2419
346.335	1148
346.421	2202
346.507	2859
346.593	7913
346.679	2334
346.765	2611
346.851	3691
346.937	2014
347.023	2415
347.108	2271
347.194	1540
347.280	2206
347.366	2331
347.452	8327
347.538	15185
347.624	9226
347.710	6456
347.796	1989
347.882	2684
347.967	1776
348.053	2472
348.139	2475
348.225	1917
348.311	1682
348.397	1716
348.482	2696
348.568	2544
348.654	3397
348.740	10320
348.825	11633
348.911	4974
348.997	5871
349.083	9192
349.168	2614
349.254	1880
349.340	2284
349.425	1763
349.511	1694
349.597	2793
349.682	2315
349.768	6052
349.854	3835
349.939	1891
350.025	2192
350.110	2095
350.196	2251
350.282	841
350.367	2494
350.453	1944
350.538	2692
350.624	990
350.709	2404
350.795	949
350.880	1394
350.966	1555
351.051	1835
351.137	1865
351.222	2057
351.308	2057
351.393	5009
351.479	1837
351.564	1461
351.649	2220
351.735	1773
351.820	1452
351.906	1355
351.991	1866
352.076	3527
352.162	4719
352.247	1998
352.332	1451
352.418	1970
352.503	2018
352.588	5665
352.673	5015
352.759	2859
352.844	1235
352.929	1895
353.014	1237
353.100	2313
353.185	2418
353.270	1475
353.355	2008
353.441	2471
353.526	1247
353.611	2225
353.696	1271
353.781	2818
353.866	1059
353.952	2712
354.037	1016
354.122	3907
354.207	2952
354.292	2034
354.377	1438
354.462	2269
354.547	1471
354.632	2070
354.717	2424
354.802	2211
354.887	2104
354.972	2125
355.057	1943
355.142	1311
355.227	1781
355.312	1690
355.397	1996
355.482	4186
355.567	2882
355.652	3360
355.737	2742
355.822	6272
355.907	5022
355.991	2231
356.076	1176
356.161	2649
356.246	1239
356.331	1674
356.416	1757
356.501	10845
356.585	10629
356.670	2915
356.755	3628
356.840	1968
356.924	6386
357.009	21746
357.094	8488
357.179	2266
357.263	1409
357.348	2720
357.433	2326
357.517	3001
357.602	2448
357.687	1927
357.771	2956
357.856	5226
357.941	4368
358.025	5470
358.110	22504
358.195	11541
358.279	2958
358.364	2655
358.448	4439
358.533	10445
358.617	7153
358.702	7810
358.787	3995
358.871	2901
358.956	2920
359.040	1673
359.125	2239
359.209	2487
359.294	3464
359.378	6907
359.462	4160
359.547	2236
359.631	2191
359.716	1427
359.800	1175
359.885	2571
359.969	1640
360.053	2862
360.138	1932
360.222	2828
360.306	2418
360.391	2390
360.475	3492
360.559	5522
360.644	4374
360.728	3115
360.812	7028
360.896	16221
360.981	7000
361.065	4262
361.149	3249
361.233	3365
361.318	1923
361.402	2567
361.486	2992
361.570	2776
361.654	2899
361.739	3629
361.823	10335
361.907	17368
361.991	4733
362.075	4371
362.159	6434
362.243	12241
362.327	26740
362.411	45639
362.495	18678
362.580	8418
362.664	7260
362.748	7590
362.832	11997
362.916	24171
363.000	68864
363.084	105854
363.168	51911
363.252	15447
363.336	8653
363.420	8196
363.503	16436
363.587	18142
363.671	5787
363.755	5406
363.839	6226
363.923	4961
364.007	7098
364.091	10211
364.175	16769
364.258	48622
364.342	81249
364.426	141513
364.510	81619
364.594	26145
364.677	13937
364.761	17526
364.845	13422
364.929	6060
365.013	3938
365.096	4852
365.180	4311
365.264	8266
365.347	24161
365.431	10916
365.515	3389
365.598	2439
365.682	3758
365.766	3715
365.849	4130
365.933	1742
366.017	3786
366.100	3259
366.184	2942
366.267	3535
366.351	2611
366.435	2227
366.518	1588
366.602	2102
366.685	2321
366.769	2356
366.852	3596
366.936	4673
367.019	2735
367.103	2701
367.186	5467
367.270	2830
367.353	2313
367.436	3337
367.520	3134
367.603	3109
367.687	1771
367.770	3201
367.853	3947
367.937	5306
368.020	7782
368.104	2542
368.187	3104
368.270	2916
368.353	2761
368.437	4100
368.520	5424
368.603	4205
368.687	4770
368.770	8915
368.853	3441
368.936	3676
369.020	3628
369.103	2714
369.186	1850
369.269	2051
369.352	2828
369.436	3401
369.519	3038
369.602	392
369.685	3290
369.768	1512
369.851	1913
369.934	1588
370.018	1948
370.101	601
370.184	4641
370.267	2087
370.350	2636
370.433	3345
370.516	8766
370.599	17348
370.682	5846
370.765	5609
370.848	5729
370.931	10048
371.014	6024
371.097	1560
371.180	2192
371.263	2248
371.346	1125
371.429	2459
371.511	1135
371.594	1981
371.677	2665
371.760	4547
371.843	2184
371.926	9217
372.009	18653
372.091	8426
372.174	4243
372.257	12139
372.340	4675
372.423	3805
372.505	6047
372.588	2618
372.671	3285
372.754	9403
372.836	6513
372.919	6734
373.002	13070
373.085	3913
373.167	3105
373.250	3904
373.332	9251
373.415	12921
373.498	25530
373.580	12489
373.663	23973
373.746	28287
373.828	6626
373.911	4699
373.993	4068
374.076	14141
374.159	11707
374.241	4589
374.324	9198
374.406	7938
374.489	8148
374.571	21495
374.654	10485
374.736	5644
374.819	13777
374.901	20245
374.983	21085
375.066	5965
375.148	4856
375.231	11543
375.313	20150
375.395	8695
375.478	4166
375.560	3970
375.643	3503
375.725	6287
375.807	16921
375.890	15722
375.972	5812
376.054	5534
376.136	5171
376.219	3182
376.301	5599
376.383	14410
376.465	6353
376.548	2991
376.630	4524
376.712	12257
376.794	6103
376.877	2487
376.959	1021
377.041	1757
377.123	3013
377.205	4940
377.287	1469
377.369	2587
377.452	1940
377.534	2560
377.616	2191
377.698	1646
377.780	1127
377.862	1936
377.944	2107
378.026	1895
378.108	2109
378.190	1388
378.272	1551
378.354	1781
378.436	1590
378.518	1527
378.600	4874
378.682	4546
378.764	5300
378.846	5581
378.928	2366
379.010	2652
379.091	2252
379.173	3021
379.255	1258
379.337	1786
379.419	2700
379.501	9601
379.583	4069
379.664	2116
379.746	1587
379.828	7089
379.910	6843
379.991	8306
380.073	1192
380.155	1819
380.237	1784
380.318	2175
380.400	2039
380.482	2403
380.564	3027
380.645	2138
380.727	1746
380.809	2627
380.890	2047
380.972	1634
381.053	1566
381.135	2267
381.217	2755
381.298	7022
381.380	3671
381.461	3431
381.543	11058
381.624	13837
381.706	3867
381.787	2878
381.869	3577
381.951	5363
382.032	18198
382.113	15628
382.195	2356
382.276	3858
382.358	3560
382.439	10838
382.521	12811
382.602	20011
382.684	9519
382.765	14505
382.846	17011
382.928	27519
383.009	15267
383.090	10679
383.172	37316
383.253	58647
383.334	20728
383.416	18485
383.497	10764
383.578	6159
383.659	9158
383.741	32817
383.822	85700
383.903	45756
383.984	13355
384.066	20693
384.147	12434
384.228	5159
384.309	4865
384.390	4422
384.471	3347
384.553	3771
384.634	3940
384.715	4347
384.796	3244
384.877	3175
384.958	7019
385.039	6445
385.120	4153
385.201	3728
385.282	3637
385.363	4644
385.444	2417
385.525	4698
385.606	10539
385.687	9405
385.768	4132
385.849	4786
385.930	11408
386.011	19089
386.092	6590
386.173	4397
386.254	3430
386.335	4369
386.416	3682
386.496	5867
386.577	7907
386.658	5188
386.739	3506
386.820	5062
386.901	3360
386.981	5382
387.062	4956
387.143	5790
387.224	9083
387.304	11578
387.385	8639
387.466	7291
387.547	9110
387.627	7868
387.708	8913
387.789	15290
387.869	16552
387.950	9084
388.031	5887
388.111	3062
388.192	6539
388.273	7616
388.353	5236
388.434	4409
388.514	4805
388.595	11408
388.676	13362
388.756	8443
388.837	6670
388.917	4767
388.998	1773
389.078	4063
389.159	3475
389.239	2247
389.320	4416
389.400	1926
389.480	4928
389.561	7913
389.641	5832
389.722	4076
389.802	2751
389.883	5031
389.963	8863
390.043	7308
390.124	2970
390.204	4377
390.284	7669
390.365	4781
390.445	8355
390.525	15989
390.605	13110
390.686	4946
390.766	3908
390.846	4008
390.927	3208
391.007	2233
391.087	4205
391.167	4102
391.247	2903
391.328	4530
391.408	4366
391.488	4319
391.568	2886
391.648	4330
391.728	5333
391.808	5398
391.888	4561
391.969	7559
392.049	8663
392.129	7438
392.209	7448
392.289	12599
392.369	9287
392.449	10268
392.529	8477
392.609	9363
392.689	10048
392.769	15808
392.849	16775
392.929	20921
393.009	29630
393.089	38098
393.169	62590
393.248	140471
393.328	280068
393.408	287045
393.488	152760
393.568	67281
393.648	35503
393.728	22689
393.807	16095
393.887	14004
393.967	11325
394.047	9805
394.127	8471
394.206	11937
394.286	27102
394.366	100663
394.446	113998
394.525	33172
394.605	11382
394.685	8952
394.764	12246
394.844	22260
394.924	23011
395.003	9042
395.083	5594
395.163	5732
395.242	5703
395.322	5154
395.402	3450
395.481	7394
395.561	8714
395.640	28066
395.720	43906
395.799	33065
395.879	19315
395.958	14483
396.038	39289
396.117	129603
396.197	148227
396.276	54385
396.356	21621
396.435	17805
396.515	18896
396.594	24769
396.673	49003
396.753	126673
396.832	255908
396.912	206920
396.991	77645
397.070	33089
397.150	18282
397.229	16858
397.308	27764
397.388	56753
397.467	28156
397.546	9858
397.625	5203
397.705	7890
397.784	5170
397.863	4295
397.942	4584
398.022	4723
398.101	6670
398.180	16297
398.259	9605
398.338	4959
398.417	3118
398.497	3438
398.576	3415
398.655	2372
398.734	3574
398.813	3474
398.892	5990
398.971	17016
399.050	8799
399.129	1810
399.208	2640
399.287	2831
399.366	1700
399.445	2231
399.524	2898
399.603	871
399.682	2846
399.761	4894
399.840	17571
399.919	15316
399.998	3182
400.077	1388
400.156	475
400.235	4564
400.313	1282
400.392	1441
400.471	4470
400.550	5580
400.629	1828
400.708	2261
400.786	1671
400.865	3589
400.944	2848
401.023	4515
401.102	614
401.180	1244
401.259	1341
401.338	1714
401.416	1385
401.495	1115
401.574	1826
401.652	817
401.731	2292
401.810	432
401.888	1233
401.967	1311
402.046	1456
402.124	1519
402.203	1214
402.281	2491
402.360	2223
402.438	4684
402.517	2799
402.596	1956
402.674	1589
402.753	1153
402.831	1739
402.910	1429
402.988	2232
403.066	8581
403.145	6325
403.223	4375
403.302	6308
403.380	6431
403.459	5937
403.537	2895
403.615	1588
403.694	200
403.772	2352
403.850	2155
403.929	1977
404.007	1076
404.085	2978
404.164	1731
404.242	1548
404.320	4516
404.398	10095
404.477	9529
404.555	16719
404.633	15577
404.711	9589
404.789	5953
404.868	2048
404.946	1162
405.024	1217
405.102	1241
405.180	698
405.258	230
405.336	1223
405.415	550
405.493	1873
405.571	1730
405.649	237
405.727	663
405.805	2719
405.883	2141
405.961	2216
406.039	1773
406.117	632
406.195	2274
406.273	2249
406.351	11999
406.429	8778
406.507	1257
406.585	997
406.663	1304
406.740	1408
406.818	976
406.896	818
406.974	1896
407.052	852
407.130	6657
407.208	9557
407.285	4260
407.363	911
407.441	1701
407.519	1167
407.596	1921
407.674	6923
407.752	31619
407.830	27435
407.907	5963
407.985	1378
408.063	1900
408.141	690
408.218	1923
408.296	1196
408.373	721
408.451	2341
408.529	1982
408.606	1216
408.684	2515
408.762	1364
408.839	2010
408.917	2451
408.994	2795
409.072	2782
409.149	3063
409.227	6469
409.304	9809
409.382	10142
409.459	11409
409.537	16352
409.614	15239
409.692	11031
409.769	9490
409.846	14489
409.924	20910
410.001	13524
410.079	9664
410.156	7352
410.233	5261
410.311	3635
410.388	3663
410.465	3714
410.543	2211
410.620	3812
410.697	3136
410.775	2628
410.852	1725
410.929	3638
411.006	4270
411.083	2167
411.161	3041
411.238	3659
411.315	2378
411.392	2208
411.469	2551
411.547	2590
411.624	-116
411.701	1304
411.778	1980
411.855	1972
411.932	1626
412.009	865
412.086	1406
412.163	1381
412.240	673
412.317	1839
412.394	1703
412.471	1553
412.548	474
412.625	488
412.702	973
412.779	1660
412.856	2326
412.933	1141
413.010	1584
413.087	1739
413.164	2519
413.241	3870
413.318	365
413.395	1293
413.471	983
413.548	1394
413.625	1641
413.702	347
413.779	1307
413.855	1079
413.932	1851
414.009	-23
414.086	971
414.162	1426
414.239	1488
414.316	2801
414.393	5657
414.469	1914
414.546	807
414.623	934
414.699	961
414.776	639
414.853	621
414.929	1136
415.006	1021
415.082	1076
415.159	842
415.236	1017
415.312	649
415.389	940
415.465	798
415.542	576
415.618	-41
415.695	1598
415.771	147
415.848	221
415.924	1452
416.000	1018
416.077	2134
416.153	20
416.230	211
416.306	789
416.383	392
416.459	918
416.535	802
416.612	553
416.688	447
416.764	429
416.841	221
416.917	272
416.993	660
417.069	1252
417.146	-192
417.222	771
417.298	758
417.374	290
417.451	1240
417.527	82
417.603	397
417.679	307
417.755	518
417.831	-70
417.908	1710
417.984	717
418.060	-51
418.136	885
418.212	1780
418.288	827
418.364	1566
418.440	293
418.516	1557
418.592	1697
418.668	1974
418.744	1661
418.820	1389
418.896	1231
418.972	987
419.048	784
419.124	2238
419.200	496
419.276	1864
419.352	407
419.428	775
419.504	141
419.579	1250
419.655	1283
419.731	1020
419.807	1903
419.883	2090
419.959	1954
420.034	2040
420.110	1581
420.186	3871
420.262	4279
420.337	2794
420.413	2506
420.489	2061
420.565	3873
420.640	2731
420.716	3509
420.792	2470
420.867	3345
420.943	2793
421.019	3593
421.094	3736
421.170	4805
421.245	4498
421.321	5912
421.397	5676
421.472	10983
421.548	26466
421.623	18938
421.699	10110
421.774	10195
421.850	9890
421.925	13087
422.001	16216
422.076	18633
422.152	22859
422.227	29775
422.302	41748
422.378	58208
422.453	87402
422.529	127206
422.604	146871
422.679	121757
422.755	139908
422.830	138490
422.905	99906
422.981	68212
423.056	49154
423.131	36049
423.207	28001
423.282	21676
423.357	18412
423.432	14609
423.508	13155
423.583	11467
423.658	10702
423.733	8981
423.808	8051
423.883	7991
423.959	8902
424.034	9283
424.109	9560
424.184	6392
424.259	4674
424.334	4215
424.409	3855
424.484	4037
424.559	3984
424.634	3026
424.709	3239
424.784	2093
424.859	2066
424.934	1722
425.009	3910
425.084	5104
425.159	2924
425.234	3507
425.309	2132
425.384	2724
425.459	2387
425.534	2141
425.609	1450
425.683	1514
425.758	1786
425.833	1190
425.908	2592
425.983	1835
426.058	5162
426.132	2565
426.207	1456
426.282	3005
426.357	1825
426.431	1381
426.506	1457
426.581	1911
426.655	1764
426.730	910
426.805	911
426.879	1611
426.954	865
427.029	890
427.103	4655
427.178	9611
427.253	5507
427.327	1603
427.402	1316
427.476	3322
427.551	1371
427.625	1033
427.700	2577
427.774	669
427.849	1624
427.923	361
427.998	1349
428.072	1139
428.147	4669
428.221	18656
428.296	60900
428.370	37157
428.444	6323
428.519	3427
428.593	4336
428.667	3533
428.742	4909
428.816	8220
428.890	35836
428.965	60268
429.039	18182
429.113	5269
429.188	2193
429.262	963
429.336	1642
429.410	1982
429.485	2210
429.559	3060
429.633	3509
429.707	2923
429.781	6901
429.855	35121
429.930	56214
430.004	20492
430.078	18266
430.152	30243
430.226	78706
430.300	83742
430.374	21547
430.448	6550
430.522	6306
430.596	15911
430.670	15955
430.744	46555
430.818	57032
430.892	11713
430.966	2036
431.040	2033
431.114	598
431.188	356
431.262	580
431.336	975
431.410	2094
431.484	2574
431.557	3430
431.631	1817
431.705	2946
431.779	13427
431.853	57305
431.927	42424
432.000	7627
432.074	1710
432.148	1047
432.222	684
432.295	-104
432.369	107
432.443	418
432.516	3188
432.590	9648
432.664	4027
432.737	916
432.811	-242
432.885	-190
432.958	795
433.032	-163
433.106	134
433.179	-106
433.253	-225
433.326	121
433.400	-839
433.473	701
433.547	-298
433.620	195
433.694	-35
433.767	714
433.841	-153
433.914	471
433.988	-32
434.061	877
434.134	-190
434.208	400
434.281	-385
434.355	253
434.428	360
434.501	362
434.575	15
434.648	212
434.721	184
434.795	998
434.868	162
434.941	1048
435.014	553
435.088	375
435.161	749
435.234	271
435.307	1558
435.381	1593
435.454	3816
435.527	6875
435.600	8716
435.673	7571
435.746	4095
435.819	3297
435.892	1676
435.966	1620
436.039	702
436.112	1436
436.185	206
436.258	303
436.331	-170
436.404	748
436.477	-732
436.550	-1
436.623	-123
436.696	86
436.769	-239
436.842	87
436.915	-423
436.987	-593
437.060	345
437.133	-108
437.206	-255
437.279	1332
437.352	-28
437.425	46
437.498	439
437.570	256
437.643	615
437.716	25
437.789	-234
437.861	682
437.934	824
438.007	763
438.080	-289
438.152	84
438.225	957
438.298	4705
438.370	14346
438.443	6551
438.516	1045
438.588	351
438.661	26
438.734	-332
438.806	-346
438.879	428
438.951	56
439.024	312
439.096	-457
439.169	967
439.241	141
439.314	273
439.386	-242
439.459	1268
439.531	-309
439.604	214
439.676	-373
439.749	293
439.821	156
439.893	25
439.966	18
440.038	599
440.110	-264
440.183	-240
440.255	161
440.327	376
440.400	1125
440.472	8937
440.544	5536
440.617	-47
440.689	955
440.761	892
440.833	1121
440.905	1133
440.978	-531
441.050	-180
441.122	80
441.194	285
441.266	717
441.338	-473
441.411	290
441.483	2153
441.555	3521
441.627	740
441.699	697
441.771	1129
441.843	484
441.915	843
441.987	481
442.059	925
442.131	1406
442.203	1833
442.275	2474
442.347	4587
442.419	9864
442.491	43965
442.563	97667
442.635	45564
442.706	10609
442.778	5793
442.850	2711
442.922	2292
442.994	2271
443.066	3149
443.137	3210
443.209	3713
443.281	6690
443.353	15743
443.425	50990
443.496	137045
443.568	152904
443.640	71722
443.711	18311
443.783	7173
443.855	4029
443.926	2838
443.998	2027
444.070	2002
444.141	1700
444.213	1213
444.285	2484
444.356	1793
444.428	1165
444.499	1150
444.571	1022
444.642	1207
444.714	900
444.785	1683
444.857	1625
444.928	3814
445.000	3169
445.071	3864
445.143	5199
445.214	8123
445.285	13002
445.357	32426
445.428	93975
445.500	165934
445.571	143130
445.642	101848
445.714	38490
445.785	15055
445.856	6180
445.928	4060
445.999	2608
446.070	1523
446.141	985
446.213	1955
446.284	406
446.355	798
446.426	308
446.497	781
446.569	676
446.640	450
446.711	307
446.782	337
446.853	314
446.924	330
446.995	-590
447.066	125
447.138	874
447.209	402
447.280	-228
447.351	-790
447.422	-814
447.493	173
447.564	51
447.635	-68
447.706	-171
447.777	-58
447.847	-743
447.918	-240
447.989	-419
448.060	20
448.131	902
448.202	1031
448.273	78
448.344	412
448.414	-542
448.485	-64
448.556	-527
448.627	40
448.698	184
448.768	-715
448.839	-1047
448.910	-29
448.981	494
449.051	86
449.122	-521
449.193	-809
449.263	188
449.334	-892
449.405	-63
449.475	-344
449.546	153
449.616	234
449.687	18
449.758	569
449.828	-426
449.899	231
449.969	-667
450.040	-451
450.110	-247
450.181	433
450.251	-556
450.322	-55
450.392	-355
450.463	-240
450.533	229
450.604	22
450.674	-1138
450.744	604
450.815	110
450.885	678
450.955	216
451.026	857
451.096	523
451.166	614
451.237	1358
451.307	4379
451.377	1434
451.447	-82
451.518	-270
451.588	-1098
451.658	-230
451.728	281
451.799	2495
451.869	2859
451.939	146
452.009	261
452.079	-864
452.149	-24
452.219	150
452.289	2854
452.360	1858
452.430	123
452.500	278
452.570	1190
452.640	6169
452.710	16543
452.780	20395
452.850	10163
452.920	3910
452.990	2035
453.060	763
453.129	617
453.199	894
453.269	3612
453.339	7492
453.409	11420
453.479	11055
453.549	15549
453.619	17555
453.688	6775
453.758	223
453.828	317
453.898	280
453.968	410
454.037	-468
454.087	-55
454.107	109
454.168	-348
454.177	-423
454.247	300
454.249	267
454.316	-728
454.330	-532
454.386	240
454.411	397
454.456	588
454.492	786
454.525	980
454.574	1062
454.595	1082
454.655	-402
454.665	-643
454.734	-188
454.736	-163
454.804	387
454.817	808
454.873	2542
454.898	2550
454.943	2535
454.979	1280
455.013	111
455.060	381
455.082	537
455.141	-354
455.152	-521
455.221	2050
455.222	2084
455.291	3918
455.303	4085
455.360	4562
455.384	6763
455.430	10400
455.465	7589
455.499	5010
455.546	3336
455.569	2576
455.627	1861
455.638	1733
455.707	-190
455.708	-180
455.777	446
455.789	434
455.846	348
455.869	156
455.916	-292
455.950	-71
455.985	176
456.031	22
456.054	-73
456.112	137
456.124	196
456.193	331
456.193	321
456.262	319
456.274	412
456.332	849
456.355	732
456.401	561
456.436	275
456.470	-191
456.516	-53
456.540	137
456.597	-290
456.609	-382
456.678	854
456.678	851
456.747	569
456.759	477
456.817	101
456.840	-95
456.886	-503
456.920	-139
456.955	197
457.001	342
457.024	377
457.082	36
457.093	9
457.162	592
457.163	598
457.232	584
457.243	654
457.301	686
457.324	503
457.370	259
457.405	309
457.439	322
457.485	444
457.508	582
457.566	1239
457.577	1442
457.646	1994
457.647	2019
457.715	5306
457.727	6122
457.784	11334
457.808	16322
457.853	23028
457.889	28793
457.922	31605
457.969	20559
457.991	18678
458.050	19157
458.060	19305
458.129	35973
458.130	36522
458.198	46808
458.211	42143
458.267	24249
458.292	16912
458.336	8147
458.372	7616
458.405	9833
458.453	14243
458.474	17481
458.533	32450
458.543	33717
458.611	62773
458.614	63020
458.680	46750
458.694	37784
458.749	15957
458.775	11571
458.818	5530
458.855	4050
458.887	3100
458.936	2283
458.955	1937
459.016	879
459.024	781
459.093	2147
459.097	2106
459.162	1233
459.177	1375
459.230	1505
459.257	1326
459.299	1384
459.338	1553
459.368	1565
459.418	1376
459.437	1352
459.499	1413
459.505	1378
459.574	1145
459.579	1147
459.643	1267
459.659	1202
459.711	1146
459.740	1157
459.780	875
459.820	866
459.849	1097
459.900	1196
459.917	1234
459.981	1210
459.986	1167
460.054	1077
460.061	1069
460.123	1026
460.141	1005
460.191	1311
460.222	1408
460.260	1480
460.302	1878
460.328	2006
460.382	1764
460.397	1743
460.462	2099
460.465	2219
460.534	4908
460.543	5308
460.602	15375
460.623	19414
460.671	31170
460.703	43275
460.739	41069
460.783	33351
460.808	29483
460.864	8105
460.876	5854
460.944	1786
460.945	1731
461.013	1547
461.024	1429
461.081	1762
461.104	1916
461.150	1423
461.184	1147
461.218	1402
461.264	1791
461.286	1651
461.345	963
461.355	983
461.423	1487
461.425	1495
461.491	1015
461.505	954
461.559	1637
461.585	1883
461.628	2373
461.665	3214
461.696	3493
461.745	3896
461.764	3674
461.825	1896
461.832	1860
461.901	2066
461.905	2055
461.969	620
461.985	333
462.037	1349
462.065	2044
462.105	1616
462.145	989
462.173	1123
462.225	1427
462.241	1577
462.305	2541
462.310	2514
462.378	2279
462.385	2097
462.446	1237
462.465	1236
462.514	1367
462.545	1386
462.582	1130
462.625	932
462.650	1008
462.705	961
462.718	1014
462.785	1364
462.786	1365
462.854	1551
462.865	1539
462.922	1356
462.945	1422
462.990	1674
463.025	1601
463.058	1455
463.104	1362
463.126	1306
463.184	1390
463.194	1491
463.262	1407
463.264	1432
463.330	1373
463.344	1283
463.398	1551
463.424	1721
463.466	1509
463.504	1322
463.533	1609
463.583	2079
463.601	1982
463.663	1328
463.669	1313
463.737	1226
463.743	1259
463.805	2271
463.823	2470
463.873	2943
463.903	3406
463.940	3546
463.982	3512
464.008	3067
464.062	1851
464.076	1783
464.142	1585
464.144	1578
464.211	1304
464.221	1251
464.279	1564
464.301	1743
464.347	1732
464.381	1703
464.414	1613
464.461	1401
464.482	1463
464.540	1878
464.550	1886
464.617	1582
464.620	1573
464.685	2238
464.699	2380
464.753	2394
464.779	2465
464.820	2440
464.859	2343
464.888	2639
464.938	3171
464.956	3088
465.018	2535
465.023	2549
465.091	3005
465.098	3025
465.158	2685
465.177	2603
465.226	2525
465.257	2391
465.293	2487
465.336	2736
465.361	2710
465.416	2613
465.428	2701
465.495	3041
465.496	3048
465.563	3413
465.575	3528
465.631	4643
465.654	5081
465.698	3721
465.734	2458
465.765	2329
465.813	2028
465.833	2144
465.893	2798
465.900	2715
465.968	1730
465.972	1667
466.035	1969
466.052	2054
466.102	2313
466.131	2440
466.170	2019
466.210	1534
466.237	1683
466.290	2040
466.304	2091
466.369	2304
466.372	2321
466.439	2670
466.449	2713
466.506	2659
466.528	2655
466.573	3128
466.607	3457
466.641	3834
466.687	4376
466.708	4783
466.766	5889
466.775	5550
466.842	2962
466.845	2832
466.909	2552
466.925	2500
466.977	2844
467.004	3020
467.044	2859
467.083	2706
467.111	2903
467.163	3264
467.178	3159
467.242	2697
467.245	2715
467.312	3051
467.321	3096
467.379	2759
467.400	2628
467.446	3225
467.480	3655
467.559	3756
467.638	2899
467.717	3340
467.796	3793
467.875	3398
467.955	3128
468.034	4120
468.113	7210
468.192	9536
468.271	5329
468.350	6732
468.429	9198
468.508	11027
468.588	6249
468.667	4388
468.746	3588
468.825	2874
468.904	3939
468.983	3135
469.062	3490
469.141	3953
469.220	2809
469.299	3423
469.378	2948
469.456	4117
469.535	3073
469.614	3497
469.693	2712
469.772	3265
469.851	4440
469.930	3482
470.009	2993
470.088	3006
470.166	2614
470.245	3992
470.324	3797
470.403	3106
470.482	3363
470.560	3331
470.639	2039
470.718	3049
470.797	2914
470.875	3300
470.954	2842
471.033	3829
471.111	2423
471.190	2322
471.269	2472
471.347	2241
471.426	2827
471.505	2880
471.583	3293
471.662	2630
471.740	3548
471.819	3160
471.898	2768
471.976	3413
472.055	3055
472.133	3734
472.212	4213
472.290	3766
472.369	2481
472.447	3164
472.526	2579
472.604	2843
472.683	2649
472.761	2459
472.839	2833
472.918	2576
472.996	2245
473.075	3002
473.153	2913
473.231	2500
473.310	3144
473.388	2621
473.466	2408
473.545	2405
473.623	2392
473.701	2561
473.780	2743
473.858	1864
473.936	4160
474.014	2839
474.093	3117
474.171	4387
474.249	4529
474.327	2790
474.405	2255
474.484	2246
474.562	2346
474.640	2957
474.718	2400
474.796	2447
474.874	2487
474.952	2739
475.030	2654
475.108	2374
475.187	2208
475.265	2493
475.343	3275
475.421	2901
475.499	3096
475.577	3336
475.655	3479
475.733	3842
475.811	5401
475.889	4919
475.966	4084
476.044	2105
476.122	2076
476.200	3003
476.278	2488
476.356	2564
476.434	2420
476.512	3225
476.590	3446
476.667	3567
476.745	1227
476.823	2389
476.901	2503
476.979	3213
477.056	2753
477.134	2789
477.212	2551
477.290	2185
477.367	1922
477.445	3506
477.523	1837
477.601	1976
477.678	2796
477.756	2484
477.834	2245
477.911	2127
477.989	2315
478.066	3568
478.144	2925
478.222	1909
478.299	2590
478.377	2617
478.454	3040
478.532	1925
478.609	2322
478.687	2054
478.764	2046
478.842	1944
478.919	1484
478.997	2150
479.074	3485
479.152	1885
479.229	2376
479.307	2596
479.384	2336
479.461	2079
479.539	2129
479.616	2811
479.694	2369
479.771	2649
479.848	2316
479.926	1506
480.003	3548
480.080	2338
480.157	2809
480.235	2051
480.312	2405
480.389	2580
480.467	2311
480.544	2418
480.621	2096
480.698	3136
480.775	2515
480.853	2875
480.930	2180
481.007	2669
481.084	4179
481.161	5439
481.238	4279
481.315	2231
481.392	2668
481.470	2388
481.547	2859
481.624	2397
481.701	2613
481.778	2414
481.855	1741
481.932	3135
482.009	3665
482.086	3411
482.163	2872
482.240	4349
482.317	3836
482.393	3639
482.470	2259
482.547	2457
482.624	2052
482.701	2300
482.778	2016
482.855	2243
482.932	2384
483.009	2172
483.085	3143
483.162	4769
483.239	5106
483.316	3875
483.393	3397
483.469	2269
483.546	2456
483.623	2758
483.699	2185
483.776	2094
483.853	2743
483.930	3224
484.006	4113
484.083	7281
484.160	5932
484.236	10385
484.313	7847
484.389	4973
484.466	5863
484.543	5931
484.619	7582
484.696	8840
484.772	6982
484.849	5367
484.925	5520
485.002	4922
485.078	4446
485.155	5019
485.231	4337
485.308	3899
485.384	4218
485.461	5410
485.537	5549
485.614	6307
485.690	4233
485.766	5048
485.843	3920
485.919	5062
485.995	4662
486.072	3753
486.148	3580
486.224	4336
486.301	3579
486.377	4599
486.453	3913
486.530	4407
486.606	6256
486.682	6860
486.758	6885
486.835	6387
486.911	4635
486.987	7529
487.063	6927
487.139	7451
487.215	7802
487.292	7711
487.368	6467
487.444	6661
487.520	9797
487.596	13591
487.672	32550
487.748	98411
487.824	148150
487.900	37810
487.976	10748
488.052	5939
488.128	6533
488.204	4028
488.280	4587
488.356	4155
488.432	7000
488.508	7739
488.584	4107
488.660	3846
488.736	3998
488.812	2386
488.888	4551
488.964	4090
489.039	5010
489.115	5957
489.191	5412
489.267	4330
489.343	3491
489.418	3032
489.494	2949
489.570	2560
489.646	4205
489.722	3429
489.797	3127
489.873	3722
489.949	6238
490.024	5318
490.100	3044
490.176	3204
490.251	3506
490.327	3542
490.403	2791
490.478	3153
490.554	3297
490.629	2872
490.705	2386
490.781	3322
490.856	2634
490.932	3418
491.007	3326
491.083	2702
491.158	2425
491.234	3601
491.309	5329
491.385	3994
491.460	2889
491.536	2511
491.611	2375
491.686	3737
491.762	2950
491.837	2940
491.913	4604
491.988	5500
492.063	5903
492.139	3345
492.214	3019
492.289	2473
492.365	2393
492.440	2953
492.515	2204
492.590	3076
492.666	1596
492.741	2780
492.816	2963
492.891	1701
492.967	3247
493.042	2239
493.117	1906
493.192	2942
493.267	5103
493.342	13756
493.418	18943
493.493	2779
493.568	2393
493.643	1880
493.718	2593
493.793	3211
493.868	2085
493.943	2086
494.018	2688
494.093	1768
494.168	2765
494.243	1787
494.318	2431
494.393	2002
494.468	1887
494.543	1855
494.618	1877
494.693	930
494.768	2137
494.842	1871
494.917	2068
494.992	2014
495.067	2323
495.142	1722
495.217	1951
495.292	1133
495.366	940
495.441	1432
495.516	2705
495.591	2417
495.665	5011
495.740	8561
495.815	4343
495.890	1483
495.964	1625
496.039	4163
496.114	2608
496.188	4768
496.263	3537
496.338	2147
496.412	1872
496.487	2710
496.561	1446
496.636	1769
496.710	2480
496.785	2800
496.860	2869
496.934	1220
497.009	1856
497.083	1381
497.158	1838
497.232	2211
497.307	2837
497.381	2404
497.455	3198
497.530	2804
497.604	2202
497.679	2140
497.753	2521
497.827	2669
497.902	2722
497.976	3813
498.050	9740
498.125	37235
498.199	36143
498.273	3525
498.348	1958
498.422	2394
498.496	2468
498.570	2210
498.645	2236
498.719	1704
498.793	2930
498.867	2877
498.941	4578
499.016	15282
499.090	39251
499.164	13041
499.238	2890
499.312	2438
499.386	2603
499.460	2697
499.534	1874
499.609	2364
499.683	2683
499.757	3575
499.831	6428
499.905	24419
499.979	21627
500.053	3941
500.127	3109
500.201	1872
500.275	1706
500.349	2376
500.422	1490
500.496	3113
500.570	4426
500.644	12844
500.718	23892
500.792	5573
500.866	2654
500.940	2837
501.013	2552
501.087	2301
501.161	2820
501.235	2031
501.309	9278
501.382	20099
501.456	17606
501.530	4010
501.603	6574
501.677	2845
501.751	788
501.825	2917
501.898	3299
501.972	8001
502.046	4678
502.119	1291
502.193	4476
502.266	8274
502.340	4967
502.413	4393
502.487	7814
502.561	3599
502.634	1871
502.708	1811
502.781	1773
502.855	2979
502.928	415
503.002	2367
503.075	1295
503.149	800
503.222	1479
503.295	2053
503.369	2486
503.442	2029
503.516	7088
503.589	13857
503.662	9497
503.736	4400
503.809	9217
503.882	7644
503.956	14152
504.029	21663
504.102	54318
504.175	77950
504.249	21868
504.322	8401
504.395	4026
504.468	3472
504.542	2088
504.615	1530
504.688	2048
504.761	161
504.834	2738
504.907	886
504.980	1918
505.053	1888
505.127	-949
505.200	3391
505.273	1856
505.346	600
505.419	942
505.492	2257
505.565	1072
505.638	1136
505.711	1552
505.784	586
505.857	175
505.930	1717
506.003	-484
506.076	2294
506.149	901
506.221	-598
506.294	2772
506.367	1263
506.440	10920
506.513	5588
506.586	1607
506.659	360
506.731	1233
506.804	615
506.877	836
506.950	627
507.022	697
507.095	467
507.168	904
507.241	2010
507.313	397
507.386	-200
507.459	1937
507.531	865
507.604	580
507.677	1957
507.749	-436
507.822	2324
507.894	2014
507.967	3472
508.040	1140
508.112	1946
508.185	3424
508.257	1242
508.330	2609
508.402	964
508.475	832
508.547	1918
508.620	1372
508.692	1593
508.765	2105
508.837	715
508.909	1782
508.982	1450
509.054	1373
509.127	968
509.199	504
509.271	1074
509.344	1189
509.416	1028
509.488	1221
509.560	1006
509.633	938
509.705	810
509.777	1832
509.849	2418
509.922	885
509.994	1606
510.066	2142
510.138	-623
510.210	4842
510.283	2847
510.355	3165
510.427	1357
510.499	1857
510.571	1585
510.643	560
510.715	2500
510.787	0
510.859	2773
510.931	1525
511.003	1628
511.076	1827
511.148	611
511.219	1292
511.291	2727
511.363	2774
511.435	1338
511.507	427
511.579	1856
511.651	2114
511.723	1766
511.795	1126
511.867	1225
511.939	1530
512.010	1589
512.082	2966
512.154	298
512.226	1137
512.298	3003
512.369	3703
512.441	2693
512.513	1819
512.585	1282
512.656	3000
512.728	2348
512.800	1790
512.871	2750
512.943	2027
513.015	1298
513.086	2018
513.158	1930
513.230	544
513.301	1197
513.373	1744
513.444	693
513.516	1384
513.588	1831
513.659	2395
513.731	1130
513.802	524
513.874	3085
513.945	2139
514.016	932
514.088	1758
514.159	29
514.231	2597
514.302	2757
514.374	2742
514.445	438
514.516	4299
514.588	1046
514.659	1104
514.730	2779
514.802	3080
514.873	-1027
514.944	3830
515.016	1281
515.087	885
515.158	1765
515.229	3122
515.301	870
515.372	1975
515.443	782
515.514	1675
515.585	618
515.656	2211
515.728	2234
515.799	349
515.870	2235
515.941	1617
516.012	599
516.083	2578
516.154	1044
516.225	2808
516.296	2944
516.367	2042
516.438	1531
516.509	1951
516.580	3529
516.651	9496
516.722	25319
516.793	9819
516.864	2573
516.935	3474
517.006	3782
517.077	4247
517.148	8819
517.219	38193
517.289	53041
517.360	14295
517.431	5568
517.502	1893
517.573	3654
517.643	2255
517.714	2161
517.785	3123
517.856	1484
517.926	4302
517.997	3677
518.068	3607
518.138	5597
518.209	7385
518.280	27058
518.350	95544
518.421	28887
518.492	6751
518.562	6471
518.633	8778
518.703	11303
518.774	32305
518.845	95174
518.915	87470
518.986	19865
519.056	8226
519.127	6415
519.197	6017
519.268	11982
519.338	9053
519.408	3357
519.479	2019
519.549	1398
519.620	2591
519.690	2477
519.760	1888
519.831	1821
519.901	1349
519.971	1718
520.042	1427
520.112	1285
520.182	2475
520.253	1544
520.323	1384
520.393	984
520.463	3987
520.534	-104
520.604	4542
520.674	2509
520.744	1064
520.814	2060
520.885	4008
520.955	3860
521.025	13587
521.095	5333
521.165	2390
521.235	354
521.305	956
521.375	2156
521.445	1992
521.515	1940
521.585	2392
521.655	-364
521.725	2495
521.795	1513
521.865	-561
521.935	3823
522.005	1297
522.075	344
522.145	1826
522.215	582
522.285	1924
522.355	1164
522.424	3153
522.494	2056
522.564	2461
522.634	2215
522.704	5566
522.774	1651
522.843	1723
522.913	1262
522.983	1444
523.053	958
523.122	2410
523.192	294
523.262	1523
523.331	1289
523.401	1667
523.471	1144
523.540	2410
523.610	3
523.680	1403
523.749	1797
523.819	2010
523.888	890
523.958	1493
524.027	384
524.097	617
524.166	154
524.236	986
524.305	3112
524.375	498
524.444	-296
524.514	3691
524.583	733
524.653	1234
524.722	1472
524.791	545
524.861	2965
524.930	1091
524.999	1101
525.069	2909
525.138	1100
525.207	1377
525.277	2023
525.346	2209
525.415	2517
525.484	1850
525.554	2438
525.623	4445
525.692	5255
525.761	6010
525.830	7005
525.900	8460
525.969	13760
526.038	28077
526.107	62979
526.176	182928
526.245	134303
526.314	37330
526.383	90787
526.452	120681
526.522	188712
526.591	161540
526.660	21645
526.729	13574
526.797	16532
526.867	23343
526.935	82772
527.004	306471
527.073	168465
527.142	16912
527.211	7361
527.280	5512
527.349	4490
527.418	2221
527.487	3282
527.555	1040
527.624	2041
527.693	612
527.762	2892
527.831	921
527.899	2325
527.968	2586
528.037	218
528.106	2037
528.174	2018
528.243	1660
528.312	1922
528.380	2222
528.449	1284
528.518	2265
528.586	362
528.655	2564
528.723	1466
528.792	1225
528.861	-284
528.929	276
528.998	2620
529.066	2444
529.135	2988
529.203	2360
529.272	2422
529.340	5390
529.409	5019
529.477	3610
529.545	2173
529.614	5812
529.682	3496
529.751	5440
529.819	7579
529.887	6364
529.956	5684
530.024	6471
530.092	4358
530.161	5380
530.229	4913
530.297	5097
530.365	6626
530.434	7100
530.502	5821
530.570	6080
530.638	3054
530.707	4104
530.775	5996
530.843	3942
530.911	5025
530.979	5858
531.047	5569
531.115	6251
531.183	4816
531.252	5257
531.320	4883
531.388	3934
531.456	5054
531.524	4270
531.592	5944
531.660	8786
531.728	5344
531.796	4791
531.864	5646
531.932	5497
532.000	5528
532.067	5622
532.135	6994
532.203	7581
532.271	5744
532.339	7686
532.407	8409
532.475	7062
532.542	6553
532.610	6956
532.678	5568
532.746	10706
532.814	14032
532.881	8350
532.949	7243
533.017	7211
533.084	6258
533.152	6272
533.220	5380
533.287	4103
533.355	6388
533.423	7439
533.490	6803
533.558	6136
533.625	6891
533.693	5255
533.761	6270
533.828	5340
533.896	4754
533.963	6714
534.031	7097
534.098	7919
534.166	7146
534.233	6751
534.300	7830
534.368	6844
534.435	5857
534.503	8011
534.570	7856
534.637	7107
534.705	9071
534.772	11297
534.840	18880
534.907	83421
534.974	96602
535.041	12548
535.109	7396
535.176	5410
535.243	6450
535.310	5483
535.378	5563
535.445	5844
535.512	4593
535.579	5033
535.646	3530
535.714	5604
535.781	6079
535.848	5598
535.915	6246
535.982	5075
536.049	4964
536.116	6752
536.183	3840
536.250	4383
536.317	4211
536.384	5038
536.451	5259
536.518	5030
536.585	2943
536.652	7192
536.719	5106
536.786	3685
536.853	3987
536.920	5704
536.987	5258
537.053	3728
537.120	8512
537.187	7373
537.254	4406
537.321	4504
537.388	5908
537.454	4300
537.521	4176
537.588	3538
537.654	5289
537.721	4151
537.788	5589
537.855	4364
537.921	5028
537.988	4033
538.055	6321
538.121	3275
538.188	3442
538.254	3958
538.321	4007
538.388	4688
538.454	4979
538.521	4495
538.587	4398
538.654	4503
538.720	4098
538.787	4246
538.853	4649
538.920	4540
538.986	3810
539.053	4896
539.119	3399
539.185	4357
539.252	4293
539.318	3697
539.385	5855
539.451	3824
539.517	5299
539.583	5129
539.650	3901
539.716	5815
539.782	4948
539.849	3548
539.915	5075
539.981	3482
540.047	3830
540.114	3916
540.180	5107
540.246	3480
540.312	5308
540.378	4604
540.444	6372
540.510	5435
540.576	6199
540.643	4541
540.709	2029
540.775	4256
540.841	3210
540.907	4637
540.973	4258
541.039	5156
541.105	4185
541.171	3720
541.237	3483
541.303	5095
541.369	6412
541.435	5074
541.500	4452
541.566	2701
541.632	3957
541.698	4386
541.764	5192
541.830	4367
541.896	3066
541.961	4705
542.027	3129
542.093	3933
542.159	4722
542.224	2717
542.290	4987
542.356	3796
542.421	5760
542.487	4804
542.553	3742
542.618	3776
542.684	3205
542.750	4112
542.815	4512
542.881	4111
542.947	6447
543.012	6089
543.078	4011
543.143	3812
543.209	4173
543.274	3742
543.340	5394
543.405	4583
543.471	4780
543.536	4491
543.602	4815
543.667	3798
543.732	5022
543.798	3742
543.863	5707
543.928	3643
543.994	2862
544.059	4736
544.124	3939
544.190	3890
544.255	4854
544.320	5198
544.386	3911
544.451	4605
544.516	4886
544.581	4235
544.646	6502
544.712	8059
544.777	5208
544.842	3916
544.907	4750
544.972	3949
545.037	5144
545.102	5756
545.168	4765
545.233	5953
545.298	5691
545.363	4763
545.428	5658
545.493	6537
545.558	6732
545.623	5372
545.688	4854
545.753	6109
545.818	5289
545.883	6791
545.947	5642
546.012	6944
546.077	6499
546.142	8105
546.207	7151
546.272	8094
546.337	7469
546.401	9261
546.466	10018
546.531	8226
546.596	10228
546.661	10935
546.725	11557
546.790	11276
546.855	12937
546.919	13030
546.984	14869
547.049	15544
547.113	18429
547.178	20271
547.243	23497
547.307	27617
547.372	29713
547.436	29711
547.501	31948
547.565	34615
547.630	31451
547.695	30257
547.759	29832
547.823	29988
547.888	30652
547.952	32053
548.017	33849
548.081	34431
548.146	34761
548.210	34594
548.274	36428
548.339	35581
548.403	33149
548.468	30975
548.532	30749
548.596	32278
548.660	31399
548.725	35732
548.789	37476
548.853	39298
548.917	35867
548.982	34506
549.046	31564
549.110	27307
549.174	29015
549.238	33823
549.303	35635
549.367	37669
549.431	36653
549.495	33857
549.559	33956
549.623	39519
549.687	44083
549.751	42776
549.815	51183
549.879	52953
549.943	48120
550.007	52077
550.071	50776
550.135	46661
550.199	43426
550.263	43869
550.327	41439
550.391	42140
550.455	45896
550.519	49236
550.582	53375
550.646	58571
550.710	59226
550.774	58564
550.838	59476
550.901	60530
550.965	65271
551.029	66458
551.093	72248
551.156	76932
551.220	86144
551.284	98676
551.347	77910
551.411	67906
551.475	64151
551.538	65649
551.602	61195
551.666	58723
551.729	54210
551.793	53956
551.856	52803
551.920	53833
551.983	52091
552.047	52077
552.110	51680
552.174	54255
552.237	52723
552.301	49704
552.364	48927
552.428	47208
552.491	48052
552.554	50633
552.618	48986
552.681	49544
552.745	49494
552.808	50762
552.871	52627
552.934	53545
552.998	49085
553.061	49254
553.124	47557
553.187	47203
553.251	49340
553.314	50265
553.377	50113
553.440	55224
553.503	62745
553.567	67392
553.630	55018
553.693	53808
553.756	55072
553.819	53913
553.882	51354
553.945	53258
554.008	52372
554.071	52512
554.134	53953
554.197	50372
554.260	49123
554.323	51781
554.386	51031
554.449	52881
554.512	54088
554.575	51098
554.638	49786
554.701	49690
554.764	50892
554.827	48680
554.889	45982
554.952	43753
555.015	43032
555.078	44765
555.141	44710
555.203	44385
555.266	43428
555.329	43696
555.391	41441
555.454	42244
555.517	39949
555.580	38030
555.642	37997
555.705	36580
555.768	36615
555.830	37552
555.893	33669
555.955	33901
556.018	33169
556.080	34062
556.143	34680
556.206	33280
556.268	32520
556.330	32547
556.393	31618
556.455	31629
556.518	30503
556.580	29213
556.643	28091
556.705	28282
556.767	26996
556.830	26436
556.892	26317
556.955	26403
557.017	25081
557.079	24735
557.142	24079
557.204	24659
557.266	24759
557.328	23678
557.391	21603
557.453	21805
557.515	20967
557.577	21287
557.639	21814
557.701	21347
557.764	19656
557.826	21627
557.888	22512
557.950	23137
558.012	24216
558.074	32039
558.136	61437
558.198	130729
558.260	49025
558.322	21647
558.384	22715
558.446	24774
558.508	26586
558.570	30010
558.632	33624
558.694	43675
558.756	70952
558.818	194066
558.880	399105
558.942	144704
559.003	136015
559.065	66912
559.127	28495
559.189	28355
559.251	32449
559.312	46421
559.374	102723
559.436	293577
559.498	138134
559.559	31431
559.621	28298
559.683	33936
559.744	54352
559.806	154101
559.868	212675
559.929	46835
559.991	31728
560.052	48099
560.114	126726
560.176	81006
560.237	74908
560.299	111638
560.360	26209
560.422	13591
560.483	11737
560.545	10934
560.606	10881
560.667	10096
560.729	9254
560.790	9854
560.852	9119
560.913	9784
560.974	9443
561.036	8674
561.097	9349
561.158	9507
561.220	9517
561.281	7495
561.342	8629
561.403	9376
561.465	8403
561.526	9792
561.587	8847
561.648	7084
561.709	7613
561.771	7743
561.832	7053
561.893	6981
561.954	8152
562.015	6737
562.076	7632
562.137	7781
562.198	7663
562.259	6994
562.320	7269
562.381	7425
562.442	7869
562.503	7250
562.564	6999
562.625	6778
562.686	6996
562.747	6249
562.808	6728
562.869	7039
562.930	7793
562.991	7009
563.051	7177
563.112	6784
563.173	6969
563.234	5928
563.294	7059
563.355	5684
563.416	7029
563.477	6395
563.537	6586
563.598	6892
563.659	6532
563.720	6102
563.780	6093
563.841	6657
563.901	7324
563.962	6207
564.023	6152
564.083	6240
564.144	5952
564.204	6211
564.265	5898
564.325	5667
564.386	7566
564.446	7405
564.507	5876
564.567	6231
564.628	6371
564.688	5511
564.749	5525
564.809	6238
564.869	6630
564.930	6677
564.990	6239
565.050	5756
565.111	6377
565.171	6245
565.231	5844
565.292	6542
565.352	5987
565.412	6432
565.472	5503
565.532	5221
565.593	6158
565.653	5979
565.713	5969
565.773	5825
565.833	5993
565.893	6581
565.953	6296
566.013	6687
566.074	6308
566.134	6639
566.194	6369
566.254	6916
566.314	6631
566.374	5360
566.434	5980
566.494	6300
566.554	5438
566.614	5453
566.673	5278
566.733	6116
566.793	6089
566.853	6206
566.913	6404
566.973	5670
567.033	6572
567.092	6103
567.152	6248
567.212	5788
567.272	6361
567.331	7434
567.391	6949
567.451	6795
567.511	7410
567.570	7766
567.630	6208
567.690	6855
567.749	6436
567.809	6273
567.868	6876
567.928	6021
567.988	6062
568.047	7024
568.107	6736
568.166	7202
568.226	7822
568.285	7807
568.345	7214
568.404	7095
568.464	6994
568.523	7168
568.582	6706
568.642	6664
568.701	7203
568.761	7018
568.820	7782
568.879	8191
568.939	6861
568.998	7327
569.057	7178
569.116	6743
569.176	7273
569.235	6395
569.294	7699
569.353	6744
569.413	6583
569.472	6406
569.531	6710
569.590	6339
569.649	6104
569.708	5919
569.767	7053
569.827	7294
569.886	7261
569.945	5838
570.004	7295
570.063	6328
570.122	6562
570.181	6562
570.240	7039
570.299	7337
570.358	7313
570.417	6834
570.475	6694
570.534	7753
570.593	7442
570.652	7077
570.711	7396
570.770	6733
570.829	7436
570.887	6816
570.946	6998
571.005	7331
571.064	7894
571.122	6746
571.181	6794
571.240	7589
571.299	7335
571.357	6949
571.416	6380
571.475	6777
571.533	7557
571.592	7587
571.650	7563
571.709	8419
571.768	8413
571.826	9198
571.885	7806
571.943	7239
572.002	6909
572.060	7371
572.119	7855
572.177	7480
572.236	7153
572.294	6751
572.352	8208
572.411	7292
572.469	7857
572.528	7465
572.586	7787
572.644	7903
572.703	7435
572.761	7178
572.819	7586
572.877	6407
572.936	7028
572.994	6884
573.052	7626
573.110	6435
573.169	7617
573.227	7332
573.285	6865
573.343	7347
573.401	6518
573.459	6789
573.517	6608
573.576	7148
573.634	7274
573.692	6519
573.750	6604
573.808	6809
573.866	7291
573.924	7862
573.982	7128
574.040	6837
574.098	7459
574.155	6276
574.213	7524
574.271	5972
574.329	7107
574.387	6303
574.445	5909
574.503	5822
574.560	5606
574.618	5720
574.676	6390
574.734	6136
574.792	5881
574.849	6630
574.907	6269
574.965	6425
575.022	5446
575.080	5141
575.138	5980
575.195	5852
575.253	5971
575.311	5382
575.368	6087
575.426	5734
575.483	5973
575.541	6463
575.598	5433
575.656	5533
575.713	4995
575.771	6329
575.828	5885
575.886	6077
575.943	6222
576.001	5240
576.058	4675
576.115	5072
576.173	5409
576.230	5946
576.287	5974
576.345	6312
576.402	5785
576.459	6358
576.517	5324
576.574	6212
576.631	4713
576.688	5963
576.746	5801
576.803	6210
576.860	4921
576.917	5482
576.974	5326
577.031	5616
577.089	6182
577.146	6040
577.203	5221
577.260	5721
577.317	5182
577.374	5868
577.431	5499
577.488	6115
577.545	5432
577.602	5857
577.659	5855
577.716	6148
577.773	6312
577.830	5909
577.886	6379
577.943	5237
578.000	6153
578.057	5495
578.114	6802
578.171	6023
578.227	7126
578.284	7327
578.341	7428
578.398	6490
578.454	6295
578.511	6125
578.568	6404
578.625	5687
578.681	6182
578.738	6861
578.794	5868
578.851	6348
578.908	5976
578.964	5422
579.021	6775
579.077	5388
579.134	6259
579.190	6151
579.247	6586
579.303	6282
579.360	5945
579.416	6256
579.473	5677
579.529	6981
579.586	6563
579.642	6330
579.698	6920
579.755	6563
579.811	6626
579.867	7384
579.924	6087
579.980	7135
580.036	7479
580.093	8324
580.149	9839
580.205	10736
580.261	9269
580.317	9196
580.374	7087
580.430	7786
580.486	7594
580.542	7811
580.598	7974
580.619	8146
580.654	8435
580.692	8124
580.710	7954
580.765	8043
580.767	8030
580.823	7432
580.838	7667
580.879	8242
580.911	8245
580.935	8241
580.984	9105
580.991	9204
581.047	8880
581.057	8928
581.103	9063
581.130	9603
581.159	10120
581.203	10416
581.215	10474
581.270	9847
581.276	9839
581.326	9604
581.349	9695
581.382	9784
581.422	9800
581.438	9782
581.494	10208
581.494	10228
581.550	10592
581.567	10758
581.606	11078
581.640	10660
581.661	10355
581.713	12037
581.717	12156
581.773	11181
581.786	11169
581.829	11096
581.859	11630
581.885	12085
581.932	11734
581.940	11627
581.996	12293
582.004	12345
582.052	12524
582.077	12678
582.107	12835
582.150	12819
582.163	12785
582.219	13569
582.223	13599
582.274	13858
582.296	13680
582.330	13411
582.368	14451
582.386	14938
582.441	15423
582.441	15407
582.497	14972
582.514	15280
582.552	16160
582.587	16340
582.608	16410
582.659	17228
582.663	17265
582.719	17904
582.732	17979
582.774	18354
582.805	18537
582.830	18804
582.877	20166
582.885	20444
582.941	22132
582.950	22499
582.996	24391
583.023	26104
583.052	27962
583.095	29298
583.107	29369
583.162	29006
583.168	28965
583.218	28009
583.240	26825
583.273	24883
583.313	24460
583.328	24533
583.384	23792
583.385	23765
583.439	22484
583.458	22407
583.494	22789
583.531	22492
583.549	22371
583.603	22298
583.605	22286
583.660	22286
583.676	22178
583.715	22559
583.748	22988
583.770	23080
583.820	22773
583.825	22791
583.881	23859
583.893	23893
583.936	23606
583.965	23449
583.991	23746
584.038	24533
584.046	24625
584.101	25250
584.110	25395
584.156	26575
584.183	26577
584.211	26426
584.255	26506
584.266	26700
584.321	28588
584.328	28654
584.376	28919
584.400	29383
584.431	30051
584.472	30122
584.486	30340
584.541	31291
584.545	31377
584.596	33358
584.617	33495
584.651	33684
584.689	34010
584.706	34190
584.761	34917
584.762	34874
584.816	36017
584.834	36278
584.871	36657
584.906	36941
584.926	37393
584.978	38337
584.980	38430
585.035	39276
585.051	39753
585.090	41417
585.123	41485
585.145	41733
585.195	43932
585.200	44298
585.254	46691
585.267	47351
585.309	51013
585.340	53855
585.364	56691
585.412	62825
585.419	64043
585.473	73430
585.484	75567
585.528	93244
585.556	107077
585.583	142364
585.628	210912
585.637	240734
585.692	446429
585.700	479475
585.747	592958
585.772	588653
585.801	430849
585.845	216512
585.856	191908
585.910	105421
585.917	95301
585.965	78364
585.989	70447
586.019	67232
586.061	62722
586.074	62143
586.128	59278
586.133	58845
586.183	56095
586.205	54948
586.237	54264
586.277	52689
586.292	52298
586.346	51241
586.349	51029
586.401	51077
586.421	50785
586.455	49886
586.493	49345
586.509	49957
586.564	50532
586.565	50429
586.618	55796
586.637	57271
586.672	58309
586.709	59132
586.727	60592
586.781	64762
586.781	64932
586.835	57983
586.853	55823
586.889	52593
586.925	49500
586.944	49623
586.996	49290
586.998	49437
587.052	49558
587.068	49391
587.106	49600
587.140	49302
587.161	49182
587.212	49135
587.215	49356
587.269	49825
587.284	50151
587.323	51530
587.356	51667
587.377	52121
587.427	53129
587.431	53365
587.485	54702
587.499	54749
587.539	55597
587.571	56023
587.593	57481
587.643	60091
587.648	60324
587.702	60478
587.715	60368
587.755	60820
587.786	60818
587.810	61563
587.858	62632
587.864	62970
587.917	63904
587.930	63965
587.971	64885
588.001	65012
588.025	65576
588.073	66352
588.079	66694
588.133	67051
588.145	67107
588.187	68903
588.217	69633
588.241	71529
588.288	74328
588.295	74944
588.348	78520
588.360	78945
588.402	81187
588.431	82170
588.456	84914
588.503	90146
588.510	91412
588.564	98666
588.575	100010
588.617	109455
588.646	115663
588.671	124231
588.718	140189
588.725	145718
588.778	186976
588.789	195437
588.832	281263
588.861	341526
588.886	424332
588.932	587118
588.939	595585
588.993	632822
589.004	629631
589.047	503101
589.075	418953
589.100	343627
589.147	210315
589.154	205021
589.207	160892
589.218	151608
589.261	145884
589.290	141111
589.314	145869
589.361	155073
589.368	161252
589.421	209519
589.433	219658
589.475	329463
589.504	408530
589.528	476849
589.576	607490
589.582	598243
589.635	461102
589.647	429751
589.689	284963
589.718	187149
589.742	166102
589.790	123276
589.795	122457
589.849	110897
589.861	107875
589.902	105384
589.932	102611
589.955	99880
590.004	93106
590.009	93269
590.062	90684
590.075	89694
590.115	88907
590.146	87861
590.168	87783
590.218	86080
590.222	86590
590.275	88609
590.289	88853
590.328	90388
590.360	90766
590.381	91184
590.431	90819
590.435	91198
590.488	90974
590.503	90638
590.541	92813
590.574	93765
590.594	93920
590.645	93180
590.647	93724
590.700	97577
590.716	98242
590.753	100404
590.787	101652
590.806	102790
590.859	104291
590.859	104754
590.912	105201
590.930	104948
590.965	107128
591.001	108415
591.018	108580
591.071	107400
591.072	106916
591.124	106466
591.143	105688
591.177	107737
591.214	109015
591.230	110120
591.283	112177
591.285	111756
591.336	110915
591.356	109995
591.389	111449
591.427	111916
591.442	112102
591.495	110889
591.498	110309
591.547	112480
591.569	112755
591.600	114462
591.640	115447
591.653	115863
591.706	115425
591.711	114865
591.759	119910
591.782	121611
591.811	124711
591.853	127934
591.864	128423
591.917	127853
591.924	127194
591.969	127266
591.995	126367
592.022	127888
592.066	128865
592.075	130127
592.127	134268
592.137	134423
592.180	137705
592.208	138809
592.233	140387
592.279	141512
592.285	142474
592.338	145050
592.350	144972
592.390	145317
592.421	144405
592.443	146449
592.491	148785
592.495	149636
592.548	151821
592.562	151722
592.600	152144
592.633	151198
592.653	151825
592.704	150769
592.705	151748
592.775	157001
592.846	159057
592.916	160807
592.987	160878
593.058	165354
593.128	165434
593.199	166507
593.270	168023
593.341	170618
593.411	174132
593.482	181131
593.553	183632
593.623	186667
593.694	191620
593.764	194079
593.835	193249
593.906	194141
593.976	198507
594.047	205923
594.117	211356
594.188	216808
594.258	215547
594.329	215662
594.399	222648
594.470	226568
594.540	232203
594.611	235290
594.681	236335
594.751	236026
594.822	244663
594.892	253013
594.963	257971
595.033	264341
595.103	272114
595.174	275100
595.244	282433
595.314	294488
595.384	294686
595.455	299436
595.525	309262
595.595	320777
595.665	321103
595.736	312898
595.806	318010
595.876	322949
595.946	325040
596.016	339368
596.087	349015
596.157	349015
596.227	351571
596.297	365556
596.367	386983
596.437	406441
596.507	408539
596.577	406321
596.647	415859
596.717	434292
596.787	443312
596.857	441063
596.927	443346
596.997	446974
597.067	451868
597.137	461708
597.207	462575
597.277	463539
597.347	454891
597.417	442285
597.487	442248
597.557	453955
597.626	464318
597.696	469970
597.766	470447
597.836	453012
597.906	434608
597.975	426661
598.045	433629
598.115	447075
598.185	472266
598.254	513740
598.324	551683
598.394	564583
598.464	551826
598.533	546435
598.603	520667
598.672	507121
598.742	519723
598.812	523918
598.881	537917
598.951	536155
599.020	543341
599.090	560123
599.159	571025
599.229	555741
599.299	548400
599.368	566299
599.437	564494
599.507	536319
599.576	523251
599.646	523270
599.715	525081
599.785	524458
599.854	517710
599.924	513044
599.993	515876
600.062	526953
600.132	536400
600.201	560706
600.270	618072
600.340	647314
600.409	641954
600.478	645181
600.547	656835
600.617	624619
600.686	558058
600.755	530959
600.824	518681
600.894	519997
600.963	526485
601.032	527868
601.101	527062
601.170	522079
601.239	519764
601.308	523810
601.378	534424
601.447	540306
601.516	550836
601.585	557696
601.654	567360
601.723	576981
601.792	589371
601.861	608709
601.930	629820
601.999	646624
602.068	642529
602.137	640406
602.206	651645
602.275	656001
602.343	663004
602.412	666268
602.481	671698
602.550	674850
602.619	687365
602.688	686601
602.756	700248
602.825	692809
602.894	712153
602.963	707621
603.032	715228
603.100	721183
603.169	707706
603.238	729686
603.307	709831
603.375	712686
603.444	738491
603.513	705896
603.581	716974
603.650	745761
603.719	669909
603.787	658483
603.856	669694
603.924	678150
603.993	693143
604.061	711431
604.130	733131
604.198	745810
604.267	752424
604.335	764347
604.404	766052
604.472	783454
604.541	785177
604.609	799543
604.678	813905
604.746	816517
604.815	851650
604.883	832169
604.951	821419
605.020	835480
605.088	810922
605.156	797177
605.225	801453
605.293	796704
605.361	800949
605.429	798860
605.498	812900
605.566	811712
605.634	842651
605.702	850132
605.771	866943
605.839	875065
605.907	840506
605.975	846467
606.043	823786
606.111	813396
606.180	842125
606.248	809221
606.316	792735
606.384	829107
606.452	747846
606.520	701511
606.588	715429
606.656	724173
606.724	716903
606.792	686263
606.860	634760
606.928	586166
606.996	567486
607.064	557620
607.132	568971
607.200	599769
607.267	616753
607.335	622357
607.403	635358
607.471	623315
607.539	602445
607.607	610979
607.674	550470
607.742	549416
607.810	543779
607.878	544903
607.946	552619
608.013	571939
608.081	581750
608.149	584916
608.216	601448
608.284	615965
608.352	615835
608.419	613632
608.487	600241
608.555	586441
608.622	602197
608.690	626334
608.757	674757
608.825	689863
608.893	675675
608.960	643217
609.028	621522
609.095	621808
609.163	621745
609.230	565706
609.298	520916
609.365	542774
609.432	578637
609.500	616455
609.567	690837
609.635	763646
609.702	799931
609.769	772172
609.837	638053
609.904	559109
609.971	567864
610.039	593449
610.106	667569
610.173	919072
610.241	1482804
610.308	1259657
610.375	758561
610.442	629277
610.509	588335
610.577	586520
610.644	586996
610.711	605503
610.778	616976
610.845	640696
610.912	673929
610.980	694846
611.047	701689
611.114	687706
611.181	665080
611.248	663310
611.315	691787
611.382	707113
611.449	727578
611.516	736935
611.583	728594
611.650	735427
611.717	736327
611.784	748255
611.851	761983
611.918	779362
611.984	840390
612.051	969152
612.118	1288011
612.185	1840865
612.252	1692090
612.319	1095097
612.386	927982
612.452	858557
612.519	821755
612.586	804746
612.653	812940
612.719	831972
612.786	812125
612.853	772758
612.919	753420
612.986	767453
613.053	734491
613.120	695502
613.186	680092
613.253	680718
613.319	684180
613.386	685470
613.453	693559
613.519	696630
613.586	687409
613.652	694838
613.719	684674
613.785	697165
613.852	703701
613.918	702856
613.985	702956
614.051	734251
614.118	741361
614.184	717880
614.250	697455
614.317	715115
614.383	703264
614.449	720349
614.516	711357
614.582	716253
614.648	708387
614.715	702538
614.781	691592
614.847	690391
614.914	689909
614.980	676997
615.046	675651
615.112	692278
615.179	695504
615.245	704277
615.311	694441
615.377	701467
615.443	709077
615.509	711903
615.575	728577
615.642	726721
615.708	734292
615.774	756235
615.840	779686
615.906	800623
615.972	863314
616.038	1041438
616.104	1472984
616.170	1971618
616.236	1913767
616.302	1366783
616.368	1134493
616.434	932146
616.500	845794
616.565	876322
616.631	1020999
616.697	938065
616.763	905051
616.829	1101412
616.895	1596300
616.961	1642419
617.026	1064018
617.092	810671
617.158	754915
617.224	736237
617.289	693273
617.355	668316
617.421	662241
617.487	661115
617.552	634619
617.618	630987
617.684	638313
617.749	634304
617.815	617447
617.880	607416
617.946	605929
618.012	614494
618.077	627279
618.143	604692
618.208	608719
618.274	641048
618.339	646021
618.405	566615
618.470	561978
618.536	566280
618.601	557914
618.667	530414
618.732	511236
618.798	507178
618.863	506976
618.928	499949
618.994	502201
619.059	495481
619.124	503596
619.190	497266
619.255	496616
619.320	497754
619.386	501507
619.451	500342
619.516	486339
619.581	494400
619.647	507093
619.712	512144
619.777	496185
619.842	494919
619.907	506464
619.972	510748
620.038	510127
620.103	497081
620.168	501902
620.233	506513
620.298	510824
620.363	513402
620.428	522061
620.493	535008
620.558	536941
620.623	542510
620.688	543809
620.753	540159
620.818	547497
620.883	551929
620.948	548927
621.013	545094
621.078	539207
621.143	539930
621.207	544173
621.272	540579
621.337	531740
621.402	527566
621.467	524174
621.532	524906
621.596	527160
621.661	516717
621.726	508771
621.791	517775
621.855	516152
621.920	514429
621.985	520769
622.049	527496
622.114	528981
622.179	533335
622.243	539365
622.308	550349
622.373	564950
622.437	559320
622.502	538950
622.566	532466
622.631	532339
622.695	539207
622.760	537196
622.824	535724
622.889	536947
622.953	538611
623.018	559478
623.082	565930
623.147	561991
623.211	552130
623.276	552019
623.340	536585
623.404	526744
623.469	525627
623.533	529762
623.597	523679
623.662	517289
623.726	492965
623.790	475557
623.854	463590
623.919	470377
623.983	471989
624.047	475577
624.111	479968
624.176	485954
624.240	489246
624.304	499454
624.368	484384
624.432	482396
624.496	491780
624.560	507692
624.625	515667
624.689	506159
624.753	527273
624.817	506654
624.881	493367
624.945	464281
625.009	450126
625.073	454358
625.137	461762
625.201	477766
625.265	480226
625.329	463906
625.393	465011
625.456	464275
625.520	474916
625.584	480611
625.648	492648
625.712	504326
625.776	515569
625.839	498936
625.903	426635
625.967	394264
626.031	418822
626.095	476887
626.158	446622
626.222	371489
626.286	350851
626.349	343478
626.413	327195
626.477	320375
626.540	320632
626.604	320378
626.668	315207
626.731	314176
626.795	312514
626.858	309437
626.922	304897
626.986	300108
627.049	299154
627.113	312760
627.176	304023
627.240	294994
627.303	294124
627.366	287647
627.430	293131
627.493	288376
627.557	288203
627.620	291223
627.684	298931
627.747	296906
627.810	278185
627.874	254440
627.937	245979
628.000	254583
628.064	251181
628.127	228726
628.190	223167
628.253	218756
628.317	213372
628.380	204580
628.443	201374
628.506	199059
628.569	192410
628.632	183646
628.696	182907
628.759	183870
628.822	173822
628.885	171380
628.948	171139
629.011	166978
629.074	162310
629.137	158815
629.200	156701
629.263	154885
629.326	151812
629.389	152936
629.452	149810
629.515	146713
629.578	145897
629.641	149049
629.704	147423
629.767	147211
629.830	143249
629.892	140175
629.955	138697
630.018	140334
630.081	139499
630.144	138116
630.207	136585
630.269	136781
630.332	132312
630.395	131116
630.458	128327
630.520	126542
630.583	126166
630.646	128323
630.708	129144
630.771	129035
630.834	135362
630.896	133411
630.959	130274
631.021	129371
631.084	129955
631.146	129658
631.209	132429
631.272	128188
631.334	131149
631.397	130953
631.459	130915
631.522	134765
631.584	135118
631.646	140356
631.709	143441
631.771	143471
631.834	138219
631.896	135162
631.958	130099
632.021	128408
632.083	123967
632.145	124177
632.208	122754
632.270	123475
632.332	121486
632.395	120539
632.457	122013
632.519	120210
632.581	120841
632.643	119039
632.706	120002
632.768	116600
632.830	118128
632.892	121424
632.954	121888
633.016	123977
633.078	120051
633.141	121527
633.203	119376
633.265	120667
633.327	117271
633.389	119125
633.451	120312
633.513	120336
633.575	123115
633.637	120142
633.698	123056
633.760	126871
633.822	130475
633.884	130606
633.946	134635
634.008	135778
634.070	137665
634.132	143961
634.193	147800
634.255	154864
634.317	156511
634.379	156377
634.441	145610
634.502	136695
634.564	131698
634.626	123336
634.687	119129
634.749	114667
634.811	116360
634.873	114717
634.934	115841
634.996	117260
635.057	116481
635.119	117364
635.181	117440
635.242	117826
635.304	117001
635.365	122229
635.427	116902
635.488	116618
635.550	116653
635.611	116281
635.673	116895
635.734	122063
635.796	126141
635.857	133542
635.918	138772
635.980	146722
636.041	153821
636.102	160355
636.164	160817
636.225	154034
636.286	142049
636.348	133236
636.409	124489
636.470	119955
636.531	117205
636.593	114815
636.654	113684
636.715	110241
636.776	110917
636.838	107733
636.899	107919
636.960	105667
637.021	106204
637.082	104196
637.143	101507
637.204	99265
637.265	101482
637.326	102921
637.387	103064
637.448	102067
637.509	102728
637.570	101841
637.631	102605
637.692	99713
637.753	97888
637.814	97270
637.875	98144
637.936	96690
637.997	98498
638.058	98110
638.119	98983
638.179	97981
638.240	97537
638.301	98216
638.362	96628
638.423	93613
638.483	94159
638.544	92701
638.605	94451
638.666	93484
638.726	93826
638.787	94093
638.848	95302
638.908	93147
638.969	89637
639.030	88627
639.090	89344
639.151	90513
639.211	91322
639.272	92126
639.332	91981
639.393	93570
639.453	95516
639.514	96957
639.574	90846
639.635	87511
639.695	87544
639.756	85450
639.816	85586
639.877	84505
639.937	87637
639.997	88419
640.058	84500
640.118	83842
640.178	84669
640.239	84427
640.299	85007
640.359	86483
640.420	88430
640.480	93118
640.540	100938
640.600	102372
640.661	98141
640.721	96358
640.781	105111
640.841	109308
640.901	89307
640.961	87769
641.021	87778
641.082	92424
641.142	87212
641.202	85585
641.262	81828
641.322	83399
641.382	82950
641.442	81009
641.502	81481
641.562	82321
641.622	83006
641.682	86466
641.742	91632
641.802	89973
641.861	83720
641.921	80508
641.981	77754
642.041	75646
642.101	77302
642.161	74797
642.221	75724
642.280	76426
642.340	75911
642.400	76723
642.460	78570
642.519	79825
642.579	77805
642.639	81093
642.698	78364
642.758	82169
642.818	80009
642.877	79905
642.937	79984
642.997	79643
643.056	80582
643.116	77471
643.175	81251
643.235	81222
643.294	80858
643.354	83016
643.414	85773
643.473	92467
643.532	99335
643.592	113356
643.651	144423
643.711	205161
643.770	337495
643.830	662866
643.889	1047083
643.948	528849
644.008	187632
644.067	123714
644.126	99407
644.186	90715
644.245	84024
644.304	79578
644.363	80106
644.423	74837
644.482	75973
644.541	79250
644.600	78336
644.659	88299
644.719	98118
644.778	120603
644.837	174190
644.896	298015
644.955	588189
645.014	282150
645.073	111040
645.132	88647
645.191	84453
645.250	80040
645.309	82179
645.368	87415
645.427	102615
645.486	148965
645.545	247841
645.604	107545
645.663	77192
645.722	75597
645.781	78070
645.840	80906
645.898	85590
645.957	101990
646.016	129419
646.075	190255
646.134	318470
646.192	659793
646.251	872879
646.310	318792
646.369	137462
646.427	112184
646.486	94428
646.545	78752
646.603	74813
646.662	70514
646.721	68608
646.779	67264
646.838	68511
646.896	75080
646.955	87330
647.014	116248
647.072	186978
647.131	436326
647.189	269672
647.248	81196
647.306	67494
647.365	64051
647.423	59305
647.481	60052
647.540	58053
647.598	58956
647.657	58034
647.715	58149
647.773	55883
647.832	55738
647.890	52550
647.948	52500
648.007	51573
648.065	50989
648.123	52240
648.181	51942
648.240	52449
648.298	51499
648.356	49967
648.414	48968
648.472	48645
648.531	48492
648.589	47065
648.647	47875
648.705	47392
648.763	47330
648.821	47815
648.879	46975
648.937	49589
648.995	53620
649.053	57960
649.111	71820
649.169	97780
649.227	152787
649.285	281626
649.343	630475
649.401	404151
649.459	108395
649.516	70319
649.574	59879
649.632	64712
649.690	71549
649.748	69411
649.806	90699
649.863	144986
649.921	330286
649.979	262885
650.037	62213
650.094	45581
650.152	43663
650.210	41642
650.268	42081
650.325	44278
650.383	51959
650.440	39387
650.498	37605
650.556	36839
650.613	35177
650.671	35935
650.728	37091
650.786	39001
650.843	46092
650.901	40612
650.958	34540
651.016	33607
651.073	33171
651.131	32868
651.188	32967
651.246	32335
651.303	29423
651.360	31504
651.418	30304
651.475	30814
651.532	29266
651.590	31118
651.647	29531
651.704	30033
651.762	29423
651.819	29829
651.876	28698
651.933	27777
651.990	29038
652.048	27585
652.105	28177
652.162	28556
652.219	27633
652.276	27710
652.333	28157
652.390	26679
652.448	27168
652.505	27251
652.562	27217
652.619	27890
652.676	31119
652.733	32058
652.790	25498
652.847	25735
652.904	26109
652.961	25018
653.017	24801
653.074	25299
653.131	25487
653.188	25237
653.245	25575
653.302	25246
653.359	25094
653.415	25325
653.472	25224
653.529	25556
653.586	23599
653.642	23733
653.699	24626
653.756	23825
653.813	24538
653.869	25913
653.926	25198
653.983	25290
654.039	24732
654.096	24339
654.152	24687
654.209	22653
654.266	23458
654.322	22627
654.379	24205
654.435	25501
654.492	23456
654.548	25020
654.605	25957
654.661	26787
654.717	24194
654.774	24083
654.830	23639
654.887	23242
654.943	24644
655.000	29145
655.056	26309
655.112	24216
655.168	23359
655.225	23285
655.281	24427
655.337	24270
655.394	24671
655.450	23490
655.506	22973
655.562	25095
655.618	25876
655.675	21816
655.731	22087
655.787	20740
655.843	22794
655.899	22088
655.955	22508
656.011	22903
656.067	21931
656.123	22507
656.179	22417
656.235	22588
656.291	22119
656.347	23193
656.403	22270
656.459	22847
656.515	22489
656.571	21950
656.627	22362
656.683	22634
656.739	23149
656.795	22465
656.850	22418
656.906	22426
656.962	23696
657.018	23561
657.074	26116
657.129	31122
657.185	43116
657.241	86322
657.297	56733
657.352	25182
657.408	21660
657.464	22414
657.519	21406
657.575	20149
657.630	21666
657.686	21469
657.742	20890
657.797	20817
657.853	20891
657.908	21118
657.964	19919
658.019	20924
658.075	21042
658.130	21190
658.186	19195
658.241	20616
658.297	20014
658.352	20093
658.407	20923
658.463	19477
658.518	20005
658.573	20307
658.629	20154
658.684	19514
658.739	18840
658.795	18580
658.850	19442
658.905	19838
658.960	19381
659.016	19782
659.071	19288
659.126	18905
659.181	18944
659.236	21004
659.291	20570
659.346	18792
659.401	20223
659.457	22949
659.512	23236
659.567	21867
659.622	18649
659.677	19376
659.732	18576
659.787	19695
659.842	19381
659.897	19956
659.952	19207
660.007	20097
660.061	19298
660.116	18799
660.171	18619
660.226	18691
660.281	21124
660.336	18791
660.391	19434
660.445	18881
660.500	19835
660.555	19913
660.610	18825
660.664	19252
660.719	17600
660.774	18683
660.828	18924
660.883	17981
660.938	18475
660.992	17895
661.047	18049
661.101	17539
661.156	18038
661.211	17923
661.265	18496
661.320	17773
661.374	19144
661.429	17898
661.483	18697
661.538	18071
661.592	18883
661.647	20786
661.701	24478
661.755	20094
661.810	19412
661.864	18154
661.919	17835
661.973	18277
662.027	18932
662.081	17218
662.136	17860
662.190	18134
662.244	18062
662.299	17801
662.353	17821
662.407	17777
662.461	17987
662.515	18482
662.569	16787
662.624	17473
662.678	17064
662.732	17932
662.786	17181
662.840	17424
662.894	18257
662.948	17472
663.002	18072
663.056	17057
663.110	16735
663.164	17688
663.218	17668
663.272	17286
663.326	18073
663.380	16595
663.434	17534
663.488	16630
663.542	17233
663.595	17130
663.649	16494
663.703	17020
663.757	17280
663.811	16031
663.864	16408
663.918	17190
663.972	15710
664.026	17249
664.079	16483
664.133	17910
664.187	16818
664.240	17453
664.294	17937
664.348	17935
664.401	17357
664.455	16568
664.508	16407
664.562	16576
664.615	16766
664.669	15762
664.722	16652
664.776	16169
664.829	16282
664.883	16292
664.936	16174
664.990	15516
665.043	16718
665.097	16543
665.150	17413
665.203	16480
665.257	15909
665.310	17533
665.363	16235
665.417	17659
665.470	17165
665.523	16544
665.576	16716
665.630	17956
665.683	16928
665.736	17164
665.789	17226
665.842	16854
665.895	17816
665.949	16620
666.002	16342
666.055	16543
666.108	17283
666.161	16819
666.214	17194
666.267	17218
666.320	17515
666.373	18763
666.426	17810
666.479	17121
666.532	18021
666.585	17483
666.638	18510
666.691	17964
666.744	18535
666.796	17028
666.849	17732
666.902	16923
666.955	16264
667.008	16921
667.060	16752
667.113	16679
667.166	17424
667.219	18192
667.271	18361
667.324	18624
667.377	17371
667.430	17542
667.482	18092
667.535	17680
667.587	17114
667.640	17233
667.693	16990
667.745	17624
667.798	18347
667.850	17228
667.903	17146
667.955	17631
668.008	16598
668.060	17085
668.113	17264
668.165	17976
668.218	17055
668.270	16960
668.322	16639
668.375	16245
668.427	17022
668.479	15793
668.532	16905
668.584	16668
668.636	16346
668.689	16194
668.741	16934
668.793	15760
668.845	16216
668.898	16249
668.950	16632
669.002	16943
669.054	15650
669.106	15137
669.158	16734
669.211	15638
669.263	16765
669.315	16997
669.367	18004
669.419	15451
669.471	17047
669.523	16271
669.575	17186
669.627	16973
669.679	15888
669.731	16609
669.783	16123
669.835	16102
669.886	15750
669.938	15699
669.990	15362
670.042	16146
670.094	16154
670.146	16572
670.197	16429
670.249	17910
670.301	18291
670.353	19805
670.404	23962
670.456	28366
670.508	37596
670.560	56059
670.611	86432
670.663	142572
670.715	285445
670.766	381913
670.818	180277
670.869	55690
670.921	33524
670.972	28063
671.024	23487
671.075	19517
671.127	19288
671.178	18327
671.230	19185
671.281	18715
671.333	20523
671.384	20425
671.436	24101
671.487	31107
671.538	41292
671.590	58416
671.641	91917
671.692	152502
671.744	269698
671.795	229517
671.846	100890
671.897	51186
671.949	34727
672.000	27558
672.051	22965
672.102	20211
672.153	18045
672.204	16344
672.256	16483
672.307	16639
672.358	14712
672.409	14852
672.460	14718
672.511	14411
672.562	13710
672.613	12849
672.664	12079
672.715	13454
672.766	13606
672.817	11965
672.868	12944
672.919	12671
672.970	11344
673.021	11957
673.071	11586
673.122	12027
673.173	11411
673.224	12217
673.275	13127
673.326	11552
673.376	10884
673.427	10733
673.478	11572
673.528	12192
673.579	11591
673.630	11300
673.680	12422
673.731	11916
673.782	11692
673.832	11753
673.883	11307
673.934	11067
673.984	11524
674.035	12076
674.085	12201
674.136	12230
674.186	11945
674.237	11976
674.287	11984
674.338	12332
674.388	11534
674.438	12098
674.489	12643
674.539	12439
674.589	12128
674.640	12909
674.690	11594
674.740	12025
674.791	12292
674.841	11776
674.891	11146
674.942	10238
674.992	8709
675.042	10084
675.092	9915
675.142	8902
675.193	9746
675.243	9403
675.293	10743
675.343	10818
675.393	10820
675.443	11186
675.493	10660
675.543	10025
675.593	10681
675.643	10748
675.693	10644
675.743	9721
675.793	9617
675.843	9454
675.893	9853
675.943	9685
675.993	9833
676.043	9887
676.093	9627
676.142	9947
676.192	9565
676.242	9730
676.292	9842
676.341	8851
676.391	9515
676.441	8689
676.491	9225
676.540	9782
676.590	8920
676.640	9288
676.689	9053
676.739	8583
676.789	8303
676.838	8343
676.888	9119
676.937	9143
676.987	9412
677.037	8105
677.086	7731
677.136	9225
677.185	7750
677.235	8251
677.284	9478
677.333	8860
677.383	8921
677.432	7881
677.482	8555
677.531	7996
677.580	8298
677.630	7942
677.679	7679
677.728	8800
677.778	8651
677.827	8338
677.876	8761
677.925	8473
677.975	9062
678.024	9701
678.073	8963
678.122	9945
678.171	9352
678.220	9016
678.269	10207
678.319	11013
678.368	10417
678.417	9645
678.466	9672
678.515	8748
678.564	8619
678.613	8108
678.662	7381
678.711	8152
678.760	8463
678.809	8745
678.857	8835
678.906	8770
678.955	9449
679.004	9229
679.053	8958
679.102	10465
679.151	8608
679.199	7780
679.248	8545
679.297	8212
679.346	7790
679.394	7754
679.443	7463
679.492	8171
679.540	7863
679.589	8168
679.638	7912
679.686	8541
679.735	9493
679.784	9268
679.832	10247
679.881	9255
679.929	8165
679.978	7990
680.026	8786
680.075	8069
680.123	7692
680.172	7615
680.220	7783
680.268	8333
680.317	7570
680.365	6941
680.414	7140
680.462	6832
680.510	8627
680.559	7896
680.607	7541
680.655	7726
680.703	7709
680.752	7307
680.800	7919
680.848	7137
680.896	7492
680.945	7617
680.993	7681
681.041	6608
681.089	6725
681.137	6191
681.185	6582
681.233	7184
681.258	7154
681.281	7070
681.329	6668
681.377	7254
681.380	7317
681.425	7389
681.473	7971
681.502	7752
681.521	7494
681.569	8881
681.617	8875
681.624	8832
681.665	8114
681.713	8627
681.745	8928
681.761	8997
681.809	8204
681.857	8667
681.867	8868
681.904	9290
681.952	9206
681.989	8872
682.000	8698
682.048	9048
682.096	9029
682.111	9052
682.143	8947
682.191	9728
682.233	9520
682.239	9427
682.286	9585
682.334	10000
682.354	9821
682.382	9447
682.430	9571
682.476	9450
682.477	9394
682.525	9979
682.572	9765
682.598	10173
682.620	10472
682.667	10232
682.715	10955
682.720	10973
682.763	10561
682.810	11171
682.841	10510
682.857	10126
682.905	10518
682.952	10520
682.963	10649
683.000	10788
683.047	11361
683.085	12274
683.095	12482
683.142	10983
683.190	11758
683.206	11738
683.237	11495
683.284	11227
683.328	12156
683.332	12195
683.379	11413
683.426	12336
683.449	12331
683.473	12314
683.521	12409
683.568	12419
683.571	12483
683.615	12589
683.662	13409
683.693	12883
683.709	12497
683.757	12292
683.804	12381
683.814	12389
683.851	12308
683.898	13031
683.936	12801
683.945	12704
683.992	13520
684.039	12863
684.057	12983
684.086	13122
684.133	13551
684.179	13031
684.180	12977
684.227	13175
684.274	13979
684.300	13892
684.321	13773
684.368	13507
684.415	14887
684.422	14933
684.462	14957
684.509	14193
684.543	14174
684.556	14152
684.603	14685
684.649	15382
684.665	15379
684.696	15282
684.743	15403
684.786	15637
684.790	15609
684.837	15419
684.883	15374
684.908	15660
684.930	15978
684.977	16018
685.023	15541
685.029	15640
685.070	15954
685.117	15972
685.150	16056
685.164	16119
685.210	16426
685.257	16855
685.272	16818
685.303	16577
685.350	17245
685.393	17186
685.396	17149
685.443	16524
685.490	16229
685.514	16173
685.536	16213
685.583	16371
685.629	16658
685.636	16652
685.675	16396
685.722	17182
685.757	17240
685.768	17232
685.815	16878
685.861	16870
685.878	16953
685.908	17217
685.954	17780
686.000	18525
686.000	18520
686.047	18062
686.093	18825
686.121	18879
686.139	18844
686.185	18801
686.232	18531
686.242	18552
686.278	18592
686.324	18977
686.363	18321
686.370	18190
686.416	18697
686.463	18742
686.484	18740
686.509	18775
686.555	19475
686.601	19233
686.606	19259
686.647	19357
686.693	18772
686.727	18725
686.739	18683
686.785	18971
686.831	19105
686.848	19211
686.877	19487
686.923	19548
686.969	19645
686.969	19644
687.015	19876
687.061	20776
687.090	20782
687.107	20612
687.153	20766
687.199	21173
687.211	20962
687.245	20475
687.291	19831
687.332	20707
687.336	20816
687.382	21289
687.428	21464
687.453	21373
687.474	21169
687.520	21210
687.565	21854
687.574	21764
687.611	21874
687.657	22738
687.695	23838
687.702	24121
687.748	26140
687.794	28851
687.816	28280
687.839	26789
687.885	24920
687.931	23626
687.937	23503
687.976	23310
688.022	23133
688.058	22680
688.067	22556
688.113	22627
688.158	21692
688.179	21566
688.204	21785
688.249	22306
688.295	22614
688.300	22646
688.340	22951
688.386	22913
688.421	22970
688.431	23004
688.477	23250
688.522	24112
688.542	24040
688.567	24007
688.613	24768
688.658	24351
688.663	24403
688.703	24628
688.749	24330
688.784	24421
688.794	24491
688.839	24361
688.884	24395
688.905	24121
688.930	23869
688.975	25025
689.020	24644
689.026	24607
689.065	24633
689.110	24966
689.146	24983
689.155	25032
689.201	25481
689.246	26088
689.267	25937
689.291	25427
689.336	25469
689.381	24977
689.388	24891
689.426	25088
689.471	24809
689.509	24929
689.516	24956
689.561	25114
689.606	25198
689.630	25080
689.651	24933
689.696	24538
689.741	24421
689.750	24412
689.785	24896
689.830	25498
689.871	25214
689.875	25194
689.920	25050
689.965	25737
689.992	25726
690.010	25805
690.054	25595
690.099	26096
690.112	26196
690.144	26398
690.189	26166
690.233	25861
690.233	25890
690.278	25720
690.323	25745
690.354	25738
690.367	25911
690.412	26474
690.457	26396
690.474	26585
690.501	26755
690.546	26780
690.590	27162
690.595	27075
690.635	26927
690.680	26861
690.716	27458
690.724	27750
690.769	28732
690.813	29649
690.836	30160
690.857	31933
690.902	36363
690.946	40324
690.957	41309
690.991	50240
691.035	64009
691.077	76705
691.080	76686
691.124	68378
691.168	60418
691.198	56465
691.213	53366
691.257	44483
691.301	35266
691.318	31863
691.346	31456
691.390	30763
691.434	29469
691.439	29358
691.478	29170
691.522	28891
691.559	28364
691.567	28490
691.611	29110
691.655	29662
691.680	30010
691.699	30127
691.743	30018
691.787	29839
691.800	29814
691.831	29747
691.875	29535
691.919	29730
691.921	29665
691.964	29369
692.008	29685
692.041	29632
692.052	29591
692.096	29123
692.139	29004
692.162	28714
692.183	28623
692.227	28635
692.271	28392
692.282	28270
692.315	28283
692.359	28706
692.402	28722
692.403	28770
692.447	28539
692.490	28664
692.523	28466
692.534	28524
692.578	28913
692.622	28881
692.643	28934
692.666	28999
692.709	28995
692.753	28826
692.763	28727
692.797	28666
692.840	29032
692.884	29029
692.884	29084
692.928	29427
692.971	29548
693.004	29498
693.015	29495
693.059	29825
693.102	29755
693.124	29618
693.146	29747
693.189	30132
693.233	30518
693.245	30524
693.276	30932
693.320	31454
693.363	32031
693.365	32005
693.407	33513
693.450	34432
693.485	35199
693.493	35682
693.537	38141
693.580	40528
693.605	42011
693.624	45309
693.667	53067
693.710	60755
693.725	63639
693.753	80942
693.797	109464
693.840	137142
693.845	139704
693.883	125742
693.926	109559
693.966	95853
693.970	94052
694.013	74374
694.056	54958
694.086	41434
694.099	40678
694.142	37937
694.185	35353
694.206	34189
694.229	34085
694.272	33441
694.315	32943
694.326	32735
694.358	32555
694.401	32210
694.444	31854
694.446	31768
694.487	31901
694.530	32030
694.566	32110
694.573	32178
694.616	32103
694.659	32028
694.686	32099
694.702	32199
694.745	32040
694.787	31933
694.806	31740
694.830	31819
694.873	32021
694.916	32250
694.926	32133
694.959	32177
695.002	32849
695.044	32972
695.046	32917
695.087	33142
695.130	33098
695.166	33102
695.172	33231
695.215	33529
695.258	33896
695.286	34194
695.301	34493
695.343	34721
695.386	35343
695.406	35384
695.428	35906
695.471	36973
695.514	38257
695.526	38489
695.556	40073
695.599	42370
695.641	44280
695.646	44406
695.684	42957
695.726	41267
695.766	39491
695.769	39521
695.811	38773
695.854	37953
695.886	37372
695.896	37644
695.938	38349
695.981	39114
696.005	39404
696.023	40027
696.065	41433
696.108	42763
696.125	43176
696.150	43890
696.192	45145
696.235	46279
696.245	46474
696.277	46453
696.319	46183
696.361	45946
696.365	45819
696.404	45692
696.446	45487
696.485	45154
696.488	45230
696.530	44945
696.572	44423
696.604	44102
696.614	44187
696.656	44014
696.698	43780
696.724	43550
696.740	43683
696.783	43914
696.825	44079
696.844	43997
696.867	44404
696.909	44980
696.951	45699
696.964	45818
696.992	46168
697.034	46424
697.076	46738
697.083	46665
697.118	47410
697.160	48315
697.202	49059
697.203	48965
697.244	48516
697.286	48043
697.323	47323
697.327	47441
697.369	47532
697.411	47749
697.442	47716
697.453	47782
697.494	47635
697.536	47477
697.562	47234
697.578	47356
697.620	47348
697.661	47448
697.682	47393
697.703	48126
697.744	49341
697.786	50537
697.801	50820
697.828	50551
697.869	49937
697.911	49307
697.921	49061
697.952	49312
697.994	49454
698.035	49541
698.040	49436
698.077	49743
698.118	49937
698.160	50109
698.160	49987
698.201	50958
698.243	51848
698.279	52498
698.284	52774
698.325	54126
698.367	55517
698.399	56456
698.408	56619
698.449	56704
698.491	56803
698.518	56714
698.532	56846
698.573	56885
698.614	56876
698.638	56711
698.656	56759
698.697	56593
698.738	56393
698.757	56169
698.779	56448
698.820	56710
698.862	56962
698.877	56915
698.903	56928
698.944	56726
698.985	56522
698.996	56325
699.026	56369
699.067	56238
699.116	55942
699.235	56401
699.354	55234
699.474	52661
699.593	53233
699.713	52287
699.832	53101
699.951	53849
700.070	54064
700.190	51314
700.309	51373
700.428	49750
700.547	49237
700.667	48696
700.786	49259
700.905	47809
701.024	49085
701.143	46845
701.262	49536
701.381	49854
701.500	50386
701.619	48232
701.738	48977
701.857	48290
701.976	47296
702.095	46307
702.214	48063
702.333	46245
702.452	48523
702.571	47612
702.690	47724
702.809	47305
702.928	45519
703.047	44532
703.165	45646
703.284	45783
703.403	44638
703.522	45132
703.640	42940
703.759	41938
703.878	41764
703.997	41331
704.115	43672
704.234	41292
704.353	43626
704.471	40540
704.590	40083
704.708	40168
704.827	39552
704.946	40453
705.064	40039
705.183	39587
705.301	41662
705.420	40672
705.538	39242
705.656	38730
705.775	37514
705.893	42512
706.012	44393
706.130	38330
706.249	39622
706.367	37538
706.485	38067
706.604	36871
706.722	37573
706.840	40766
706.958	47194
707.077	41336
707.195	36398
707.313	36226
707.431	34785
707.549	35056
707.668	33136
707.786	36821
707.904	34688
708.022	34979
708.140	33852
708.258	32800
708.376	35839
708.494	32364
708.612	34202
708.730	36866
708.848	33507
708.966	33721
709.084	33830
709.202	34833
709.320	32444
709.438	32381
709.556	34522
709.674	31357
709.791	31715
709.909	30820
710.027	31968
710.145	31336
710.263	31217
710.380	31438
710.498	30799
710.616	29871
710.733	29906
710.851	29714
710.969	30059
711.086	29242
711.204	29373
711.322	29397
711.439	29904
711.557	28575
711.674	28891
711.792	29708
711.909	28164
712.027	28677
712.144	27958
712.262	29037
712.379	29769
712.497	30316
712.614	29350
712.732	30377
712.849	28766
712.966	28582
713.084	29552
713.201	26566
713.318	28347
713.436	29237
713.553	27657
713.670	28452
713.787	29016
713.905	26848
714.022	27767
714.139	27790
714.256	30529
714.373	32540
714.490	43534
714.608	77374
714.725	252481
714.842	274855
714.959	48197
715.076	29112
715.193	28740
715.310	28316
715.427	25857
715.544	25816
715.661	25622
715.778	25590
715.895	26016
716.011	25861
716.128	26158
716.245	25171
716.362	24734
716.479	24197
716.596	24996
716.713	24378
716.829	24526
716.946	23709
717.063	24317
717.180	22919
717.296	23712
717.413	24709
717.530	23530
717.646	22613
717.763	23108
717.880	22861
717.996	21688
718.113	22496
718.229	21575
718.346	20953
718.462	20729
718.579	22155
718.695	22135
718.812	22607
718.928	21768
719.045	21941
719.161	20114
719.277	21522
719.394	21740
719.510	21589
719.626	21474
719.743	22701
719.859	27814
719.975	37892
720.092	99626
720.208	212633
720.324	45512
720.440	23701
720.557	22496
720.673	21556
720.789	21599
720.905	22527
721.021	21608
721.137	20170
721.253	19089
721.369	19122
721.486	20058
721.602	19560
721.718	19650
721.834	18032
721.950	18314
722.066	19527
722.181	18687
722.297	18917
722.413	18598
722.529	19336
722.645	18136
722.761	18637
722.877	18227
722.993	18045
723.108	19378
723.224	18462
723.340	17523
723.456	18443
723.571	18469
723.687	17293
723.803	18171
723.918	17894
724.034	17509
724.150	18365
724.265	18469
724.381	17386
724.497	17963
724.612	16837
724.728	17492
724.843	16239
724.959	17222
725.074	17879
725.190	18308
725.305	16493
725.421	17980
725.536	17645
725.651	18000
725.767	16491
725.882	17821
725.997	16313
726.113	16818
726.228	16428
726.343	17417
726.459	15653
726.574	16663
726.689	16722
726.804	15992
726.920	16809
727.035	16545
727.150	17206
727.265	15883
727.380	16942
727.495	16378
727.610	16535
727.725	15380
727.841	16577
727.956	18878
728.071	17705
728.186	14850
728.301	14719
728.416	16835
728.531	15971
728.645	14068
728.760	15491
728.875	15291
728.990	15327
729.105	15228
729.220	14543
729.335	15402
729.449	15662
729.564	15278
729.679	15598
729.794	15959
729.908	15587
730.023	15347
730.138	15082
730.253	16073
730.367	14783
730.482	15724
730.596	15043
730.711	16692
730.826	20115
730.940	21625
731.055	17289
731.169	17516
731.284	17970
731.398	17481
731.513	17891
731.627	18532
731.742	20656
731.856	24438
731.970	22686
732.085	23944
732.199	28288
732.313	37120
732.428	68103
732.542	181066
732.656	126553
732.771	37621
732.885	28456
732.999	29269
733.113	31612
733.227	31858
733.342	29563
733.456	30915
733.570	30099
733.684	29166
733.798	27497
733.912	28581
734.026	28467
734.140	28787
734.254	27447
734.368	27358
734.482	27784
734.596	27793
734.710	26930
734.824	26821
734.938	25257
735.052	27545
735.166	25739
735.280	26285
735.393	24684
735.507	25051
735.621	24431
735.735	24833
735.849	24834
735.962	24662
736.076	25203
736.190	24844
736.303	25320
736.417	24065
736.531	23469
736.644	24209
736.758	22814
736.872	24254
736.985	23213
737.099	24941
737.212	22536
737.326	21942
737.439	23788
737.553	21826
737.666	24506
737.780	22583
737.893	23223
738.007	21307
738.120	23318
738.233	21246
738.347	22521
738.460	20316
738.573	23490
738.687	21201
738.800	21528
738.913	22317
739.026	21969
739.140	20954
739.253	21153
739.366	20776
739.479	19390
739.592	21418
739.705	19532
739.818	21730
739.932	19865
740.045	20919
740.158	20440
740.271	20606
740.384	20333
740.497	17792
740.610	20669
740.723	19120
740.836	18782
740.949	19779
741.062	20464
741.174	19125
741.287	18518
741.400	20192
741.513	17358
741.626	19879
741.739	18980
741.851	17898
741.964	19194
742.077	18656
742.189	17088
742.302	18279
742.415	18541
742.527	17778
742.640	17386
742.753	16678
742.865	17644
742.978	18345
743.090	17671
743.203	18128
743.316	17024
743.428	17111
743.541	18506
743.653	17296
743.766	16867
743.878	17137
743.990	15797
744.103	18078
744.215	16720
744.327	15653
744.440	19529
744.552	17805
744.664	15696
744.777	16498
744.889	15767
745.001	16729
745.113	16839
745.226	16424
745.338	14966
745.450	18064
745.562	16729
745.674	15361
745.786	17817
745.898	17311
746.010	15356
746.122	16287
746.234	15356
746.347	16030
746.459	15575
746.570	13854
746.682	15391
746.794	17753
746.906	14587
747.018	14618
747.130	15971
747.242	15140
747.354	14802
747.466	17114
747.577	14543
747.689	15070
747.801	16375
747.913	13910
748.024	14127
748.136	15016
748.248	14391
748.359	14657
748.471	15489
748.583	13423
748.694	12985
748.806	16121
748.918	14520
749.029	14277
749.141	13223
749.252	15393
749.364	13199
749.475	14842
749.587	13968
749.698	14036
749.809	14872
749.921	13120
750.032	14367
750.144	13213
750.255	13045
750.366	14144
750.478	13505
750.589	13528
750.700	12135
750.811	14939
750.923	12219
751.034	12833
751.145	13986
751.256	13239
751.367	12547
751.479	13363
751.590	12418
751.701	12492
751.812	12850
751.923	12134
752.034	13917
752.145	12974
752.256	13572
752.367	13485
752.478	13313
752.589	13096
752.700	13407
752.811	12064
752.922	12346
753.032	13014
753.143	14037
753.254	12399
753.365	13333
753.476	13611
753.586	12725
753.697	12819
753.808	13350
753.919	12128
754.029	12709
754.140	11734
754.251	12735
754.361	13519
754.472	12863
754.582	12455
754.693	12138
754.804	13329
754.914	13067
755.025	12327
755.135	12508
755.246	14210
755.356	12672
755.466	12230
755.577	11591
755.687	13136
755.798	13133
755.908	13027
756.018	13222
756.129	13305
756.239	12711
756.349	13796
756.460	13388
756.570	12879
756.680	12399
756.790	12961
756.900	13819
757.011	12705
757.121	11915
757.231	12541
757.341	13398
757.451	12802
757.561	12263
757.671	13560
757.781	13853
757.891	12617
758.001	12171
758.111	13229
758.221	13793
758.331	13907
758.441	12894
758.551	14865
758.661	13690
758.771	13745
758.880	13139
758.990	13987
759.100	14109
759.210	14252
759.320	14338
759.429	15231
759.539	14438
759.649	14491
759.758	15027
759.868	15608
759.978	14834
760.087	16445
760.197	15327
760.307	16273
760.416	15333
760.526	14651
760.635	15584
760.745	15745
760.854	16605
760.964	16383
761.073	16247
761.182	17594
761.292	16486
761.401	16258
761.511	17284
761.620	16564
761.729	17107
761.839	17453
761.948	16068
762.057	16980
762.166	18084
762.276	17887
762.385	19663
762.494	17321
762.603	18647
762.712	19496
762.822	20348
762.931	20163
763.040	20123
763.149	20755
763.258	21718
763.367	22566
763.476	22854
763.585	25716
763.694	24107
763.803	26696
763.912	26930
764.021	29391
764.130	30355
764.238	30908
764.347	33074
764.456	35788
764.565	37747
764.674	39884
764.783	43859
764.891	49804
765.000	52824
765.109	59566
765.217	65301
765.326	76393
765.435	88445
765.543	106586
765.652	128709
765.761	158114
765.869	202509
765.978	266097
766.086	347485
766.195	441541
766.303	490374
766.412	366017
766.520	325341
766.629	452973
766.737	431455
766.846	348654
766.954	268803
767.062	206683
767.171	164239
767.279	130460
767.387	108248
767.496	92224
767.604	77735
767.712	69346
767.820	62551
767.928	58400
768.037	54322
768.145	51898
768.253	49969
768.361	47511
768.469	47897
768.577	48827
768.685	50111
768.793	52937
768.901	56078
769.009	65504
769.117	76300
769.225	95526
769.333	124038
769.441	171485
769.549	251405
769.657	374596
769.765	450803
769.873	330300
769.981	391231
770.088	375903
770.196	273801
770.304	194822
770.412	144508
770.519	112464
770.627	91995
770.735	77562
770.842	65415
770.950	58201
771.058	51914
771.165	47979
771.273	45203
771.380	40692
771.488	41601
771.595	41459
771.703	38294
771.810	36418
771.918	33691
772.025	35169
772.133	36642
772.240	34102
772.348	35317
772.455	35229
772.562	31403
772.670	31738
772.777	30975
772.884	29606
772.991	28215
773.099	29963
773.206	26347
773.313	27815
773.420	26286
773.528	26317
773.635	24864
773.742	25887
773.849	24742
773.956	26983
774.063	24034
774.170	24186
774.277	24242
774.384	22974
774.491	22656
774.598	22298
774.705	22030
774.812	22542
774.919	20877
775.026	21614
775.133	21528
775.239	22520
775.346	20047
775.453	19985
775.560	20173
775.667	20791
775.773	20653
775.880	19813
775.987	19739
776.093	19220
776.200	20787
776.307	18434
776.413	17673
776.520	20659
776.627	18659
776.733	17515
776.840	16262
776.946	20965
777.053	18608
777.159	17999
777.266	16177
777.372	17823
777.478	17762
777.585	18176
777.691	15105
777.798	18120
777.904	17339
778.010	16357
778.117	17778
778.223	16193
778.329	16388
778.435	14758
778.542	17616
778.648	15564
778.754	13681
778.860	15377
778.966	16131
779.072	15217
779.178	15719
779.284	14519
779.391	14735
779.497	16974
779.603	18562
779.708	19788
779.815	27699
779.920	72990
780.026	143594
780.132	40373
780.238	18405
780.344	15481
780.450	17726
780.556	13193
780.661	13311
780.767	16027
780.873	12479
780.979	13199
781.085	13677
781.190	13050
781.296	12291
781.402	12689
781.507	13264
781.613	12353
781.719	12272
781.824	14016
781.930	12603
782.035	11874
782.141	14767
782.246	10917
782.352	11054
782.457	12095
782.563	12535
782.668	13200
782.773	11139
782.879	10981
782.984	12026
783.090	12892
783.195	11760
783.300	13309
783.405	12186
783.511	10360
783.616	11284
783.721	12413
783.826	11528
783.932	10285
784.037	11927
784.142	11659
784.247	10766
784.352	11823
784.457	9643
784.562	10555
784.667	11968
784.772	10363
784.877	8372
784.982	10421
785.087	12072
785.192	9833
785.297	10114
785.402	11466
785.507	10727
785.611	10214
785.716	8406
785.821	10151
785.926	10629
786.031	10260
786.135	10206
786.240	9798
786.345	8630
786.450	8816
786.554	9701
786.659	9357
786.763	9200
786.868	10412
786.973	9567
787.077	9273
787.182	8599
787.286	9370
787.391	11349
787.495	7962
787.600	8379
787.704	8539
787.809	9338
787.913	8463
788.017	9640
788.122	10625
788.226	9387
788.330	6115
788.435	8887
788.539	10018
788.643	9348
788.747	7077
788.852	9087
788.956	8672
789.060	8998
789.164	9028
789.268	8142
789.372	9766
789.476	7895
789.580	7650
789.684	7580
789.788	8830
789.892	8359
789.996	7005
790.100	7550
790.204	8299
790.308	10095
790.412	7462
790.516	8200
790.620	7112
790.724	9390
790.828	8622
790.931	5923
791.035	7649
791.139	7215
791.242	8189
791.346	8967
791.450	7066
791.554	7302
791.657	6237
791.761	7975
791.864	9037
791.968	8070
792.072	8778
792.175	7283
792.279	7188
792.382	7800
792.486	7005
792.589	7830
792.693	8331
792.796	6857
792.899	8494
793.003	7730
793.106	5981
793.209	7527
793.313	7718
793.416	5493
793.519	6779
793.623	8780
793.726	7910
793.829	6325
793.932	6037
794.035	6025
794.138	7520
794.242	8707
794.345	7178
794.448	9480
794.551	14941
794.654	40656
794.757	93083
794.860	23626
794.963	9404
795.066	7212
795.169	8723
795.272	6243
795.375	7873
795.477	6199
795.580	6259
795.683	5432
795.786	7417
795.889	5642
795.991	7440
796.094	7026
796.197	5808
796.300	6869
796.402	7004
796.505	4962
796.608	5506
796.710	5394
796.813	6727
796.915	5528
797.018	6844
797.120	5461
797.223	5561
797.326	6655
797.428	6136
797.530	4961
797.633	4784
797.735	6508
797.838	5541
797.940	7011
798.042	5791
798.145	5245
798.247	6103
798.349	4147
798.452	5977
798.554	5593
798.656	5487
798.758	6286
798.860	5716
798.962	5666
799.065	5474
799.167	4746
799.269	6293
799.371	5796
799.473	6542
799.575	5455
799.677	5400
799.779	6200
799.881	4852
799.983	7306
800.085	5879
800.187	5599
800.289	4328
800.390	5134
800.492	6097
800.594	6338
800.696	4683
800.798	4976
800.899	4855
801.001	5345
801.103	5222
801.205	5407
801.306	5317
801.408	5806
801.509	5426
801.611	6054
801.713	5481
801.814	4564
801.916	4953
802.017	5106
802.119	4510
802.220	5124
802.322	5094
802.423	6305
802.525	4165
802.626	4149
802.727	5669
802.829	6088
802.930	2434
803.031	5423
803.133	5328
803.234	5600
803.335	5345
803.436	4480
803.538	5359
803.639	3700
803.740	6054
803.841	3803
803.942	5724
804.043	5400
804.144	3382
804.245	4729
804.346	4751
804.447	3821
804.548	4057
804.649	4903
804.750	4910
804.851	4595
804.952	5201
805.053	4905
805.154	4404
805.255	5472
805.355	4963
805.456	4270
805.557	4597
805.658	3796
805.758	5882
805.859	4031
805.960	4741
806.061	4076
806.161	3649
806.262	5260
806.362	3952
806.463	3985
806.564	5562
806.664	4651
806.765	5023
806.865	4944
806.966	4706
807.066	3990
807.166	5331
807.267	6083
807.367	4108
807.468	4811
807.568	3509
807.668	4836
807.769	5450
807.869	3925
807.969	5693
808.069	4678
808.170	4014
808.270	4616
808.370	5059
808.470	4319
808.570	3943
808.670	4920
808.770	3973
808.870	3581
808.970	4243
809.070	4270
809.170	4018
809.271	4763
809.370	4684
809.470	4593
809.570	3737
809.670	3196
809.770	4041
809.870	5134
809.970	4590
810.070	4332
810.169	4506
810.269	2612
810.369	4842
810.469	3901
810.568	4150
810.668	3691
810.768	3720
810.867	4381
810.967	2943
811.066	3736
811.166	4316
811.265	5239
811.365	3844
811.464	4120
811.564	4933
811.663	4913
811.763	3207
811.862	4718
811.962	4823
812.061	3769
812.160	3975
812.260	3497
812.359	4013
812.458	4494
812.557	5945
812.657	6331
812.756	6149
812.855	4253
812.954	4378
813.053	4317
813.153	4433
813.252	3108
813.351	4570
813.450	4864
813.549	4149
813.648	4282
813.747	3391
813.846	4085
813.945	3528
814.044	4723
814.143	4465
814.242	4230
814.341	4212
814.439	5372
814.538	5019
814.637	5215
814.736	5293
814.835	5342
814.933	4960
815.032	6816
815.131	7092
815.229	10650
815.328	17043
815.427	12376
815.525	11074
815.624	11037
815.722	9860
815.821	12406
815.919	12344
816.018	11268
816.116	11349
816.215	11906
816.313	11005
816.412	13544
816.510	14160
816.609	14795
816.707	15688
816.805	14153
816.904	13846
817.002	13655
817.100	13758
817.198	14791
817.296	13697
817.395	13068
817.493	13626
817.591	12180
817.689	12531
817.787	13514
817.885	13991
817.983	12586
818.081	14354
818.179	16516
818.277	28910
818.375	25418
818.473	15412
818.571	12695
818.669	12427
818.767	13866
818.865	12319
818.963	11107
819.061	12896
819.158	13455
819.256	18208
819.354	22063
819.452	44223
819.549	31386
819.647	16686
819.745	11837
819.842	11430
819.940	11732
820.038	11426
820.135	10583
820.233	11847
820.330	10693
820.428	10727
820.525	12220
820.623	10249
820.720	10483
820.818	11292
820.915	12292
821.012	10281
821.110	9494
821.207	11045
821.304	9550
821.402	10988
821.499	11007
821.596	9729
821.693	8792
821.791	11206
821.888	8740
821.985	10777
822.082	9334
822.179	10108
822.276	10101
822.373	9296
822.470	8745
822.567	10369
822.664	8701
822.761	9893
822.858	9286
822.955	9775
823.052	8099
823.149	9315
823.246	10584
823.343	8028
823.440	7715
823.536	9501
823.633	9150
823.730	7354
823.827	9574
823.923	10080
824.020	7723
824.117	9002
824.213	8948
824.310	8547
824.407	6942
824.503	9749
824.600	8677
824.696	7275
824.793	10117
824.889	9099
824.986	8031
825.082	6657
825.179	6516
825.275	8442
825.371	10489
825.468	7626
825.564	4538
825.660	8614
825.757	10510
825.853	7960
825.949	6565
826.045	7123
826.142	7817
826.238	10179
826.334	8362
826.430	8081
826.526	5766
826.622	5512
826.718	8874
826.814	9766
826.910	8566
827.006	6333
827.102	4898
827.198	9675
827.294	9023
827.390	9246
827.486	6848
827.582	4833
827.678	5400
827.774	8836
827.869	5808
827.965	6929
828.061	5243
828.157	7196
828.252	8339
828.348	6733
828.444	6849
828.539	5749
828.635	7713
828.731	8037
828.826	5451
828.922	7435
829.017	7354
829.113	7642
829.208	4594
829.304	5178
829.399	8974
829.495	7817
829.590	6127
829.685	6155
829.781	7352
829.876	8103
829.971	4209
830.066	3932
830.162	4693
830.257	9563
830.352	7612
830.447	5779
830.543	4915
830.638	6805
830.733	8060
830.828	5017
830.923	6816
831.018	5847
831.113	6933
831.208	5846
831.303	4121
831.398	4737
831.493	5380
831.588	9166
831.683	6015
831.778	4466
831.873	4149
831.967	6629
832.062	6070
832.157	5745
832.252	6000
832.346	4835
832.441	6154
832.536	6217
832.631	6252
832.725	5456
832.820	4597
832.914	6075
833.009	4859
833.104	4800
833.198	3668
833.293	5733
833.387	6982
833.482	5241
833.576	5554
833.670	5644
833.765	4748
833.859	5077
833.954	5527
834.048	5481
834.142	5228
834.237	3745
834.331	4941
834.425	6252
834.519	4695
834.613	4824
834.708	4069
834.802	4653
834.896	5046
834.990	5372
835.084	4767
835.178	4182
835.272	4095
835.366	5913
835.460	6744
835.554	5188
835.648	3797
835.742	3455
835.836	4369
835.930	4244
836.024	5593
836.117	4868
836.211	4731
836.305	4403
836.399	4606
836.493	3883
836.586	5982
836.680	4634
836.774	4733
836.867	4917
836.961	3392
837.055	3526
837.148	4442
837.242	3997
837.335	4075
837.429	4793
837.522	3790
837.616	3958
837.709	4684
837.803	4196
837.896	4559
837.989	5622
838.083	4406
838.176	3284
838.269	3143
838.363	4189
838.456	3802
838.549	5469
838.642	4463
838.735	3901
838.829	4256
838.922	3912
839.015	4120
839.108	3564
839.201	3389
839.294	5006
839.387	4631
839.480	2716
839.573	3949
839.666	2968
839.759	3767
839.852	3479
839.945	5005
840.038	3629
840.131	2812
840.223	3218
840.316	4699
840.409	4822
840.502	4726
840.594	5107
840.687	2292
840.780	2610
840.873	2215
840.965	3656
841.058	3647
841.150	5727
841.243	2749
841.336	4207
841.428	3311
841.521	3904
841.613	3267
841.706	3558
841.798	2917
841.890	4159
841.983	2915
842.075	4177
842.167	2975
842.260	3502
842.352	4622
842.444	4323
842.537	3592
842.629	2869
842.721	3166
842.813	3861
842.905	3092
842.997	4005
843.090	3969
843.182	3361
843.274	2227
843.366	3941
843.458	4712
843.550	5226
843.642	4206
843.734	4610
843.826	2933
843.918	2751
844.009	3117
844.101	3475
844.193	2874
844.285	3636
844.377	3665
844.469	3721
844.560	2594
844.652	2676
844.744	3219
844.835	3900
844.927	2901
845.019	3764
845.110	3476
845.202	3204
845.293	3660
845.385	1641
845.476	2705
845.568	4416
845.659	2977
845.751	3691
845.842	2365
845.934	3240
846.025	2243
846.116	4041
846.208	3463
846.299	3034
846.390	3220
846.482	2764
846.573	4172
846.664	3798
846.755	2922
846.846	3921
846.937	1847
847.029	3032
847.120	2780
847.211	3602
847.302	4346
847.393	2938
847.484	3567
847.575	2491
847.666	1806
847.757	3043
847.847	2749
847.938	3788
848.029	3480
848.120	3121
848.211	2281
848.302	1680
848.392	2617
848.483	4030
848.574	2390
848.664	3139
848.755	2814
848.846	2792
848.936	2453
849.027	3801
849.118	3425
849.208	2434
849.299	3840
849.389	4197
849.480	5263
849.570	6452
849.661	10760
849.751	19419
849.841	9382
849.932	3027
850.022	2729
850.112	3141
850.203	3441
850.293	3265
850.383	2710
850.474	1942
850.564	2424
850.654	2397
850.744	1672
850.834	2453
850.924	3266
851.014	4046
851.104	2563
851.194	2782
851.284	2379
851.374	3029
851.464	1673
851.554	2621
851.644	2407
851.734	3519
851.824	4492
851.914	4282
852.004	6174
852.094	7294
852.183	3744
852.273	2877
852.363	2651
852.452	3040
852.542	2737
852.632	2680
852.721	2412
852.811	2116
852.901	3379
852.990	3043
853.080	3298
853.169	3379
853.259	2793
853.348	1867
853.438	2697
853.527	4013
853.617	2544
853.706	5891
853.795	7493
853.885	14554
853.974	24087
854.063	40181
854.152	58868
854.242	26942
854.331	7061
854.420	4545
854.509	3098
854.598	3788
854.687	3120
854.777	4020
854.866	2239
854.955	3188
855.044	2638
855.133	2949
855.222	2336
855.311	3120
855.400	2468
855.488	2541
855.577	2363
855.666	2697
855.755	2662
855.844	2227
855.933	3208
856.021	2987
856.110	1892
856.199	1854
856.288	2242
856.376	3028
856.465	2016
856.554	2680
856.642	2673
856.731	2723
856.819	1867
856.908	2481
856.996	2406
857.085	2601
857.173	2182
857.262	1841
857.350	1607
857.438	1952
857.527	2875
857.615	2234
857.703	3333
857.792	2113
857.880	2647
857.968	1718
858.056	2073
858.145	2787
858.233	2631
858.321	2003
858.409	2400
858.497	2843
858.585	1967
858.673	2762
858.761	1763
858.849	2155
858.937	1859
859.025	2307
859.113	2631
859.201	3028
859.289	2554
859.377	2469
859.465	1858
859.552	2650
859.640	1657
859.728	2573
859.816	2023
859.903	2810
859.991	1634
860.079	2907
860.166	2449
860.254	1993
860.342	3413
860.429	1629
860.517	1760
860.604	2145
860.692	2678
860.779	2139
860.867	1795
860.954	2675
861.042	3088
861.129	3146
861.216	2745
861.304	3097
861.391	3120
861.478	2705
861.565	2728
861.653	2854
861.740	1385
861.827	1938
861.914	2693
862.001	2265
862.089	2225
862.176	3448
862.263	2628
862.350	2743
862.437	2297
862.524	1945
862.611	2155
862.698	2374
862.785	2782
862.871	3568
862.958	2899
863.045	3562
863.132	2952
863.219	2846
863.306	2820
863.392	2901
863.479	2483
863.566	2531
863.652	2176
863.739	2823
863.826	3205
863.912	3833
863.999	2209
864.086	2812
864.172	2829
864.259	4261
864.345	3659
864.432	4542
864.518	2696
864.604	3192
864.691	3369
864.777	3452
864.863	4217
864.950	6161
865.036	7854
865.122	14096
865.209	15692
865.295	13472
865.381	12171
865.467	11582
865.553	11637
865.639	11313
865.726	12240
865.812	17108
865.898	21986
865.984	28474
866.070	39872
866.156	45007
866.242	21671
866.328	14462
866.414	12199
866.499	11320
866.585	10881
866.671	10613
866.757	10645
866.843	10747
866.928	10508
867.014	9680
867.100	11633
867.186	9999
867.271	9825
867.357	9737
867.442	8919
867.528	9117
867.614	9886
867.699	9974
867.785	9337
867.870	9997
867.956	10074
868.041	9950
868.127	9263
868.212	9905
868.297	9094
868.383	10410
868.468	9733
868.553	10621
868.639	9587
868.724	9947
868.809	9901
868.894	9812
868.979	9078
869.065	9870
869.150	7663
869.235	9399
869.320	8546
869.405	7735
869.490	8277
869.575	9696
869.660	7154
869.745	8988
869.830	9504
869.915	8076
870.000	7968
870.085	8180
870.169	9384
870.254	9436
870.339	6644
870.424	6340
870.509	9039
870.593	9739
870.678	9856
870.763	7822
870.847	7651
870.932	8294
871.016	9143
871.101	6940
871.186	6916
871.270	9939
871.355	6066
871.439	7971
871.523	9351
871.608	7082
871.692	6018
871.777	9425
871.861	9284
871.945	7913
872.030	7252
872.114	7913
872.198	6970
872.282	7273
872.367	7665
872.451	7208
872.535	6598
872.619	8032
872.703	6822
872.787	8205
872.871	7559
872.955	6014
873.039	4750
873.123	6619
873.207	8146
873.291	5750
873.375	5506
873.459	7967
873.543	7005
873.627	6657
873.711	5618
873.794	7302
873.878	7169
873.962	5870
874.045	5923
874.129	5942
874.137	5996
874.213	6539
874.245	6810
874.296	7256
874.352	5693
874.380	4931
874.460	6658
874.464	6729
874.547	6464
874.568	6372
874.631	6132
874.676	6097
874.714	6050
874.784	7315
874.798	7571
874.881	6678
874.892	6412
874.965	4610
874.999	4838
875.048	5139
875.107	6491
875.131	7038
875.215	4385
875.215	4385
875.298	4464
875.323	4767
875.381	5495
875.430	6601
875.465	7385
875.538	6789
875.548	6705
875.631	4202
875.646	4112
875.714	3714
875.753	4276
875.798	4883
875.861	5614
875.881	5853
875.964	5640
875.968	5548
876.047	3947
876.076	4379
876.130	5168
876.183	5172
876.213	5164
876.291	6265
876.296	6341
876.379	4955
876.398	4959
876.462	4867
876.506	4052
876.545	3419
876.613	3977
876.628	4063
876.711	4330
876.721	4448
876.794	5430
876.828	5097
876.877	4532
876.935	4119
876.960	4034
877.043	3123
877.043	3130
877.125	4365
877.150	4347
877.208	4385
877.258	4509
877.291	4524
877.365	3471
877.374	3342
877.456	4066
877.472	3913
877.539	3471
877.579	4113
877.622	4704
877.687	4791
877.704	4794
877.787	4140
877.794	4110
877.869	3920
877.901	4166
877.952	4484
878.008	3474
878.034	2986
878.115	3286
878.117	3291
878.199	3065
878.222	3295
878.282	3870
878.329	3948
878.364	4029
878.437	4664
878.447	4716
878.529	2648
878.544	2675
878.611	2962
878.651	2983
878.694	3169
878.758	4022
878.776	4181
878.858	4009
878.865	4001
878.941	3738
878.972	3395
879.023	2897
879.078	2939
879.105	3034
879.185	3487
879.187	3486
879.269	2839
879.292	2935
879.351	3349
879.399	3153
879.433	2922
879.506	2804
879.516	2798
879.598	2691
879.613	2654
879.680	2563
879.720	2922
879.762	3260
879.827	3071
879.844	2944
879.926	2319
879.933	2381
880.007	3410
880.040	3287
880.089	2872
880.147	2642
880.171	2615
880.253	3552
880.254	3553
880.335	2674
880.360	2911
880.417	3532
880.467	3282
880.499	3192
880.574	3598
880.580	3599
880.662	3275
880.680	3216
880.744	2686
880.787	2177
880.825	2063
880.893	2646
880.907	2679
880.989	1993
881.000	2049
881.070	2745
881.106	2922
881.152	2960
881.213	2311
881.233	2081
881.315	1887
881.319	1926
881.396	2750
881.426	2644
881.478	2455
881.532	2857
881.559	2958
881.639	2349
881.641	2329
881.722	2154
881.745	2043
881.803	1896
881.852	2143
881.885	2265
881.958	1574
881.966	1497
882.047	2151
882.064	2079
882.129	1736
882.171	1456
882.210	1162
882.277	1449
882.291	1551
882.372	1779
882.383	1869
882.454	2380
882.489	2478
882.535	2758
882.596	2927
882.616	2779
882.697	2370
882.702	2327
882.778	1838
882.808	1705
882.859	1358
882.914	1479
882.940	1623
883.020	1442
883.021	1435
883.102	1539
883.127	1731
883.183	2421
883.233	2448
883.264	2137
883.339	1625
883.345	1598
883.426	861
883.445	1021
883.507	1545
883.551	1397
883.587	1185
883.657	1176
883.668	1269
883.749	2165
883.763	2162
883.830	1830
883.869	1850
883.910	1576
883.975	1396
883.991	1453
884.072	1582
884.081	1636
884.152	1850
884.187	1921
884.233	2095
884.292	2219
884.314	2093
884.394	632
884.398	619
884.475	984
884.504	1013
884.555	1051
884.610	1445
884.636	1537
884.716	1620
884.716	1615
884.797	2192
884.821	1922
884.877	1314
884.927	1253
884.958	1282
885.033	1011
885.038	998
885.118	1048
885.139	1150
885.199	837
885.244	695
885.279	1015
885.350	1323
885.359	1327
885.439	1887
885.456	1830
885.520	1223
885.561	1012
885.600	870
885.667	755
885.680	776
885.760	1252
885.773	1228
885.840	938
885.878	1006
885.920	908
885.984	881
886.000	883
886.080	606
886.089	607
886.160	670
886.195	716
886.240	761
886.300	541
886.320	653
886.400	1444
886.406	1491
886.480	1099
886.511	999
886.560	1061
886.616	1206
886.640	983
886.720	-37
886.722	-48
886.800	791
886.827	1088
886.879	808
886.932	456
886.959	787
887.038	1869
887.039	1851
887.119	789
887.143	442
887.198	771
887.248	1061
887.278	951
887.354	901
887.358	888
887.437	546
887.459	515
887.517	832
887.564	1014
887.596	1056
887.669	1096
887.676	1057
887.755	748
887.774	694
887.835	782
887.880	875
887.914	912
887.985	874
887.994	825
888.073	756
888.090	681
888.153	1100
888.195	1317
888.232	739
888.300	-57
888.311	-54
888.391	-64
888.405	-33
888.470	391
888.510	586
888.549	684
888.615	1009
888.628	902
888.708	182
888.720	90
888.787	575
888.825	811
888.866	668
888.930	576
888.945	566
889.024	539
889.035	536
889.103	531
889.140	539
889.182	403
889.245	325
889.261	364
889.340	533
889.349	563
889.419	342
889.454	256
889.498	108
889.559	-65
889.577	46
889.656	600
889.664	667
889.735	332
889.768	183
889.814	286
889.873	439
889.978	149
890.083	-82
890.187	655
890.292	-23
890.397	597
890.501	382
890.606	544
890.710	646
890.815	722
890.919	-240
891.024	10
891.128	281
891.233	930
891.337	-388
891.442	727
891.546	-19
891.650	-72
891.755	-350
891.859	690
891.963	-852
892.068	656
892.172	300
892.276	666
892.380	649
892.484	118
892.589	-233
892.693	929
892.797	-212
892.901	-111
893.005	54
893.109	298
893.213	287
893.317	454
893.421	-352
893.525	-656
893.629	-295
893.733	498
893.837	202
893.941	-30
894.045	756
894.148	-751
894.252	-155
894.356	484
894.460	971
894.564	74
894.667	86
894.771	952
894.875	-48
894.978	622
895.082	15
895.186	1354
895.289	914
895.393	1424
895.496	-647
895.600	-714
895.703	69
895.807	-279
895.910	668
896.014	202
896.117	-393
896.221	-99
896.324	137
896.427	691
896.531	-216
896.634	618
896.737	427
896.840	905
896.944	101
897.047	747
897.150	-243
897.253	458
897.356	412
897.460	112
897.563	-175
897.666	361
897.769	364
897.872	242
897.975	106
898.078	-214
898.181	195
898.284	-285
898.387	607
898.490	559
898.593	308
898.695	-40
898.798	194
898.901	449
899.004	131
899.107	-73
899.209	-280
899.312	716
899.415	-185
899.518	-245
899.620	-118
899.723	135
899.826	424
899.928	681
900.031	-943
900.133	105
900.236	338
900.338	362
900.441	-110
900.543	241
900.646	-598
900.748	364
900.851	-248
900.953	-179
901.055	-298
901.158	19
901.260	168
901.362	239
901.465	-696
901.567	-547
901.669	313
901.771	-299
901.873	-189
901.976	74
902.078	62
902.180	1013
902.282	-587
902.384	345
902.486	-98
902.588	785
902.690	-164
902.792	-711
902.894	-9
902.996	-84
903.098	582
903.200	-219
903.302	-223
903.404	-271
903.505	-328
903.607	-207
903.709	14
903.811	137
903.913	5
904.014	119
904.116	-809
904.218	-169
904.319	-54
904.421	602
904.523	-124
904.624	-79
904.726	-264
904.827	-542
904.929	-580
905.030	-541
905.132	-669
905.233	626
905.335	-384
905.436	-614
905.537	-364
905.639	-155
905.740	-538
905.841	1358
905.943	-34
906.044	549
906.145	-551
906.247	427
906.348	-279
906.449	118
906.550	-62
906.651	129
906.752	-746
906.854	449
906.955	-609
907.056	-696
907.157	-320
907.258	-125
907.359	386
907.460	-106
907.561	-650
907.662	75
907.762	-399
907.863	-343
907.964	299
908.065	612
908.166	-250
908.267	-145
908.367	-804
908.468	-363
908.569	-11
908.670	397
908.770	-354
908.871	172
908.971	-609
909.072	153
909.173	163
909.273	-234
909.374	-32
909.474	-206
909.575	-21
909.675	212
909.776	376
909.876	-167
909.977	-436
910.077	-59
910.177	529
910.278	-289
910.378	-722
910.478	-476
910.579	-713
910.679	249
910.779	143
910.879	383
910.980	-1026
911.080	95
911.180	27
911.280	-353
911.380	-558
911.480	-123
911.580	-716
911.680	-29
911.780	-138
911.880	458
911.980	1
912.080	-642
912.180	-455
912.280	269
912.380	57
912.480	-593
912.580	444
912.679	-281
912.779	-43
912.879	-1011
912.979	-70
913.078	-154
913.178	-690
913.278	-646
913.377	227
913.477	-355
913.577	268
913.676	-102
913.776	-702
913.875	63
913.975	-606
914.074	212
914.174	-1115
914.273	-470
914.373	180
914.472	-84
914.572	-8
914.671	-320
914.770	-784
914.870	-88
914.969	-289
915.068	-29
915.167	-22
915.267	-289
915.366	-1100
915.465	-360
915.564	-986
915.663	33
915.763	-457
915.862	673
915.961	370
916.060	357
916.159	-603
916.258	-730
916.357	-49
916.456	534
916.555	-197
916.654	-277
916.752	-841
916.851	-532
916.950	73
917.049	-2
917.148	-284
917.247	-461
917.345	-265
917.444	-416
917.543	-1004
917.642	-190
917.740	-1094
917.839	-221
917.937	-324
918.036	665
918.135	-810
918.233	-62
918.332	-229
918.430	-26
918.529	-73
918.627	-271
918.726	-880
918.824	84
918.923	-1138
919.021	193
919.119	-615
919.218	-943
919.316	-1167
919.414	574
919.512	-388
919.611	-174
919.709	358
919.807	299
919.905	-37
920.003	-537
920.102	-707
920.200	-769
920.298	-892
920.396	-260
920.494	49
920.592	-630
920.690	54
920.788	-678
920.886	-1065
920.984	-361
921.082	-574
921.180	9
921.277	448
921.375	-365
921.473	-7
921.571	403
921.669	-94
921.766	-665
921.864	-255
921.962	333
922.060	-294
922.157	569
922.255	-641
922.352	-52
922.450	158
922.548	871
922.645	173
922.743	1074
922.840	1181
922.938	2749
923.035	762
923.133	1437
923.230	211
923.327	2492
923.425	1600
923.522	2015
923.619	1383
923.717	751
923.814	356
923.911	1616
924.008	2249
924.106	1219
924.203	660
924.300	1478
924.397	409
924.494	1678
924.591	1070
924.688	1380
924.786	1056
924.883	1292
924.979	965
925.077	968
925.173	1525
925.270	212
925.367	703
925.464	2402
925.561	932
925.658	2056
925.755	860
925.852	1279
925.948	2128
926.045	1781
926.142	1321
926.239	1189
926.335	651
926.432	1249
926.529	967
926.625	1730
926.722	399
926.818	1079
926.915	1451
927.011	884
927.108	754
927.204	886
927.301	802
927.397	1027
927.494	1354
927.590	1737
927.687	845
927.783	1599
927.879	763
927.976	1193
928.072	-527
928.168	1097
928.264	1003
928.361	1179
928.457	1073
928.553	1354
928.649	535
928.745	1583
928.841	1087
928.937	1132
929.033	628
929.129	851
929.225	612
929.321	285
929.417	-195
929.513	511
929.609	477
929.705	-683
929.801	1235
929.897	509
929.993	-295
930.089	1426
930.184	587
930.280	1656
930.376	1527
930.471	820
930.567	533
930.663	415
930.758	101
930.854	912
930.950	966
931.045	443
931.141	168
931.236	1076
931.332	707
931.427	911
931.523	769
931.618	1523
931.714	-303
931.809	382
931.905	297
932.000	258
932.095	-909
932.191	1277
932.286	-155
932.381	591
932.476	-428
932.572	389
932.667	18
932.762	102
932.857	398
932.952	917
933.047	988
933.142	712
933.237	-491
933.332	368
933.427	105
933.522	637
933.617	-466
933.712	110
933.807	271
933.902	611
933.997	1449
934.092	209
934.187	-100
934.282	670
934.376	248
934.471	752
934.566	4
934.661	110
934.755	410
934.850	968
934.945	-408
935.039	507
935.134	51
935.228	216
935.323	379
935.417	844
935.512	-296
935.606	-492
935.701	95
935.795	1671
935.890	423
935.984	617
936.079	-306
936.173	608
936.267	-806
936.362	-111
936.456	-514
936.550	1472
936.644	301
936.738	138
936.833	377
936.927	-390
937.021	673
937.115	343
937.209	-556
937.303	992
937.397	-317
937.491	-83
937.585	-275
937.679	259
937.773	-1038
937.867	-589
937.961	-466
938.055	-192
938.149	164
938.243	259
938.337	-1062
938.430	589
938.524	273
938.618	654
938.712	-295
938.805	-198
938.899	-24
938.993	1207
939.086	-714
939.180	-618
939.274	399
939.367	361
939.461	71
939.554	-183
939.648	-138
939.741	248
939.835	-288
939.928	656
940.022	-68
940.115	238
940.208	534
940.302	797
940.395	97
940.488	-355
940.582	59
940.675	-462
940.768	-437
940.861	-505
940.954	-125
941.048	-166
941.141	-759
941.234	-98
941.327	-205
941.420	-79
941.513	-216
941.606	-202
941.699	1208
941.792	-99
941.885	-312
941.978	-212
942.071	-401
942.164	-594
942.257	-791
942.349	-647
942.442	-708
942.535	-615
942.628	-769
942.721	893
942.813	-285
942.906	62
942.999	-474
943.091	-753
943.184	-655
943.277	-517
943.369	12
943.462	-28
943.554	-229
943.647	-603
943.739	162
943.832	631
943.924	-1919
944.017	-1180
944.109	-473
944.201	-434
944.294	-478
944.386	670
944.478	-409
944.571	-872
944.663	-775
944.755	-13
944.847	-301
944.940	603
945.032	-1630
945.124	-148
945.216	-142
945.308	-423
945.400	-76
945.492	-323
945.584	-681
945.676	-225
945.768	-423
945.860	96
945.952	-793
946.044	-64
946.136	-441
946.228	-843
946.320	-837
946.412	-655
946.503	-642
946.595	88
946.687	-748
946.779	-1232
946.870	-704
946.962	-206
947.054	-760
947.145	995
947.237	-1028
947.329	-663
947.420	-597
947.512	-733
947.603	-1051
947.695	-229
947.786	-927
947.878	-1015
947.969	-137
948.061	-821
948.152	-212
948.243	-516
948.335	-1600
948.426	46
948.517	-504
948.609	193
948.700	-1148
948.791	-232
948.882	-549
948.973	184
949.065	-597
949.156	-241
949.247	-851
949.338	-81
949.429	-531
949.520	441
949.611	-1283
949.702	-262
949.793	-827
949.884	-540
949.975	-855
950.066	-822
950.157	-1566
950.247	-201
950.338	-1722
950.429	-690
950.520	451
950.611	-465
950.701	-803
950.792	-244
950.883	-975
950.973	-142
951.064	-212
951.155	-888
951.245	-362
951.336	-90
951.427	-295
951.517	548
951.608	-1545
951.698	-501
951.788	-1047
951.879	-453
951.969	-1458
952.060	-321
952.150	-693
952.240	-96
952.331	-1501
952.421	-314
952.511	-1363
952.602	-241
952.692	-1114
952.782	-675
952.872	-399
952.962	-31
953.052	-1197
953.143	-875
953.233	-31
953.323	274
953.413	-1076
953.503	-320
953.593	-1170
953.683	-432
953.773	-1196
953.863	-400
953.953	-592
954.042	-780
954.132	-1051
954.222	106
954.312	-1471
954.402	-1151
954.492	-1170
954.581	542
954.671	-599
954.761	-1356
954.850	425
954.940	-1181
955.030	-871
955.119	-942
955.209	-57
955.298	-1217
955.388	-612
955.477	-223
955.567	-757
955.656	-266
955.746	-287
955.835	-290
955.925	-1569
956.014	-528
956.103	-948
956.193	-850
956.282	202
956.371	-702
956.461	-649
956.550	-201
956.639	-655
956.728	-1424
956.817	-286
956.906	-1334
956.995	-204
957.085	-437
957.174	-435
957.263	-722
957.352	-255
957.441	-250
957.530	-599
957.619	-944
957.708	-1197
957.796	-817
957.885	-1244
957.974	-475
958.063	-621
958.152	-859
958.241	-627
958.329	-1132
958.418	-1456
958.507	-1307
958.596	-226
958.684	-1233
958.773	-800
958.861	-757
958.950	-499
959.039	-1041
959.127	-820
959.216	-148
959.304	-1117
959.393	-853
959.481	-460
959.570	-783
959.658	-1092
959.746	-734
959.835	-599
959.923	-1070
960.011	-1251
960.100	-159
960.188	-801
960.276	-1041
960.365	-514
960.453	-368
960.541	-973
960.629	-397
960.717	-720
960.805	-883
960.893	-413
960.981	-1193
961.069	-596
961.158	-171
961.245	77
961.333	-455
961.421	-1075
961.509	-474
961.597	-968
961.685	-510
961.773	-1149
961.861	-694
961.949	-66
962.036	-1264
962.124	-1284
962.212	-668
962.299	-966
962.387	-1109
962.475	-689
962.562	-1423
962.650	-1163
962.738	-406
962.825	-1317
962.913	-11
963.000	-1588
963.088	-320
963.175	-755
963.263	-1025
963.350	-1125
963.438	-41
963.525	-660
963.612	-759
963.700	-1658
963.787	36
963.874	-851
963.962	-329
964.049	-847
964.136	-466
964.223	-1357
964.310	-51
964.398	-1028
964.485	75
964.572	-1483
964.659	-1139
964.746	-557
964.833	-504
964.920	-1371
965.007	-901
965.094	-847
965.181	-1427
965.268	-680
965.355	-842
965.441	-1046
965.528	-1652
965.615	-568
965.702	-1210
965.789	-1569
965.875	-1149
965.962	-1360
966.049	-773
966.136	-943
966.222	-554
966.309	-653
966.395	-564
966.482	-693
966.569	-949
966.655	-1431
966.742	-1161
966.828	-437
966.915	-594
967.001	-660
967.087	-1552
967.174	-1656
967.260	217
967.347	-1248
967.433	-1348
967.519	-91
967.605	-1438
967.692	-1486
967.778	-497
967.864	-1211
967.950	-990
968.036	-1651
968.123	-148
968.209	-1021
968.295	-645
968.381	-736
968.467	-358
968.553	-1998
968.639	-772
968.725	-1307
968.811	-861
968.897	-376
968.983	-699
969.069	-1465
969.154	-1109
969.240	-483
969.326	-1572
969.412	-1655
969.497	-656
969.583	-1241
969.669	-230
969.755	-302
969.840	-942
969.926	177
970.012	-389
970.097	334
970.183	-970
970.268	-967
970.354	-371
970.439	-1960
970.525	-118
970.610	-1624
970.696	-849
970.781	-439
970.866	-1102
970.952	-319
971.037	-575
971.122	-1037
971.208	-1381
971.293	-431
971.378	-1515
971.463	-1166
971.549	-229
971.634	-1145
971.719	-1039
971.804	-1264
971.889	-345
971.974	-1997
972.059	-627
972.144	-1577
972.229	-1177
972.314	-1247
972.399	-357
972.484	-1664
972.569	-771
972.654	-972
972.739	-80
972.824	-945
972.908	-1200
972.993	-1170
973.078	-98
973.163	-1299
973.247	-688
973.332	-1940
973.417	298
973.501	-1907
973.586	-1089
973.671	-806
973.755	-892
973.840	-993
973.924	-667
974.009	-779
974.093	-1712
974.178	-231
974.262	6
974.346	-684
974.431	-1188
974.515	-1664
974.600	-1512
974.684	-1033
974.768	-758
974.852	-511
974.937	-1833
975.021	-272
975.105	-908
975.189	-1115
975.273	-211
975.358	-1932
975.442	-1301
975.526	-433
975.610	-891
975.694	-2191
975.778	-39
975.862	-46
975.946	-2063
976.030	-549
976.114	-819
976.198	-671
976.281	-1469
976.365	-1049
976.449	-106
976.533	-1234
976.617	-1020
976.700	-658
976.784	-394
976.868	-1417
976.951	-331
977.035	-1251
977.119	-1399
977.202	-1557
977.286	-348
977.369	-899
977.453	171
977.536	-937
977.620	-852
977.703	238
977.787	-756
977.870	-461
977.953	-687
978.037	-1411
978.120	-328
978.203	-981
978.287	-545
978.370	-1370
978.453	-1063
978.536	-1163
978.620	-412
978.703	-1040
978.786	-867
978.869	-1120
978.952	-1744
979.035	-1325
979.118	-449
979.201	-1223
979.284	-816
979.367	-1444
979.450	-985
979.533	-1604
979.616	-691
979.699	-1454
979.782	-445
979.865	-1096
979.948	-859
980.030	-1697
980.113	-1382
980.196	-1411
980.279	-788
980.361	-1061
980.444	-350
980.526	-672
980.609	-1174
980.692	-1347
980.774	-40
980.857	-1257
980.939	3
981.022	-1530
981.104	-991
981.187	-1536
981.269	-994
981.352	-545
981.434	-957
981.516	-1200
981.599	335
981.681	-736
981.763	-655
981.846	-1439
981.928	-1550
982.010	-1079
982.092	-975
982.174	-32
982.256	-977
982.339	-849
982.421	-513
982.503	-676
982.585	-1512
982.667	-1352
982.749	-524
982.831	-1589
982.913	-1306
982.995	-398
983.077	-1670
983.158	-9
983.240	-1931
983.322	-545
983.404	-232
983.486	24
983.568	-253
983.649	-503
983.731	-316
983.813	-1949
983.894	-592
983.976	-919
984.058	-1130
984.139	-645
984.221	-1509
984.302	-716
984.384	-543
984.465	-744
984.547	-1324
984.628	-854
984.710	212
984.791	-1713
984.872	3
984.954	-1244
985.035	-669
985.116	-1362
985.198	-1659
985.279	154
985.360	-1190
985.441	-1244
985.522	-720
985.604	-217
985.685	-2427
985.766	516
985.847	-117
985.928	-1038
986.009	-370
986.090	-2237
986.171	-300
986.252	-1986
986.333	-296
986.414	-1086
986.495	-340
986.576	-1408
986.656	-273
986.737	-401
986.818	-1072
986.899	-1230
986.980	-749
987.060	-404
987.141	-176
987.222	-1048
987.302	18
987.383	-804
987.464	-1271
987.544	-487
987.625	-786
987.705	-322
987.786	420
987.866	-835
987.947	-1084
988.027	-907
988.108	-821
988.188	-265
988.268	-600
988.349	-1235
988.429	-891
988.509	-338
988.589	-904
988.670	-2580
988.750	680
988.830	-885
988.910	-182
988.990	-566
989.070	-934
989.151	-991
989.231	-1703
989.311	-676
989.391	-888
989.471	-1282
989.551	-1659
989.631	-1398
989.711	240
989.791	-2156
989.870	-796
989.950	-842
990.030	-499
990.110	-1103
990.190	-1236
990.269	-1367
990.349	-753
990.429	-86
990.509	-474
990.588	-1936
990.668	-332
990.747	-691
990.827	-283
990.907	-452
990.986	-1839
991.066	-199
991.145	-407
991.225	-946
991.304	-673
991.383	-1793
991.463	-1570
991.542	-544
991.622	-934
991.701	-1489
991.780	-1237
991.859	-974
991.939	-1600
992.018	-549
992.097	-694
992.176	-643
992.256	-1479
992.335	-1778
992.414	-586
992.493	-2038
992.572	-383
992.651	-947
992.730	-460
992.809	-1051
992.888	-1501
992.967	-1860
993.046	-350
993.125	-1327
993.203	-1126
993.282	-1432
993.361	-1125
993.440	-938
993.519	-2491
993.597	-271
993.676	-1251
993.755	-343
993.834	-384
993.912	-1808
993.991	162
994.069	-2133
994.148	-1267
994.226	-1712
994.305	-1403
994.384	-1716
994.462	106
994.540	-2709
994.619	-1376
994.697	-1677
994.776	-2107
994.854	-91
994.932	-1720
995.011	-845
995.089	-1322
995.167	-563
995.245	-855
995.324	-1835
995.402	-943
995.480	-1793
995.558	-1099
995.636	-1868
995.714	-1251
995.792	-892
995.870	-2207
995.948	-1339
996.026	-1670
996.104	-2652
996.182	-418
996.260	-1643
996.338	-820
996.416	-1952
996.494	-2104
996.572	-894
996.649	-1233
996.727	-1585
996.805	-995
996.883	-1362
996.960	-1672
997.038	-1262
997.116	-854
997.193	-1949
997.271	-1162
997.348	-2250
997.426	-1300
997.504	-1492
997.581	-1289
997.658	-981
997.736	-2114
997.813	-2386
997.891	-665
997.968	-1782
998.046	-762
998.123	-1421
998.200	-1305
998.277	-2021
998.355	-315
998.432	-1442
998.509	-1733
998.586	-1228
998.663	-1163
998.741	-1358
998.818	-1442
998.895	-1936
998.972	-1198
999.049	-1333
999.126	-1627
999.203	-715
999.280	-1267
999.357	-2144
999.434	-1786
999.511	-1652
999.587	-1410
999.664	-1439
999.741	-1232
999.818	-1703
999.895	-1415
999.971	-2472
1000.048	-1470
1000.125	-540
1000.202	-1554
1000.278	-1858
1000.355	-1633
1000.431	-1228
1000.508	-1894
1000.584	-988
1000.661	-1076
1000.738	-2148
1000.814	-883
1000.890	-1852
1000.967	-2278
1001.043	-1124
1001.120	-2317
1001.196	-1374
1001.272	-2008
1001.349	-1970
1001.425	-854
1001.501	-2228
1001.577	-2128
1001.654	-1143
1001.730	-1829
1001.806	-2518
1001.882	-2504
1001.958	-1179
1002.034	-869
1002.110	-1735
1002.186	-2054
1002.262	-1814
1002.338	-1968
1002.414	-1513
1002.490	-559
1002.566	-1897
1002.642	-2154
1002.718	-1390
1002.794	-2901
1002.870	-2397
1002.945	-1054
1003.021	-1724
1003.097	-2472
1003.173	-1233
1003.248	-2478
1003.324	-2476
1003.400	-977
1003.475	-2831
1003.551	-1491
1003.626	-1645
1003.702	-2063
1003.777	-2056
1003.853	-2123
1003.928	-2210
1004.004	-1351
1004.079	-1296
1004.155	-1511
1004.230	-3318
1004.305	-555
1004.381	-2682
1004.456	-2378
1004.531	-1414
1004.607	-916
1004.682	-2002
1004.757	-1823
1004.832	-2804
1004.907	-1676
1004.982	-2043
1005.057	-1274
1005.133	-2464
1005.208	-1555
1005.283	-1935
1005.358	-1162
1005.433	-1928
1005.508	-1352
1005.583	-2644
1005.657	-885
1005.732	-1266
1005.807	-2069
1005.882	-2174
1005.957	-2941
1006.032	-1350
1006.106	-1268
1006.181	-2566
1006.256	-1124
1006.331	-2309
1006.405	-2347
1006.480	-2605
1006.554	-2280
1006.629	-1597
1006.704	-1856
1006.778	-1903
1006.853	-1010
1006.927	-1970
1007.002	-1480
1007.076	-1296
1007.150	-2309
1007.225	-1577
1007.299	-1983
1007.373	-1651
1007.448	-1869
1007.522	-1104
1007.596	-1965
1007.671	-1660
1007.745	-1594
1007.819	-3132
1007.893	-1218
1007.967	-1894
1008.041	-2033
1008.115	-1496
1008.190	-1683
1008.264	-1729
1008.338	-3087
1008.412	-2190
1008.486	-2397
1008.560	-2331
1008.633	-2395
1008.707	-1965
1008.781	-1739
1008.855	-1642
1008.929	-2405
1009.003	-2553
1009.076	-2050
1009.150	-1742
1009.224	-1442
1009.298	-2592
1009.371	-3034
1009.445	-1468
1009.519	-1628
1009.592	-3193
1009.666	-2113
1009.739	-1941
1009.813	-1819
1009.886	-1499
1009.960	-2677
1010.033	-1808
1010.107	-1598
1010.180	-3303
1010.253	-1747
1010.327	-2119
1010.400	-2132
1010.473	-2452
1010.547	-1650
1010.620	-2137
1010.693	-1606
1010.766	-3140
1010.840	-2173
1010.913	-2195
1010.986	-2204
1011.059	-1705
1011.132	-2728
1011.205	-2098
1011.278	-2217
1011.351	-2276
1011.424	-1506
1011.497	-2385
1011.570	-1540
1011.643	-2288
1011.716	-2757
1011.789	-3019
1011.862	-1757
1011.934	-1694
1012.007	-2967
1012.080	-2432
1012.153	-2257
1012.225	-2126
1012.298	-1896
1012.371	-3443
1012.443	-1904
1012.516	-2670
1012.588	-1046
1012.661	-2013
1012.733	-2497
1012.806	-1451
1012.879	-1982
1012.951	-2481
1013.023	-1932
1013.096	-1917
1013.168	-2234
1013.241	-1789
1013.313	-2318
1013.385	-2046
1013.458	-2359
1013.530	-2458
1013.602	-2572
1013.674	-2170
1013.746	-1827
1013.819	-2154
1013.891	-1358
1013.963	-2713
1014.035	-1486
1014.107	-2079
1014.179	-1155
1014.251	-2290
1014.323	-1327
1014.395	-2588
1014.467	-1809
1014.539	-2267
1014.611	-2477
1014.683	-1604
1014.754	-1665
1014.826	-2352
1014.898	-1707
1014.970	-2499
1015.042	-1278
1015.113	-1661
1015.185	-2226
1015.257	-3142
1015.328	-1377
1015.400	-2163
1015.471	-2208
1015.543	-2819
1015.615	-1296
1015.686	-2374
1015.757	-2896
1015.829	-1735
1015.901	-1812
1015.972	-2248
1016.043	-1737
1016.115	-2591
1016.186	-1559
1016.257	-1936
1016.328	-1600
1016.400	-1776
1016.471	-1837
1016.542	-2447
1016.613	-1312
1016.685	-1927
1016.756	-1593
1016.827	-2517
1016.898	-2518
1016.969	-1928
1017.040	-1886
1017.111	-2985
1017.182	-2039
1017.253	-1655
1017.324	-2487
1017.395	-2888
1017.466	-904
1017.537	-1545
1017.608	-1196
1017.678	-1610
1017.749	-2039
1017.820	-2054
1017.891	-2931
1017.961	-2600
1018.032	-2207
1018.103	-2674
1018.173	-2198
1018.244	-2145
1018.315	-1256
1018.385	-2010
1018.456	-969
1018.526	-2512
1018.597	-2531
1018.667	-2434
1018.738	-1715
1018.808	-1310
1018.878	-2132
1018.949	-2010
1019.019	-1977
1019.089	-2475
1019.160	-1878
1019.230	-2613
1019.300	-1342
1019.371	-2527
1019.441	-1217
1019.511	-1850
1019.581	-2135
1019.651	-1782
1019.721	-2400
1019.791	-1709
1019.861	-1860
1019.931	-1799
1020.001	-2224
1020.071	-2123
1020.141	-1585
1020.211	-2676
1020.281	-2081
1020.351	-1902
1020.421	-1406
1020.491	-1930
1020.560	-2083
1020.630	-2044
1020.700	-1852
1020.770	-2519
1020.839	-2337
1020.909	-2394
1020.979	-2110
1021.048	-1869
1021.118	-1620
1021.187	-1816
1021.257	-2272
1021.326	-2047
1021.396	-2516
1021.465	-2488
1021.535	-1923
1021.604	-2496
1021.674	-2376
1021.743	-2197
1021.812	-1618
1021.882	-1988
1021.951	-1390
1022.020	-3010
1022.089	-1115
1022.159	-2373
1022.228	-2108
1022.297	-2345
1022.366	-2093
1022.435	-1885
1022.504	-1709
1022.573	-2803
1022.642	-1818
1022.711	-2409
1022.781	-1759
1022.849	-2094
1022.918	-2156
1022.987	-2337
1023.056	-2790
1023.125	-1675
1023.194	-1904
1023.263	-2025
1023.331	-2414
1023.400	-2625
1023.469	-2935
1023.538	-891
1023.606	-2161
1023.675	-2624
1023.744	-2198
1023.812	-2279
1023.881	-1654
1023.949	-2388
1024.018	-2092
1024.086	-2183
1024.155	-1423
1024.223	-1417
1024.292	-1634
1024.360	-1333
1024.429	-1785
1024.497	-2095
1024.565	-2434
1024.634	-2562
1024.702	-1905
1024.770	-1720
1024.838	-2015
1024.907	-2672
1024.975	-2544
1025.043	-2466
1025.111	-2182
1025.179	-1466
1025.247	-1945
1025.315	-1993
1025.383	-2306
1025.451	-2191
1025.519	-2287
1025.587	-1704
1025.655	-2987
1025.723	-1670
1025.791	-2157
1025.859	-2321
1025.927	-1648
1025.995	-2396
1026.062	-1733
1026.130	-1884
1026.198	-2362
1026.266	-1755
1026.333	-1159
1026.401	-1776
1026.469	-2050
1026.536	-2260
1026.604	-2958
1026.671	-2397
1026.739	-2283
1026.806	-2020
1026.874	-1728
1026.941	-2785
1027.009	-2296
1027.076	-2723
1027.144	-1764
1027.211	-2398
1027.278	-2167
1027.345	-2455
1027.413	-1978
1027.480	-2516
1027.547	-1910
1027.614	-2527
1027.682	-1960
1027.749	-2015
1027.816	-2633
1027.883	-2291
1027.950	-2131
1028.017	-2860
1028.084	-1962
1028.151	-2602
1028.218	-2225
1028.285	-2397
1028.352	-2831
1028.419	-2611
1028.486	-2520
1028.553	-2152
1028.619	-2401
1028.686	-2539
1028.753	-2244
1028.820	-2532
1028.886	-2482
1028.953	-2142
1029.020	-2595
1029.086	-1862
1029.153	-2112
1029.220	-1612
1029.286	-2120
1029.353	-2284
1029.419	-1648
1029.486	-1866
1029.552	-1729
1029.619	-2250
1029.685	-1899
1029.751	-2746
1029.818	-2267
1029.884	-1993
1029.951	-879
1030.017	-2242
1030.083	-1540
1030.149	-2342
1030.216	-2950
1030.282	-2466
1030.348	-1913
1030.414	-2053
1030.480	-2759
1030.546	-2563
1030.612	-1410
1030.678	-2514
1030.744	-1802
1030.810	-2831
1030.876	-2018
1030.942	-2063
1031.008	-2311
1031.074	-1989
1031.140	-2465
1031.206	-1306
1031.272	-2871
1031.337	-2309
1031.403	-1785
1031.469	-2876
1031.534	-1983
1031.600	-1788
1031.666	-2120
1031.731	-2339
1031.797	-1557
1031.863	-2442
1031.928	-2575
1031.994	-2135
1032.059	-1843
1032.125	-1828
1032.190	-2087
1032.256	-2470
1032.321	-1724
1032.386	-2480
1032.452	-1288
1032.517	-2832
1032.582	-1966
1032.647	-2130
1032.713	-2344
1032.778	-1609
1032.843	-2635
1032.908	-1778
1032.974	-2428
1033.039	-2042
1033.104	-1482
1033.169	-2367
1033.234	-2057
1033.299	-2711
1033.364	-1536
1033.429	-2209
1033.494	-2541
1033.559	-2444
1033.624	-1368
1033.688	-1096
1033.753	-1810
1033.818	-2066
1033.883	-1660
1033.948	-2009
1034.013	-2026
1034.077	-1315
1034.142	-1334
1034.207	-1876
1034.271	-649
1034.336	-403
1034.400	-853
1034.465	-1392
1034.530	-1948
1034.594	-2756
1034.658	-1665
1034.723	-2068
1034.787	-1305
1034.852	-2673
1034.916	-1584
1034.981	-2833
1035.045	-2007
1035.109	-3576
1035.173	-1354
1035.238	-1497
1035.302	-2528
1035.366	-1756
1035.430	-2686
1035.495	-1904
1035.559	-2159
1035.623	-2499
1035.687	-2632
1035.751	-2268
1035.815	-2127
1035.879	-1774
1035.943	-2293
1036.007	-2716
1036.071	-2151
1036.135	-2181
1036.198	-2299
1036.262	-3223
1036.326	-1394
1036.390	-1945
1036.454	-2152
1036.517	-1809
1036.581	-2277
1036.645	-1865
1036.709	-1908
1036.772	-2313
1036.836	-1429
1036.900	-1553
1036.963	-2511
1037.026	-2534
1037.090	-2368
1037.154	-1960
1037.217	-2080
1037.280	-2525
1037.344	-2663
1037.407	-2548
1037.471	-3283
1037.534	-3423
1037.597	-2487
1037.661	-2895
1037.724	-1507
1037.787	-2963
1037.850	-2421
1037.913	-1630
1037.977	-1690
1038.040	-1978
1038.103	-2847
1038.166	-2299
1038.229	-1852
1038.292	-3372
1038.355	-1664
1038.418	-1726
1038.481	-2127
1038.544	-2240
1038.607	-2662
1038.670	-1798
1038.732	-1469
1038.795	-2357
1038.858	-2644
1038.921	-2323
1038.984	-1487
1039.046	-2729
1039.109	-2298
1039.172	-2237
1039.234	-1996
1039.297	-2970
1039.360	-2197
1039.422	-3086
1039.485	-2523
1039.547	-3150
1039.610	-2336
1039.672	-2182
1039.734	-1621
1039.797	-2133
1039.859	-1735
1039.922	-2101
1039.984	-2266
1040.046	-2762
1040.109	-1907
1040.171	-2988
1040.233	-1856
1040.295	-1671
1040.358	-2256
1040.420	-2324
1040.482	-2593
1040.544	-2083
1040.606	-2319
1040.668	-2277
1040.730	-2558
1040.792	-2549
1040.854	-1571
1040.916	-2028
1040.978	-2098
1041.040	-1692
1041.102	-2093
1041.164	-2158
1041.225	-2505
1041.287	-2857
1041.349	-2307
1041.411	-2554
1041.472	-2010
1041.534	-2595
1041.596	-2608
1041.657	-2247
1041.719	-2372
1041.781	-2491
1041.842	-2156
1041.904	-2256
1041.965	-2393
1042.027	-1991
1042.088	-2889
1042.150	-2173
1042.211	-2536
1042.272	-1847
1042.334	-2503
1042.395	-1594
1042.456	-1593
1042.518	-3131
1042.579	-2215
1042.640	-2735
1042.701	-2493
1042.763	-2710
1042.824	-2415
1042.885	-3483
1042.946	-1848
1043.007	-1886
1043.068	-2715
1043.129	-2396
1043.190	-2267
1043.251	-2605
1043.312	-2702
1043.373	-1540
1043.434	-2637
1043.495	-2753
1043.556	-2375
1043.616	-2611
1043.677	-2176
1043.738	-2691
1043.799	-2360
1043.859	-2157
1043.920	-2263
1043.981	-2167
1044.041	-2170
1044.102	-3332
1044.162	-1712
1044.223	-2937
1044.284	-2068
1044.344	-2138
1044.405	-2282
1044.465	-2163
1044.525	-3155
1044.586	-1989
1044.646	-1520
1044.707	-1784
1044.767	-2034
1044.827	-3064
1044.887	-1295
1044.948	-2037
1045.008	-2483
1045.068	-2315
1045.128	-2007
1045.188	-2732
1045.249	-962
1045.309	-2338
1045.369	-2043
1045.429	-2252
1045.489	-2127
1045.549	-2778
1045.609	-2060
1045.669	-2217
1045.729	-1603
1045.789	-1836
1045.848	-1689
1045.908	-2140
1045.968	-2165
1046.028	-2192
1046.088	-1957
1046.147	-2559
1046.207	-1791
1046.267	-1720
1046.326	-2463
1046.386	-1957
1046.446	-1448
1046.505	-1326
1046.565	-1089
1046.624	-1672
1046.684	-895
1046.743	-667
1046.803	-915
1046.862	-1312
1046.922	0
