'Start Wavelength	183.907
'End Wavelength	1046.922
'Gate Delay	5.000
'Gate Width (ms)	1.050
'Laser Output Level	0.000
'X Position	0.000
'Y Position	0.000
'Z Position	0.000
'Grid Point Number	1.000
'Shot Number	100.000
183.907	562.000
183.977	191.000
184.047	-253
184.116	640
184.186	329
184.256	221
184.325	447
184.395	134
184.465	250
184.534	149
184.604	-1004
184.674	196
184.743	-508
184.813	662
184.883	110
184.952	519
185.022	245
185.092	1008
185.161	74
185.231	-329
185.301	-507
185.370	350
185.440	-962
185.509	663
185.579	300
185.649	955
185.718	596
185.788	919
185.857	-339
185.927	878
185.996	467
186.066	699
186.136	248
186.205	295
186.275	-197
186.344	645
186.414	144
186.483	-594
186.553	205
186.622	971
186.692	127
186.761	509
186.831	757
186.900	555
186.970	117
187.039	285
187.109	446
187.178	190
187.248	707
187.317	374
187.387	232
187.456	57
187.526	628
187.595	799
187.664	170
187.734	225
187.803	-326
187.873	1406
187.942	785
188.012	392
188.081	-2
188.150	252
188.220	269
188.289	799
188.358	212
188.428	789
188.497	-328
188.567	513
188.636	-539
188.705	540
188.775	724
188.844	-341
188.913	-62
188.983	383
189.052	254
189.121	586
189.191	-159
189.260	146
189.329	341
189.399	275
189.468	246
189.537	457
189.606	628
189.676	890
189.745	713
189.814	564
189.883	-292
189.953	597
190.022	351
190.091	708
190.161	468
190.230	1535
190.299	287
190.368	-101
190.437	324
190.507	-400
190.576	125
190.645	795
190.714	-416
190.783	367
190.853	631
190.922	457
190.991	-178
191.060	813
191.129	7
191.198	703
191.268	-610
191.337	133
191.406	346
191.475	665
191.544	-651
191.613	399
191.682	467
191.752	767
191.821	163
191.890	-148
191.959	407
192.028	-284
192.097	186
192.166	966
192.235	-654
192.304	391
192.373	258
192.442	600
192.511	243
192.580	59
192.650	1554
192.719	-124
192.788	245
192.857	717
192.926	599
192.995	688
193.064	-60
193.133	190
193.202	-40
193.271	821
193.340	934
193.409	432
193.478	1244
193.547	956
193.615	250
193.684	928
193.753	998
193.822	884
193.891	108
193.960	13
194.029	84
194.098	910
194.167	-258
194.236	1040
194.305	100
194.374	278
194.443	441
194.512	236
194.580	207
194.649	1038
194.718	450
194.787	804
194.856	116
194.925	1249
194.994	295
195.062	11
195.131	296
195.200	475
195.269	36
195.338	251
195.407	248
195.475	906
195.544	880
195.613	215
195.682	529
195.751	703
195.819	308
195.888	949
195.957	527
196.026	563
196.094	179
196.163	592
196.232	672
196.301	808
196.369	-254
196.438	406
196.507	-69
196.576	566
196.644	647
196.713	685
196.782	1189
196.850	640
196.919	711
196.988	397
197.056	95
197.125	-320
197.194	-89
197.262	462
197.331	-247
197.400	-21
197.468	-58
197.537	852
197.606	560
197.674	1326
197.743	1411
197.812	454
197.880	632
197.949	375
198.017	581
198.086	1047
198.155	-31
198.223	1087
198.292	587
198.360	668
198.429	-442
198.497	-71
198.566	-1
198.635	1056
198.703	-220
198.772	1330
198.840	69
198.909	1587
198.977	558
199.046	986
199.114	1233
199.183	1427
199.251	467
199.320	773
199.388	-602
199.457	-289
199.525	355
199.594	1202
199.662	764
199.731	593
199.799	314
199.867	556
199.936	787
200.004	759
200.073	1001
200.141	157
200.210	-161
200.278	-36
200.346	1103
200.415	1186
200.483	510
200.552	1378
200.620	140
200.688	316
200.757	357
200.825	305
200.893	417
200.962	611
201.030	-80
201.098	661
201.167	197
201.235	1093
201.303	606
201.372	1161
201.440	644
201.508	1052
201.577	385
201.645	1229
201.713	1026
201.781	18
201.850	868
201.918	1262
201.986	-10
202.055	1204
202.123	1074
202.191	607
202.259	475
202.327	1280
202.396	247
202.464	333
202.532	-173
202.600	2055
202.669	932
202.737	-8
202.805	313
202.873	753
202.941	637
203.009	607
203.078	252
203.146	1108
203.214	238
203.282	374
203.350	215
203.418	751
203.487	288
203.555	757
203.623	596
203.691	1624
203.759	443
203.827	975
203.895	-110
203.963	1155
204.031	837
204.099	693
204.168	145
204.236	1164
204.304	580
204.372	772
204.440	237
204.508	949
204.576	433
204.644	864
204.712	123
204.780	1229
204.848	745
204.916	-20
204.984	250
205.052	107
205.120	355
205.188	583
205.256	582
205.324	768
205.392	586
205.460	1097
205.528	214
205.596	1090
205.664	-178
205.732	118
205.799	1381
205.867	2390
205.935	975
206.003	2002
206.071	789
206.139	284
206.207	914
206.275	1161
206.343	681
206.411	430
206.478	633
206.546	473
206.614	485
206.682	434
206.750	517
206.818	1156
206.885	1015
206.953	304
207.021	1388
207.089	667
207.157	81
207.225	1239
207.292	427
207.360	1159
207.428	483
207.496	992
207.563	625
207.631	1068
207.699	278
207.767	1151
207.834	-213
207.902	1413
207.970	268
208.038	673
208.105	1253
208.173	1088
208.241	848
208.309	2084
208.376	877
208.444	1056
208.512	1298
208.579	961
208.647	905
208.715	998
208.782	762
208.850	1593
208.918	16
208.985	1274
209.053	814
209.120	1698
209.188	486
209.256	1051
209.323	47
209.391	638
209.459	1259
209.526	799
209.594	540
209.661	549
209.729	629
209.796	1286
209.864	839
209.932	805
209.999	2044
210.067	565
210.134	329
210.202	1001
210.269	1303
210.337	1679
210.404	1090
210.472	1309
210.539	339
210.607	875
210.674	808
210.742	1510
210.809	671
210.877	1089
210.944	1446
211.012	691
211.079	1844
211.146	939
211.214	720
211.281	1751
211.349	1576
211.416	1107
211.484	904
211.551	1143
211.618	1524
211.686	850
211.753	856
211.821	713
211.888	189
211.955	943
212.023	778
212.090	1000
212.157	679
212.225	962
212.292	1620
212.359	2326
212.427	3224
212.494	1951
212.561	1905
212.629	1712
212.696	801
212.763	930
212.831	419
212.898	2032
212.965	651
213.032	2110
213.100	641
213.167	1009
213.234	1919
213.301	1458
213.369	1723
213.436	1126
213.503	-329
213.570	1620
213.638	754
213.705	629
213.772	316
213.839	350
213.906	820
213.973	1602
214.041	389
214.108	1725
214.175	970
214.242	1954
214.309	791
214.376	1654
214.444	903
214.511	1130
214.578	1261
214.645	1487
214.712	1315
214.779	866
214.846	888
214.913	1532
214.980	1845
215.048	2026
215.115	2044
215.182	1827
215.249	1778
215.316	1491
215.383	1777
215.450	1045
215.517	1395
215.584	1014
215.651	1612
215.718	1156
215.785	1266
215.852	993
215.919	1199
215.986	1662
216.053	-23
216.120	721
216.187	1069
216.254	1804
216.321	691
216.388	876
216.455	1243
216.522	1399
216.589	1464
216.656	2083
216.722	1824
216.789	2128
216.856	2596
216.923	1822
216.990	2008
217.057	1914
217.124	2399
217.191	1740
217.258	2646
217.324	2048
217.391	2977
217.458	3411
217.525	2414
217.592	1891
217.659	659
217.725	2496
217.792	966
217.859	1552
217.926	1495
217.993	1673
218.059	1444
218.126	599
218.193	1713
218.260	877
218.327	875
218.393	1167
218.460	1360
218.527	759
218.594	747
218.660	1453
218.727	1824
218.794	736
218.860	1517
218.927	730
218.994	1354
219.061	441
219.127	592
219.194	1081
219.261	607
219.327	492
219.394	1013
219.461	336
219.527	620
219.594	817
219.661	1314
219.727	434
219.794	978
219.860	749
219.927	731
219.994	2173
220.060	1776
220.127	1800
220.193	1521
220.260	1678
220.326	2284
220.393	3653
220.460	4520
220.526	3501
220.593	2200
220.659	3062
220.726	2026
220.792	3895
220.859	4258
220.925	6232
220.992	7236
221.058	6239
221.125	4812
221.191	3393
221.258	1519
221.324	1828
221.391	1187
221.457	1618
221.524	1171
221.590	1636
221.657	2850
221.723	2873
221.789	2304
221.856	2811
221.922	1100
221.989	1966
222.055	1797
222.121	683
222.188	2441
222.254	1442
222.321	566
222.387	403
222.453	1245
222.520	598
222.586	496
222.652	988
222.719	1010
222.785	1779
222.851	1276
222.918	1668
222.984	865
223.050	1728
223.116	-588
223.183	1457
223.249	622
223.315	-480
223.382	435
223.448	1181
223.514	166
223.580	872
223.647	255
223.713	776
223.779	1331
223.845	1269
223.911	487
223.978	-189
224.044	1193
224.110	204
224.176	510
224.242	1728
224.309	104
224.375	743
224.441	154
224.507	89
224.573	-104
224.639	1137
224.705	-130
224.772	1023
224.838	588
224.904	1296
224.970	262
225.036	352
225.102	236
225.168	1431
225.234	423
225.300	541
225.366	273
225.432	1199
225.499	366
225.565	546
225.631	369
225.697	1106
225.763	1600
225.829	1606
225.895	1782
225.961	1890
226.027	1881
226.093	1294
226.159	1945
226.225	3836
226.291	6259
226.357	8539
226.423	5327
226.489	3669
226.554	1208
226.620	2224
226.686	2675
226.752	4448
226.818	6012
226.884	8983
226.950	8829
227.016	5412
227.082	3612
227.148	1685
227.214	2026
227.279	1666
227.345	2022
227.411	2259
227.477	1395
227.543	2825
227.609	2529
227.674	2754
227.740	637
227.806	1497
227.872	1273
227.938	933
228.003	1761
228.069	750
228.135	16
228.201	697
228.267	228
228.332	1445
228.398	-105
228.464	1145
228.530	747
228.595	961
228.661	232
228.727	427
228.792	1311
228.858	214
228.924	-661
228.990	2258
229.055	250
229.121	960
229.187	348
229.252	583
229.318	697
229.384	573
229.449	868
229.515	-682
229.581	-681
229.646	1979
229.712	666
229.777	1188
229.843	526
229.909	2236
229.974	1644
230.040	2511
230.105	465
230.171	1197
230.236	1054
230.302	2473
230.368	1626
230.433	976
230.499	776
230.564	2694
230.630	104
230.695	1078
230.761	1615
230.826	582
230.892	1589
230.957	830
231.023	256
231.088	194
231.154	644
231.219	1532
231.284	249
231.350	1233
231.415	330
231.481	1134
231.546	933
231.612	770
231.677	447
231.742	-501
231.808	965
231.873	185
231.939	-431
232.004	2499
232.069	992
232.135	149
232.200	927
232.265	1335
232.331	873
232.396	402
232.461	466
232.527	354
232.592	-320
232.657	1025
232.723	325
232.788	796
232.853	540
232.918	1116
232.984	-204
233.049	591
233.114	95
233.179	1257
233.245	1253
233.310	1627
233.375	516
233.440	589
233.506	809
233.571	429
233.636	1188
233.701	578
233.766	260
233.832	772
233.897	513
233.962	-334
234.027	850
234.092	1150
234.157	463
234.222	367
234.288	481
234.353	2496
234.418	2082
234.483	2646
234.548	1939
234.613	1712
234.678	1596
234.743	1329
234.808	2887
234.873	1381
234.938	2006
235.004	1208
235.069	499
235.134	1460
235.199	1437
235.264	1105
235.329	-665
235.394	1029
235.459	1658
235.524	914
235.589	651
235.654	474
235.719	97
235.784	2024
235.849	751
235.913	1714
235.978	1103
236.043	1703
236.108	890
236.173	385
236.238	1341
236.303	504
236.368	971
236.433	1690
236.498	2488
236.563	3133
236.627	5211
236.692	12485
236.757	11265
236.822	5933
236.887	3675
236.952	3794
237.017	1898
237.081	4431
237.146	3449
237.211	9554
237.276	12569
237.341	14198
237.405	10849
237.470	5243
237.535	3424
237.600	2997
237.664	2466
237.729	1195
237.794	2904
237.859	6186
237.923	3398
237.988	2065
238.053	2245
238.118	1854
238.182	3034
238.247	4663
238.312	448
238.376	1500
238.441	145
238.506	2009
238.570	355
238.635	2285
238.700	1900
238.764	1022
238.829	2079
238.893	1941
238.958	1482
239.023	1247
239.087	1217
239.152	1764
239.216	-101
239.281	2177
239.346	683
239.410	1458
239.475	855
239.539	3447
239.604	1395
239.668	1881
239.733	590
239.797	1613
239.862	3858
239.926	3500
239.991	2069
240.055	1877
240.120	141
240.184	856
240.249	320
240.313	874
240.378	872
240.442	1507
240.507	1568
240.571	1113
240.635	810
240.700	1717
240.764	1151
240.829	800
240.893	-382
240.957	1567
241.022	2549
241.086	2953
241.151	-143
241.215	339
241.279	1363
241.344	1329
241.408	1578
241.472	1196
241.537	2165
241.601	1902
241.665	611
241.730	1054
241.794	1704
241.858	1356
241.922	702
241.987	1692
242.051	1057
242.115	-6
242.179	1016
242.244	1377
242.308	1849
242.372	1821
242.436	403
242.501	1792
242.565	1178
242.629	989
242.693	1722
242.757	595
242.822	977
242.886	1880
242.950	1810
243.014	183
243.078	1311
243.142	1350
243.206	592
243.271	1610
243.335	820
243.399	2763
243.463	4557
243.527	12861
243.591	4146
243.655	2387
243.719	461
243.783	3108
243.847	2030
243.911	3288
243.975	2987
244.040	1405
244.104	2016
244.168	1698
244.232	1368
244.296	2579
244.360	3023
244.424	907
244.488	841
244.552	1583
244.615	-499
244.679	1692
244.743	638
244.807	580
244.871	1169
244.935	1694
244.999	-195
245.063	281
245.127	1322
245.191	2381
245.255	717
245.319	1636
245.383	339
245.446	2398
245.510	-230
245.574	1502
245.638	699
245.702	208
245.766	2447
245.829	2610
245.893	-396
245.957	1191
246.021	2402
246.085	2026
246.149	1357
246.212	3682
246.276	4367
246.340	2093
246.404	2589
246.467	1909
246.531	654
246.595	2465
246.659	1990
246.722	1109
246.786	1760
246.850	1918
246.913	2908
246.977	594
247.041	893
247.104	1595
247.168	1619
247.232	3316
247.295	5872
247.359	4427
247.423	1592
247.486	2925
247.550	1380
247.614	685
247.677	1985
247.741	2009
247.804	805
247.868	2665
247.932	1957
247.995	6611
248.059	2477
248.122	1436
248.186	2513
248.249	3697
248.313	8643
248.376	10573
248.440	6415
248.503	2256
248.567	3913
248.630	2670
248.694	5425
248.757	6351
248.821	10394
248.884	8262
248.948	6149
249.011	8844
249.075	11762
249.138	10022
249.202	5014
249.265	3107
249.328	3914
249.392	2643
249.455	3872
249.519	2658
249.582	1850
249.645	4507
249.709	4363
249.772	4291
249.835	2616
249.899	2432
249.962	3108
250.025	2008
250.089	4049
250.152	6991
250.215	3912
250.279	2044
250.342	2270
250.405	2209
250.468	1940
250.532	3252
250.595	4376
250.658	11700
250.721	20618
250.785	8492
250.848	5389
250.911	2925
250.974	3309
251.038	3974
251.101	6369
251.164	3386
251.227	3899
251.290	3368
251.354	4949
251.417	16635
251.480	18681
251.543	13110
251.606	28732
251.669	23570
251.732	10847
251.795	10486
251.859	9916
251.922	19493
251.985	12719
252.048	6751
252.111	4066
252.174	4009
252.237	6181
252.300	12970
252.363	13393
252.426	25316
252.489	10864
252.552	6552
252.615	3721
252.678	5590
252.741	9559
252.804	12519
252.867	24397
252.930	16872
252.993	8977
253.056	6210
253.119	3763
253.182	2459
253.245	4690
253.308	4735
253.371	2505
253.434	3238
253.497	3205
253.559	7139
253.622	4042
253.685	5429
253.748	5038
253.811	2720
253.874	3128
253.937	1952
254.000	1575
254.062	4541
254.125	6331
254.188	7525
254.251	5343
254.314	1922
254.376	3934
254.439	5840
254.502	3655
254.565	4687
254.628	7588
254.690	4047
254.753	1640
254.816	2407
254.878	1758
254.941	3759
255.004	4560
255.067	2179
255.129	2253
255.192	2395
255.255	293
255.317	1401
255.380	731
255.443	964
255.505	889
255.568	353
255.631	1038
255.693	1932
255.756	-83
255.819	2078
255.881	299
255.944	1894
256.006	248
256.069	1083
256.132	591
256.194	1996
256.257	2449
256.319	2806
256.382	1113
256.444	2624
256.507	1584
256.569	1714
256.632	2678
256.694	3167
256.757	10074
256.819	23416
256.882	11382
256.944	5433
257.007	4048
257.069	2562
257.132	2294
257.194	3289
257.257	1077
257.319	2012
257.381	3072
257.444	8285
257.506	24365
257.569	28739
257.631	12144
257.693	6944
257.756	3465
257.818	2340
257.880	1582
257.943	2828
258.005	570
258.067	1442
258.130	1932
258.192	1883
258.254	2337
258.317	2542
258.379	2106
258.441	3633
258.503	3857
258.566	3464
258.628	4597
258.690	1057
258.753	2111
258.815	4115
258.877	887
258.939	1970
259.001	1905
259.064	1336
259.126	576
259.188	2505
259.250	1676
259.312	1690
259.375	2782
259.437	2427
259.499	1640
259.561	1638
259.623	2111
259.685	1237
259.747	2439
259.809	4285
259.872	5529
259.934	9283
259.996	12622
260.058	4521
260.120	1405
260.182	1899
260.244	1118
260.306	1422
260.368	718
260.430	1746
260.492	3968
260.554	6811
260.616	1766
260.678	5503
260.740	5795
260.802	1670
260.864	1402
260.926	841
260.988	2466
261.050	2214
261.112	4839
261.174	11833
261.236	5554
261.298	2335
261.359	2607
261.421	4207
261.483	1568
261.545	2244
261.607	429
261.669	2016
261.731	1261
261.793	5203
261.854	1706
261.916	2414
261.978	2342
262.040	3046
262.102	1308
262.164	1587
262.225	581
262.287	877
262.349	3032
262.411	3153
262.472	1732
262.534	1226
262.596	2852
262.658	2115
262.719	456
262.781	2184
262.843	2235
262.904	1832
262.966	2054
263.028	2297
263.090	6153
263.151	19507
263.213	9200
263.275	5910
263.336	1459
263.398	2395
263.459	-34
263.521	1450
263.583	3845
263.644	2836
263.706	1491
263.767	1417
263.829	793
263.891	1109
263.952	161
264.014	762
264.075	2502
264.137	8963
264.198	3760
264.260	965
264.321	184
264.383	3561
264.444	11231
264.506	3798
264.567	2361
264.629	4984
264.690	10474
264.752	3782
264.813	1920
264.875	1574
264.936	1600
264.998	1543
265.059	881
265.120	1689
265.182	2535
265.243	15407
265.305	17224
265.366	4364
265.427	1749
265.489	1945
265.550	200
265.611	1356
265.673	771
265.734	1926
265.795	1388
265.857	571
265.918	1252
265.979	4502
266.040	21470
266.102	21046
266.163	6786
266.224	4529
266.286	2258
266.347	566
266.408	1077
266.469	1728
266.530	948
266.592	251
266.653	2303
266.714	3912
266.775	1216
266.836	538
266.898	456
266.959	2712
267.020	1734
267.081	2579
267.142	708
267.203	1149
267.264	360
267.326	2251
267.387	163
267.448	963
267.509	882
267.570	438
267.631	184
267.692	143
267.753	1210
267.814	509
267.875	2138
267.936	4525
267.997	3397
268.058	2495
268.119	667
268.180	702
268.241	404
268.302	389
268.363	-4
268.424	962
268.485	686
268.546	978
268.607	739
268.668	420
268.729	-58
268.790	950
268.851	805
268.912	2926
268.972	2667
269.033	1154
269.094	-110
269.155	1220
269.216	333
269.277	792
269.338	598
269.398	1500
269.459	366
269.520	1654
269.581	1413
269.642	2603
269.702	562
269.763	1329
269.824	215
269.885	1415
269.945	2411
270.006	1187
270.067	-382
270.128	856
270.188	-35
270.249	1203
270.310	191
270.370	1064
270.431	-86
270.492	1200
270.553	1099
270.613	2585
270.674	4848
270.734	2008
270.795	1124
270.856	2309
270.916	291
270.977	1522
271.038	1936
271.098	1655
271.159	1460
271.219	2026
271.280	550
271.340	1069
271.401	789
271.462	1720
271.522	1440
271.583	1018
271.643	469
271.704	434
271.764	1619
271.825	2960
271.885	11413
271.946	14258
272.006	5626
272.066	6910
272.127	9633
272.187	4488
272.248	1653
272.308	2369
272.369	7027
272.429	4453
272.489	3254
272.550	3563
272.610	3499
272.671	2512
272.731	2793
272.791	3173
272.852	1539
272.912	2108
272.972	793
273.033	713
273.093	1333
273.153	2384
273.214	1191
273.274	1556
273.334	7408
273.394	12204
273.455	3531
273.515	4865
273.575	9051
273.635	4257
273.696	4475
273.756	9125
273.816	4325
273.876	2403
273.936	3816
273.997	6403
274.057	2060
274.117	1295
274.177	2787
274.237	13276
274.297	11318
274.358	6129
274.418	7241
274.478	7728
274.538	2056
274.598	1190
274.658	3748
274.718	5042
274.778	3055
274.838	878
274.898	2005
274.958	6223
275.018	8416
275.078	7067
275.138	3448
275.198	713
275.258	729
275.318	1445
275.378	3169
275.438	4180
275.498	2360
275.558	3649
275.618	8595
275.678	7365
275.738	4943
275.798	4531
275.858	2391
275.918	848
275.978	2110
276.038	1593
276.098	839
276.157	2849
276.217	8185
276.277	4227
276.337	2170
276.397	965
276.457	2027
276.517	974
276.576	670
276.636	1274
276.696	1890
276.756	4750
276.815	3471
276.875	2075
276.935	941
276.995	2540
277.055	1556
277.114	1561
277.174	1368
277.234	6676
277.293	3143
277.353	1279
277.413	739
277.472	930
277.532	640
277.592	1931
277.651	4069
277.711	8613
277.771	2740
277.830	11111
277.890	8583
277.950	4622
278.009	15218
278.069	7359
278.128	5573
278.188	8748
278.248	3351
278.307	9400
278.367	6057
278.426	2199
278.486	794
278.545	1117
278.605	458
278.664	1526
278.724	835
278.783	3420
278.843	8975
278.902	2751
278.962	1541
279.021	902
279.081	2037
279.140	1511
279.199	1644
279.259	1991
279.318	1739
279.378	2301
279.437	2931
279.496	12219
279.556	33796
279.615	28016
279.675	6413
279.734	3547
279.793	5662
279.853	9641
279.912	3773
279.971	2717
280.031	2014
280.090	4587
280.149	7189
280.208	6283
280.268	24569
280.327	27010
280.386	5620
280.445	5687
280.505	4782
280.564	2971
280.623	1472
280.682	3620
280.742	5860
280.801	2325
280.860	803
280.919	1052
280.978	1262
281.037	510
281.097	446
281.156	1455
281.215	772
281.274	1138
281.333	4831
281.392	5657
281.451	1106
281.510	660
281.569	314
281.628	724
281.688	899
281.747	2019
281.806	1542
281.865	858
281.924	281
281.983	1131
282.042	145
282.101	132
282.160	739
282.219	899
282.278	-251
282.337	3552
282.396	2558
282.454	1040
282.513	848
282.572	5815
282.631	4174
282.690	1512
282.749	722
282.808	1230
282.867	1349
282.926	2073
282.985	341
283.043	222
283.102	500
283.161	588
283.220	2930
283.279	6710
283.338	2543
283.396	1336
283.455	414
283.514	1775
283.573	2505
283.631	1870
283.690	827
283.749	1146
283.808	2594
283.866	3844
283.925	170
283.984	1693
284.043	1903
284.101	2005
284.160	573
284.219	2348
284.277	1635
284.336	2412
284.395	9055
284.453	7094
284.512	2856
284.570	2989
284.629	2167
284.688	3385
284.746	1574
284.805	3447
284.863	4351
284.922	5653
284.981	6156
285.039	9184
285.098	14750
285.156	33630
285.215	47516
285.273	46172
285.332	37363
285.390	21544
285.449	11730
285.507	8846
285.566	6278
285.624	4626
285.683	4041
285.741	3310
285.799	2794
285.858	2599
285.916	2047
285.975	1708
286.033	1613
286.091	1381
286.150	-118
286.208	1672
286.267	1263
286.325	1768
286.383	1987
286.442	3513
286.500	974
286.558	997
286.616	429
286.675	1953
286.733	1424
286.791	620
286.850	1288
286.908	2281
286.966	3177
287.024	1603
287.083	756
287.141	837
287.199	761
287.257	1941
287.315	236
287.374	1093
287.432	3972
287.490	3642
287.548	946
287.606	821
287.664	439
287.723	1245
287.781	2880
287.839	1435
287.897	874
287.955	2714
288.013	3107
288.071	6700
288.129	25523
288.187	68844
288.245	35543
288.303	12106
288.361	5825
288.419	4765
288.477	2898
288.535	3082
288.593	1499
288.651	1255
288.709	1241
288.767	745
288.825	641
288.883	690
288.941	581
288.999	568
289.057	11
289.115	1053
289.173	-543
289.231	797
289.289	604
289.346	695
289.404	295
289.462	1304
289.520	2231
289.578	1060
289.636	571
289.694	445
289.751	634
289.809	1022
289.867	520
289.925	1762
289.983	1081
290.040	935
290.098	54
290.156	1116
290.214	1312
290.271	466
290.329	1015
290.387	561
290.444	-249
290.502	-5
290.560	-153
290.617	555
290.675	48
290.733	695
290.790	972
290.848	294
290.906	427
290.963	513
291.021	676
291.078	1074
291.136	-195
291.194	4501
291.251	11281
291.309	2848
291.366	490
291.424	-134
291.481	743
291.539	1015
291.596	1073
291.654	394
291.711	703
291.769	1357
291.826	2036
291.884	2079
291.941	221
291.999	595
292.056	529
292.114	993
292.171	12
292.228	1064
292.286	950
292.343	2382
292.401	2130
292.458	1912
292.515	1463
292.573	1872
292.630	987
292.687	874
292.745	415
292.802	1592
292.859	7171
292.917	8252
292.974	4610
293.031	1919
293.089	738
293.146	1021
293.203	886
293.260	388
293.318	186
293.375	3959
293.432	2121
293.489	1298
293.546	567
293.604	1867
293.661	3432
293.718	13279
293.775	8067
293.832	2925
293.889	2385
293.947	2238
294.004	1045
294.061	1724
294.118	3423
294.175	10466
294.232	16520
294.289	6293
294.346	2858
294.403	2922
294.460	2067
294.517	1429
294.574	1383
294.631	1350
294.688	1529
294.745	4325
294.802	15564
294.859	22109
294.916	7544
294.973	3567
295.030	2444
295.087	1744
295.144	1442
295.201	2932
295.258	764
295.315	2034
295.372	4935
295.429	10456
295.486	4410
295.542	3249
295.599	9436
295.656	19211
295.713	11060
295.770	10944
295.827	4515
295.883	3858
295.940	1724
295.997	4295
296.054	3958
296.111	2545
296.167	1695
296.224	1946
296.281	153
296.338	1833
296.394	1303
296.451	1721
296.508	4270
296.564	10247
296.621	7459
296.678	12501
296.734	17880
296.791	7629
296.848	4554
296.904	3690
296.961	8283
297.018	12171
297.074	10844
297.131	4771
297.187	3366
297.244	3735
297.301	9342
297.357	18012
297.414	6350
297.470	3293
297.527	2536
297.583	2019
297.640	1809
297.696	2037
297.753	901
297.809	707
297.866	1340
297.922	1368
297.979	1081
298.035	1829
298.092	1601
298.148	6931
298.204	7166
298.261	4352
298.317	5774
298.374	14741
298.430	8713
298.486	3254
298.543	2259
298.599	3103
298.656	3237
298.712	5468
298.768	12218
298.824	8658
298.881	3332
298.937	2410
298.993	1648
299.050	2807
299.106	2519
299.162	1300
299.218	2182
299.275	1128
299.331	1367
299.387	2955
299.443	10557
299.500	13810
299.556	6239
299.612	3004
299.668	2481
299.724	3305
299.780	4330
299.837	2601
299.893	2685
299.949	10576
300.005	13015
300.061	10690
300.117	18632
300.173	9319
300.229	3938
300.285	4360
300.341	5801
300.397	2745
300.453	1661
300.510	1982
300.566	2391
300.622	2900
300.678	6749
300.734	13684
300.790	10514
300.845	11572
300.901	7101
300.957	12359
301.013	9182
301.069	3219
301.125	3206
301.181	2497
301.237	2396
301.293	1672
301.349	1370
301.405	1143
301.461	1402
301.516	2981
301.572	2384
301.628	4004
301.684	3577
301.740	4606
301.796	8038
301.851	5348
301.907	8637
301.963	8334
302.019	11460
302.074	29378
302.130	31401
302.186	16676
302.242	6272
302.297	4873
302.353	3717
302.409	7732
302.464	7349
302.520	5701
302.576	11513
302.631	14880
302.687	9248
302.743	4336
302.798	3125
302.854	3035
302.910	2908
302.965	3469
303.021	5278
303.076	4494
303.132	5395
303.187	6963
303.243	3914
303.299	3580
303.354	1285
303.410	2871
303.465	2476
303.521	1937
303.576	2093
303.632	2547
303.687	5052
303.743	11477
303.798	10215
303.853	5050
303.909	2725
303.964	2722
304.020	4131
304.075	5394
304.130	4196
304.186	8925
304.241	9551
304.297	7775
304.352	4414
304.358	4325
304.407	3603
304.449	3167
304.463	3024
304.518	3026
304.539	2783
304.573	2375
304.629	2622
304.630	2630
304.684	3170
304.720	6975
304.739	8868
304.794	12037
304.811	10419
304.850	6480
304.902	3349
304.905	3157
304.960	2780
304.992	3216
305.015	3496
305.071	2938
305.083	2925
305.126	2879
305.173	1497
305.181	1284
305.236	1738
305.264	1896
305.292	2009
305.347	2257
305.354	2365
305.402	3114
305.445	3022
305.457	2971
305.512	4125
305.535	3743
305.567	3241
305.622	3276
305.626	3404
305.678	6479
305.716	11385
305.733	13004
305.788	14719
305.807	12843
305.843	9673
305.897	10928
305.898	10934
305.953	11862
305.988	8192
306.008	6168
306.063	4520
306.078	4143
306.118	3311
306.168	2423
306.173	2362
306.228	2017
306.259	1860
306.283	1729
306.338	1790
306.349	1881
306.393	2205
306.440	2727
306.448	2836
306.503	2901
306.530	2898
306.558	3593
306.613	8204
306.620	8776
306.668	11746
306.711	13696
306.723	13716
306.778	10526
306.801	8029
306.833	5244
306.888	2984
306.892	2915
306.943	2646
306.982	2378
306.997	2323
307.052	2670
307.072	2494
307.107	2485
307.162	3568
307.163	3588
307.217	5910
307.253	6839
307.272	6923
307.327	7154
307.343	6714
307.381	5666
307.434	4414
307.436	4512
307.491	8988
307.524	13048
307.546	14046
307.600	14072
307.614	12716
307.655	8060
307.704	4769
307.710	4715
307.765	4936
307.795	6426
307.819	8205
307.874	13569
307.885	13877
307.929	11911
307.975	9396
307.984	9664
308.038	13729
308.065	16798
308.093	26229
308.148	51270
308.156	56125
308.202	80200
308.246	94820
308.257	92050
308.312	59925
308.336	44618
308.366	34276
308.421	21312
308.426	20221
308.475	14079
308.517	10143
308.530	9360
308.585	7502
308.607	7011
308.639	6851
308.694	7348
308.697	7413
308.748	12430
308.787	17658
308.803	17623
308.857	13949
308.877	12264
308.912	11066
308.967	10607
308.967	10613
309.021	14495
309.058	17772
309.076	22054
309.130	37023
309.148	43159
309.185	67972
309.238	108089
309.239	108434
309.293	112522
309.328	109733
309.348	98370
309.402	57325
309.418	46145
309.457	33812
309.508	20525
309.511	20127
309.566	15883
309.598	14370
309.620	15053
309.674	17496
309.688	18273
309.729	17239
309.778	14616
309.783	14315
309.837	10832
309.868	8888
309.892	10444
309.946	15146
309.959	16766
310.001	22113
310.049	26470
310.055	25636
310.109	16117
310.139	10533
310.163	8428
310.218	5557
310.229	4926
310.272	4272
310.319	4025
310.326	3953
310.381	3516
310.409	3256
310.435	3171
310.489	2888
310.499	2916
310.543	3406
310.589	3716
310.598	3757
310.652	3979
310.679	4088
310.706	3633
310.760	2613
310.769	2452
310.814	2488
310.859	2527
310.868	2586
310.923	3039
310.948	3201
310.977	3319
311.031	3511
311.038	3560
311.085	2940
311.128	2119
311.139	2233
311.193	2914
311.218	3252
311.247	3200
311.301	3022
311.308	2985
311.356	2976
311.398	3070
311.410	2981
311.464	2513
311.488	2306
311.518	2145
311.572	1768
311.578	1741
311.626	2835
311.668	3758
311.680	3914
311.734	4626
311.758	4919
311.788	4879
311.842	4798
311.847	4782
311.896	6014
311.937	7114
311.950	7056
312.004	6744
312.027	6575
312.058	5420
312.112	3355
312.117	3149
312.165	3263
312.207	3363
312.297	5360
312.386	4623
312.476	3794
312.566	5625
312.656	3551
312.745	2959
312.835	4280
312.925	4123
313.015	3160
313.104	3104
313.194	3688
313.284	3005
313.374	3877
313.463	3135
313.553	2731
313.643	2766
313.732	3212
313.822	2365
313.912	3448
314.001	3345
314.091	4731
314.180	5826
314.270	4342
314.360	3966
314.449	3896
314.539	2389
314.628	2793
314.718	3349
314.808	4316
314.897	2644
314.987	3668
315.076	3280
315.166	3418
315.255	4925
315.345	4540
315.434	4743
315.524	3913
315.613	4355
315.703	4244
315.792	5428
315.881	9367
315.971	4173
316.060	6799
316.150	9530
316.239	10944
316.328	4859
316.418	2741
316.507	2487
316.597	4214
316.686	3499
316.775	5234
316.865	11687
316.954	3858
317.043	1646
317.133	2935
317.222	1949
317.311	2829
317.400	1495
317.490	3755
317.579	3557
317.668	2516
317.757	3407
317.847	6181
317.936	16429
318.025	9164
318.114	5429
318.203	4696
318.293	6668
318.382	12858
318.471	10059
318.560	15418
318.649	35470
318.738	7156
318.828	3981
318.917	3988
319.006	4974
319.095	14159
319.184	41439
319.273	20634
319.362	8984
319.451	3583
319.540	2702
319.629	6728
319.718	10342
319.807	5245
319.896	12573
319.985	48610
320.074	16138
320.163	5230
320.252	6862
320.341	7002
320.430	6645
320.519	6295
320.608	3436
320.697	3918
320.786	3419
320.875	4679
320.964	4702
321.053	6843
321.142	9269
321.230	11027
321.319	8625
321.408	21247
321.497	9744
321.586	8323
321.675	11031
321.764	11372
321.852	7861
321.941	11681
322.030	7725
322.119	8576
322.207	19576
322.296	17297
322.385	9629
322.474	8770
322.562	23700
322.651	13166
322.740	7756
322.829	11944
322.917	14502
323.006	7335
323.095	6356
323.183	5800
323.272	7728
323.361	14183
323.449	42455
323.538	13705
323.626	28394
323.715	18219
323.804	7566
323.892	27661
323.981	14183
324.069	5792
324.158	15463
324.246	14897
324.335	5553
324.424	7423
324.512	4023
324.601	5180
324.689	11028
324.778	21005
324.866	9696
324.954	4432
325.043	3288
325.131	6315
325.220	12287
325.308	13274
325.397	9719
325.485	6632
325.574	2379
325.662	2109
325.750	2383
325.839	2732
325.927	2646
326.015	3745
326.104	4762
326.192	6909
326.280	2565
326.369	3163
326.457	3724
326.545	6528
326.634	2537
326.722	1955
326.810	2216
326.898	1777
326.987	2953
327.075	5266
327.163	6941
327.251	3667
327.340	9230
327.428	14684
327.516	2467
327.604	2131
327.692	2317
327.781	3112
327.869	5087
327.957	3135
328.045	3140
328.133	1718
328.221	2584
328.309	2472
328.397	3009
328.485	2960
328.574	3894
328.662	11834
328.750	7072
328.838	3129
328.926	2562
329.014	2391
329.102	4270
329.190	11083
329.278	6628
329.366	2364
329.454	1650
329.542	2948
329.630	1855
329.718	2552
329.806	2548
329.893	2659
329.981	2510
330.069	1980
330.157	3835
330.245	10839
330.333	5711
330.421	2659
330.509	3520
330.597	14414
330.684	9494
330.772	4800
330.860	6732
330.948	10918
331.036	4439
331.123	2208
331.211	2217
331.299	3031
331.387	8965
331.475	16401
331.562	4165
331.650	2401
331.738	2240
331.825	3903
331.913	2262
332.001	2343
332.089	2564
332.176	7024
332.264	14827
332.352	12231
332.439	3729
332.527	3384
332.614	2049
332.702	3455
332.790	2266
332.877	6391
332.965	13545
333.052	3385
333.140	3497
333.228	7399
333.315	2191
333.403	2761
333.490	8390
333.578	6649
333.665	7347
333.753	4239
333.840	2287
333.928	3702
334.015	8957
334.103	14909
334.190	50488
334.278	12640
334.365	5423
334.452	4682
334.540	2238
334.627	4201
334.715	5190
334.802	9521
334.889	49522
334.977	50198
335.064	6580
335.151	3507
335.239	4536
335.326	6143
335.413	24661
335.501	36087
335.588	5036
335.675	3502
335.762	5428
335.850	10008
335.937	5408
336.024	13969
336.111	59768
336.199	25902
336.286	5092
336.373	3631
336.460	2310
336.547	2373
336.635	3906
336.722	3502
336.809	2469
336.896	4307
336.983	15703
337.070	40118
337.157	53404
337.245	35100
337.332	24782
337.419	4376
337.506	3153
337.593	3740
337.680	12783
337.767	44829
337.854	11422
337.941	12928
338.028	12550
338.115	4835
338.202	6711
338.289	9544
338.376	33074
338.463	10648
338.550	24869
338.637	26689
338.724	7118
338.811	10766
338.898	2311
338.984	2786
339.071	3681
339.158	3598
339.245	8282
339.332	6153
339.419	7501
339.506	7539
339.593	835
339.679	2461
339.766	1394
339.853	3104
339.940	5011
340.027	2568
340.113	2649
340.200	3431
340.287	2631
340.374	2888
340.460	4309
340.547	1548
340.634	3802
340.720	14236
340.807	6756
340.894	1709
340.980	1731
341.067	1514
341.154	2422
341.240	3095
341.327	6845
341.414	3180
341.500	3568
341.587	2829
341.674	2499
341.760	4726
341.847	5382
341.933	2059
342.020	601
342.106	1985
342.193	2203
342.279	4780
342.366	1908
342.452	4992
342.539	2394
342.625	6190
342.712	14622
342.798	5952
342.885	2013
342.971	1329
343.058	1421
343.144	1639
343.230	1227
343.317	2195
343.403	1191
343.490	765
343.576	1347
343.662	1771
343.749	1625
343.835	1583
343.921	4071
344.008	22994
344.094	50970
344.180	11662
344.267	4165
344.353	16222
344.439	16934
344.525	8283
344.612	7724
344.698	9301
344.784	5115
344.870	2216
344.957	1811
345.043	3203
345.129	1512
345.215	4717
345.301	2720
345.387	2037
345.474	496
345.560	1031
345.646	1710
345.732	2109
345.818	1506
345.904	2306
345.990	1943
346.076	2462
346.162	4129
346.249	2421
346.335	1374
346.421	2021
346.507	5970
346.593	21256
346.679	5252
346.765	2231
346.851	1446
346.937	1347
347.023	2210
347.108	2629
347.194	1453
347.280	1954
347.366	2115
347.452	6602
347.538	24747
347.624	19550
347.710	17997
347.796	3485
347.882	2170
347.967	2075
348.053	3325
348.139	2119
348.225	1156
348.311	1087
348.397	1735
348.482	3021
348.568	2969
348.654	1110
348.740	1388
348.825	2360
348.911	2955
348.997	11022
349.083	23854
349.168	4369
349.254	1872
349.340	2088
349.425	697
349.511	2454
349.597	2065
349.682	4863
349.768	16874
349.854	8219
349.939	2216
350.025	1720
350.110	2193
350.196	1993
350.282	676
350.367	1660
350.453	2310
350.538	3272
350.624	2651
350.709	3348
350.795	837
350.880	1533
350.966	1884
351.051	2397
351.137	1940
351.222	2217
351.308	4934
351.393	15099
351.479	3513
351.564	2173
351.649	2636
351.735	1807
351.820	839
351.906	1871
351.991	2064
352.076	9812
352.162	14868
352.247	3240
352.332	1453
352.418	4093
352.503	4731
352.588	21579
352.673	16869
352.759	3447
352.844	1550
352.929	1795
353.014	2139
353.100	2566
353.185	2287
353.270	4232
353.355	5266
353.441	1956
353.526	1315
353.611	4497
353.696	4634
353.781	3738
353.866	867
353.952	2248
354.037	4165
354.122	10305
354.207	9047
354.292	3708
354.377	1923
354.462	2057
354.547	1716
354.632	2561
354.717	3605
354.802	2669
354.887	868
354.972	1063
355.057	1502
355.142	992
355.227	2504
355.312	2692
355.397	5923
355.482	15996
355.567	7394
355.652	6040
355.737	6148
355.822	19203
355.907	16343
355.991	3321
356.076	1997
356.161	2216
356.246	806
356.331	1663
356.416	3358
356.501	29523
356.585	30714
356.670	4474
356.755	4685
356.840	4195
356.924	17703
357.009	66825
357.094	25227
357.179	6253
357.263	3499
357.348	4407
357.433	3214
357.517	3566
357.602	2438
357.687	2528
357.771	3975
357.856	16514
357.941	9552
358.025	14870
358.110	65763
358.195	30765
358.279	4826
358.364	3938
358.448	11877
358.533	36915
358.617	26068
358.702	26244
358.787	9771
358.871	5307
358.956	4978
359.040	2807
359.125	1126
359.209	1907
359.294	6479
359.378	13836
359.462	5213
359.547	2485
359.631	2239
359.716	969
359.800	1854
359.885	4304
359.969	1825
360.053	2704
360.138	1516
360.222	2572
360.306	4462
360.391	4068
360.475	7954
360.559	19240
360.644	13362
360.728	9980
360.812	14708
360.896	45137
360.981	20185
361.065	12044
361.149	3000
361.233	2729
361.318	2054
361.402	2943
361.486	2347
361.570	2197
361.654	2191
361.739	6838
361.823	26660
361.907	44173
361.991	7766
362.075	4514
362.159	9050
362.243	8213
362.327	7234
362.411	11025
362.495	5428
362.580	3281
362.664	2548
362.748	1566
362.832	2579
362.916	4797
363.000	17213
363.084	42075
363.168	52426
363.252	12814
363.336	5032
363.420	6878
363.503	34770
363.587	44504
363.671	6499
363.755	4587
363.839	6596
363.923	3111
364.007	5069
364.091	6602
364.175	11852
364.258	59444
364.342	38557
364.426	36988
364.510	19433
364.594	10491
364.677	10192
364.761	37624
364.845	27527
364.929	9015
365.013	7843
365.096	5500
365.180	7721
365.264	13493
365.347	58490
365.431	26891
365.515	6897
365.598	2326
365.682	2980
365.766	6087
365.849	9514
365.933	3041
366.017	5383
366.100	4962
366.184	1057
366.267	2365
366.351	1783
366.435	1331
366.518	654
366.602	1246
366.685	1816
366.769	2724
366.852	5025
366.936	9220
367.019	3660
367.103	3415
367.186	11316
367.270	2919
367.353	1328
367.436	1851
367.520	1657
367.603	2723
367.687	1852
367.770	5942
367.853	3910
367.937	11191
368.020	19150
368.104	3921
368.187	3801
368.270	7087
368.353	6813
368.437	6968
368.520	22571
368.603	12981
368.687	13173
368.770	26699
368.853	6348
368.936	7769
369.020	8930
369.103	2352
369.186	1265
369.269	1588
369.352	3952
369.436	6302
369.519	3251
369.602	688
369.685	2553
369.768	1900
369.851	1582
369.934	758
370.018	2258
370.101	4934
370.184	5828
370.267	4166
370.350	5692
370.433	8893
370.516	19403
370.599	24865
370.682	5677
370.765	15387
370.848	18557
370.931	32847
371.014	14626
371.097	2727
371.180	2646
371.263	1446
371.346	155
371.429	1913
371.511	1421
371.594	3958
371.677	6342
371.760	11112
371.843	5120
371.926	22591
372.009	52632
372.091	19385
372.174	12020
372.257	29004
372.340	11601
372.423	11510
372.505	16052
372.588	6811
372.671	9388
372.754	31345
372.836	15525
372.919	17581
373.002	38229
373.085	8987
373.167	5700
373.250	12622
373.332	27945
373.415	35850
373.498	73091
373.580	28840
373.663	32752
373.746	47088
373.828	10814
373.911	6584
373.993	6149
374.076	34431
374.159	32620
374.241	10587
374.324	26910
374.406	18787
374.489	20708
374.571	60534
374.654	25308
374.736	11512
374.819	34666
374.901	52371
374.983	54915
375.066	10322
375.148	4518
375.231	25121
375.313	55127
375.395	20210
375.478	3538
375.560	2976
375.643	3032
375.725	11401
375.807	46905
375.890	42344
375.972	20062
376.054	10317
376.136	17901
376.219	8014
376.301	13337
376.383	41367
376.465	15743
376.548	8933
376.630	11134
376.712	36210
376.794	17407
376.877	2583
376.959	1039
377.041	2635
377.123	7485
377.205	10757
377.287	1237
377.369	2294
377.452	888
377.534	1086
377.616	1169
377.698	1357
377.780	203
377.862	891
377.944	2529
378.026	885
378.108	1208
378.190	707
378.272	1901
378.354	1109
378.436	239
378.518	2928
378.600	14400
378.682	10662
378.764	19219
378.846	15869
378.928	4846
379.010	5763
379.091	3558
379.173	1722
379.255	327
379.337	1962
379.419	8613
379.501	27838
379.583	11849
379.664	3117
379.746	5364
379.828	20133
379.910	25901
379.991	22615
380.073	3792
380.155	2128
380.237	1472
380.318	870
380.400	1047
380.482	3884
380.564	5631
380.645	4144
380.727	4198
380.809	4151
380.890	2167
380.972	1355
381.053	1040
381.135	2299
381.217	6047
381.298	21058
381.380	9575
381.461	7275
381.543	34724
381.624	45771
381.706	7912
381.787	4494
381.869	4525
381.951	14206
382.032	54355
382.113	37595
382.195	7595
382.276	5607
382.358	9091
382.439	28086
382.521	34064
382.602	53943
382.684	23367
382.765	45336
382.846	45383
382.928	54931
383.009	29922
383.090	19057
383.172	75462
383.253	121853
383.334	44474
383.416	48965
383.497	25191
383.578	9693
383.659	17076
383.741	65355
383.822	176655
383.903	93643
383.984	32689
384.066	61539
384.147	39338
384.228	7528
384.309	5919
384.390	4751
384.471	2527
384.553	3723
384.634	5336
384.715	6579
384.796	2776
384.877	3229
384.958	15989
385.039	21708
385.120	7161
385.201	4022
385.282	5330
385.363	6408
385.444	3439
385.525	6989
385.606	24008
385.687	22652
385.768	6220
385.849	7345
385.930	25917
386.011	46444
386.092	12458
386.173	4312
386.254	2639
386.335	4309
386.416	3089
386.496	11425
386.577	21265
386.658	8708
386.739	4758
386.820	6195
386.901	4032
386.981	4950
387.062	1954
387.143	3876
387.224	18217
387.304	19768
387.385	7098
387.466	4562
387.547	8135
387.627	4774
387.708	7209
387.789	31225
387.869	39695
387.950	12188
388.031	1851
388.111	1878
388.192	10603
388.273	17361
388.353	8594
388.434	3498
388.514	6321
388.595	26675
388.676	37958
388.756	19459
388.837	18015
388.917	11421
388.998	1587
389.078	2923
389.159	1778
389.239	920
389.320	4217
389.400	2595
389.480	8285
389.561	21095
389.641	10603
389.722	3520
389.802	5376
389.883	8722
389.963	24215
390.043	16461
390.124	5318
390.204	6776
390.284	21176
390.365	14398
390.445	22354
390.525	46981
390.605	36760
390.686	11956
390.766	3982
390.846	3413
390.927	1487
391.007	560
391.087	3310
391.167	3316
391.247	1583
391.328	4771
391.408	8788
391.488	6918
391.568	625
391.648	2966
391.728	4141
391.808	4656
391.888	4138
391.969	10878
392.049	18823
392.129	10497
392.209	9398
392.289	22312
392.369	14610
392.449	16809
392.529	9343
392.609	5870
392.689	7177
392.769	21183
392.849	19399
392.929	16220
393.009	36449
393.089	24990
393.169	18210
393.248	54780
393.328	236092
393.408	270905
393.488	71379
393.568	18264
393.648	9090
393.728	6360
393.807	4737
393.887	6058
393.967	5606
394.047	6510
394.127	8387
394.206	16522
394.286	54229
394.366	196273
394.446	218552
394.525	68283
394.605	19095
394.685	13034
394.764	25656
394.844	41426
394.924	29690
395.003	8566
395.083	5058
395.163	4754
395.242	3819
395.322	4993
395.402	2741
395.481	6452
395.561	14817
395.640	44045
395.720	33680
395.799	49592
395.879	43519
395.958	29213
396.038	84891
396.117	250169
396.197	277434
396.276	116965
396.356	41626
396.435	28745
396.515	17059
396.594	12590
396.673	19444
396.753	65287
396.832	226796
396.912	176965
396.991	40931
397.070	11564
397.150	5541
397.229	5746
397.308	6554
397.388	13275
397.467	6602
397.546	3138
397.625	262
397.705	4512
397.784	3009
397.863	2071
397.942	863
398.022	2263
398.101	11989
398.180	43060
398.259	24680
398.338	5951
398.417	2699
398.497	2075
398.576	3426
398.655	994
398.734	1574
398.813	2051
398.892	10420
398.971	43982
399.050	22732
399.129	1839
399.208	1068
399.287	2697
399.366	815
399.445	1203
399.524	1525
399.603	182
399.682	3145
399.761	10567
399.840	44810
399.919	38468
399.998	4657
400.077	-183
400.156	101
400.235	4050
400.313	963
400.392	1566
400.471	9677
400.550	17886
400.629	4326
400.708	1767
400.786	1665
400.865	10138
400.944	10758
401.023	5464
401.102	248
401.180	832
401.259	654
401.338	1752
401.416	2832
401.495	1237
401.574	1618
401.652	562
401.731	2990
401.810	1582
401.888	1035
401.967	-288
402.046	1464
402.124	1972
402.203	2033
402.281	2714
402.360	2662
402.438	13911
402.517	9395
402.596	2787
402.674	2033
402.753	1332
402.831	1032
402.910	1523
402.988	3988
403.066	13927
403.145	8772
403.223	5312
403.302	10624
403.380	9021
403.459	7265
403.537	4233
403.615	1629
403.694	-321
403.772	750
403.850	886
403.929	373
404.007	225
404.085	2606
404.164	2455
404.242	1955
404.320	11220
404.398	36118
404.477	36658
404.555	51813
404.633	48669
404.711	29228
404.789	19838
404.868	3557
404.946	1133
405.024	415
405.102	428
405.180	379
405.258	-218
405.336	1400
405.415	1017
405.493	3361
405.571	3038
405.649	-488
405.727	346
405.805	2422
405.883	1873
405.961	2438
406.039	3835
406.117	493
406.195	1478
406.273	8017
406.351	40422
406.429	27058
406.507	4764
406.585	1154
406.663	1542
406.740	1935
406.818	462
406.896	824
406.974	1402
407.052	1324
407.130	22941
407.208	34277
407.285	7371
407.363	445
407.441	422
407.519	322
407.596	1244
407.674	4832
407.752	17914
407.830	21044
407.907	7497
407.985	720
408.063	760
408.141	-40
408.218	3016
408.296	2316
408.373	549
408.451	877
408.529	1055
408.606	-588
408.684	218
408.762	656
408.839	264
408.917	-337
408.994	350
409.072	-444
409.149	648
409.227	1415
409.304	2076
409.382	588
409.459	1527
409.537	2740
409.614	2094
409.692	1720
409.769	797
409.846	2053
409.924	4611
410.001	2648
410.079	2298
410.156	2323
410.233	1362
410.311	985
410.388	436
410.465	969
410.543	133
410.620	445
410.697	1361
410.775	688
410.852	-1214
410.929	1731
411.006	2247
411.083	552
411.161	3067
411.238	4302
411.315	2777
411.392	661
411.469	1184
411.547	1923
411.624	-392
411.701	-239
411.778	526
411.855	1542
411.932	647
412.009	-299
412.086	832
412.163	845
412.240	1765
412.317	2127
412.394	2063
412.471	-23
412.548	342
412.625	226
412.702	1202
412.779	2744
412.856	1853
412.933	59
413.010	542
413.087	924
413.164	8245
413.241	14068
413.318	2366
413.395	1881
413.471	2046
413.548	624
413.625	1109
413.702	-95
413.779	815
413.855	-448
413.932	-497
414.009	-339
414.086	141
414.162	-338
414.239	1630
414.316	7665
414.393	21934
414.469	6888
414.546	-250
414.623	-213
414.699	-149
414.776	301
414.853	-231
414.929	224
415.006	187
415.082	1426
415.159	971
415.236	326
415.312	831
415.389	1105
415.465	1486
415.542	759
415.618	-323
415.695	1886
415.771	118
415.848	301
415.924	1158
416.000	788
416.077	1437
416.153	-862
416.230	-1078
416.306	555
416.383	164
416.459	263
416.535	67
416.612	-589
416.688	-133
416.764	-383
416.841	-410
416.917	579
416.993	828
417.069	1232
417.146	1505
417.222	2664
417.298	929
417.374	180
417.451	1026
417.527	594
417.603	501
417.679	586
417.755	745
417.831	-772
417.908	577
417.984	-410
418.060	-1031
418.136	1629
418.212	2177
418.288	929
418.364	517
418.440	-1018
418.516	1464
418.592	2538
418.668	5502
418.744	4558
418.820	4127
418.896	696
418.972	-516
419.048	203
419.124	3681
419.200	713
419.276	734
419.352	-830
419.428	-156
419.504	-407
419.579	424
419.655	63
419.731	488
419.807	2546
419.883	6106
419.959	4296
420.034	1239
420.110	2207
420.186	12544
420.262	10697
420.337	1537
420.413	956
420.489	776
420.565	772
420.640	-215
420.716	952
420.792	-1018
420.867	1203
420.943	-116
421.019	1083
421.094	1658
421.170	669
421.245	-109
421.321	169
421.397	152
421.472	3424
421.548	10062
421.623	6646
421.699	2270
421.774	1669
421.850	1095
421.925	2506
422.001	3517
422.076	1798
422.152	3138
422.227	5639
422.302	7404
422.378	10296
422.453	18521
422.529	45120
422.604	125519
422.679	194657
422.755	142666
422.830	55205
422.905	23047
422.981	11933
423.056	7910
423.131	6131
423.207	3348
423.282	3730
423.357	5181
423.432	2935
423.508	2520
423.583	5812
423.658	4357
423.733	2489
423.808	2791
423.883	2154
423.959	1463
424.034	1016
424.109	1153
424.184	246
424.259	984
424.334	40
424.409	77
424.484	-196
424.559	465
424.634	-473
424.709	1032
424.784	1326
424.859	588
424.934	970
425.009	7705
425.084	15117
425.159	5323
425.234	751
425.309	-353
425.384	3337
425.459	6944
425.534	2219
425.609	893
425.683	-57
425.758	180
425.833	473
425.908	847
425.983	4041
426.058	15252
426.132	6022
426.207	1604
426.282	3992
426.357	2159
426.431	-285
426.506	924
426.581	848
426.655	656
426.730	-303
426.805	-284
426.879	490
426.954	921
427.029	1766
427.103	13556
427.178	34808
427.253	16369
427.327	1567
427.402	2466
427.476	10396
427.551	5097
427.625	1289
427.700	1764
427.774	-75
427.849	988
427.923	-224
427.998	-496
428.072	275
428.147	3313
428.221	12443
428.296	42368
428.370	23163
428.444	3225
428.519	4054
428.593	9943
428.667	8526
428.742	10793
428.816	8739
428.890	30098
428.965	47915
429.039	16125
429.113	11933
429.188	4503
429.262	195
429.336	1733
429.410	6130
429.485	4878
429.559	8332
429.633	7312
429.707	1529
429.781	5580
429.855	32151
429.930	50784
430.004	27224
430.078	47675
430.152	39634
430.226	52449
430.300	57257
430.374	8682
430.448	2828
430.522	12577
430.596	42600
430.670	25373
430.744	40023
430.818	62161
430.892	12516
430.966	1699
431.040	1059
431.114	-122
431.188	-581
431.262	1093
431.336	297
431.410	4281
431.484	11451
431.557	7574
431.631	-336
431.705	459
431.779	6290
431.853	35022
431.927	27030
432.000	2347
432.074	239
432.148	1327
432.222	882
432.295	462
432.369	-492
432.443	144
432.516	13857
432.590	37095
432.664	14066
432.737	1479
432.811	-744
432.885	-521
432.958	-173
433.032	-677
433.106	-960
433.179	-254
433.253	-473
433.326	-735
433.400	-698
433.473	-345
433.547	-141
433.620	246
433.694	223
433.767	852
433.841	-517
433.914	-400
433.988	-27
434.061	61
434.134	-909
434.208	-322
434.281	-874
434.355	-997
434.428	-59
434.501	70
434.575	-766
434.648	-238
434.721	-627
434.795	24
434.868	-1032
434.941	-1076
435.014	-890
435.088	-957
435.161	628
435.234	741
435.307	1248
435.381	938
435.454	95
435.527	1138
435.600	485
435.673	189
435.746	331
435.819	-584
435.892	73
435.966	187
436.039	-117
436.112	843
436.185	-741
436.258	-654
436.331	-857
436.404	103
436.477	-562
436.550	-430
436.623	-280
436.696	78
436.769	478
436.842	-48
436.915	851
436.987	925
437.060	-520
437.133	-483
437.206	-1307
437.279	323
437.352	-343
437.425	-432
437.498	-284
437.570	1613
437.643	1519
437.716	75
437.789	-1054
437.861	1520
437.934	4142
438.007	2419
438.080	-552
438.152	78
438.225	2669
438.298	16045
438.370	49106
438.443	20367
438.516	4217
438.588	336
438.661	-46
438.734	1
438.806	-402
438.879	-218
438.951	4
439.024	1310
439.096	223
439.169	49
439.241	-123
439.314	-222
439.386	761
439.459	2120
439.531	2623
439.604	806
439.676	-740
439.749	-267
439.821	-172
439.893	376
439.966	-58
440.038	79
440.110	592
440.183	-399
440.255	-591
440.327	1171
440.400	6972
440.472	32093
440.544	21231
440.617	2333
440.689	1289
440.761	2356
440.833	3801
440.905	2582
440.978	-818
441.050	16
441.122	-721
441.194	-382
441.266	60
441.338	-655
441.411	348
441.483	8439
441.555	14841
441.627	2782
441.699	1802
441.771	2396
441.843	-180
441.915	-264
441.987	-643
442.059	-39
442.131	476
442.203	1566
442.275	1354
442.347	2186
442.419	2068
442.491	15586
442.563	42810
442.635	20502
442.706	12509
442.778	9335
442.850	1212
442.922	507
442.994	1252
443.066	1876
443.137	1626
443.209	1213
443.281	1785
443.353	5304
443.425	20594
443.496	77337
443.568	76559
443.640	27824
443.711	5360
443.783	2554
443.855	1269
443.926	409
443.998	162
444.070	1903
444.141	1052
444.213	1769
444.285	1835
444.356	1738
444.428	796
444.499	431
444.571	-63
444.642	709
444.714	81
444.785	1376
444.857	2053
444.928	9693
445.000	4591
445.071	5753
445.143	6633
445.214	3305
445.285	5709
445.357	19846
445.428	51001
445.500	124520
445.571	80552
445.642	38065
445.714	16395
445.785	17404
445.856	3532
445.928	2531
445.999	2041
446.070	1299
446.141	1381
446.213	2010
446.284	302
446.355	2646
446.426	-16
446.497	19
446.569	2067
446.640	2791
446.711	1774
446.782	181
446.853	704
446.924	1890
446.995	460
447.066	1294
447.138	3082
447.209	2163
447.280	-547
447.351	-361
447.422	-581
447.493	721
447.564	1269
447.635	814
447.706	-306
447.777	-974
447.847	-353
447.918	-134
447.989	1378
448.060	1782
448.131	5811
448.202	4664
448.273	2165
448.344	853
448.414	-83
448.485	-623
448.556	-301
448.627	-77
448.698	672
448.768	-110
448.839	-149
448.910	2378
448.981	1606
449.051	27
449.122	-462
449.193	-148
449.263	-339
449.334	454
449.405	-23
449.475	2259
449.546	1746
449.616	3370
449.687	3651
449.758	1119
449.828	21
449.899	-489
449.969	-517
450.040	-567
450.110	446
450.181	595
450.251	-89
450.322	914
450.392	74
450.463	859
450.533	104
450.604	-103
450.674	76
450.744	399
450.815	-112
450.885	469
450.955	883
451.026	185
451.096	-164
451.166	456
451.237	3010
451.307	10708
451.377	4199
451.447	455
451.518	34
451.588	-441
451.658	165
451.728	1683
451.799	9760
451.869	13715
451.939	2593
452.009	515
452.079	-40
452.149	734
452.219	2335
452.289	12914
452.360	10567
452.430	2168
452.500	364
452.570	1364
452.640	1823
452.710	7412
452.780	12939
452.850	7387
452.920	4611
452.990	1710
453.060	1170
453.129	985
453.199	2712
453.269	11274
453.339	28012
453.409	44803
453.479	41934
453.549	65784
453.619	72663
453.688	30700
453.758	4110
453.828	1699
453.898	555
453.968	346
454.037	-82
454.087	137
454.107	212
454.168	-43
454.177	-100
454.247	112
454.249	135
454.316	324
454.330	397
454.386	570
454.411	2614
454.456	5836
454.492	8423
454.525	10747
454.574	5600
454.595	3371
454.655	992
454.665	614
454.734	479
454.736	573
454.804	2953
454.817	4464
454.873	10165
454.898	11236
454.943	13058
454.979	8298
455.013	4133
455.060	2154
455.082	1374
455.141	2389
455.152	2521
455.221	8465
455.222	8635
455.291	17675
455.303	17462
455.360	15804
455.384	20499
455.430	27849
455.465	22104
455.499	16895
455.546	13500
455.569	11753
455.627	8188
455.638	7620
455.707	1793
455.708	1803
455.777	950
455.789	997
455.846	1203
455.869	1293
455.916	1352
455.950	1171
455.985	942
456.031	1107
456.054	1247
456.112	1192
456.124	1157
456.193	305
456.193	286
456.262	1253
456.274	1465
456.332	2436
456.355	2152
456.401	1372
456.436	1311
456.470	1220
456.516	727
456.540	547
456.597	695
456.609	678
456.678	515
456.678	504
456.747	775
456.759	744
456.817	359
456.840	580
456.886	994
456.920	594
456.955	244
457.001	912
457.024	1253
457.082	1558
457.093	1584
457.162	2064
457.163	2080
457.232	2597
457.243	2533
457.301	1775
457.324	1407
457.370	940
457.405	1224
457.439	1651
457.485	1168
457.508	812
457.566	1530
457.577	1674
457.646	1754
457.647	1776
457.715	3149
457.727	3193
457.784	3714
457.808	4584
457.853	5748
457.889	7115
457.922	7679
457.969	5689
457.991	5456
458.050	5643
458.060	5635
458.129	8380
458.130	8491
458.198	10203
458.211	9429
458.267	6057
458.292	4574
458.336	3040
458.372	3025
458.405	3612
458.453	4238
458.474	4825
458.533	8774
458.543	9215
458.611	15533
458.614	15657
458.680	11896
458.694	9721
458.749	5070
458.775	4391
458.818	3208
458.855	2607
458.887	2096
458.936	1732
458.955	1719
459.016	1940
459.024	1976
459.093	2427
459.097	2411
459.162	1798
459.177	1977
459.230	2590
459.257	2670
459.299	2864
459.338	3036
459.368	3065
459.418	3222
459.437	3219
459.499	3291
459.505	3280
459.574	2123
459.579	2087
459.643	1550
459.659	1519
459.711	2202
459.740	2517
459.780	2513
459.820	2451
459.849	2391
459.900	2746
459.917	2872
459.981	3386
459.986	3443
460.054	3501
460.061	3539
460.123	2952
460.141	2897
460.191	3601
460.222	3609
460.260	3234
460.302	3737
460.328	4121
460.382	4315
460.397	4310
460.462	3732
460.465	3789
460.534	6150
460.543	6374
460.602	14805
460.623	18291
460.671	27554
460.703	36693
460.739	34494
460.783	29511
460.808	26430
460.864	8430
460.876	6673
460.944	3484
460.945	3442
461.013	3404
461.024	3281
461.081	2968
461.104	3110
461.150	3334
461.184	3150
461.218	2873
461.264	2959
461.286	3141
461.345	2977
461.355	2892
461.423	3412
461.425	3402
461.491	3297
461.505	3403
461.559	6086
461.585	7122
461.628	10129
461.665	13655
461.696	14934
461.745	18658
461.764	17016
461.825	6725
461.832	6496
461.901	3913
461.905	3879
461.969	3151
461.985	3120
462.037	3906
462.065	4198
462.105	4048
462.145	3869
462.173	5334
462.225	8408
462.241	9105
462.305	12481
462.310	12173
462.378	7546
462.385	6717
462.446	4444
462.465	4027
462.514	3864
462.545	4080
462.582	3986
462.625	3918
462.650	3750
462.705	2938
462.718	3017
462.785	3976
462.786	4002
462.854	5461
462.865	5642
462.922	6603
462.945	7320
462.990	6169
463.025	4330
463.058	3774
463.104	3273
463.126	3174
463.184	3761
463.194	3839
463.262	3512
463.264	3514
463.330	3858
463.344	3873
463.398	4425
463.424	4832
463.466	4494
463.504	4115
463.533	4324
463.583	4487
463.601	4455
463.663	4422
463.669	4496
463.737	5393
463.743	5466
463.805	9145
463.823	10256
463.873	14161
463.903	16744
463.940	17749
463.982	19427
464.008	16266
464.062	7622
464.076	7263
464.142	5019
464.144	4981
464.211	4447
464.221	4412
464.279	4586
464.301	4608
464.347	5160
464.381	5709
464.414	5915
464.461	6000
464.482	6215
464.540	7011
464.550	6830
464.617	5170
464.620	5104
464.685	6322
464.699	6633
464.753	8201
464.779	8984
464.820	10529
464.859	12147
464.888	11345
464.938	9615
464.956	9871
465.018	10684
465.023	10557
465.091	8645
465.098	8439
465.158	8082
465.177	8032
465.226	8804
465.257	9140
465.293	8757
465.336	8306
465.361	8515
465.416	9112
465.428	9854
465.495	13783
465.496	13842
465.563	19621
465.575	20697
465.631	25504
465.654	27681
465.698	18676
465.734	10334
465.765	9263
465.813	7606
465.833	7515
465.893	7897
465.900	7916
465.968	7921
465.972	7910
466.035	7507
466.052	7366
466.102	7340
466.131	7362
466.170	7326
466.210	7180
466.237	7350
466.290	7717
466.304	7774
466.369	7908
466.372	7932
466.439	8287
466.449	8318
466.506	8463
466.528	8505
466.573	11744
466.607	14129
466.641	19334
466.687	26574
466.708	29314
466.766	36961
466.775	34260
466.842	13425
466.845	12406
466.909	9530
466.925	8914
466.977	8763
467.004	8699
467.044	9645
467.083	10595
467.111	12097
467.163	14852
467.178	15198
467.242	16503
467.245	16408
467.312	13841
467.321	13478
467.379	13243
467.400	13123
467.446	13649
467.480	13990
467.559	12885
467.638	11973
467.717	12008
467.796	12942
467.875	12137
467.955	13169
468.034	18224
468.113	34280
468.192	49641
468.271	16093
468.350	11394
468.429	12391
468.508	12970
468.588	11490
468.667	12268
468.746	12289
468.825	12234
468.904	10432
468.983	10983
469.062	16789
469.141	18482
469.220	10741
469.299	11041
469.378	12460
469.456	15992
469.535	14217
469.614	13100
469.693	12505
469.772	15770
469.851	17721
469.930	14808
470.009	11835
470.088	10878
470.166	11942
470.245	12277
470.324	12402
470.403	12379
470.482	11345
470.560	11378
470.639	10426
470.718	12050
470.797	9903
470.875	13050
470.954	14554
471.033	16244
471.111	10238
471.190	9493
471.269	9368
471.347	10046
471.426	10249
471.505	12079
471.583	12541
471.662	12965
471.740	11283
471.819	11417
471.898	10186
471.976	11650
472.055	11188
472.133	12075
472.212	13890
472.290	13806
472.369	9771
472.447	10835
472.526	9965
472.604	10902
472.683	9134
472.761	10023
472.839	9172
472.918	10225
472.996	9550
473.075	10716
473.153	11016
473.231	9231
473.310	9873
473.388	10240
473.466	10812
473.545	11350
473.623	11865
473.701	11601
473.780	10481
473.858	8905
473.936	11068
474.014	10096
474.093	10482
474.171	13189
474.249	17335
474.327	13353
474.405	8479
474.484	8688
474.562	7364
474.640	8743
474.718	8889
474.796	8898
474.874	8965
474.952	8707
475.030	8795
475.108	7584
475.187	8629
475.265	8463
475.343	9737
475.421	10037
475.499	9469
475.577	9470
475.655	11401
475.733	17577
475.811	29799
475.889	27197
475.966	19873
476.044	9843
476.122	8444
476.200	9643
476.278	9055
476.356	9206
476.434	9475
476.512	10166
476.590	10020
476.667	10040
476.745	7965
476.823	9065
476.901	9086
476.979	9396
477.056	8573
477.134	8832
477.212	9744
477.290	9915
477.367	7976
477.445	8062
477.523	7623
477.601	8218
477.678	7346
477.756	10558
477.834	10411
477.911	7752
477.989	8080
478.066	8138
478.144	9184
478.222	7723
478.299	8254
478.377	8465
478.454	7223
478.532	7031
478.609	7122
478.687	8175
478.764	6738
478.842	7426
478.919	8428
478.997	8100
479.074	7598
479.152	8378
479.229	10066
479.307	7910
479.384	7078
479.461	6959
479.539	6455
479.616	8658
479.694	7642
479.771	7789
479.848	8412
479.926	9649
480.003	11938
480.080	7169
480.157	7192
480.235	6675
480.312	6223
480.389	8616
480.467	10587
480.544	14108
480.621	8375
480.698	7922
480.775	8878
480.853	8470
480.930	7728
481.007	8166
481.084	8262
481.161	10273
481.238	9707
481.315	7208
481.392	7301
481.470	7352
481.547	7148
481.624	7085
481.701	6911
481.778	6843
481.855	7477
481.932	11419
482.009	17432
482.086	12836
482.163	7728
482.240	7335
482.317	8505
482.393	8489
482.470	6768
482.547	7721
482.624	7208
482.701	8044
482.778	7176
482.855	6441
482.932	6437
483.009	6130
483.085	7994
483.162	7787
483.239	7662
483.316	6628
483.393	7263
483.469	7035
483.546	7936
483.623	8876
483.699	7223
483.776	7233
483.853	8003
483.930	11461
484.006	26291
484.083	45545
484.160	33501
484.236	52612
484.313	40295
484.389	30464
484.466	26319
484.543	24631
484.619	24643
484.696	26094
484.772	26115
484.849	26960
484.925	23360
485.002	23636
485.078	24670
485.155	23543
485.231	21794
485.308	22221
485.384	22176
485.461	24287
485.537	33839
485.614	39104
485.690	22198
485.766	20718
485.843	21356
485.919	23289
485.995	22226
486.072	19533
486.148	19717
486.224	20042
486.301	19029
486.377	20835
486.453	21396
486.530	23137
486.606	30148
486.682	33075
486.758	34078
486.835	36851
486.911	28756
486.987	40147
487.063	35829
487.139	34365
487.215	28814
487.292	23780
487.368	20917
487.444	22517
487.520	23354
487.596	22887
487.672	27204
487.748	44591
487.824	60332
487.900	31184
487.976	22096
488.052	21374
488.128	22896
488.204	19812
488.280	19561
488.356	21737
488.432	34949
488.508	49123
488.584	22121
488.660	16529
488.736	17578
488.812	17541
488.888	21111
488.964	23547
489.039	29980
489.115	40435
489.191	28416
489.267	17758
489.343	16903
489.418	16001
489.494	15881
489.570	14842
489.646	16603
489.722	16010
489.797	16268
489.873	21608
489.949	37843
490.024	34067
490.100	14853
490.176	15530
490.251	15472
490.327	17628
490.403	13437
490.478	14192
490.554	12608
490.629	12675
490.705	12643
490.781	14922
490.856	11767
490.932	15266
491.007	12974
491.083	14227
491.158	13123
491.234	16839
491.309	28650
491.385	31163
491.460	13146
491.536	14775
491.611	11827
491.686	12835
491.762	14245
491.837	18303
491.913	29315
491.988	37783
492.063	41925
492.139	21172
492.214	16358
492.289	11082
492.365	9549
492.440	12324
492.515	11136
492.590	11833
492.666	10076
492.741	13336
492.816	18341
492.891	12131
492.967	11359
493.042	10974
493.117	10579
493.192	10845
493.267	18064
493.342	50387
493.418	69844
493.493	16334
493.568	9024
493.643	9034
493.718	11940
493.793	12259
493.868	14067
493.943	9623
494.018	9615
494.093	9446
494.168	9370
494.243	8792
494.318	8376
494.393	7814
494.468	7852
494.543	8767
494.618	8239
494.693	8441
494.768	7188
494.842	8474
494.917	7684
494.992	8342
495.067	8169
495.142	7428
495.217	8597
495.292	7778
495.366	9862
495.441	10421
495.516	13329
495.591	14707
495.665	31768
495.740	64229
495.815	30941
495.890	11449
495.964	8350
496.039	12412
496.114	9918
496.188	10787
496.263	11459
496.338	9507
496.412	10245
496.487	13649
496.561	10741
496.636	12104
496.710	10845
496.785	10328
496.860	12697
496.934	10295
497.009	9190
497.083	10534
497.158	9985
497.232	11411
497.307	12307
497.381	11414
497.455	11594
497.530	16041
497.604	11255
497.679	11407
497.753	16799
497.827	18855
497.902	13695
497.976	19555
498.050	53458
498.125	204104
498.199	213662
498.273	23805
498.348	12246
498.422	12453
498.496	12187
498.570	11950
498.645	10222
498.719	10395
498.793	14578
498.867	21119
498.941	29493
499.016	86453
499.090	231555
499.164	87154
499.238	11723
499.312	10529
499.386	12172
499.460	11642
499.534	10102
499.609	13460
499.683	18471
499.757	19113
499.831	40009
499.905	154101
499.979	151962
500.053	23975
500.127	21200
500.201	12800
500.275	10573
500.349	10938
500.422	12128
500.496	14079
500.570	26352
500.644	82009
500.718	163920
500.792	40755
500.866	12324
500.940	15276
501.013	12656
501.087	12231
501.161	16815
501.235	21644
501.309	52107
501.382	145677
501.456	131263
501.530	28216
501.603	48597
501.677	20988
501.751	7731
501.825	12998
501.898	21144
501.972	58456
502.046	39754
502.119	11814
502.193	26010
502.266	61371
502.340	33721
502.413	28135
502.487	57225
502.561	31292
502.634	11861
502.708	8033
502.781	7249
502.855	8006
502.928	6592
503.002	7708
503.075	6427
503.149	7553
503.222	6912
503.295	8165
503.369	9421
503.442	12843
503.516	42648
503.589	106775
503.662	71520
503.736	22242
503.809	49464
503.882	41715
503.956	59541
504.029	57563
504.102	25678
504.175	30125
504.249	12560
504.322	11660
504.395	8731
504.468	7423
504.542	7391
504.615	5977
504.688	6601
504.761	5749
504.834	7738
504.907	7754
504.980	9444
505.053	7505
505.127	5897
505.200	11556
505.273	9485
505.346	7566
505.419	5463
505.492	6875
505.565	5511
505.638	4445
505.711	6239
505.784	5252
505.857	5283
505.930	7074
506.003	4994
506.076	7901
506.149	7677
506.221	8556
506.294	9000
506.367	22982
506.440	80455
506.513	45893
506.586	10681
506.659	6409
506.731	6027
506.804	6760
506.877	6736
506.950	7251
507.022	6425
507.095	6780
507.168	8773
507.241	6184
507.313	4026
507.386	4333
507.459	6216
507.531	5455
507.604	4202
507.677	5342
507.749	3491
507.822	8164
507.894	14299
507.967	21069
508.040	12743
508.112	11177
508.185	10143
508.257	8358
508.330	11216
508.402	9297
508.475	10445
508.547	9984
508.620	10457
508.692	14036
508.765	10636
508.837	7851
508.909	8168
508.982	8290
509.054	7876
509.127	7647
509.199	7975
509.271	7656
509.344	7012
509.416	7604
509.488	7231
509.560	8344
509.633	7849
509.705	9434
509.777	9570
509.849	10957
509.922	8921
509.994	9552
510.066	10197
510.138	10150
510.210	22328
510.283	19487
510.355	14944
510.427	12588
510.499	12032
510.571	11498
510.643	10415
510.715	13939
510.787	11471
510.859	12464
510.931	12667
511.003	13389
511.076	14345
511.148	10794
511.219	11663
511.291	15819
511.363	17602
511.435	11276
511.507	9579
511.579	10796
511.651	10650
511.723	9505
511.795	9294
511.867	9106
511.939	10910
512.010	17154
512.082	16223
512.154	8950
512.226	9945
512.298	15201
512.369	20545
512.441	16261
512.513	14072
512.585	11416
512.656	12263
512.728	12267
512.800	10698
512.871	11476
512.943	10578
513.015	9257
513.086	11366
513.158	10800
513.230	9592
513.301	11142
513.373	13608
513.444	9450
513.516	8613
513.588	9254
513.659	9797
513.731	9822
513.802	8867
513.874	13978
513.945	17271
514.016	10812
514.088	9737
514.159	9125
514.231	11648
514.302	17767
514.374	14534
514.445	13105
514.516	22667
514.588	17033
514.659	11790
514.730	18934
514.802	15913
514.873	9106
514.944	11448
515.016	10406
515.087	11661
515.158	13522
515.229	19519
515.301	9613
515.372	9903
515.443	8639
515.514	9039
515.585	8165
515.656	9995
515.728	9152
515.799	8660
515.870	10270
515.941	9719
516.012	9507
516.083	14418
516.154	12703
516.225	13631
516.296	13297
516.367	10616
516.438	10998
516.509	11902
516.580	15339
516.651	34445
516.722	100752
516.793	54689
516.864	17028
516.935	17463
517.006	18054
517.077	19828
517.148	38064
517.219	107442
517.289	171803
517.360	94185
517.431	39885
517.502	12027
517.573	12961
517.643	12908
517.714	14180
517.785	14826
517.856	13255
517.926	15345
517.997	15463
518.068	14331
518.138	19311
518.209	24463
518.280	73718
518.350	249704
518.421	105341
518.492	18355
518.562	15513
518.633	14190
518.703	13467
518.774	19736
518.845	36159
518.915	37097
518.986	17305
519.056	15528
519.127	20686
519.197	33515
519.268	84523
519.338	63581
519.408	16377
519.479	14745
519.549	12459
519.620	12238
519.690	8932
519.760	10312
519.831	9145
519.901	8955
519.971	9318
520.042	8613
520.112	11175
520.182	10855
520.253	11066
520.323	10245
520.393	11575
520.463	17420
520.534	10847
520.604	21819
520.674	14121
520.744	11260
520.814	21347
520.885	22209
520.955	29936
521.025	106804
521.095	47732
521.165	10251
521.235	9767
521.305	8159
521.375	8943
521.445	9139
521.515	8922
521.585	10820
521.655	9958
521.725	9983
521.795	10161
521.865	6890
521.935	14284
522.005	10534
522.075	8310
522.145	9956
522.215	8791
522.285	11949
522.355	15284
522.424	27380
522.494	23090
522.564	11751
522.634	15953
522.704	37097
522.774	16371
522.843	8783
522.913	7770
522.983	7578
523.053	7111
523.122	8309
523.192	8867
523.262	18511
523.331	17695
523.401	8572
523.471	6657
523.540	7329
523.610	5964
523.680	7036
523.749	6829
523.819	8221
523.888	8524
523.958	6127
524.027	7503
524.097	7627
524.166	7697
524.236	5035
524.305	8722
524.375	6198
524.444	5593
524.514	9543
524.583	6704
524.653	8297
524.722	10423
524.791	6446
524.861	8338
524.930	5973
524.999	6346
525.069	9244
525.138	8098
525.207	9201
525.277	6954
525.346	6139
525.415	6904
525.484	7208
525.554	8396
525.623	8105
525.692	8184
525.761	7780
525.830	7827
525.900	8247
525.969	10638
526.038	14913
526.107	23264
526.176	65750
526.245	56536
526.314	21220
526.383	36199
526.452	49204
526.522	77768
526.591	87282
526.660	26427
526.729	13327
526.797	16686
526.867	30065
526.935	118797
527.004	192508
527.073	109637
527.142	14769
527.211	7914
527.280	8362
527.349	7488
527.418	4095
527.487	7240
527.555	5098
527.624	4899
527.693	4672
527.762	5377
527.831	4746
527.899	5683
527.968	5514
528.037	4234
528.106	6849
528.174	8365
528.243	9469
528.312	10908
528.380	12134
528.449	5572
528.518	6452
528.586	4288
528.655	6266
528.723	4906
528.792	4495
528.861	4159
528.929	4435
528.998	6110
529.066	4812
529.135	6262
529.203	5706
529.272	5657
529.340	8377
529.409	8725
529.477	6213
529.545	8036
529.614	11472
529.682	9535
529.751	12499
529.819	12691
529.887	10311
529.956	8927
530.024	9754
530.092	7996
530.161	9342
530.229	10294
530.297	8541
530.365	9423
530.434	8423
530.502	7751
530.570	8721
530.638	6999
530.707	8292
530.775	9125
530.843	7141
530.911	8407
530.979	8534
531.047	8481
531.115	9293
531.183	8882
531.252	8671
531.320	7979
531.388	6572
531.456	8526
531.524	7101
531.592	9863
531.660	11941
531.728	8768
531.796	8245
531.864	8403
531.932	9045
532.000	7840
532.067	9234
532.135	10100
532.203	10845
532.271	10270
532.339	15762
532.407	21781
532.475	15533
532.542	11526
532.610	11738
532.678	14104
532.746	34958
532.814	78834
532.881	25096
532.949	10881
533.017	9822
533.084	9877
533.152	8799
533.220	8121
533.287	9670
533.355	9724
533.423	9255
533.490	8941
533.558	9045
533.625	10289
533.693	10173
533.761	10680
533.828	10068
533.896	9410
533.963	16373
534.031	17846
534.098	18213
534.166	12511
534.233	9704
534.300	13040
534.368	10988
534.435	10277
534.503	10326
534.570	11189
534.637	9498
534.705	10475
534.772	11097
534.840	12147
534.907	33132
534.974	44315
535.041	10931
535.109	9976
535.176	6686
535.243	8581
535.310	7211
535.378	7067
535.445	7787
535.512	7586
535.579	6985
535.646	6884
535.714	8402
535.781	11185
535.848	9881
535.915	11889
535.982	12648
536.049	12815
536.116	12047
536.183	9719
536.250	8430
536.317	8793
536.384	9247
536.451	9464
536.518	10494
536.585	7482
536.652	10411
536.719	11056
536.786	8007
536.853	8169
536.920	10640
536.987	12269
537.053	12056
537.120	38659
537.187	36400
537.254	8138
537.321	6783
537.388	7707
537.454	5393
537.521	6456
537.588	6454
537.654	9377
537.721	9201
537.788	9312
537.855	6894
537.921	7412
537.988	6393
538.055	8487
538.121	6481
538.188	7258
538.254	8239
538.321	11578
538.388	9854
538.454	6932
538.521	6929
538.587	7095
538.654	6281
538.720	5964
538.787	6662
538.853	6659
538.920	8619
538.986	8133
539.053	5841
539.119	7712
539.185	7351
539.252	8578
539.318	8581
539.385	9653
539.451	8629
539.517	9117
539.583	9439
539.650	15541
539.716	30392
539.782	12723
539.849	6342
539.915	7737
539.981	6925
540.047	6757
540.114	7591
540.180	8673
540.246	6147
540.312	8624
540.378	11281
540.444	13279
540.510	13822
540.576	32777
540.643	13880
540.709	6371
540.775	6211
540.841	6294
540.907	10557
540.973	13842
541.039	10886
541.105	9670
541.171	7569
541.237	6720
541.303	7785
541.369	9471
541.435	7942
541.500	11167
541.566	7390
541.632	6884
541.698	6824
541.764	7823
541.830	5566
541.896	6430
541.961	7464
542.027	6424
542.093	7297
542.159	8175
542.224	7904
542.290	10866
542.356	11034
542.421	12603
542.487	9596
542.553	7461
542.618	8509
542.684	7652
542.750	6579
542.815	8944
542.881	11090
542.947	29390
543.012	23669
543.078	7940
543.143	7287
543.209	8015
543.274	6976
543.340	8556
543.405	13885
543.471	18616
543.536	9033
543.602	8189
543.667	6140
543.732	8873
543.798	6665
543.863	8649
543.928	6430
543.994	6255
544.059	7292
544.124	7700
544.190	6526
544.255	7695
544.320	7146
544.386	6203
544.451	8957
544.516	9668
544.581	9671
544.646	19650
544.712	30724
544.777	11277
544.842	9882
544.907	10180
544.972	8905
545.037	9042
545.102	9694
545.168	9142
545.233	10038
545.298	10533
545.363	11301
545.428	11110
545.493	14597
545.558	24650
545.623	14499
545.688	10099
545.753	9566
545.818	9295
545.883	9868
545.947	9300
546.012	9682
546.077	10405
546.142	9962
546.207	9248
546.272	10398
546.337	11640
546.401	11316
546.466	10904
546.531	9056
546.596	11523
546.661	11306
546.725	10323
546.790	10397
546.855	11540
546.919	9406
546.984	12323
547.049	11803
547.113	14166
547.178	13064
547.243	14824
547.307	15595
547.372	16838
547.436	18083
547.501	16449
547.565	17190
547.630	16972
547.695	16065
547.759	18094
547.823	18594
547.888	16322
547.952	16228
548.017	17025
548.081	18400
548.146	21541
548.210	20332
548.274	17670
548.339	17141
548.403	17308
548.468	15245
548.532	15508
548.596	16599
548.660	16339
548.725	18207
548.789	18436
548.853	20565
548.917	18228
548.982	20770
549.046	20827
549.110	14636
549.174	15724
549.238	15572
549.303	16911
549.367	18982
549.431	17687
549.495	16482
549.559	16339
549.623	18213
549.687	20494
549.751	22294
549.815	23188
549.879	23759
549.943	21805
550.007	23025
550.071	23730
550.135	23631
550.199	21545
550.263	20702
550.327	21689
550.391	23406
550.455	22112
550.519	22342
550.582	24092
550.646	26859
550.710	28451
550.774	25050
550.838	26009
550.901	25877
550.965	28127
551.029	28738
551.093	31126
551.156	35013
551.220	48437
551.284	53037
551.347	36127
551.411	48857
551.475	54153
551.538	31132
551.602	26576
551.666	25390
551.729	22862
551.793	24317
551.856	24290
551.920	24249
551.983	24596
552.047	23511
552.110	23635
552.174	23756
552.237	24624
552.301	23242
552.364	22373
552.428	21193
552.491	23019
552.554	21964
552.618	22933
552.681	23129
552.745	23052
552.808	25240
552.871	28294
552.934	25079
552.998	22997
553.061	23587
553.124	23594
553.187	22813
553.251	22770
553.314	26185
553.377	26523
553.440	34095
553.503	70948
553.567	107516
553.630	35261
553.693	26089
553.756	26465
553.819	24421
553.882	25191
553.945	24511
554.008	23856
554.071	24098
554.134	24266
554.197	22689
554.260	24081
554.323	24735
554.386	24339
554.449	23835
554.512	25081
554.575	23240
554.638	24355
554.701	23455
554.764	23552
554.827	22573
554.889	21667
554.952	21207
555.015	20216
555.078	20163
555.141	21963
555.203	20168
555.266	20996
555.329	20210
555.391	19813
555.454	19573
555.517	20043
555.580	18585
555.642	17289
555.705	18211
555.768	18306
555.830	17462
555.893	16794
555.955	16323
556.018	16960
556.080	16706
556.143	15842
556.206	16682
556.268	16542
556.330	15989
556.393	16267
556.455	16748
556.518	19150
556.580	18374
556.643	14347
556.705	15055
556.767	13715
556.830	13917
556.892	15041
556.955	14814
557.017	14738
557.079	13876
557.142	12815
557.204	13699
557.266	17413
557.328	15841
557.391	12006
557.453	11184
557.515	12069
557.577	13332
557.639	13028
557.701	11781
557.764	10919
557.826	11774
557.888	13471
557.950	12265
558.012	12789
558.074	15757
558.136	25489
558.198	55100
558.260	26902
558.322	13493
558.384	13475
558.446	14417
558.508	16759
558.570	17913
558.632	23291
558.694	31676
558.756	40875
558.818	104747
558.880	262120
558.942	90966
559.003	57516
559.065	32492
559.127	16061
559.189	16206
559.251	18102
559.312	24524
559.374	51075
559.436	160558
559.498	89176
559.559	18075
559.621	16461
559.683	18308
559.744	29147
559.806	76483
559.868	118674
559.929	29136
559.991	17898
560.052	23377
560.114	53084
560.176	40250
560.237	31862
560.299	51489
560.360	17587
560.422	11608
560.483	10917
560.545	10044
560.606	10262
560.667	9693
560.729	9753
560.790	9270
560.852	9646
560.913	8814
560.974	9849
561.036	9110
561.097	9568
561.158	8740
561.220	9650
561.281	9073
561.342	9369
561.403	11415
561.465	10568
561.526	16390
561.587	20419
561.648	10619
561.709	9433
561.771	9466
561.832	9002
561.893	8757
561.954	9110
562.015	9364
562.076	9187
562.137	9326
562.198	8317
562.259	9603
562.320	9263
562.381	9482
562.442	10612
562.503	9831
562.564	9202
562.625	8889
562.686	8211
562.747	8835
562.808	9361
562.869	9697
562.930	11664
562.991	11071
563.051	10325
563.112	9243
563.173	9369
563.234	7956
563.294	9354
563.355	8910
563.416	9572
563.477	8974
563.537	9129
563.598	10622
563.659	9817
563.720	9813
563.780	10417
563.841	9130
563.901	10190
563.962	9669
564.023	9478
564.083	9313
564.144	10564
564.204	8894
564.265	9221
564.325	10390
564.386	16558
564.446	16553
564.507	8978
564.567	9345
564.628	9151
564.688	9155
564.749	9840
564.809	9544
564.869	11453
564.930	8960
564.990	9667
565.050	8274
565.111	8801
565.171	9141
565.231	8801
565.292	8962
565.352	7728
565.412	8699
565.472	8817
565.532	8936
565.593	8312
565.653	8130
565.713	8380
565.773	8856
565.833	9102
565.893	10423
565.953	9458
566.013	9119
566.074	9059
566.134	11799
566.194	15708
566.254	16362
566.314	11403
566.374	8257
566.434	9717
566.494	8820
566.554	8593
566.614	8449
566.673	9269
566.733	9146
566.793	9875
566.853	9222
566.913	9359
566.973	9573
567.033	9358
567.092	9548
567.152	9670
567.212	9549
567.272	9682
567.331	9003
567.391	9712
567.451	9601
567.511	12551
567.570	12939
567.630	9848
567.690	7941
567.749	8777
567.809	7335
567.868	8774
567.928	9124
567.988	8905
568.047	7977
568.107	9032
568.166	8775
568.226	9469
568.285	10830
568.345	9778
568.404	9423
568.464	10339
568.523	9375
568.582	9720
568.642	9695
568.701	10291
568.761	11267
568.820	11314
568.879	12753
568.939	13649
568.998	10458
569.057	9434
569.116	8711
569.176	9585
569.235	8027
569.294	8732
569.353	7461
569.413	8498
569.472	8166
569.531	8776
569.590	7172
569.649	7425
569.708	7716
569.767	9003
569.827	9875
569.886	9387
569.945	8050
570.004	7880
570.063	8065
570.122	8409
570.181	9110
570.240	9196
570.299	10268
570.358	10021
570.417	8014
570.475	6837
570.534	7191
570.593	8607
570.652	7328
570.711	8575
570.770	7902
570.829	9411
570.887	8272
570.946	8011
571.005	7832
571.064	8305
571.122	8636
571.181	9093
571.240	7431
571.299	7713
571.357	8426
571.416	9537
571.475	8854
571.533	9601
571.592	8109
571.650	8395
571.709	7072
571.768	8351
571.826	8014
571.885	8037
571.943	6765
572.002	7506
572.060	7113
572.119	6803
572.177	7363
572.236	7583
572.294	7407
572.352	7345
572.411	7259
572.469	7451
572.528	5812
572.586	7143
572.644	7805
572.703	8934
572.761	7761
572.819	7543
572.877	7548
572.936	6857
572.994	6993
573.052	6408
573.110	7053
573.169	7293
573.227	7004
573.285	6578
573.343	6828
573.401	6870
573.459	7427
573.517	7072
573.576	7104
573.634	7668
573.692	7686
573.750	7364
573.808	5525
573.866	6672
573.924	8920
573.982	9238
574.040	6472
574.098	6642
574.155	6456
574.213	6514
574.271	6152
574.329	6458
574.387	6458
574.445	6356
574.503	6156
574.560	6323
574.618	6167
574.676	5932
574.734	5711
574.792	6140
574.849	5674
574.907	6103
574.965	5762
575.022	5606
575.080	5107
575.138	5870
575.195	5652
575.253	5899
575.311	5988
575.368	5798
575.426	5346
575.483	6108
575.541	5522
575.598	5818
575.656	5650
575.713	5978
575.771	6194
575.828	6241
575.886	6405
575.943	6240
576.001	6404
576.058	6391
576.115	7198
576.173	7106
576.230	7968
576.287	9108
576.345	6288
576.402	7466
576.459	6900
576.517	6406
576.574	7786
576.631	7976
576.688	7595
576.746	6494
576.803	6452
576.860	6496
576.917	7216
576.974	6230
577.031	6602
577.089	7181
577.146	6029
577.203	6636
577.260	6725
577.317	6978
577.374	6896
577.431	7646
577.488	7079
577.545	6692
577.602	6526
577.659	7584
577.716	6908
577.773	8150
577.830	6736
577.886	6954
577.943	6763
578.000	7228
578.057	7950
578.114	9491
578.171	10588
578.227	14742
578.284	14350
578.341	11243
578.398	8975
578.454	8828
578.511	8188
578.568	9055
578.625	7064
578.681	6437
578.738	6291
578.794	6464
578.851	6540
578.908	6789
578.964	6560
579.021	7346
579.077	5280
579.134	6148
579.190	6911
579.247	6042
579.303	5366
579.360	6426
579.416	6228
579.473	6328
579.529	5795
579.586	6509
579.642	7329
579.698	7058
579.755	7421
579.811	7936
579.867	7720
579.924	7833
579.980	9128
580.036	11328
580.093	13583
580.149	20932
580.205	24376
580.261	17428
580.317	12695
580.374	10774
580.430	9981
580.486	9038
580.542	8270
580.598	8011
580.619	7704
580.654	7176
580.692	6561
580.710	6262
580.765	6889
580.767	6912
580.823	7831
580.838	7761
580.879	7582
580.911	7527
580.935	7505
580.984	6582
580.991	6462
581.047	8010
581.057	8031
581.103	8164
581.130	8680
581.159	9234
581.203	10837
581.215	11260
581.270	10353
581.276	10230
581.326	9125
581.349	8910
581.382	8580
581.422	8724
581.438	8801
581.494	8500
581.494	8483
581.550	7063
581.567	7365
581.606	8009
581.640	7861
581.661	7812
581.713	8556
581.717	8602
581.773	7428
581.786	7422
581.829	7581
581.859	7432
581.885	7309
581.932	7807
581.940	7880
581.996	7442
582.004	7598
582.052	8478
582.077	8091
582.107	7676
582.150	7899
582.163	7959
582.219	7423
582.223	7474
582.274	8183
582.296	8103
582.330	7932
582.368	7980
582.386	8032
582.441	8139
582.441	8139
582.497	8358
582.514	8377
582.552	8611
582.587	9446
582.608	9902
582.659	9452
582.663	9407
582.719	8450
582.732	8336
582.774	8050
582.805	8247
582.830	8460
582.877	8972
582.885	9056
582.941	9448
582.950	9474
582.996	9614
583.023	10488
583.052	11633
583.095	12287
583.107	12467
583.162	15911
583.168	16017
583.218	16561
583.240	15720
583.273	14318
583.313	12515
583.328	11851
583.384	10576
583.385	10558
583.439	10147
583.458	9909
583.494	9409
583.531	8582
583.549	8230
583.603	8020
583.605	8015
583.660	8308
583.676	8454
583.715	8747
583.748	8432
583.770	8272
583.820	8484
583.825	8499
583.881	8735
583.893	8615
583.936	8217
583.965	8366
583.991	8470
584.038	8523
584.046	8573
584.101	8603
584.110	8697
584.156	8780
584.183	8294
584.211	7892
584.255	8719
584.266	8925
584.321	8378
584.328	8408
584.376	8860
584.400	9016
584.431	9051
584.472	8658
584.486	8576
584.541	9116
584.545	9139
584.596	9364
584.617	9075
584.651	8891
584.689	9602
584.706	9749
584.761	9557
584.762	9549
584.816	9376
584.834	9650
584.871	10070
584.906	10265
584.926	10317
584.978	10213
584.980	10221
585.035	10505
585.051	10574
585.090	10840
585.123	11067
585.145	11178
585.195	11607
585.200	11674
585.254	12062
585.267	12391
585.309	13798
585.340	14514
585.364	14649
585.412	14406
585.419	14388
585.473	15235
585.484	15419
585.528	17322
585.556	19469
585.583	23806
585.628	34033
585.637	38101
585.692	70196
585.700	76331
585.747	101308
585.772	92595
585.801	63079
585.845	26847
585.856	22674
585.910	15011
585.917	14268
585.965	12945
585.989	12738
586.019	12696
586.061	12002
586.074	11886
586.128	12216
586.133	12249
586.183	12830
586.205	12806
586.237	12588
586.277	12486
586.292	12537
586.346	12661
586.349	12669
586.401	12592
586.421	12581
586.455	13139
586.493	14158
586.509	15160
586.564	17966
586.565	18096
586.618	27115
586.637	28400
586.672	23784
586.709	17173
586.727	15310
586.781	13921
586.781	13932
586.835	12966
586.853	12962
586.889	12857
586.925	11810
586.944	11395
586.996	12170
586.998	12214
587.052	12560
587.068	12579
587.106	12511
587.140	12630
587.161	12663
587.212	12593
587.215	12611
587.269	12857
587.284	12879
587.323	12826
587.356	12811
587.377	12953
587.427	13617
587.431	13667
587.485	13412
587.499	13471
587.539	13807
587.571	13910
587.593	13948
587.643	13834
587.648	13877
587.702	14517
587.715	14709
587.755	15286
587.786	15374
587.810	15363
587.858	15709
587.864	15781
587.917	16776
587.930	16825
587.971	17644
588.001	18266
588.025	18503
588.073	19113
588.079	19302
588.133	20340
588.145	20715
588.187	21847
588.217	22402
588.241	23172
588.288	24902
588.295	25227
588.348	27937
588.360	28419
588.402	31452
588.431	33942
588.456	35475
588.503	38780
588.510	39559
588.564	45281
588.575	46652
588.617	53644
588.646	58888
588.671	64617
588.718	77535
588.725	81368
588.778	114370
588.789	122951
588.832	197081
588.861	253425
588.886	344163
588.932	537519
588.939	554470
588.993	649573
589.004	650462
589.047	436606
589.075	295194
589.100	221413
589.147	113004
589.154	108393
589.207	81189
589.218	76255
589.261	72374
589.290	70969
589.314	74687
589.361	83868
589.368	87996
589.421	126284
589.433	135811
589.475	237471
589.504	317435
589.528	403397
589.576	573612
589.582	561279
589.635	363904
589.647	320729
589.689	175536
589.718	88610
589.742	73088
589.790	46763
589.795	45999
589.849	40393
589.861	39265
589.902	39232
589.932	38615
589.955	34744
590.004	25933
590.009	25690
590.062	23481
590.075	22988
590.115	21946
590.146	21068
590.168	20996
590.218	20594
590.222	20569
590.275	19908
590.289	19728
590.328	20130
590.360	20250
590.381	19632
590.431	18095
590.435	18173
590.488	18968
590.503	19220
590.541	19044
590.574	18765
590.594	18832
590.645	18879
590.647	18893
590.700	18234
590.716	18031
590.753	18276
590.787	18345
590.806	18238
590.859	17968
590.859	17997
590.912	17491
590.930	17369
590.965	17466
591.001	17441
591.018	17447
591.071	17397
591.072	17364
591.124	17660
591.143	17741
591.177	17639
591.214	17427
591.230	17671
591.283	18492
591.285	18485
591.336	18472
591.356	18446
591.389	18830
591.427	19145
591.442	18982
591.495	18251
591.498	18160
591.547	17999
591.569	17907
591.600	17854
591.640	17612
591.653	17723
591.706	18151
591.711	18159
591.759	18999
591.782	19391
591.811	20475
591.853	21893
591.864	21576
591.917	19710
591.924	19393
591.969	19324
591.995	19313
592.022	19526
592.066	19577
592.075	19942
592.127	22086
592.137	22445
592.180	23812
592.208	24539
592.233	22855
592.279	19505
592.285	19513
592.338	19311
592.350	19238
592.390	18756
592.421	18310
592.443	18659
592.491	19361
592.495	19379
592.548	19168
592.562	19081
592.600	18912
592.633	18708
592.653	18744
592.704	18655
592.705	18765
592.775	18944
592.846	19078
592.916	19968
592.987	20249
593.058	19569
593.128	18957
593.199	18293
593.270	17472
593.341	19082
593.411	19584
593.482	19884
593.553	19645
593.623	19447
593.694	20253
593.764	21523
593.835	20684
593.906	19311
593.976	19928
594.047	20044
594.117	23644
594.188	23924
594.258	19238
594.329	19791
594.399	20129
594.470	21281
594.540	19935
594.611	20842
594.681	21143
594.751	20871
594.822	22069
594.892	22566
594.963	22785
595.033	22131
595.103	24137
595.174	25004
595.244	31429
595.314	36993
595.384	25707
595.455	23771
595.525	24377
595.595	24467
595.665	25403
595.736	24621
595.806	24752
595.876	24382
595.946	24955
596.016	24678
596.087	25578
596.157	25790
596.227	24908
596.297	26433
596.367	27911
596.437	30154
596.507	34014
596.577	41173
596.647	31333
596.717	29282
596.787	29476
596.857	29435
596.927	29839
596.997	30277
597.067	30714
597.137	32955
597.207	31972
597.277	31255
597.347	31135
597.417	30096
597.487	31000
597.557	31139
597.626	31594
597.696	33146
597.766	36838
597.836	40792
597.906	32851
597.975	30397
598.045	29667
598.115	30515
598.185	31345
598.254	33703
598.324	36013
598.394	35389
598.464	35949
598.533	35024
598.603	33741
598.672	33595
598.742	34431
598.812	34006
598.881	34808
598.951	34967
599.020	34479
599.090	35123
599.159	36842
599.229	34455
599.299	35059
599.368	35195
599.437	35739
599.507	34318
599.576	35197
599.646	35849
599.715	37782
599.785	35545
599.854	35458
599.924	37389
599.993	36446
600.062	34816
600.132	36206
600.201	38529
600.270	41053
600.340	42064
600.409	41119
600.478	42055
600.547	41485
600.617	41176
600.686	38795
600.755	36953
600.824	36972
600.894	37030
600.963	36602
601.032	37838
601.101	38012
601.170	38861
601.239	39230
601.308	38605
601.378	38519
601.447	39906
601.516	39263
601.585	40925
601.654	39315
601.723	42980
601.792	44411
601.861	45091
601.930	49106
601.999	49339
602.068	46409
602.137	46898
602.206	47172
602.275	48007
602.343	48810
602.412	49636
602.481	49005
602.550	48587
602.619	50584
602.688	49566
602.756	50492
602.825	50462
602.894	50580
602.963	51065
603.032	50932
603.100	52843
603.169	50339
603.238	51738
603.307	50200
603.375	50611
603.444	52172
603.513	49511
603.581	50764
603.650	53935
603.719	45921
603.787	42957
603.856	44900
603.924	45571
603.993	46074
604.061	47822
604.130	49124
604.198	50592
604.267	49991
604.335	51589
604.404	50274
604.472	52956
604.541	52814
604.609	54434
604.678	55244
604.746	55715
604.815	58335
604.883	57013
604.951	56390
605.020	57084
605.088	54573
605.156	51842
605.225	52608
605.293	50736
605.361	51071
605.429	50859
605.498	52729
605.566	51917
605.634	54273
605.702	54127
605.771	55659
605.839	57106
605.907	52822
605.975	53602
606.043	53131
606.111	51131
606.180	54982
606.248	53512
606.316	53999
606.384	54180
606.452	50089
606.520	41766
606.588	40426
606.656	38981
606.724	39358
606.792	37498
606.860	34531
606.928	32606
606.996	31007
607.064	29909
607.132	31396
607.200	33345
607.267	33494
607.335	33738
607.403	34699
607.471	33500
607.539	33093
607.607	33720
607.674	30876
607.742	30414
607.810	30900
607.878	30031
607.946	30095
608.013	31274
608.081	31930
608.149	32361
608.216	32372
608.284	34451
608.352	33908
608.419	33565
608.487	39059
608.555	33533
608.622	32040
608.690	33381
608.757	35929
608.825	36491
608.893	36204
608.960	36493
609.028	37101
609.095	39630
609.163	33936
609.230	31342
609.298	29464
609.365	29388
609.432	31353
609.500	33225
609.567	36987
609.635	42081
609.702	42514
609.769	42506
609.837	37131
609.904	33092
609.971	32070
610.039	38420
610.106	50099
610.173	93821
610.241	215250
610.308	180868
610.375	85691
610.442	42339
610.509	33878
610.577	33193
610.644	32917
610.711	33228
610.778	33398
610.845	34585
610.912	37097
610.980	39290
611.047	45313
611.114	41527
611.181	36213
611.248	34188
611.315	37742
611.382	37221
611.449	38602
611.516	39684
611.583	39071
611.650	39056
611.717	39688
611.784	41116
611.851	43174
611.918	46834
611.984	55586
612.051	81367
612.118	170354
612.185	420887
612.252	304113
612.319	72963
612.386	53663
612.452	47861
612.519	47110
612.586	50911
612.653	47475
612.719	45290
612.786	44111
612.853	41309
612.919	39256
612.986	39799
613.053	38270
613.120	36471
613.186	34340
613.253	37076
613.319	36102
613.386	36273
613.453	36240
613.519	37716
613.586	38568
613.652	43562
613.719	40042
613.785	39664
613.852	37666
613.918	36781
613.985	38725
614.051	45943
614.118	63936
614.184	64233
614.250	39400
614.317	38453
614.383	37034
614.449	37207
614.516	37451
614.582	38288
614.648	36671
614.715	36165
614.781	36361
614.847	37042
614.914	36814
614.980	35617
615.046	36225
615.112	35947
615.179	35972
615.245	36055
615.311	35796
615.377	37620
615.443	37779
615.509	38206
615.575	39567
615.642	38609
615.708	40977
615.774	42908
615.840	46041
615.906	52178
615.972	64248
616.038	97431
616.104	213730
616.170	523225
616.236	504991
616.302	115208
616.368	72939
616.434	54703
616.500	50293
616.565	53444
616.631	63047
616.697	55189
616.763	54139
616.829	74295
616.895	128060
616.961	130785
617.026	64719
617.092	43805
617.158	41295
617.224	40276
617.289	37290
617.355	37666
617.421	37726
617.487	38023
617.552	35284
617.618	34284
617.684	34656
617.749	37127
617.815	34708
617.880	33289
617.946	33959
618.012	34462
618.077	34536
618.143	33559
618.208	33933
618.274	34983
618.339	36463
618.405	31107
618.470	32418
618.536	32474
618.601	33940
618.667	32670
618.732	30513
618.798	30552
618.863	30148
618.928	30080
618.994	31052
619.059	31551
619.124	34479
619.190	31688
619.255	29758
619.320	30778
619.386	30112
619.451	29601
619.516	28865
619.581	29131
619.647	30341
619.712	30402
619.777	29866
619.842	29459
619.907	30649
619.972	30330
620.038	30953
620.103	30525
620.168	30055
620.233	30463
620.298	29368
620.363	29316
620.428	30754
620.493	31026
620.558	31697
620.623	31701
620.688	32117
620.753	31196
620.818	30852
620.883	33548
620.948	31445
621.013	31484
621.078	31376
621.143	30504
621.207	34029
621.272	32805
621.337	32507
621.402	33639
621.467	37956
621.532	38653
621.596	34311
621.661	32485
621.726	32767
621.791	33234
621.855	33067
621.920	33563
621.985	33347
622.049	36992
622.114	35753
622.179	34338
622.243	35271
622.308	35598
622.373	37215
622.437	36285
622.502	34550
622.566	34634
622.631	33107
622.695	36286
622.760	35389
622.824	34453
622.889	33875
622.953	34367
623.018	40038
623.082	39856
623.147	35434
623.211	34436
623.276	33602
623.340	33017
623.404	32921
623.469	32292
623.533	33374
623.597	31714
623.662	32269
623.726	30886
623.790	29647
623.854	29841
623.919	30498
623.983	29814
624.047	29456
624.111	30433
624.176	30337
624.240	31313
624.304	33183
624.368	30141
624.432	30473
624.496	31332
624.560	33087
624.625	33349
624.689	30900
624.753	32672
624.817	30861
624.881	29115
624.945	28991
625.009	28110
625.073	28543
625.137	29375
625.201	31955
625.265	31339
625.329	29164
625.393	30044
625.456	29065
625.520	29466
625.584	30677
625.648	34832
625.712	44502
625.776	78217
625.839	90096
625.903	44922
625.967	28966
626.031	39767
626.095	57486
626.158	31620
626.222	23300
626.286	23000
626.349	21617
626.413	21702
626.477	23352
626.540	20703
626.604	21071
626.668	21749
626.731	20873
626.795	20618
626.858	21270
626.922	19781
626.986	20407
627.049	19894
627.113	20654
627.176	20857
627.240	20240
627.303	19375
627.366	18991
627.430	19090
627.493	19436
627.557	19655
627.620	21061
627.684	20171
627.747	20193
627.810	17669
627.874	19216
627.937	16999
628.000	19143
628.064	18064
628.127	16398
628.190	17168
628.253	16721
628.317	16397
628.380	15721
628.443	15145
628.506	15531
628.569	14843
628.632	13874
628.696	14772
628.759	14630
628.822	14051
628.885	13743
628.948	13797
629.011	14149
629.074	13870
629.137	13070
629.200	12713
629.263	14951
629.326	12765
629.389	12716
629.452	13087
629.515	12693
629.578	12320
629.641	13063
629.704	13436
629.767	13351
629.830	12421
629.892	12768
629.955	11981
630.018	14037
630.081	12350
630.144	14193
630.207	11712
630.269	14665
630.332	13516
630.395	12414
630.458	11600
630.520	10997
630.583	12487
630.646	11193
630.708	10564
630.771	10457
630.834	12413
630.896	11510
630.959	11515
631.021	10384
631.084	11420
631.146	12257
631.209	13855
631.272	11514
631.334	12133
631.397	10330
631.459	11263
631.522	11088
631.584	11620
631.646	11651
631.709	12050
631.771	13246
631.834	12708
631.896	11013
631.958	10070
632.021	11977
632.083	10306
632.145	11698
632.208	9655
632.270	11506
632.332	9323
632.395	10313
632.457	10731
632.519	10024
632.581	10920
632.643	9598
632.706	10543
632.768	8705
632.830	10596
632.892	10939
632.954	9857
633.016	11472
633.078	9077
633.141	9576
633.203	10100
633.265	10577
633.327	9719
633.389	9119
633.451	10846
633.513	11390
633.575	12461
633.637	11160
633.698	10468
633.760	10562
633.822	10360
633.884	10959
633.946	10376
634.008	10741
634.070	11628
634.132	13281
634.193	12053
634.255	11798
634.317	11281
634.379	13036
634.441	10331
634.502	9975
634.564	9677
634.626	9520
634.687	8784
634.749	10431
634.811	10140
634.873	8663
634.934	9123
634.996	10372
635.057	8711
635.119	8463
635.181	8899
635.242	9881
635.304	8345
635.365	11785
635.427	8978
635.488	9671
635.550	8407
635.611	9182
635.673	6711
635.734	11395
635.796	9480
635.857	11644
635.918	10076
635.980	12011
636.041	11558
636.102	11662
636.164	11389
636.225	11751
636.286	9967
636.348	10072
636.409	9345
636.470	9408
636.531	9362
636.593	10434
636.654	9591
636.715	9720
636.776	8126
636.838	8134
636.899	9455
636.960	8078
637.021	6873
637.082	8178
637.143	8739
637.204	6711
637.265	7418
637.326	7649
637.387	8693
637.448	7176
637.509	7683
637.570	7737
637.631	9062
637.692	6881
637.753	6659
637.814	8223
637.875	7451
637.936	7645
637.997	7572
638.058	8146
638.119	8689
638.179	7453
638.240	7282
638.301	7522
638.362	6670
638.423	7439
638.483	8200
638.544	6234
638.605	7625
638.666	6626
638.726	8089
638.787	7892
638.848	7483
638.908	7384
638.969	7995
639.030	7404
639.090	6017
639.151	6255
639.211	8613
639.272	8668
639.332	11256
639.393	7957
639.453	6915
639.514	7801
639.574	7257
639.635	6451
639.695	8116
639.756	6253
639.816	8227
639.877	7828
639.937	9793
639.997	11178
640.058	6172
640.118	6013
640.178	7344
640.239	5781
640.299	6112
640.359	6921
640.420	7008
640.480	7390
640.540	6676
640.600	7537
640.661	7328
640.721	5996
640.781	9126
640.841	6551
640.901	7483
640.961	6828
641.021	6830
641.082	6648
641.142	8435
641.202	8286
641.262	5291
641.322	7023
641.382	5175
641.442	7288
641.502	6433
641.562	6823
641.622	5664
641.682	6603
641.742	6274
641.802	6196
641.861	8024
641.921	7091
641.981	7473
642.041	6974
642.101	7282
642.161	5239
642.221	5732
642.280	6254
642.340	6436
642.400	5409
642.460	6978
642.519	6554
642.579	7170
642.639	6674
642.698	4132
642.758	7609
642.818	6361
642.877	5948
642.937	5939
642.997	7136
643.056	7418
643.116	5342
643.175	7586
643.235	6661
643.294	6008
643.354	7532
643.414	7740
643.473	8500
643.532	9367
643.592	11982
643.651	18226
643.711	32311
643.770	62801
643.830	148246
643.889	339908
643.948	91094
644.008	15297
644.067	10203
644.126	7324
644.186	7264
644.245	7309
644.304	4541
644.363	8041
644.423	5369
644.482	6139
644.541	6023
644.600	4571
644.659	7690
644.719	7442
644.778	10850
644.837	16736
644.896	32296
644.955	76943
645.014	30842
645.073	9784
645.132	6826
645.191	6956
645.250	5291
645.309	7136
645.368	6149
645.427	7663
645.486	9299
645.545	17263
645.604	7821
645.663	6336
645.722	5436
645.781	6929
645.840	7578
645.898	8219
645.957	12479
646.016	14946
646.075	30647
646.134	57935
646.192	149300
646.251	242348
646.310	38946
646.369	11013
646.427	8607
646.486	6731
646.545	6767
646.603	5949
646.662	5805
646.721	5489
646.779	5173
646.838	4611
646.896	7186
646.955	7496
647.014	10977
647.072	16861
647.131	47662
647.189	25594
647.248	5476
647.306	6073
647.365	5890
647.423	3379
647.481	6594
647.540	3122
647.598	4739
647.657	4272
647.715	4713
647.773	4114
647.832	5120
647.890	3015
647.948	4550
648.007	5675
648.065	3798
648.123	4551
648.181	6325
648.240	6760
648.298	5668
648.356	4112
648.414	4296
648.472	4338
648.531	4519
648.589	3732
648.647	3912
648.705	4158
648.763	3621
648.821	3487
648.879	3992
648.937	4303
648.995	5313
649.053	5530
649.111	8382
649.169	13165
649.227	22322
649.285	45824
649.343	133137
649.401	72912
649.459	16584
649.516	12591
649.574	8015
649.632	17810
649.690	21768
649.748	11329
649.806	11719
649.863	21821
649.921	33996
649.979	24654
650.037	6225
650.094	3146
650.152	4684
650.210	3329
650.268	4288
650.325	5149
650.383	4109
650.440	2787
650.498	3764
650.556	4259
650.613	3786
650.671	2969
650.728	3834
650.786	4595
650.843	3933
650.901	2351
650.958	3639
651.016	3567
651.073	2969
651.131	3264
651.188	2601
651.246	3426
651.303	3434
651.360	3709
651.418	2368
651.475	3291
651.532	2728
651.590	3040
651.647	1848
651.704	2978
651.762	3191
651.819	4183
651.876	2501
651.933	1884
651.990	3805
652.048	1002
652.105	2500
652.162	2810
652.219	2604
652.276	2879
652.333	3712
652.390	1664
652.448	3234
652.505	2980
652.562	3500
652.619	3859
652.676	6180
652.733	7582
652.790	2559
652.847	1295
652.904	3065
652.961	2127
653.017	2129
653.074	2790
653.131	2385
653.188	2586
653.245	2976
653.302	3206
653.359	2456
653.415	2834
653.472	2272
653.529	2858
653.586	1646
653.642	2299
653.699	3653
653.756	1837
653.813	2372
653.869	2528
653.926	1588
653.983	2581
654.039	2432
654.096	2280
654.152	3563
654.209	1191
654.266	2998
654.322	1300
654.379	2302
654.435	3412
654.492	3318
654.548	4486
654.605	5932
654.661	3841
654.717	3560
654.774	2655
654.830	2771
654.887	2906
654.943	2083
655.000	3128
655.056	2833
655.112	3500
655.168	2337
655.225	2926
655.281	3878
655.337	3999
655.394	6406
655.450	5498
655.506	4364
655.562	6028
655.618	6515
655.675	2193
655.731	2716
655.787	2509
655.843	3268
655.899	1194
655.955	2966
656.011	2854
656.067	1111
656.123	2765
656.179	3012
656.235	3375
656.291	1219
656.347	3274
656.403	2353
656.459	2776
656.515	3128
656.571	2997
656.627	2502
656.683	2437
656.739	2675
656.795	2661
656.850	2637
656.906	3110
656.962	3054
657.018	1713
657.074	2421
657.129	2083
657.185	3733
657.241	5445
657.297	3419
657.352	3232
657.408	1830
657.464	3555
657.519	2668
657.575	2081
657.630	1948
657.686	2660
657.742	954
657.797	2559
657.853	2542
657.908	3840
657.964	1412
658.019	2294
658.075	2404
658.130	2970
658.186	1493
658.241	2031
658.297	1787
658.352	1586
658.407	2798
658.463	2439
658.518	2312
658.573	2372
658.629	2377
658.684	1415
658.739	2684
658.795	1568
658.850	2869
658.905	1811
658.960	2057
659.016	1340
659.071	2470
659.126	2693
659.181	2303
659.236	4513
659.291	3814
659.346	2357
659.401	2807
659.457	3968
659.512	4817
659.567	3714
659.622	2639
659.677	1073
659.732	1690
659.787	2615
659.842	2912
659.897	3846
659.952	3314
660.007	2236
660.061	2680
660.116	2300
660.171	2009
660.226	1794
660.281	3151
660.336	2073
660.391	2853
660.445	1580
660.500	2591
660.555	2053
660.610	1268
660.664	2337
660.719	2374
660.774	2410
660.828	2355
660.883	1457
660.938	3306
660.992	1357
661.047	2451
661.101	2185
661.156	2743
661.211	955
661.265	2032
661.320	1879
661.374	2141
661.429	1741
661.483	3219
661.538	1519
661.592	1839
661.647	1904
661.701	2358
661.755	1631
661.810	2306
661.864	2173
661.919	2273
661.973	2697
662.027	2326
662.081	1850
662.136	2368
662.190	2925
662.244	3056
662.299	2014
662.353	2742
662.407	1597
662.461	1229
662.515	3185
662.569	2036
662.624	2774
662.678	2826
662.732	1883
662.786	2170
662.840	2440
662.894	1923
662.948	1469
663.002	1520
663.056	1836
663.110	1110
663.164	2510
663.218	1499
663.272	2136
663.326	2019
663.380	1304
663.434	2564
663.488	1235
663.542	2295
663.595	2346
663.649	2079
663.703	2538
663.757	2747
663.811	2586
663.864	1565
663.918	2296
663.972	1338
664.026	2501
664.079	1564
664.133	2300
664.187	2128
664.240	1748
664.294	1563
664.348	1725
664.401	3097
664.455	2233
664.508	1159
664.562	1806
664.615	1866
664.669	1375
664.722	2847
664.776	1567
664.829	2562
664.883	1794
664.936	1617
664.990	2624
665.043	2555
665.097	2360
665.150	3634
665.203	1251
665.257	1922
665.310	1929
665.363	2411
665.417	2495
665.470	3237
665.523	2242
665.576	2681
665.630	1711
665.683	2992
665.736	2142
665.789	1889
665.842	1531
665.895	2357
665.949	1942
666.002	1209
666.055	2326
666.108	3012
666.161	2131
666.214	2545
666.267	2800
666.320	2736
666.373	1991
666.426	1514
666.479	2328
666.532	2426
666.585	2616
666.638	3490
666.691	1968
666.744	2888
666.796	2779
666.849	3390
666.902	2480
666.955	2664
667.008	1880
667.060	2567
667.113	1718
667.166	2068
667.219	2712
667.271	1930
667.324	2189
667.377	2665
667.430	3181
667.482	2739
667.535	3023
667.587	2542
667.640	2171
667.693	3273
667.745	3439
667.798	4096
667.850	2101
667.903	2740
667.955	2622
668.008	2192
668.060	2425
668.113	3697
668.165	2619
668.218	2523
668.270	2737
668.322	2426
668.375	2328
668.427	2700
668.479	2842
668.532	2597
668.584	2542
668.636	1928
668.689	2625
668.741	2221
668.793	1707
668.845	1596
668.898	2894
668.950	2977
669.002	2823
669.054	1519
669.106	1831
669.158	2251
669.211	2308
669.263	2901
669.315	3656
669.367	4054
669.419	2377
669.471	4035
669.523	3144
669.575	4795
669.627	3641
669.679	2643
669.731	2633
669.783	3206
669.835	3815
669.886	2609
669.938	2768
669.990	2589
670.042	2820
670.094	3248
670.146	3444
670.197	3781
670.249	4091
670.301	4660
670.353	7822
670.404	9916
670.456	12912
670.508	22620
670.560	36855
670.611	62055
670.663	106199
670.715	231036
670.766	363237
670.818	147367
670.869	30375
670.921	13789
670.972	9785
671.024	6534
671.075	5355
671.127	4412
671.178	3882
671.230	3714
671.281	4026
671.333	3311
671.384	3330
671.436	4320
671.487	4338
671.538	4821
671.590	5315
671.641	7792
671.692	10510
671.744	19727
671.795	15754
671.846	6191
671.897	3873
671.949	4336
672.000	3088
672.051	2846
672.102	3391
672.153	2061
672.204	2499
672.256	3003
672.307	2621
672.358	2661
672.409	2531
672.460	2391
672.511	2267
672.562	1226
672.613	2304
672.664	2219
672.715	2178
672.766	1566
672.817	1946
672.868	2526
672.919	2559
672.970	2461
673.021	2075
673.071	2086
673.122	2300
673.173	1857
673.224	2134
673.275	1267
673.326	2254
673.376	2714
673.427	2315
673.478	2684
673.528	2213
673.579	2084
673.630	1741
673.680	2583
673.731	628
673.782	2046
673.832	2381
673.883	1990
673.934	1350
673.984	1896
674.035	1948
674.085	1755
674.136	2388
674.186	2439
674.237	2062
674.287	4610
674.338	1863
674.388	1713
674.438	1326
674.489	1968
674.539	2799
674.589	2206
674.640	2144
674.690	2103
674.740	1608
674.791	2464
674.841	1567
674.891	2407
674.942	1939
674.992	298
675.042	1217
675.092	519
675.142	1417
675.193	1381
675.243	487
675.293	1839
675.343	1050
675.393	2262
675.443	1851
675.493	945
675.543	1139
675.593	1879
675.643	2171
675.693	1778
675.743	2005
675.793	1806
675.843	1513
675.893	1272
675.943	2807
675.993	2205
676.043	1358
676.093	1415
676.142	1481
676.192	2074
676.242	1200
676.292	604
676.341	1861
676.391	2000
676.441	1026
676.491	1117
676.540	1351
676.590	1199
676.640	1188
676.689	1368
676.739	1255
676.789	1303
676.838	631
676.888	1127
676.937	1590
676.987	887
677.037	1914
677.086	560
677.136	1425
677.185	1072
677.235	813
677.284	946
677.333	1000
677.383	1131
677.432	1006
677.482	1558
677.531	1445
677.580	850
677.630	1270
677.679	539
677.728	1568
677.778	1215
677.827	1135
677.876	1495
677.925	862
677.975	930
678.024	1460
678.073	1490
678.122	1396
678.171	824
678.220	689
678.269	2220
678.319	1874
678.368	1679
678.417	1051
678.466	1986
678.515	1535
678.564	1626
678.613	1135
678.662	660
678.711	895
678.760	1562
678.809	829
678.857	587
678.906	1161
678.955	1281
679.004	1298
679.053	1863
679.102	832
679.151	1246
679.199	985
679.248	1070
679.297	1534
679.346	1220
679.394	955
679.443	1038
679.492	1724
679.540	1150
679.589	543
679.638	769
679.686	1228
679.735	2163
679.784	1498
679.832	1213
679.881	588
679.929	758
679.978	1158
680.026	1452
680.075	54
680.123	766
680.172	-220
680.220	1138
680.268	1441
680.317	736
680.365	745
680.414	1115
680.462	426
680.510	566
680.559	1777
680.607	577
680.655	898
680.703	1063
680.752	1029
680.800	582
680.848	320
680.896	597
680.945	756
680.993	290
681.041	1308
681.089	412
681.137	677
681.185	150
681.233	375
681.258	392
681.281	366
681.329	1058
681.377	397
681.380	500
681.425	1620
681.473	1832
681.502	1544
681.521	1269
681.569	2052
681.617	1014
681.624	1141
681.665	1631
681.713	1754
681.745	1860
681.761	1855
681.809	2317
681.857	2737
681.867	2558
681.904	1762
681.952	2209
681.989	2370
682.000	2373
682.048	2287
682.096	2050
682.111	2067
682.143	1953
682.191	2447
682.233	2703
682.239	2700
682.286	3507
682.334	2850
682.354	2477
682.382	1893
682.430	3517
682.476	2692
682.477	2639
682.525	3123
682.572	2838
682.598	2947
682.620	2993
682.667	3336
682.715	3166
682.720	3203
682.763	3170
682.810	3097
682.841	2962
682.857	2826
682.905	2031
682.952	3626
682.963	3820
683.000	4406
683.047	3606
683.085	4264
683.095	4388
683.142	4350
683.190	4014
683.206	4101
683.237	4209
683.284	4628
683.328	4039
683.332	3957
683.379	3774
683.426	4268
683.449	4341
683.473	4397
683.521	4203
683.568	4476
683.571	4517
683.615	4539
683.662	4814
683.693	5120
683.709	5267
683.757	4245
683.804	5466
683.814	5348
683.851	4768
683.898	5286
683.936	5118
683.945	5061
683.992	5062
684.039	5362
684.057	5453
684.086	5505
684.133	5349
684.179	5479
684.180	5464
684.227	5590
684.274	5884
684.300	6308
684.321	6499
684.368	6201
684.415	5672
684.422	5653
684.462	5537
684.509	6200
684.543	6028
684.556	5911
684.603	6272
684.649	6655
684.665	6502
684.696	6261
684.743	6309
684.786	6668
684.790	6667
684.837	6841
684.883	7025
684.908	7093
684.930	7228
684.977	7699
685.023	8140
685.029	8175
685.070	7865
685.117	7481
685.150	7507
685.164	7621
685.210	7564
685.257	8244
685.272	8476
685.303	8686
685.350	8167
685.393	8228
685.396	8219
685.443	8408
685.490	8721
685.514	8775
685.536	8861
685.583	8789
685.629	8960
685.636	8897
685.675	8309
685.722	8448
685.757	8699
685.768	8800
685.815	8821
685.861	9107
685.878	9123
685.908	9094
685.954	8879
686.000	9313
686.000	9313
686.047	10150
686.093	10563
686.121	10667
686.139	10546
686.185	9953
686.232	9910
686.242	9978
686.278	10205
686.324	9939
686.363	9606
686.370	9558
686.416	9481
686.463	10179
686.484	10007
686.509	9806
686.555	9667
686.601	10055
686.606	10080
686.647	10190
686.693	9985
686.727	10059
686.739	10076
686.785	10414
686.831	9949
686.848	10000
686.877	10148
686.923	10179
686.969	9835
686.969	9832
687.015	9750
687.061	9626
687.090	10068
687.107	10283
687.153	10533
687.199	10008
687.211	10107
687.245	10379
687.291	10249
687.332	10622
687.336	10680
687.382	11061
687.428	11070
687.453	11421
687.474	11489
687.520	11404
687.565	10586
687.574	10480
687.611	10531
687.657	11015
687.695	11418
687.702	11493
687.748	12133
687.794	12598
687.816	12601
687.839	12295
687.885	11850
687.931	11786
687.937	11782
687.976	11989
688.022	11493
688.058	11319
688.067	11305
688.113	11530
688.158	11280
688.179	11347
688.204	11507
688.249	12141
688.295	12131
688.300	12140
688.340	12312
688.386	12287
688.421	12812
688.431	12899
688.477	12291
688.522	12130
688.542	12329
688.567	12680
688.613	12476
688.658	12773
688.663	12753
688.703	12597
688.749	12284
688.784	12569
688.794	12679
688.839	12634
688.884	12964
688.905	12982
688.930	13035
688.975	12667
689.020	12646
689.026	12597
689.065	12547
689.110	13472
689.146	13172
689.155	13040
689.201	13083
689.246	13114
689.267	13082
689.291	13130
689.336	13513
689.381	13227
689.388	13162
689.426	13087
689.471	13584
689.509	13875
689.516	13913
689.561	13584
689.606	13443
689.630	13171
689.651	13031
689.696	13663
689.741	13842
689.750	13850
689.785	13966
689.830	13927
689.871	13863
689.875	13851
689.920	14174
689.965	13578
689.992	13493
690.010	13625
690.054	13966
690.099	14244
690.112	14329
690.144	14606
690.189	14535
690.233	14954
690.233	14977
690.278	15097
690.323	15059
690.354	15172
690.367	15294
690.412	15638
690.457	16307
690.474	16320
690.501	16613
690.546	17039
690.590	17657
690.595	17694
690.635	18847
690.680	20290
690.716	21421
690.724	22005
690.769	25077
690.813	28407
690.836	29777
690.857	33776
690.902	42372
690.946	51440
690.957	53658
690.991	74790
691.035	103023
691.077	130362
691.080	130580
691.124	126283
691.168	122271
691.198	119953
691.213	110970
691.257	84158
691.301	57054
691.318	46447
691.346	41788
691.390	34542
691.434	26808
691.439	25935
691.478	24385
691.522	23036
691.559	21354
691.567	21262
691.611	20545
691.655	19860
691.680	19510
691.699	19400
691.743	18991
691.787	18748
691.800	18520
691.831	18254
691.875	18037
691.919	17593
691.921	17566
691.964	18224
692.008	18398
692.041	18473
692.052	18528
692.096	18531
692.139	19036
692.162	19125
692.183	18941
692.227	18355
692.271	18063
692.282	17829
692.315	17688
692.359	17921
692.402	17835
692.403	17870
692.447	18021
692.490	18191
692.523	18166
692.534	18217
692.578	18295
692.622	18264
692.643	18444
692.666	18597
692.709	18194
692.753	17918
692.763	17948
692.797	18412
692.840	18534
692.884	18619
692.884	18662
692.928	19118
692.971	19994
693.004	20339
693.015	20393
693.059	20437
693.102	20837
693.124	20778
693.146	21177
693.189	21927
693.233	22721
693.245	23007
693.276	24474
693.320	26014
693.363	27834
693.365	27830
693.407	30412
693.450	33499
693.485	35571
693.493	37062
693.537	44985
693.580	52313
693.605	56747
693.624	65648
693.667	86297
693.710	107202
693.725	114670
693.753	154870
693.797	217464
693.840	280526
693.845	287392
693.883	280424
693.926	270688
693.966	262247
693.970	256836
694.013	195307
694.056	133918
694.086	91312
694.099	86354
694.142	70269
694.185	54223
694.206	46316
694.229	43642
694.272	38652
694.315	33754
694.326	32344
694.358	30851
694.401	28745
694.444	26641
694.446	26482
694.487	25682
694.530	24601
694.566	23799
694.573	23738
694.616	22910
694.659	21914
694.686	21461
694.702	21407
694.745	20882
694.787	20539
694.806	20179
694.830	20022
694.873	19914
694.916	19730
694.926	19645
694.959	19607
695.002	19476
695.044	19325
695.046	19279
695.087	19742
695.130	19925
695.166	20110
695.172	20178
695.215	20251
695.258	20658
695.286	20596
695.301	20523
695.343	20224
695.386	20146
695.406	19856
695.428	19662
695.471	19759
695.514	19367
695.526	19271
695.556	19510
695.599	19928
695.641	19974
695.646	19954
695.684	19952
695.726	19929
695.766	19861
695.769	19904
695.811	19644
695.854	19634
695.886	19422
695.896	19432
695.938	19249
695.981	19157
696.005	19052
696.023	19195
696.065	19398
696.108	19700
696.125	19710
696.150	19936
696.192	20264
696.235	20555
696.245	20622
696.277	20818
696.319	20848
696.361	20975
696.365	20926
696.404	21571
696.446	22212
696.485	22796
696.488	22832
696.530	22466
696.572	22162
696.604	21814
696.614	21716
696.656	21157
696.698	20497
696.724	19991
696.740	20010
696.783	20082
696.825	20190
696.844	20135
696.867	20042
696.909	19787
696.951	19449
696.964	19326
696.992	19455
697.034	19577
697.076	19544
697.083	19512
697.118	19682
697.160	19878
697.202	19843
697.203	19790
697.244	19825
697.286	19991
697.323	19845
697.327	19863
697.369	19665
697.411	19525
697.442	19295
697.453	19468
697.494	19933
697.536	20584
697.562	20847
697.578	20641
697.620	19898
697.661	19211
697.682	18804
697.703	19149
697.744	19781
697.786	20406
697.801	20567
697.828	20565
697.869	20489
697.911	20412
697.921	20341
697.952	20429
697.994	20444
698.035	20476
698.040	20427
698.077	20073
698.118	19582
698.160	19043
698.160	18988
698.201	19380
698.243	19776
698.279	20080
698.284	20173
698.325	20494
698.367	20840
698.399	21014
698.408	20986
698.449	20632
698.491	20267
698.518	19975
698.532	20138
698.573	20435
698.614	20761
698.638	20882
698.656	21048
698.697	21315
698.738	21564
698.757	21634
698.779	21617
698.820	21446
698.862	21279
698.877	21165
698.903	21486
698.944	21892
698.985	22303
698.996	22357
699.026	21995
699.067	21411
699.116	20658
699.235	21032
699.354	19949
699.474	20885
699.593	22010
699.713	21281
699.832	20738
699.951	21380
700.070	19956
700.190	20876
700.309	20759
700.428	20695
700.547	19371
700.667	19146
700.786	19769
700.905	18956
701.024	19605
701.143	19064
701.262	17603
701.381	18182
701.500	20195
701.619	19463
701.738	18426
701.857	18571
701.976	17992
702.095	18330
702.214	18501
702.333	19139
702.452	17670
702.571	18689
702.690	18324
702.809	18985
702.928	16864
703.047	17448
703.165	17472
703.284	18042
703.403	16633
703.522	18204
703.640	18144
703.759	19256
703.878	21702
703.997	17388
704.115	16512
704.234	18017
704.353	16979
704.471	16393
704.590	15804
704.708	16415
704.827	15633
704.946	16352
705.064	17999
705.183	17561
705.301	19556
705.420	26808
705.538	25482
705.656	21713
705.775	21958
705.893	33859
706.012	43782
706.130	23287
706.249	21707
706.367	22132
706.485	22853
706.604	22191
706.722	21067
706.840	24050
706.958	26328
707.077	23470
707.195	20532
707.313	20887
707.431	20473
707.549	20141
707.668	19327
707.786	20245
707.904	19657
708.022	19630
708.140	19222
708.258	19714
708.376	19225
708.494	19034
708.612	20702
708.730	28056
708.848	26257
708.966	23765
709.084	22049
709.202	22025
709.320	23564
709.438	23408
709.556	23892
709.674	23780
709.791	23803
709.909	21822
710.027	23512
710.145	23052
710.263	22775
710.380	22581
710.498	22075
710.616	21368
710.733	21596
710.851	21212
710.969	21132
711.086	20963
711.204	21065
711.322	21972
711.439	20778
711.557	22050
711.674	20628
711.792	20221
711.909	21994
712.027	23584
712.144	19992
712.262	19479
712.379	21664
712.497	29339
712.614	31443
712.732	26344
712.849	24102
712.966	24512
713.084	27374
713.201	26146
713.318	26110
713.436	25474
713.553	24495
713.670	25606
713.787	26456
713.905	25973
714.022	24462
714.139	23302
714.256	24663
714.373	26632
714.490	32759
714.608	53667
714.725	172962
714.842	212140
714.959	33279
715.076	24770
715.193	23869
715.310	23543
715.427	21690
715.544	21312
715.661	21383
715.778	21297
715.895	23327
716.011	23017
716.128	21536
716.245	20957
716.362	21195
716.479	21745
716.596	19867
716.713	21871
716.829	20399
716.946	20859
717.063	19370
717.180	20545
717.296	19465
717.413	19946
717.530	18989
717.646	19593
717.763	19276
717.880	19025
717.996	18591
718.113	18634
718.229	18181
718.346	17652
718.462	17044
718.579	18579
718.695	20892
718.812	20887
718.928	20433
719.045	18892
719.161	16929
719.277	17041
719.394	16345
719.510	18569
719.626	17890
719.743	21689
719.859	21109
719.975	25069
720.092	55029
720.208	123495
720.324	29407
720.440	18715
720.557	19165
720.673	20191
720.789	25687
720.905	43772
721.021	24187
721.137	17361
721.253	17993
721.369	17338
721.486	18143
721.602	21745
721.718	17429
721.834	16905
721.950	15692
722.066	14891
722.181	16238
722.297	16325
722.413	14603
722.529	15254
722.645	14817
722.761	15209
722.877	15445
722.993	15325
723.108	15969
723.224	15317
723.340	15923
723.456	14304
723.571	14559
723.687	14991
723.803	14566
723.918	14204
724.034	14193
724.150	14261
724.265	14990
724.381	21479
724.497	25082
724.612	14167
724.728	14514
724.843	13118
724.959	14513
725.074	20345
725.190	23285
725.305	15171
725.421	14304
725.536	12341
725.651	13283
725.767	13207
725.882	13427
725.997	13124
726.113	12613
726.228	12367
726.343	13241
726.459	11716
726.574	12915
726.689	12624
726.804	11995
726.920	12079
727.035	11598
727.150	11864
727.265	11920
727.380	12863
727.495	12507
727.610	11896
727.725	12572
727.841	13739
727.956	21276
728.071	20029
728.186	11985
728.301	11280
728.416	12397
728.531	11374
728.645	10595
728.760	11911
728.875	11762
728.990	11232
729.105	11453
729.220	11596
729.335	10272
729.449	11133
729.564	10741
729.679	10638
729.794	11318
729.908	12554
730.023	11308
730.138	10621
730.253	10536
730.367	10275
730.482	10641
730.596	10432
730.711	11177
730.826	12217
730.940	10383
731.055	11040
731.169	10018
731.284	10521
731.398	10623
731.513	11714
731.627	10273
731.742	11989
731.856	12049
731.970	10749
732.085	11826
732.199	12909
732.313	14546
732.428	24996
732.542	59349
732.656	41316
732.771	14181
732.885	12292
732.999	11349
733.113	12269
733.227	11759
733.342	11545
733.456	10544
733.570	10632
733.684	10058
733.798	11247
733.912	10420
734.026	10575
734.140	10619
734.254	11365
734.368	13550
734.482	16001
734.596	10224
734.710	10687
734.824	10220
734.938	10139
735.052	9735
735.166	11097
735.280	11122
735.393	10134
735.507	9960
735.621	11859
735.735	15908
735.849	11225
735.962	10850
736.076	10424
736.190	10156
736.303	12008
736.417	14197
736.531	9516
736.644	9873
736.758	9714
736.872	10342
736.985	9343
737.099	10232
737.212	9572
737.326	9746
737.439	9062
737.553	10157
737.666	9238
737.780	9304
737.893	10162
738.007	9200
738.120	9520
738.233	8837
738.347	9544
738.460	9036
738.573	10733
738.687	8880
738.800	10057
738.913	10096
739.026	9379
739.140	9918
739.253	10272
739.366	9087
739.479	9481
739.592	9135
739.705	9761
739.818	9170
739.932	8715
740.045	9680
740.158	9435
740.271	9293
740.384	8586
740.497	9497
740.610	9503
740.723	9276
740.836	10009
740.949	9069
741.062	9417
741.174	9827
741.287	9506
741.400	8952
741.513	9542
741.626	9534
741.739	9621
741.851	9199
741.964	9004
742.077	9252
742.189	9343
742.302	10044
742.415	8175
742.527	8706
742.640	9100
742.753	9101
742.865	8651
742.978	9051
743.090	8807
743.203	8903
743.316	8253
743.428	8993
743.541	9442
743.653	7971
743.766	8926
743.878	8912
743.990	9842
744.103	10247
744.215	9312
744.327	9996
744.440	9665
744.552	10102
744.664	9557
744.777	8477
744.889	8916
745.001	8950
745.113	8275
745.226	8819
745.338	9558
745.450	8612
745.562	9159
745.674	9225
745.786	9447
745.898	9411
746.010	9776
746.122	9169
746.234	9686
746.347	9179
746.459	9724
746.570	8142
746.682	9007
746.794	9605
746.906	9745
747.018	9173
747.130	9194
747.242	8817
747.354	8885
747.466	10172
747.577	9731
747.689	9558
747.801	9577
747.913	8722
748.024	9007
748.136	8854
748.248	9588
748.359	9277
748.471	9502
748.583	8511
748.694	9164
748.806	10768
748.918	10936
749.029	10055
749.141	9701
749.252	10094
749.364	8526
749.475	10913
749.587	9874
749.698	9019
749.809	9299
749.921	9423
750.032	8511
750.144	8902
750.255	9674
750.366	9060
750.478	9438
750.589	9600
750.700	9141
750.811	10485
750.923	10539
751.034	9450
751.145	11566
751.256	10243
751.367	10052
751.479	8992
751.590	9762
751.701	9577
751.812	10000
751.923	9739
752.034	10399
752.145	9742
752.256	9691
752.367	9358
752.478	9875
752.589	10226
752.700	9668
752.811	10604
752.922	10383
753.032	9995
753.143	11412
753.254	10014
753.365	10020
753.476	10250
753.586	9896
753.697	10799
753.808	10489
753.919	10601
754.029	10842
754.140	10272
754.251	11267
754.361	10820
754.472	10901
754.582	11091
754.693	10833
754.804	11770
754.914	11100
755.025	10310
755.135	11789
755.246	11074
755.356	10406
755.466	11984
755.577	12247
755.687	12680
755.798	12056
755.908	11841
756.018	11661
756.129	11490
756.239	12966
756.349	12084
756.460	12062
756.570	13078
756.680	13657
756.790	12639
756.900	12714
757.011	12627
757.121	14050
757.231	14098
757.341	13314
757.451	13452
757.561	14062
757.671	14023
757.781	14059
757.891	14312
758.001	14304
758.111	14881
758.221	14651
758.331	15139
758.441	15370
758.551	16019
758.661	16798
758.771	16082
758.880	17007
758.990	16915
759.100	17484
759.210	18082
759.320	18757
759.429	17999
759.539	19664
759.649	18887
759.758	20434
759.868	20057
759.978	20371
760.087	20740
760.197	21090
760.307	20637
760.416	21514
760.526	21445
760.635	23004
760.745	23102
760.854	24022
760.964	25023
761.073	24858
761.182	25915
761.292	26799
761.401	26946
761.511	27397
761.620	29814
761.729	29549
761.839	29982
761.948	31015
762.057	31715
762.166	33606
762.276	33496
762.385	35963
762.494	36997
762.603	38306
762.712	40031
762.822	42081
762.931	43142
763.040	43922
763.149	46085
763.258	48780
763.367	50932
763.476	53651
763.585	56700
763.694	60677
763.803	62875
763.912	65091
764.021	71230
764.130	74892
764.238	79542
764.347	85352
764.456	91429
764.565	98747
764.674	106806
764.783	117239
764.891	129762
765.000	144175
765.109	159323
765.217	179811
765.326	205137
765.435	236108
765.543	274665
765.652	322995
765.761	380555
765.869	454675
765.978	535315
766.086	627952
766.195	698037
766.303	703060
766.412	523694
766.520	505432
766.629	658300
766.737	684261
766.846	627762
766.954	539642
767.062	454863
767.171	377753
767.279	313704
767.387	263474
767.496	224725
767.604	196652
767.712	172487
767.820	155462
767.928	141909
768.037	131205
768.145	124120
768.253	119115
768.361	115707
768.469	117092
768.577	117293
768.685	122400
768.793	130067
768.901	144270
769.009	163297
769.117	191678
769.225	231757
769.333	290901
769.441	377855
769.549	505534
769.657	635195
769.765	667176
769.873	493899
769.981	585811
770.088	617716
770.196	524488
770.304	421876
770.412	335895
770.519	269909
770.627	225777
770.735	187705
770.842	161961
770.950	141653
771.058	124464
771.165	111892
771.273	100916
771.380	91148
771.488	84196
771.595	77194
771.703	71179
771.810	67126
771.918	61054
772.025	58189
772.133	55234
772.240	51524
772.348	49883
772.455	46829
772.562	43994
772.670	42628
772.777	40430
772.884	38898
772.991	37288
773.099	35731
773.206	34011
773.313	33419
773.420	33134
773.528	31142
773.635	30302
773.742	30337
773.849	29123
773.956	26641
774.063	26316
774.170	25417
774.277	25863
774.384	24535
774.491	23897
774.598	24163
774.705	23585
774.812	22196
774.919	22883
775.026	21200
775.133	21506
775.239	20359
775.346	20239
775.453	18422
775.560	19364
775.667	18890
775.773	18960
775.880	19200
775.987	18152
776.093	18670
776.200	17708
776.307	16566
776.413	17166
776.520	15885
776.627	16837
776.733	15456
776.840	14441
776.946	15887
777.053	15051
777.159	15534
777.266	14359
777.372	15636
777.478	13891
777.585	14999
777.691	12470
777.798	13009
777.904	14436
778.010	14676
778.117	13039
778.223	12613
778.329	12847
778.435	10933
778.542	12559
778.648	11177
778.754	11457
778.860	11356
778.966	11258
779.072	11331
779.178	11475
779.284	11609
779.391	12466
779.497	12578
779.603	17607
779.708	20948
779.815	41776
779.920	122645
780.026	238275
780.132	66515
780.238	19702
780.344	14181
780.450	13373
780.556	11556
780.661	11000
780.767	9749
780.873	10075
780.979	10045
781.085	9641
781.190	8256
781.296	9488
781.402	8845
781.507	8830
781.613	8818
781.719	8288
781.824	8302
781.930	9133
782.035	8673
782.141	8161
782.246	7577
782.352	8174
782.457	8178
782.563	7726
782.668	7211
782.773	8173
782.879	6965
782.984	7912
783.090	8397
783.195	8654
783.300	7304
783.405	7515
783.511	6620
783.616	7664
783.721	8051
783.826	7485
783.932	6823
784.037	6534
784.142	6455
784.247	6910
784.352	5970
784.457	6614
784.562	7035
784.667	7058
784.772	6354
784.877	6606
784.982	6432
785.087	5744
785.192	6668
785.297	7292
785.402	6045
785.507	5428
785.611	6653
785.716	5907
785.821	6641
785.926	5533
786.031	6761
786.135	6030
786.240	5748
786.345	5252
786.450	5587
786.554	5412
786.659	5047
786.763	4452
786.868	6178
786.973	6785
787.077	5119
787.182	4938
787.286	5221
787.391	5511
787.495	5627
787.600	6021
787.704	5660
787.809	5673
787.913	5566
788.017	5705
788.122	5560
788.226	5309
788.330	5135
788.435	5218
788.539	4640
788.643	4582
788.747	4392
788.852	4557
788.956	5336
789.060	5434
789.164	4689
789.268	3607
789.372	4312
789.476	3069
789.580	4599
789.684	5185
789.788	4864
789.892	4841
789.996	5192
790.100	4601
790.204	4884
790.308	5066
790.412	4022
790.516	5588
790.620	4077
790.724	4847
790.828	4864
790.931	4236
791.035	5295
791.139	4590
791.242	3757
791.346	5179
791.450	3851
791.554	3952
791.657	3229
791.761	5283
791.864	5053
791.968	4190
792.072	3916
792.175	4067
792.279	3434
792.382	4044
792.486	3996
792.589	3565
792.693	4276
792.796	2699
792.899	3416
793.003	4488
793.106	3041
793.209	3936
793.313	4145
793.416	1877
793.519	3932
793.623	4035
793.726	4186
793.829	4402
793.932	4713
794.035	3887
794.138	5294
794.242	5374
794.345	7190
794.448	9969
794.551	19887
794.654	69427
794.757	152306
794.860	40090
794.963	8825
795.066	5594
795.169	5454
795.272	3877
795.375	4335
795.477	3135
795.580	3840
795.683	3539
795.786	3409
795.889	2005
795.991	3874
796.094	3771
796.197	2635
796.300	4542
796.402	3627
796.505	2960
796.608	2776
796.710	4470
796.813	2938
796.915	2510
797.018	3358
797.120	3358
797.223	2335
797.326	4461
797.428	2823
797.530	2795
797.633	2016
797.735	4424
797.838	3160
797.940	5287
798.042	2643
798.145	2940
798.247	2974
798.349	1501
798.452	3189
798.554	2611
798.656	2101
798.758	3850
798.860	3227
798.962	2566
799.065	2063
799.167	2639
799.269	3343
799.371	3419
799.473	2216
799.575	2544
799.677	3094
799.779	3805
799.881	2516
799.983	2920
800.085	2242
800.187	2830
800.289	2388
800.390	3027
800.492	2718
800.594	3985
800.696	2354
800.798	2790
800.899	2335
801.001	2698
801.103	2189
801.205	1898
801.306	2902
801.408	1757
801.509	2368
801.611	3009
801.713	2594
801.814	1984
801.916	2022
802.017	1760
802.119	2141
802.220	3553
802.322	342
802.423	4149
802.525	1889
802.626	2622
802.727	1871
802.829	2166
802.930	876
803.031	2699
803.133	1883
803.234	1975
803.335	2502
803.436	1344
803.538	2623
803.639	1521
803.740	2385
803.841	1184
803.942	1586
804.043	2093
804.144	1770
804.245	1943
804.346	1418
804.447	1354
804.548	2251
804.649	2943
804.750	2133
804.851	1781
804.952	985
805.053	2378
805.154	791
805.255	2275
805.355	1848
805.456	2258
805.557	1494
805.658	1110
805.758	1801
805.859	2770
805.960	1930
806.061	1482
806.161	2408
806.262	1905
806.362	1523
806.463	2156
806.564	2846
806.664	2355
806.765	2041
806.865	2242
806.966	1880
807.066	1257
807.166	2483
807.267	1458
807.367	881
807.468	2067
807.568	595
807.668	2596
807.769	1830
807.869	1229
807.969	1826
808.069	2019
808.170	1601
808.270	1518
808.370	1287
808.470	2558
808.570	926
808.670	1693
808.770	1612
808.870	911
808.970	1260
809.070	1137
809.170	1152
809.271	2111
809.370	1292
809.470	1649
809.570	527
809.670	709
809.770	1392
809.870	1998
809.970	1544
810.070	1503
810.169	2099
810.269	106
810.369	1947
810.469	1733
810.568	899
810.668	702
810.768	783
810.867	1975
810.967	889
811.066	2304
811.166	820
811.265	2106
811.365	432
811.464	1210
811.564	1206
811.663	1672
811.763	-41
811.862	1482
811.962	1882
812.061	1490
812.160	642
812.260	968
812.359	2168
812.458	2107
812.557	4547
812.657	7637
812.756	3716
812.855	1970
812.954	751
813.053	1895
813.153	1472
813.252	352
813.351	2030
813.450	1234
813.549	541
813.648	1393
813.747	855
813.846	1699
813.945	1048
814.044	1503
814.143	1411
814.242	2752
814.341	-121
814.439	2155
814.538	1419
814.637	1304
814.736	634
814.835	2002
814.933	1418
815.032	896
815.131	1805
815.229	1430
815.328	1455
815.427	1642
815.525	1888
815.624	1815
815.722	1020
815.821	1934
815.919	1914
816.018	1179
816.116	2090
816.215	835
816.313	2049
816.412	2123
816.510	1735
816.609	2715
816.707	2402
816.805	1956
816.904	1556
817.002	1958
817.100	2575
817.198	1873
817.296	1176
817.395	2341
817.493	2246
817.591	1220
817.689	2233
817.787	1803
817.885	2905
817.983	3767
818.081	6754
818.179	14794
818.277	36119
818.375	39846
818.473	11625
818.571	4582
818.669	3911
818.767	3945
818.865	2838
818.963	3482
819.061	4230
819.158	7147
819.256	13618
819.354	29096
819.452	73029
819.549	58161
819.647	15574
819.745	5939
819.842	3255
819.940	3200
820.038	2130
820.135	2235
820.233	2296
820.330	2566
820.428	1433
820.525	2553
820.623	1118
820.720	1752
820.818	1540
820.915	2165
821.012	2001
821.110	578
821.207	2036
821.304	792
821.402	1915
821.499	2631
821.596	2119
821.693	1510
821.791	1757
821.888	1479
821.985	2519
822.082	1331
822.179	2892
822.276	1815
822.373	1607
822.470	1023
822.567	1695
822.664	662
822.761	2101
822.858	1252
822.955	1426
823.052	1104
823.149	1504
823.246	1317
823.343	588
823.440	2086
823.536	1340
823.633	1248
823.730	1196
823.827	1640
823.923	779
824.020	2193
824.117	1718
824.213	1433
824.310	1818
824.407	1029
824.503	1303
824.600	2388
824.696	813
824.793	1590
824.889	835
824.986	1522
825.082	1551
825.179	1756
825.275	1079
825.371	782
825.468	1635
825.564	177
825.660	1010
825.757	1871
825.853	1419
825.949	535
826.045	1390
826.142	508
826.238	517
826.334	1353
826.430	1582
826.526	1330
826.622	955
826.718	1491
826.814	955
826.910	1954
827.006	1072
827.102	1188
827.198	1492
827.294	1334
827.390	1208
827.486	752
827.582	-24
827.678	701
827.774	1741
827.869	597
827.965	1847
828.061	744
828.157	740
828.252	1598
828.348	-165
828.444	1902
828.539	555
828.635	424
828.731	1763
828.826	80
828.922	1016
829.017	1160
829.113	514
829.208	856
829.304	25
829.399	1745
829.495	821
829.590	1035
829.685	797
829.781	1252
829.876	1024
829.971	1030
830.066	407
830.162	486
830.257	1430
830.352	816
830.447	1376
830.543	1475
830.638	74
830.733	2128
830.828	616
830.923	1562
831.018	731
831.113	1802
831.208	63
831.303	1547
831.398	384
831.493	602
831.588	990
831.683	443
831.778	737
831.873	884
831.967	1370
832.062	690
832.157	72
832.252	1337
832.346	199
832.441	1050
832.536	615
832.631	2718
832.725	1541
832.820	1113
832.914	742
833.009	91
833.104	214
833.198	1485
833.293	36
833.387	1045
833.482	1075
833.576	312
833.670	1864
833.765	682
833.859	-586
833.954	1279
834.048	838
834.142	1438
834.237	-259
834.331	1240
834.425	340
834.519	-287
834.613	1739
834.708	714
834.802	506
834.896	831
834.990	1023
835.084	1093
835.178	162
835.272	622
835.366	264
835.460	1066
835.554	859
835.648	1261
835.742	470
835.836	440
835.930	-293
836.024	588
836.117	701
836.211	957
836.305	1961
836.399	2251
836.493	-327
836.586	1599
836.680	-178
836.774	921
836.867	1272
836.961	767
837.055	648
837.148	602
837.242	556
837.335	1066
837.429	776
837.522	669
837.616	478
837.709	1626
837.803	1601
837.896	1042
837.989	577
838.083	1673
838.176	2154
838.269	2513
838.363	1330
838.456	-175
838.549	409
838.642	851
838.735	2010
838.829	1885
838.922	-376
839.015	698
839.108	382
839.201	1153
839.294	1170
839.387	133
839.480	-61
839.573	1272
839.666	905
839.759	531
839.852	477
839.945	509
840.038	20
840.131	357
840.223	547
840.316	1061
840.409	220
840.502	-402
840.594	767
840.687	-244
840.780	500
840.873	307
840.965	-98
841.058	967
841.150	2426
841.243	1576
841.336	567
841.428	1120
841.521	443
841.613	-65
841.706	595
841.798	1409
841.890	-650
841.983	161
842.075	702
842.167	759
842.260	1377
842.352	1086
842.444	1486
842.537	2714
842.629	4579
842.721	1055
842.813	93
842.905	55
842.997	487
843.090	820
843.182	1270
843.274	2307
843.366	6205
843.458	11195
843.550	7994
843.642	1893
843.734	76
843.826	1205
843.918	796
844.009	1143
844.101	-88
844.193	694
844.285	-659
844.377	911
844.469	430
844.560	448
844.652	72
844.744	938
844.835	-28
844.927	949
845.019	215
845.110	756
845.202	-150
845.293	153
845.385	-60
845.476	416
845.568	780
845.659	75
845.751	662
845.842	316
845.934	26
846.025	318
846.116	482
846.208	627
846.299	-287
846.390	1008
846.482	497
846.573	1082
846.664	976
846.755	1301
846.846	1357
846.937	-62
847.029	-68
847.120	19
847.211	160
847.302	1511
847.393	-789
847.484	907
847.575	78
847.666	436
847.757	969
847.847	463
847.938	960
848.029	911
848.120	589
848.211	514
848.302	-378
848.392	95
848.483	553
848.574	-176
848.664	-59
848.755	297
848.846	180
848.936	-473
849.027	-52
849.118	213
849.208	389
849.299	824
849.389	945
849.480	1270
849.570	2114
849.661	3826
849.751	6319
849.841	3468
849.932	641
850.022	251
850.112	1159
850.203	377
850.293	428
850.383	1419
850.474	-386
850.564	87
850.654	945
850.744	647
850.834	565
850.924	431
851.014	220
851.104	308
851.194	-759
851.284	743
851.374	639
851.464	424
851.554	585
851.644	912
851.734	1624
851.824	1907
851.914	2360
852.004	5859
852.094	6772
852.183	1839
852.273	872
852.363	687
852.452	-282
852.542	428
852.632	-627
852.721	342
852.811	-393
852.901	707
852.990	446
853.080	56
853.169	177
853.259	754
853.348	-726
853.438	132
853.527	107
853.617	104
853.706	1117
853.795	2955
853.885	6319
853.974	12742
854.063	21936
854.152	38982
854.242	16942
854.331	2872
854.420	1068
854.509	1121
854.598	659
854.687	341
854.777	240
854.866	1
854.955	387
855.044	102
855.133	37
855.222	113
855.311	-369
855.400	596
855.488	-564
855.577	163
855.666	190
855.755	557
855.844	490
855.933	-2
856.021	370
856.110	140
856.199	-579
856.288	-945
856.376	-155
856.465	64
856.554	-250
856.642	144
856.731	-568
856.819	-445
856.908	65
856.996	-187
857.085	-173
857.173	415
857.262	-380
857.350	884
857.438	52
857.527	415
857.615	-715
857.703	-58
857.792	28
857.880	267
857.968	-416
858.056	155
858.145	-552
858.233	132
858.321	-802
858.409	-168
858.497	-432
858.585	-356
858.673	-57
858.761	176
858.849	-392
858.937	282
859.025	-1075
859.113	-179
859.201	-74
859.289	190
859.377	-508
859.465	148
859.552	-12
859.640	-145
859.728	184
859.816	675
859.903	203
859.991	-18
860.079	-346
860.166	-57
860.254	-642
860.342	297
860.429	-493
860.517	-495
860.604	-392
860.692	213
860.779	-101
860.867	-230
860.954	112
861.042	-812
861.129	-891
861.216	226
861.304	-856
861.391	233
861.478	-297
861.565	-242
861.653	819
861.740	8
861.827	-733
861.914	323
862.001	-946
862.089	-215
862.176	13
862.263	296
862.350	33
862.437	-382
862.524	-662
862.611	-605
862.698	-351
862.785	-65
862.871	254
862.958	100
863.045	-312
863.132	-211
863.219	-725
863.306	-1197
863.392	40
863.479	-379
863.566	107
863.652	592
863.739	-528
863.826	71
863.912	-1021
863.999	-787
864.086	-69
864.172	-113
864.259	-877
864.345	-1028
864.432	-91
864.518	-1241
864.604	-212
864.691	78
864.777	-540
864.863	176
864.950	-286
865.036	-262
865.122	910
865.209	644
865.295	766
865.381	403
865.467	311
865.553	1235
865.639	-364
865.726	925
865.812	2428
865.898	5938
865.984	8489
866.070	16215
866.156	21403
866.242	5224
866.328	1055
866.414	671
866.499	-345
866.585	946
866.671	492
866.757	235
866.843	47
866.928	-43
867.014	57
867.100	1491
867.186	-13
867.271	206
867.357	510
867.442	1260
867.528	132
867.614	673
867.699	-314
867.785	1161
867.870	483
867.956	748
868.041	-58
868.127	-30
868.212	679
868.297	-39
868.383	-280
868.468	748
868.553	1730
868.639	1019
868.724	1760
868.809	2374
868.894	459
868.979	277
869.065	559
869.150	-260
869.235	146
869.320	606
869.405	-527
869.490	30
869.575	-749
869.660	-276
869.745	747
869.830	-505
869.915	-934
870.000	-488
870.085	-172
870.169	-170
870.254	39
870.339	-622
870.424	-762
870.509	806
870.593	259
870.678	671
870.763	217
870.847	368
870.932	-668
871.016	-196
871.101	-924
871.186	-102
871.270	328
871.355	41
871.439	-148
871.523	168
871.608	258
871.692	-339
871.777	33
871.861	-374
871.945	-366
872.030	53
872.114	-820
872.198	313
872.282	-487
872.367	-254
872.451	4
872.535	-44
872.619	-316
872.703	370
872.787	-240
872.871	-94
872.955	-133
873.039	-711
873.123	-451
873.207	208
873.291	367
873.375	-931
873.459	-286
873.543	-754
873.627	-526
873.711	-49
873.794	696
873.878	-647
873.962	-833
874.045	-416
874.129	-101
874.137	-92
874.213	-5
874.245	-53
874.296	-129
874.352	-549
874.380	-758
874.460	-532
874.464	-523
874.547	-673
874.568	-551
874.631	-196
874.676	-214
874.714	-221
874.784	324
874.798	424
874.881	937
874.892	808
874.965	-57
874.999	-4
875.048	67
875.107	-120
875.131	-188
875.215	-155
875.215	-155
875.298	-544
875.323	-655
875.381	-848
875.430	-162
875.465	299
875.538	279
875.548	267
875.631	-56
875.646	-159
875.714	-598
875.753	-717
875.798	-870
875.861	-289
875.881	-90
875.964	-341
875.968	-324
876.047	-58
876.076	-265
876.130	-717
876.183	-456
876.213	-251
876.291	-33
876.296	-20
876.379	-47
876.398	66
876.462	491
876.506	524
876.545	469
876.613	379
876.628	372
876.711	-224
876.721	-206
876.794	-55
876.828	-15
876.877	81
876.935	-250
876.960	-399
877.043	-21
877.043	-22
877.125	-145
877.150	155
877.208	722
877.258	315
877.291	124
877.365	468
877.374	513
877.456	706
877.472	661
877.539	382
877.579	442
877.622	435
877.687	172
877.704	139
877.787	172
877.794	137
877.869	-261
877.901	-92
877.952	224
878.008	157
878.034	130
878.115	-219
878.117	-229
878.199	-84
878.222	-38
878.282	252
878.329	234
878.364	168
878.437	16
878.447	19
878.529	-430
878.544	-311
878.611	-15
878.651	-212
878.694	-215
878.758	-58
878.776	-66
878.858	480
878.865	487
878.941	559
878.972	389
879.023	-33
879.078	-415
879.105	-465
879.185	193
879.187	206
879.269	-22
879.292	6
879.351	225
879.399	27
879.433	-279
879.506	276
879.516	397
879.598	329
879.613	338
879.680	77
879.720	127
879.762	156
879.827	-131
879.844	-165
879.926	9
879.933	8
880.007	-62
880.040	-283
880.089	-477
880.147	-315
880.171	-255
880.253	438
880.254	437
880.335	554
880.360	682
880.417	837
880.467	847
880.499	1113
880.574	2023
880.580	2009
880.662	-81
880.680	-217
880.744	-186
880.787	-104
880.825	-5
880.893	-362
880.907	-432
880.989	96
881.000	67
881.070	-29
881.106	211
881.152	511
881.213	244
881.233	137
881.315	454
881.319	448
881.396	247
881.426	178
881.478	170
881.532	293
881.559	325
881.639	197
881.641	193
881.722	-206
881.745	-144
881.803	317
881.852	339
881.885	185
881.958	-302
881.966	-330
882.047	53
882.064	111
882.129	286
882.171	168
882.210	59
882.277	144
882.291	147
882.372	-548
882.383	-512
882.454	279
882.489	404
882.535	127
882.596	143
882.616	165
882.697	-102
882.702	-126
882.778	93
882.808	127
882.859	-128
882.914	167
882.940	353
883.020	152
883.021	153
883.102	208
883.127	155
883.183	105
883.233	150
883.264	88
883.339	255
883.345	263
883.426	-102
883.445	-145
883.507	146
883.551	358
883.587	99
883.657	-480
883.668	-406
883.749	249
883.763	315
883.830	85
883.869	-18
883.910	-25
883.975	86
883.991	176
884.072	407
884.081	487
884.152	850
884.187	771
884.233	491
884.292	32
884.314	-38
884.394	344
884.398	335
884.475	415
884.504	507
884.555	434
884.610	219
884.636	285
884.716	651
884.716	655
884.797	289
884.821	309
884.877	450
884.927	344
884.958	363
885.033	532
885.038	550
885.118	611
885.139	718
885.199	679
885.244	402
885.279	288
885.350	344
885.359	388
885.439	449
885.456	473
885.520	441
885.561	469
885.600	438
885.667	400
885.680	317
885.760	-309
885.773	-384
885.840	257
885.878	577
885.920	522
885.984	217
886.000	231
886.080	383
886.089	430
886.160	411
886.195	243
886.240	260
886.300	493
886.320	572
886.400	579
886.406	596
886.480	742
886.511	658
886.560	299
886.616	13
886.640	238
886.720	1034
886.722	1050
886.800	362
886.827	12
886.879	24
886.932	50
886.959	329
887.038	1371
887.039	1371
887.119	671
887.143	475
887.198	516
887.248	570
887.278	612
887.354	520
887.358	522
887.437	695
887.459	701
887.517	568
887.564	508
887.596	640
887.669	738
887.676	706
887.755	451
887.774	357
887.835	546
887.880	732
887.914	558
887.985	161
887.994	212
888.073	618
888.090	699
888.153	521
888.195	457
888.232	641
888.300	896
888.311	846
888.391	503
888.405	406
888.470	394
888.510	500
888.549	409
888.615	231
888.628	339
888.708	915
888.720	997
888.787	946
888.825	935
888.866	997
888.930	1091
888.945	1013
889.024	570
889.035	506
889.103	683
889.140	786
889.182	956
889.245	1186
889.261	1196
889.340	1250
889.349	1250
889.419	467
889.454	86
889.498	314
889.559	627
889.577	763
889.656	1374
889.664	1434
889.735	1570
889.768	1633
889.814	1621
889.873	1597
889.978	547
890.083	1847
890.187	1239
890.292	205
890.397	513
890.501	1150
890.606	1169
890.710	835
890.815	775
890.919	966
891.024	1101
891.128	343
891.233	1612
891.337	1601
891.442	283
891.546	564
891.650	846
891.755	870
891.859	1774
891.963	1744
892.068	1112
892.172	847
892.276	539
892.380	1160
892.484	117
892.589	807
892.693	539
892.797	886
892.901	819
893.005	-87
893.109	1004
893.213	974
893.317	1061
893.421	779
893.525	239
893.629	225
893.733	1235
893.837	283
893.941	414
894.045	1244
894.148	1607
894.252	2369
894.356	1805
894.460	1440
894.564	550
894.667	491
894.771	-77
894.875	291
894.978	198
895.082	586
895.186	1015
895.289	853
895.393	173
895.496	-38
895.600	201
895.703	-70
895.807	1208
895.910	11
896.014	997
896.117	453
896.221	1208
896.324	666
896.427	-1
896.531	574
896.634	326
896.737	184
896.840	584
896.944	5
897.047	706
897.150	776
897.253	680
897.356	358
897.460	657
897.563	286
897.666	1054
897.769	22
897.872	-161
897.975	-26
898.078	307
898.181	539
898.284	42
898.387	732
898.490	-264
898.593	408
898.695	1251
898.798	185
898.901	567
899.004	222
899.107	263
899.209	390
899.312	257
899.415	795
899.518	694
899.620	729
899.723	250
899.826	909
899.928	1513
900.031	452
900.133	312
900.236	397
900.338	824
900.441	-221
900.543	243
900.646	248
900.748	422
900.851	293
900.953	482
901.055	658
901.158	320
901.260	-320
901.362	393
901.465	226
901.567	440
901.669	297
901.771	195
901.873	111
901.976	-6
902.078	386
902.180	-255
902.282	793
902.384	176
902.486	861
902.588	309
902.690	-10
902.792	639
902.894	81
902.996	734
903.098	325
903.200	-425
903.302	459
903.404	644
903.505	509
903.607	780
903.709	745
903.811	323
903.913	357
904.014	1022
904.116	174
904.218	562
904.319	-482
904.421	875
904.523	310
904.624	51
904.726	327
904.827	-145
904.929	-53
905.030	617
905.132	1233
905.233	993
905.335	249
905.436	-215
905.537	644
905.639	312
905.740	427
905.841	794
905.943	988
906.044	605
906.145	-94
906.247	-212
906.348	130
906.449	212
906.550	609
906.651	272
906.752	773
906.854	-278
906.955	273
907.056	512
907.157	-449
907.258	613
907.359	-111
907.460	423
907.561	1153
907.662	-17
907.762	986
907.863	372
907.964	279
908.065	733
908.166	743
908.267	-465
908.367	-643
908.468	285
908.569	-278
908.670	-281
908.770	660
908.871	761
908.971	304
909.072	782
909.173	430
909.273	110
909.374	388
909.474	-391
909.575	-22
909.675	581
909.776	169
909.876	513
909.977	-350
910.077	280
910.177	879
910.278	-318
910.378	-206
910.478	-397
910.579	73
910.679	13
910.779	144
910.879	193
910.980	-372
911.080	44
911.180	96
911.280	535
911.380	632
911.480	1077
911.580	-209
911.680	756
911.780	491
911.880	470
911.980	17
912.080	964
912.180	318
912.280	598
912.380	171
912.480	-23
912.580	435
912.679	-443
912.779	-626
912.879	394
912.979	-156
913.078	-291
913.178	126
913.278	479
913.377	-92
913.477	108
913.577	835
913.676	188
913.776	-123
913.875	367
913.975	809
914.074	686
914.174	-544
914.273	-406
914.373	821
914.472	-380
914.572	-392
914.671	144
914.770	-200
914.870	167
914.969	-284
915.068	546
915.167	-530
915.267	-78
915.366	-43
915.465	-330
915.564	-580
915.663	1505
915.763	761
915.862	161
915.961	128
916.060	-309
916.159	-104
916.258	-136
916.357	-82
916.456	244
916.555	-230
916.654	-807
916.752	63
916.851	168
916.950	245
917.049	522
917.148	-423
917.247	-377
917.345	390
917.444	-349
917.543	-886
917.642	-41
917.740	855
917.839	483
917.937	692
918.036	512
918.135	28
918.233	-187
918.332	-144
918.430	-31
918.529	680
918.627	101
918.726	627
918.824	412
918.923	204
919.021	811
919.119	-179
919.218	-30
919.316	-156
919.414	75
919.512	505
919.611	-89
919.709	84
919.807	890
919.905	-479
920.003	796
920.102	174
920.200	426
920.298	-174
920.396	408
920.494	375
920.592	314
920.690	776
920.788	308
920.886	135
920.984	207
921.082	-96
921.180	1307
921.277	546
921.375	121
921.473	728
921.571	575
921.669	-174
921.766	-126
921.864	258
921.962	330
922.060	477
922.157	283
922.255	607
922.352	186
922.450	-105
922.548	735
922.645	330
922.743	409
922.840	353
922.938	1004
923.035	1028
923.133	122
923.230	1155
923.327	817
923.425	710
923.522	436
923.619	1120
923.717	894
923.814	1018
923.911	243
924.008	760
924.106	851
924.203	-22
924.300	58
924.397	286
924.494	674
924.591	815
924.688	627
924.786	783
924.883	1333
924.979	-71
925.077	483
925.173	696
925.270	1332
925.367	460
925.464	266
925.561	181
925.658	1228
925.755	458
925.852	483
925.948	477
926.045	1574
926.142	1293
926.239	354
926.335	714
926.432	1221
926.529	484
926.625	593
926.722	200
926.818	498
926.915	448
927.011	-201
927.108	441
927.204	-179
927.301	186
927.397	872
927.494	516
927.590	257
927.687	82
927.783	895
927.879	711
927.976	-295
928.072	390
928.168	755
928.264	155
928.361	356
928.457	743
928.553	711
928.649	945
928.745	660
928.841	274
928.937	81
929.033	374
929.129	-350
929.225	420
929.321	482
929.417	396
929.513	598
929.609	364
929.705	120
929.801	525
929.897	394
929.993	281
930.089	-64
930.184	-486
930.280	317
930.376	411
930.471	385
930.567	205
930.663	563
930.758	-40
930.854	56
930.950	50
931.045	523
931.141	471
931.236	791
931.332	212
931.427	-35
931.523	669
931.618	683
931.714	369
931.809	-377
931.905	356
932.000	319
932.095	-180
932.191	308
932.286	409
932.381	325
932.476	-232
932.572	486
932.667	-11
932.762	519
932.857	712
932.952	814
933.047	418
933.142	342
933.237	-66
933.332	-168
933.427	932
933.522	933
933.617	143
933.712	654
933.807	-815
933.902	197
933.997	-308
934.092	-557
934.187	24
934.282	109
934.376	99
934.471	-204
934.566	-329
934.661	536
934.755	-31
934.850	-568
934.945	979
935.039	-228
935.134	606
935.228	107
935.323	271
935.417	231
935.512	179
935.606	-462
935.701	360
935.795	-581
935.890	575
935.984	61
936.079	387
936.173	-239
936.267	1246
936.362	-432
936.456	209
936.550	339
936.644	445
936.738	-688
936.833	-12
936.927	608
937.021	-534
937.115	-616
937.209	-447
937.303	321
937.397	-504
937.491	-146
937.585	375
937.679	-222
937.773	872
937.867	47
937.961	-80
938.055	524
938.149	603
938.243	-13
938.337	-496
938.430	462
938.524	487
938.618	428
938.712	76
938.805	-318
938.899	-288
938.993	-58
939.086	-359
939.180	-137
939.274	-396
939.367	48
939.461	79
939.554	-812
939.648	-199
939.741	-359
939.835	-451
939.928	239
940.022	277
940.115	-1151
940.208	209
940.302	-150
940.395	635
940.488	-614
940.582	213
940.675	-363
940.768	69
940.861	404
940.954	1049
941.048	-91
941.141	26
941.234	-626
941.327	-155
941.420	118
941.513	-411
941.606	-187
941.699	1034
941.792	-19
941.885	-734
941.978	541
942.071	457
942.164	-633
942.257	107
942.349	-232
942.442	51
942.535	-102
942.628	146
942.721	109
942.813	-120
942.906	534
942.999	-911
943.091	-57
943.184	-73
943.277	-1214
943.369	637
943.462	-559
943.554	482
943.647	-519
943.739	395
943.832	-167
943.924	-660
944.017	-434
944.109	-941
944.201	-166
944.294	255
944.386	334
944.478	-451
944.571	-142
944.663	-571
944.755	-191
944.847	-269
944.940	-407
945.032	-2047
945.124	-1106
945.216	424
945.308	-66
945.400	73
945.492	-335
945.584	-111
945.676	-191
945.768	-201
945.860	-770
945.952	362
946.044	304
946.136	-251
946.228	-283
946.320	-1050
946.412	-504
946.503	-100
946.595	954
946.687	78
946.779	-221
946.870	-306
946.962	-17
947.054	-21
947.145	-370
947.237	-292
947.329	-48
947.420	-364
947.512	-24
947.603	-288
947.695	-837
947.786	-761
947.878	-270
947.969	-228
948.061	-404
948.152	-862
948.243	540
948.335	-509
948.426	-876
948.517	-470
948.609	-9
948.700	83
948.791	120
948.882	-333
948.973	-502
949.065	-529
949.156	-445
949.247	-642
949.338	6
949.429	-889
949.520	447
949.611	-881
949.702	346
949.793	-712
949.884	-153
949.975	-770
950.066	162
950.157	-573
950.247	-581
950.338	-268
950.429	-255
950.520	187
950.611	369
950.701	-296
950.792	-351
950.883	-745
950.973	-554
951.064	-996
951.155	-723
951.245	-771
951.336	78
951.427	-269
951.517	-314
951.608	-188
951.698	-330
951.788	-578
951.879	-579
951.969	-643
952.060	-319
952.150	-459
952.240	258
952.331	-1589
952.421	-361
952.511	115
952.602	-422
952.692	-268
952.782	-793
952.872	-249
952.962	-513
953.052	-482
953.143	-945
953.233	-16
953.323	-265
953.413	-385
953.503	-1234
953.593	-483
953.683	-62
953.773	-663
953.863	-694
953.953	-326
954.042	-336
954.132	-1389
954.222	-250
954.312	-15
954.402	-525
954.492	-400
954.581	762
954.671	-284
954.761	-785
954.850	-460
954.940	-1406
955.030	-624
955.119	-429
955.209	-62
955.298	-1432
955.388	-181
955.477	289
955.567	-161
955.656	-318
955.746	782
955.835	-528
955.925	-1199
956.014	-302
956.103	-596
956.193	321
956.282	-656
956.371	-515
956.461	-175
956.550	-618
956.639	-622
956.728	-16
956.817	-427
956.906	-729
956.995	130
957.085	-356
957.174	-713
957.263	-401
957.352	-707
957.441	-240
957.530	-782
957.619	-1178
957.708	2
957.796	-772
957.885	160
957.974	-741
958.063	-5
958.152	-319
958.241	-489
958.329	-828
958.418	651
958.507	-533
958.596	498
958.684	-142
958.773	18
958.861	796
958.950	-117
959.039	-112
959.127	-853
959.216	666
959.304	-192
959.393	374
959.481	-116
959.570	618
959.658	-243
959.746	55
959.835	447
959.923	1006
960.011	-124
960.100	-90
960.188	201
960.276	-300
960.365	-339
960.453	-741
960.541	161
960.629	-170
960.717	-392
960.805	-571
960.893	-556
960.981	-839
961.069	666
961.158	-642
961.245	-397
961.333	-970
961.421	-625
961.509	63
961.597	-546
961.685	-200
961.773	-1390
961.861	-88
961.949	-1034
962.036	348
962.124	-318
962.212	-229
962.299	-526
962.387	-1057
962.475	-506
962.562	-1324
962.650	-302
962.738	-765
962.825	-1191
962.913	4
963.000	-452
963.088	217
963.175	-937
963.263	-395
963.350	-346
963.438	-1379
963.525	-551
963.612	-100
963.700	1092
963.787	3133
963.874	1407
963.962	-187
964.049	-677
964.136	-1400
964.223	-533
964.310	-366
964.398	-74
964.485	-1057
964.572	50
964.659	102
964.746	-404
964.833	-805
964.920	-746
965.007	-27
965.094	-860
965.181	-920
965.268	-222
965.355	-1067
965.441	-659
965.528	-829
965.615	-532
965.702	-855
965.789	-660
965.875	-244
965.962	-1007
966.049	-1232
966.136	-161
966.222	-238
966.309	-585
966.395	-1449
966.482	-881
966.569	-1113
966.655	-780
966.742	-1340
966.828	-739
966.915	-1004
967.001	-442
967.087	-677
967.174	-130
967.260	-342
967.347	410
967.433	54
967.519	1200
967.605	737
967.692	-1042
967.778	-311
967.864	77
967.950	-781
968.036	-1106
968.123	-248
968.209	-940
968.295	-1547
968.381	-36
968.467	-787
968.553	-1956
968.639	-354
968.725	-669
968.811	45
968.897	99
968.983	-489
969.069	-1055
969.154	463
969.240	-30
969.326	-1449
969.412	-1631
969.497	-918
969.583	-2117
969.669	156
969.755	-609
969.840	-628
969.926	-550
970.012	-578
970.097	-1116
970.183	-1250
970.268	-87
970.354	98
970.439	-974
970.525	1295
970.610	-1307
970.696	-246
970.781	-640
970.866	-955
970.952	-641
971.037	-1365
971.122	-1224
971.208	-307
971.293	-233
971.378	-1641
971.463	-809
971.549	-312
971.634	-558
971.719	-556
971.804	81
971.889	-342
971.974	-995
972.059	-395
972.144	-914
972.229	-1205
972.314	-1235
972.399	-433
972.484	-1176
972.569	-401
972.654	-1560
972.739	1009
972.824	-440
972.908	-520
972.993	-670
973.078	-1023
973.163	-365
973.247	-560
973.332	-1393
973.417	240
973.501	-1558
973.586	-942
973.671	-946
973.755	-597
973.840	-478
973.924	-115
974.009	-1239
974.093	-749
974.178	429
974.262	356
974.346	-448
974.431	-869
974.515	-996
974.600	-948
974.684	-1286
974.768	-617
974.852	-396
974.937	-1298
975.021	-178
975.105	-1183
975.189	79
975.273	-812
975.358	-1417
975.442	-1126
975.526	95
975.610	-492
975.694	-2027
975.778	122
975.862	-1409
975.946	-2738
976.030	903
976.114	-1556
976.198	-674
976.281	-305
976.365	-729
976.449	-1127
976.533	6
976.617	-568
976.700	-551
976.784	-783
976.868	-486
976.951	176
977.035	-304
977.119	-811
977.202	-1317
977.286	14
977.369	-770
977.453	-66
977.536	-1318
977.620	-1056
977.703	-398
977.787	-1200
977.870	-326
977.953	-650
978.037	-1507
978.120	431
978.203	-940
978.287	214
978.370	32
978.453	-934
978.536	-1219
978.620	90
978.703	-879
978.786	-160
978.869	-1052
978.952	-1764
979.035	534
979.118	-609
979.201	-346
979.284	-770
979.367	-627
979.450	-131
979.533	-1719
979.616	-761
979.699	-601
979.782	-1127
979.865	-882
979.948	-712
980.030	-477
980.113	-1416
980.196	-1416
980.279	231
980.361	-204
980.444	-1123
980.526	-884
980.609	-158
980.692	-389
980.774	-584
980.857	-993
980.939	-854
981.022	-1385
981.104	-1083
981.187	-1025
981.269	94
981.352	-594
981.434	-1605
981.516	-1531
981.599	435
981.681	-1436
981.763	-904
981.846	-135
981.928	-723
982.010	-817
982.092	-1443
982.174	-969
982.256	-756
982.339	-1044
982.421	-559
982.503	-333
982.585	-2131
982.667	156
982.749	-218
982.831	-670
982.913	-1773
982.995	-482
983.077	-1514
983.158	198
983.240	-1351
983.322	-602
983.404	182
983.486	-1286
983.568	-118
983.649	-1795
983.731	-666
983.813	-54
983.894	-345
983.976	-1103
984.058	-938
984.139	320
984.221	-1467
984.302	-670
984.384	-1064
984.465	-810
984.547	-794
984.628	-1564
984.710	-296
984.791	-919
984.872	-45
984.954	-1390
985.035	-376
985.116	-619
985.198	-1125
985.279	-196
985.360	-557
985.441	-1520
985.522	-607
985.604	-831
985.685	-1369
985.766	264
985.847	99
985.928	-882
986.009	-401
986.090	-1597
986.171	-685
986.252	-962
986.333	-1203
986.414	-809
986.495	-901
986.576	16
986.656	-1384
986.737	-1011
986.818	-1048
986.899	-1583
986.980	-1302
987.060	163
987.141	-777
987.222	-916
987.302	-800
987.383	-541
987.464	-612
987.544	-652
987.625	-567
987.705	-120
987.786	-872
987.866	-817
987.947	-1262
988.027	-1314
988.108	-1431
988.188	-705
988.268	-948
988.349	-644
988.429	-534
988.509	-763
988.589	-1109
988.670	-1884
988.750	170
988.830	-1064
988.910	29
988.990	-637
989.070	-644
989.151	-1515
989.231	-1665
989.311	-503
989.391	-133
989.471	-963
989.551	-505
989.631	-1253
989.711	-449
989.791	-1121
989.870	-1745
989.950	-604
990.030	-869
990.110	-972
990.190	-660
990.269	-1000
990.349	-692
990.429	-901
990.509	-470
990.588	-1334
990.668	-378
990.747	-1454
990.827	-895
990.907	-467
990.986	-891
991.066	-824
991.145	-883
991.225	-967
991.304	-1335
991.383	-1061
991.463	-915
991.542	-447
991.622	-1271
991.701	-1692
991.780	-1687
991.859	-802
991.939	-1127
992.018	-1536
992.097	-341
992.176	-616
992.256	-1069
992.335	-1349
992.414	-482
992.493	-1777
992.572	-1836
992.651	-746
992.730	-560
992.809	-752
992.888	-1219
992.967	-571
993.046	-430
993.125	-1853
993.203	-679
993.282	-1169
993.361	-975
993.440	-834
993.519	-1241
993.597	-26
993.676	-2272
993.755	-1162
993.834	-1478
993.912	-1834
993.991	-592
994.069	-1697
994.148	-785
994.226	-1093
994.305	-818
994.384	-1291
994.462	530
994.540	-1499
994.619	-1868
994.697	-1064
994.776	-1581
994.854	-119
994.932	-1287
995.011	-820
995.089	-1387
995.167	-1604
995.245	-859
995.324	-1456
995.402	-1183
995.480	-1676
995.558	-1653
995.636	-1835
995.714	-1035
995.792	-778
995.870	-1512
995.948	-1676
996.026	-1210
996.104	-1465
996.182	-1636
996.260	-1514
996.338	-898
996.416	-1783
996.494	-1829
996.572	-178
996.649	-952
996.727	-2270
996.805	-847
996.883	-1046
996.960	-1860
997.038	-1404
997.116	-1450
997.193	-1614
997.271	-1326
997.348	-1549
997.426	-948
997.504	-1590
997.581	68
997.658	-1312
997.736	-1201
997.813	-1166
997.891	-435
997.968	-1233
998.046	-1466
998.123	-1822
998.200	-1754
998.277	-1859
998.355	-476
998.432	-1864
998.509	-1170
998.586	-1265
998.663	-1727
998.741	-1436
998.818	-1673
998.895	-1457
998.972	-909
999.049	-1534
999.126	-1751
999.203	-1337
999.280	-564
999.357	-1057
999.434	-1294
999.511	-1325
999.587	-670
999.664	-2133
999.741	-1579
999.818	-1386
999.895	-1242
999.971	-1992
1000.048	-1529
1000.125	-639
1000.202	-1496
1000.278	-2186
1000.355	-1278
1000.431	-1585
1000.508	-635
1000.584	-1001
1000.661	-1362
1000.738	-2024
1000.814	-1299
1000.890	-341
1000.967	-1335
1001.043	-1285
1001.120	-1488
1001.196	-624
1001.272	-2704
1001.349	-960
1001.425	-973
1001.501	-1413
1001.577	-1714
1001.654	-1226
1001.730	-702
1001.806	-828
1001.882	-1873
1001.958	-932
1002.034	-594
1002.110	-1522
1002.186	-2672
1002.262	-1196
1002.338	-970
1002.414	-1600
1002.490	-631
1002.566	-1856
1002.642	-2006
1002.718	-507
1002.794	-1160
1002.870	-2158
1002.945	-1650
1003.021	-1199
1003.097	-1442
1003.173	-944
1003.248	-2491
1003.324	-1534
1003.400	-542
1003.475	-1083
1003.551	-1310
1003.626	-1731
1003.702	-597
1003.777	-1098
1003.853	-2101
1003.928	-927
1004.004	-1197
1004.079	-1171
1004.155	-616
1004.230	-2313
1004.305	-963
1004.381	-1769
1004.456	-1463
1004.531	-2027
1004.607	-956
1004.682	-1796
1004.757	-1049
1004.832	-1425
1004.907	-1211
1004.982	-1159
1005.057	-881
1005.133	-1305
1005.208	-919
1005.283	-1610
1005.358	-823
1005.433	-2103
1005.508	-1793
1005.583	-2027
1005.657	-1988
1005.732	-1937
1005.807	-1764
1005.882	-1719
1005.957	-1631
1006.032	-1268
1006.106	-555
1006.181	-1403
1006.256	-1506
1006.331	-1322
1006.405	-1705
1006.480	-2046
1006.554	-1234
1006.629	-1279
1006.704	-1847
1006.778	-1031
1006.853	-691
1006.927	-886
1007.002	-2083
1007.076	-1165
1007.150	-1522
1007.225	-1537
1007.299	-894
1007.373	-1245
1007.448	-1430
1007.522	-942
1007.596	-1513
1007.671	-2289
1007.745	-803
1007.819	-1939
1007.893	-1523
1007.967	-1192
1008.041	-2061
1008.115	-1391
1008.190	-1579
1008.264	-831
1008.338	-1944
1008.412	-1824
1008.486	-1785
1008.560	-1874
1008.633	-1603
1008.707	-1931
1008.781	-1147
1008.855	-2063
1008.929	-1496
1009.003	-1788
1009.076	-1622
1009.150	-1497
1009.224	-1895
1009.298	-676
1009.371	-1640
1009.445	-443
1009.519	-2165
1009.592	-2124
1009.666	-1169
1009.739	-1723
1009.813	-2426
1009.886	-673
1009.960	-3276
1010.033	-638
1010.107	-1433
1010.180	-2515
1010.253	-1188
1010.327	-1675
1010.400	-1428
1010.473	-1207
1010.547	-174
1010.620	-2668
1010.693	-2014
1010.766	-1248
1010.840	-1456
1010.913	-1041
1010.986	-1388
1011.059	-1455
1011.132	-1848
1011.205	-601
1011.278	-1421
1011.351	-1439
1011.424	-1337
1011.497	-2229
1011.570	-1874
1011.643	-2167
1011.716	-2255
1011.789	-1594
1011.862	-1345
1011.934	-1469
1012.007	-2402
1012.080	-1268
1012.153	-1406
1012.225	-1377
1012.298	-1686
1012.371	-1427
1012.443	-1237
1012.516	-2304
1012.588	-1631
1012.661	-2006
1012.733	-2478
1012.806	-1126
1012.879	-969
1012.951	-1102
1013.023	-803
1013.096	-1373
1013.168	-2006
1013.241	-1163
1013.313	-1295
1013.385	-2753
1013.458	-1279
1013.530	-1553
1013.602	-2295
1013.674	-1120
1013.746	-1940
1013.819	-1662
1013.891	-1193
1013.963	-2120
1014.035	-1391
1014.107	-2017
1014.179	-1471
1014.251	-2602
1014.323	-1405
1014.395	-1252
1014.467	-1310
1014.539	-1381
1014.611	-2452
1014.683	-1003
1014.754	-963
1014.826	-1647
1014.898	-1175
1014.970	-2322
1015.042	-1021
1015.113	-1613
1015.185	-1909
1015.257	-2674
1015.328	-1768
1015.400	-908
1015.471	-1802
1015.543	-1773
1015.615	-1504
1015.686	-2149
1015.757	-2032
1015.829	-1620
1015.901	-1855
1015.972	-1758
1016.043	-1985
1016.115	-1459
1016.186	-1169
1016.257	-1974
1016.328	-835
1016.400	-1122
1016.471	-2307
1016.542	-1684
1016.613	-1785
1016.685	-1033
1016.756	-1248
1016.827	-1424
1016.898	-1544
1016.969	-558
1017.040	-2259
1017.111	-1964
1017.182	-1703
1017.253	-1900
1017.324	-1600
1017.395	-1569
1017.466	-1789
1017.537	-1717
1017.608	-1588
1017.678	-2515
1017.749	-1370
1017.820	-1706
1017.891	-2601
1017.961	-1990
1018.032	-1928
1018.103	-1400
1018.173	-1668
1018.244	-2343
1018.315	-2289
1018.385	-1580
1018.456	-2400
1018.526	-2537
1018.597	-2298
1018.667	-1493
1018.738	-1930
1018.808	-1206
1018.878	-1485
1018.949	-1821
1019.019	-1496
1019.089	-1902
1019.160	-2286
1019.230	-1911
1019.300	-1304
1019.371	-2657
1019.441	-1373
1019.511	-1879
1019.581	-1589
1019.651	-1834
1019.721	-1653
1019.791	-2224
1019.861	-1956
1019.931	-2121
1020.001	-1776
1020.071	-2497
1020.141	-1263
1020.211	-1868
1020.281	-1310
1020.351	-1483
1020.421	-1743
1020.491	-1894
1020.560	-1469
1020.630	-1938
1020.700	-1596
1020.770	-2426
1020.839	-1619
1020.909	-1666
1020.979	-1821
1021.048	-2430
1021.118	-2021
1021.187	-1626
1021.257	-1543
1021.326	-1766
1021.396	-2289
1021.465	-1769
1021.535	-2385
1021.604	-2444
1021.674	-1769
1021.743	-1867
1021.812	-1622
1021.882	-2785
1021.951	-2232
1022.020	-2041
1022.089	-2319
1022.159	-1632
1022.228	-1981
1022.297	-2260
1022.366	-1318
1022.435	-2149
1022.504	-1794
1022.573	-1894
1022.642	-2096
1022.711	-2536
1022.781	-2080
1022.849	-1880
1022.918	-1750
1022.987	-1981
1023.056	-1918
1023.125	-2124
1023.194	-1949
1023.263	-1731
1023.331	-2331
1023.400	-2773
1023.469	-1886
1023.538	-2170
1023.606	-1765
1023.675	-1871
1023.744	-2355
1023.812	-2902
1023.881	-1687
1023.949	-2207
1024.018	-1629
1024.086	-1737
1024.155	-2078
1024.223	-2011
1024.292	-1759
1024.360	-2023
1024.429	-1993
1024.497	-1992
1024.565	-1941
1024.634	-1587
1024.702	-1963
1024.770	-2262
1024.838	-2162
1024.907	-1341
1024.975	-2422
1025.043	-2344
1025.111	-2341
1025.179	-2482
1025.247	-2510
1025.315	-2496
1025.383	-2823
1025.451	-2187
1025.519	-2308
1025.587	-3097
1025.655	-2570
1025.723	-2213
1025.791	-2693
1025.859	-1768
1025.927	-2115
1025.995	-3136
1026.062	-1953
1026.130	-2339
1026.198	-2320
1026.266	-2154
1026.333	-1856
1026.401	-2327
1026.469	-1351
1026.536	-2757
1026.604	-2047
1026.671	-2257
1026.739	-2355
1026.806	-2070
1026.874	-2712
1026.941	-2172
1027.009	-2537
1027.076	-2821
1027.144	-1680
1027.211	-2210
1027.278	-1593
1027.345	-2421
1027.413	-2297
1027.480	-2288
1027.547	-2088
1027.614	-2089
1027.682	-2393
1027.749	-1338
1027.816	-2034
1027.883	-2122
1027.950	-2312
1028.017	-1496
1028.084	-1443
1028.151	-2777
1028.218	-1647
1028.285	-1690
1028.352	-1990
1028.419	-2300
1028.486	-1378
1028.553	-2166
1028.619	-2539
1028.686	-2466
1028.753	-2405
1028.820	-2030
1028.886	-2572
1028.953	-1834
1029.020	-1592
1029.086	-2473
1029.153	-2568
1029.220	-2945
1029.286	-1782
1029.353	-1362
1029.419	-1997
1029.486	-2189
1029.552	-2360
1029.619	-2138
1029.685	-2954
1029.751	-2396
1029.818	-1132
1029.884	-2388
1029.951	-1167
1030.017	-1869
1030.083	-2656
1030.149	-2343
1030.216	-2110
1030.282	-2728
1030.348	-1619
1030.414	-2168
1030.480	-2401
1030.546	-1780
1030.612	-1729
1030.678	-3146
1030.744	-1856
1030.810	-2255
1030.876	-2379
1030.942	-2420
1031.008	-1673
1031.074	-1924
1031.140	-2346
1031.206	-2069
1031.272	-2695
1031.337	-1695
1031.403	-1420
1031.469	-2282
1031.534	-1971
1031.600	-2243
1031.666	-2518
1031.731	-1777
1031.797	-2155
1031.863	-2387
1031.928	-2120
1031.994	-2482
1032.059	-3006
1032.125	-1806
1032.190	-1845
1032.256	-1215
1032.321	-2388
1032.386	-2243
1032.452	-2131
1032.517	-1960
1032.582	-2657
1032.647	-2297
1032.713	-1912
1032.778	-2260
1032.843	-1568
1032.908	-1350
1032.974	-2097
1033.039	-1796
1033.104	-2387
1033.169	-2961
1033.234	-1181
1033.299	-2826
1033.364	-1530
1033.429	-2328
1033.494	-1634
1033.559	-1387
1033.624	-2060
1033.688	-1194
1033.753	-2439
1033.818	-2203
1033.883	-2083
1033.948	-2515
1034.013	-1655
1034.077	-2359
1034.142	-2139
1034.207	-1898
1034.271	-1900
1034.336	-1909
1034.400	-2132
1034.465	-1797
1034.530	-1894
1034.594	-1725
1034.658	-2552
1034.723	-2474
1034.787	-1452
1034.852	-1670
1034.916	-2099
1034.981	-2060
1035.045	-1719
1035.109	-2219
1035.173	-1875
1035.238	-2372
1035.302	-1586
1035.366	-2317
1035.430	-2201
1035.495	-2551
1035.559	-1493
1035.623	-2098
1035.687	-2680
1035.751	-2163
1035.815	-1939
1035.879	-2194
1035.943	-2620
1036.007	-1438
1036.071	-1738
1036.135	-1561
1036.198	-2358
1036.262	-2799
1036.326	-1808
1036.390	-1433
1036.454	-2464
1036.517	-1489
1036.581	-1652
1036.645	-1960
1036.709	-1388
1036.772	-1963
1036.836	-1718
1036.900	-1788
1036.963	-1457
1037.026	-1676
1037.090	-2568
1037.154	-1781
1037.217	-1716
1037.280	-1691
1037.344	-2280
1037.407	-2724
1037.471	-2065
1037.534	-2276
1037.597	-1809
1037.661	-1442
1037.724	-1946
1037.787	-2424
1037.850	-1810
1037.913	-1560
1037.977	-1494
1038.040	-2073
1038.103	-1980
1038.166	-1116
1038.229	-1295
1038.292	-1417
1038.355	-1419
1038.418	-1443
1038.481	-1539
1038.544	-2627
1038.607	-1889
1038.670	-1756
1038.732	-1496
1038.795	-2229
1038.858	-2461
1038.921	-2137
1038.984	-2106
1039.046	-2062
1039.109	-1923
1039.172	-1896
1039.234	-2481
1039.297	-2317
1039.360	-2299
1039.422	-2216
1039.485	-1697
1039.547	-1587
1039.610	-1441
1039.672	-1784
1039.734	-2558
1039.797	-1937
1039.859	-1659
1039.922	-2527
1039.984	-1703
1040.046	-2242
1040.109	-1984
1040.171	-1969
1040.233	-2226
1040.295	-2344
1040.358	-2206
1040.420	-2164
1040.482	-2375
1040.544	-2041
1040.606	-1882
1040.668	-1695
1040.730	-1700
1040.792	-1736
1040.854	-2313
1040.916	-1371
1040.978	-2020
1041.040	-1484
1041.102	-1882
1041.164	-1697
1041.225	-2078
1041.287	-2178
1041.349	-2083
1041.411	-1602
1041.472	-2312
1041.534	-2559
1041.596	-1529
1041.657	-1387
1041.719	-1116
1041.781	-2115
1041.842	-1708
1041.904	-1582
1041.965	-2065
1042.027	-1771
1042.088	-1490
1042.150	-1145
1042.211	-1495
1042.272	-1778
1042.334	-1769
1042.395	-1344
1042.456	-2626
1042.518	-2118
1042.579	-1637
1042.640	-1401
1042.701	-1699
1042.763	-1509
1042.824	-2223
1042.885	-1789
1042.946	-1932
1043.007	-1844
1043.068	-1410
1043.129	-2275
1043.190	-1626
1043.251	-1231
1043.312	-1827
1043.373	-1152
1043.434	-1333
1043.495	-2189
1043.556	-1379
1043.616	-1155
1043.677	-1649
1043.738	-1964
1043.799	-2097
1043.859	-2164
1043.920	-2076
1043.981	-2272
1044.041	-1848
1044.102	-1751
1044.162	-1525
1044.223	-2137
1044.284	-1422
1044.344	-2242
1044.405	-1850
1044.465	-2026
1044.525	-1947
1044.586	-988
1044.646	-1451
1044.707	-2019
1044.767	-1519
1044.827	-1789
1044.887	-1868
1044.948	-1299
1045.008	-2377
1045.068	-1554
1045.128	-1295
1045.188	-1850
1045.249	-1379
1045.309	-2072
1045.369	-2409
1045.429	-1786
1045.489	-1582
1045.549	-1828
1045.609	-2470
1045.669	-2132
1045.729	-1674
1045.789	-1725
1045.848	-2144
1045.908	-1549
1045.968	-606
1046.028	-1667
1046.088	-1326
1046.147	-1173
1046.207	-804
1046.267	-1527
1046.326	-625
1046.386	-1439
1046.446	-1195
1046.505	-922
1046.565	-1386
1046.624	-670
1046.684	-1262
1046.743	-408
1046.803	-839
1046.862	-584
1046.922	0
