'Start Wavelength	183.907
'End Wavelength	1046.922
'Gate Delay	5.000
'Gate Width (ms)	1.050
'Laser Output Level	0.000
'X Position	0.000
'Y Position	0.000
'Z Position	0.000
'Grid Point Number	1.000
'Shot Number	100.000
183.907	349.000
183.977	-132.000
184.047	74
184.116	65
184.186	275
184.256	-538
184.325	-242
184.395	-585
184.465	551
184.534	119
184.604	-1124
184.674	-186
184.743	-497
184.813	28
184.883	-790
184.952	31
185.022	184
185.092	-734
185.161	-137
185.231	-185
185.301	-565
185.370	391
185.440	-447
185.509	-192
185.579	-381
185.649	-118
185.718	328
185.788	-82
185.857	-392
185.927	-568
185.996	-496
186.066	-281
186.136	224
186.205	-101
186.275	-29
186.344	374
186.414	-191
186.483	-544
186.553	-205
186.622	364
186.692	569
186.761	-313
186.831	-238
186.900	256
186.970	-231
187.039	-311
187.109	423
187.178	397
187.248	-349
187.317	-99
187.387	-57
187.456	34
187.526	347
187.595	-415
187.664	-331
187.734	807
187.803	155
187.873	288
187.942	561
188.012	-299
188.081	-52
188.150	89
188.220	162
188.289	456
188.358	-371
188.428	-401
188.497	-671
188.567	675
188.636	122
188.705	714
188.775	-215
188.844	-66
188.913	895
188.983	-521
189.052	-493
189.121	-412
189.191	-922
189.260	-252
189.329	-683
189.399	-751
189.468	249
189.537	-458
189.606	-211
189.676	-590
189.745	-238
189.814	698
189.883	-589
189.953	-503
190.022	138
190.091	208
190.161	-336
190.230	-137
190.299	155
190.368	-744
190.437	-756
190.507	-430
190.576	-746
190.645	-229
190.714	-404
190.783	-475
190.853	-248
190.922	329
190.991	-886
191.060	-155
191.129	-557
191.198	105
191.268	-259
191.337	-945
191.406	364
191.475	227
191.544	151
191.613	157
191.682	338
191.752	-419
191.821	-580
191.890	54
191.959	-144
192.028	147
192.097	-167
192.166	-411
192.235	-475
192.304	219
192.373	-628
192.442	-203
192.511	-196
192.580	109
192.650	465
192.719	-621
192.788	33
192.857	-764
192.926	0
192.995	252
193.064	229
193.133	-137
193.202	-2
193.271	-22
193.340	440
193.409	644
193.478	46
193.547	-129
193.615	698
193.684	911
193.753	151
193.822	1254
193.891	20
193.960	254
194.029	-436
194.098	237
194.167	-45
194.236	-229
194.305	-733
194.374	-423
194.443	364
194.512	-369
194.580	122
194.649	-265
194.718	93
194.787	53
194.856	-188
194.925	258
194.994	391
195.062	-317
195.131	89
195.200	395
195.269	163
195.338	314
195.407	312
195.475	-525
195.544	-71
195.613	247
195.682	290
195.751	19
195.819	-915
195.888	-34
195.957	216
196.026	228
196.094	-142
196.163	-773
196.232	-1015
196.301	-339
196.369	-566
196.438	-407
196.507	-509
196.576	99
196.644	-572
196.713	522
196.782	-293
196.850	155
196.919	-364
196.988	28
197.056	-734
197.125	573
197.194	-258
197.262	252
197.331	271
197.400	-272
197.468	-690
197.537	-11
197.606	379
197.674	269
197.743	110
197.812	113
197.880	-308
197.949	52
198.017	239
198.086	-151
198.155	572
198.223	107
198.292	-95
198.360	175
198.429	-505
198.497	-157
198.566	-242
198.635	389
198.703	393
198.772	-140
198.840	479
198.909	-252
198.977	25
199.046	-242
199.114	582
199.183	25
199.251	-330
199.320	-416
199.388	-338
199.457	134
199.525	-173
199.594	-605
199.662	-259
199.731	278
199.799	-409
199.867	511
199.936	-417
200.004	-260
200.073	-278
200.141	150
200.210	-203
200.278	344
200.346	-371
200.415	185
200.483	170
200.552	11
200.620	-1001
200.688	-380
200.757	-339
200.825	-418
200.893	-184
200.962	382
201.030	292
201.098	633
201.167	694
201.235	-547
201.303	-367
201.372	722
201.440	-558
201.508	145
201.577	-64
201.645	521
201.713	40
201.781	-70
201.850	796
201.918	306
201.986	-15
202.055	-90
202.123	-9
202.191	528
202.259	-489
202.327	473
202.396	69
202.464	155
202.532	53
202.600	611
202.669	199
202.737	583
202.805	-127
202.873	250
202.941	414
203.009	82
203.078	249
203.146	83
203.214	-454
203.282	-730
203.350	250
203.418	-366
203.487	80
203.555	490
203.623	128
203.691	-367
203.759	-212
203.827	126
203.895	-34
203.963	-18
204.031	-211
204.099	252
204.168	-315
204.236	566
204.304	177
204.372	311
204.440	290
204.508	85
204.576	-414
204.644	365
204.712	87
204.780	419
204.848	22
204.916	-728
204.984	111
205.052	808
205.120	-309
205.188	-145
205.256	-507
205.324	684
205.392	408
205.460	488
205.528	-214
205.596	680
205.664	1202
205.732	-479
205.799	600
205.867	1454
205.935	-117
206.003	352
206.071	-926
206.139	-169
206.207	-145
206.275	537
206.343	-430
206.411	91
206.478	-543
206.546	400
206.614	136
206.682	300
206.750	160
206.818	-85
206.885	640
206.953	-455
207.021	449
207.089	424
207.157	-205
207.225	355
207.292	-9
207.360	314
207.428	-123
207.496	246
207.563	423
207.631	124
207.699	-50
207.767	695
207.834	-728
207.902	-150
207.970	601
208.038	-60
208.105	-66
208.173	221
208.241	295
208.309	269
208.376	35
208.444	755
208.512	877
208.579	-498
208.647	505
208.715	996
208.782	-558
208.850	833
208.918	51
208.985	415
209.053	796
209.120	871
209.188	-295
209.256	280
209.323	177
209.391	440
209.459	1057
209.526	564
209.594	-275
209.661	226
209.729	-300
209.796	-231
209.864	535
209.932	164
209.999	1523
210.067	209
210.134	385
210.202	-81
210.269	581
210.337	904
210.404	488
210.472	425
210.539	642
210.607	166
210.674	417
210.742	808
210.809	239
210.877	165
210.944	1156
211.012	-421
211.079	1588
211.146	-269
211.214	397
211.281	758
211.349	302
211.416	166
211.484	39
211.551	546
211.618	578
211.686	1060
211.753	-83
211.821	1057
211.888	160
211.955	506
212.023	51
212.090	46
212.157	-39
212.225	58
212.292	254
212.359	1804
212.427	3463
212.494	2182
212.561	802
212.629	637
212.696	615
212.763	74
212.831	292
212.898	1007
212.965	-394
213.032	1208
213.100	1447
213.167	83
213.234	1092
213.301	191
213.369	839
213.436	937
213.503	101
213.570	1138
213.638	-602
213.705	-67
213.772	233
213.839	297
213.906	822
213.973	558
214.041	-141
214.108	1070
214.175	378
214.242	36
214.309	606
214.376	300
214.444	89
214.511	1150
214.578	517
214.645	521
214.712	883
214.779	1004
214.846	121
214.913	921
214.980	603
215.048	817
215.115	654
215.182	508
215.249	384
215.316	1007
215.383	1026
215.450	929
215.517	245
215.584	218
215.651	-39
215.718	713
215.785	415
215.852	376
215.919	760
215.986	700
216.053	-288
216.120	-196
216.187	632
216.254	253
216.321	-219
216.388	344
216.455	914
216.522	604
216.589	362
216.656	855
216.722	1294
216.789	983
216.856	857
216.923	927
216.990	1497
217.057	462
217.124	561
217.191	1580
217.258	1518
217.324	1853
217.391	2308
217.458	2137
217.525	1523
217.592	650
217.659	-183
217.725	1171
217.792	366
217.859	1088
217.926	-210
217.993	511
218.059	889
218.126	697
218.193	223
218.260	259
218.327	-617
218.393	63
218.460	-647
218.527	-537
218.594	-199
218.660	181
218.727	1083
218.794	114
218.860	983
218.927	115
218.994	-93
219.061	-20
219.127	15
219.194	244
219.261	7
219.327	401
219.394	714
219.461	-515
219.527	-564
219.594	779
219.661	625
219.727	-1100
219.794	757
219.860	-120
219.927	535
219.994	906
220.060	1571
220.127	1108
220.193	495
220.260	785
220.326	1859
220.393	2518
220.460	4042
220.526	2493
220.593	1111
220.659	2463
220.726	1040
220.792	2272
220.859	2917
220.925	4970
220.992	5838
221.058	4197
221.125	3213
221.191	2338
221.258	719
221.324	939
221.391	580
221.457	571
221.524	1048
221.590	1307
221.657	1934
221.723	1174
221.789	1130
221.856	2211
221.922	68
221.989	166
222.055	-26
222.121	-1185
222.188	1148
222.254	493
222.321	267
222.387	682
222.453	337
222.520	86
222.586	578
222.652	-24
222.719	-171
222.785	688
222.851	-747
222.918	892
222.984	92
223.050	-383
223.116	-1352
223.183	410
223.249	-728
223.315	299
223.382	-351
223.448	216
223.514	-532
223.580	-519
223.647	-23
223.713	-917
223.779	-151
223.845	-112
223.911	-587
223.978	101
224.044	-123
224.110	-363
224.176	294
224.242	-28
224.309	-644
224.375	147
224.441	-215
224.507	-230
224.573	-287
224.639	452
224.705	-788
224.772	197
224.838	-1068
224.904	538
224.970	-60
225.036	-330
225.102	-542
225.168	-47
225.234	307
225.300	-125
225.366	1
225.432	874
225.499	-356
225.565	278
225.631	-506
225.697	827
225.763	120
225.829	185
225.895	446
225.961	386
226.027	697
226.093	615
226.159	1255
226.225	1860
226.291	4851
226.357	8018
226.423	4396
226.489	1944
226.554	1617
226.620	1083
226.686	1664
226.752	2539
226.818	4383
226.884	8693
226.950	8918
227.016	3915
227.082	2051
227.148	291
227.214	1071
227.279	429
227.345	446
227.411	180
227.477	767
227.543	2519
227.609	1666
227.674	389
227.740	-343
227.806	491
227.872	-179
227.938	95
228.003	124
228.069	-143
228.135	-353
228.201	334
228.267	267
228.332	69
228.398	-1750
228.464	662
228.530	-81
228.595	411
228.661	-549
228.727	-630
228.792	694
228.858	259
228.924	-1957
228.990	1187
229.055	-885
229.121	408
229.187	-35
229.252	-509
229.318	-213
229.384	176
229.449	410
229.515	-1332
229.581	-589
229.646	1336
229.712	-523
229.777	492
229.843	-145
229.909	449
229.974	519
230.040	-153
230.105	108
230.171	149
230.236	158
230.302	346
230.368	-274
230.433	-253
230.499	-891
230.564	1163
230.630	-787
230.695	148
230.761	172
230.826	-1249
230.892	806
230.957	-659
231.023	-530
231.088	576
231.154	-370
231.219	271
231.284	-220
231.350	1152
231.415	-868
231.481	626
231.546	154
231.612	-728
231.677	-568
231.742	-988
231.808	690
231.873	-163
231.939	-2270
232.004	1107
232.069	1071
232.135	-301
232.200	-514
232.265	196
232.331	-707
232.396	19
232.461	-424
232.527	-408
232.592	-812
232.657	137
232.723	803
232.788	-188
232.853	32
232.918	662
232.984	-313
233.049	-204
233.114	-389
233.179	40
233.245	-431
233.310	507
233.375	-901
233.440	693
233.506	-575
233.571	-609
233.636	-342
233.701	-275
233.766	-81
233.832	-265
233.897	-209
233.962	-1799
234.027	1122
234.092	1061
234.157	-574
234.222	40
234.288	-244
234.353	351
234.418	802
234.483	570
234.548	464
234.613	321
234.678	544
234.743	-194
234.808	1780
234.873	-294
234.938	651
235.004	68
235.069	-336
235.134	328
235.199	403
235.264	-235
235.329	-961
235.394	744
235.459	180
235.524	-598
235.589	216
235.654	194
235.719	-1528
235.784	357
235.849	7
235.913	586
235.978	422
236.043	553
236.108	151
236.173	468
236.238	1394
236.303	-802
236.368	-274
236.433	1502
236.498	477
236.563	1349
236.627	3532
236.692	10719
236.757	10182
236.822	4657
236.887	1192
236.952	1597
237.017	567
237.081	2202
237.146	1051
237.211	6333
237.276	10660
237.341	14766
237.405	7636
237.470	3696
237.535	1598
237.600	1958
237.664	1546
237.729	-143
237.794	1767
237.859	5120
237.923	1478
237.988	855
238.053	1445
238.118	202
238.182	786
238.247	2639
238.312	-394
238.376	773
238.441	-1373
238.506	1450
238.570	-747
238.635	1940
238.700	813
238.764	-307
238.829	88
238.893	270
238.958	137
239.023	356
239.087	-201
239.152	753
239.216	-496
239.281	412
239.346	-420
239.410	-270
239.475	344
239.539	2016
239.604	644
239.668	372
239.733	-295
239.797	2071
239.862	4991
239.926	3234
239.991	1159
240.055	431
240.120	60
240.184	-340
240.249	-627
240.313	179
240.378	-583
240.442	198
240.507	1496
240.571	158
240.635	-779
240.700	1101
240.764	182
240.829	-170
240.893	-475
240.957	140
241.022	613
241.086	1254
241.151	-864
241.215	-563
241.279	546
241.344	-693
241.408	1217
241.472	-776
241.537	1141
241.601	587
241.665	-1485
241.730	-569
241.794	720
241.858	389
241.922	180
241.987	367
242.051	-138
242.115	-337
242.179	-309
242.244	-323
242.308	-75
242.372	176
242.436	-480
242.501	473
242.565	-957
242.629	-484
242.693	97
242.757	-433
242.822	-765
242.886	210
242.950	1437
243.014	-788
243.078	698
243.142	-170
243.206	-990
243.271	-8
243.335	48
243.399	775
243.463	2864
243.527	11035
243.591	3575
243.655	1427
243.719	-685
243.783	1291
243.847	664
243.911	1618
243.975	-36
244.040	-712
244.104	1541
244.168	332
244.232	138
244.296	785
244.360	987
244.424	-1181
244.488	-19
244.552	705
244.615	-1457
244.679	-148
244.743	367
244.807	-963
244.871	-411
244.935	1095
244.999	-1681
245.063	-163
245.127	101
245.191	1098
245.255	310
245.319	449
245.383	-1020
245.446	694
245.510	-292
245.574	-366
245.638	271
245.702	-1174
245.766	102
245.829	475
245.893	209
245.957	-10
246.021	523
246.085	-59
246.149	-317
246.212	1184
246.276	1230
246.340	310
246.404	743
246.467	1484
246.531	-901
246.595	785
246.659	980
246.722	-340
246.786	713
246.850	-160
246.913	502
246.977	-950
247.041	-526
247.104	-134
247.168	37
247.232	1050
247.295	2880
247.359	1004
247.423	517
247.486	176
247.550	626
247.614	-343
247.677	786
247.741	69
247.804	888
247.868	-54
247.932	596
247.995	3864
248.059	299
248.122	-523
248.186	1271
248.249	692
248.313	4539
248.376	6143
248.440	2159
248.503	226
248.567	1944
248.630	500
248.694	1889
248.757	2957
248.821	5920
248.884	3858
248.948	1901
249.011	4336
249.075	5521
249.138	5447
249.202	676
249.265	-264
249.328	1260
249.392	24
249.455	1642
249.519	11
249.582	648
249.645	1573
249.709	1453
249.772	1180
249.835	698
249.899	875
249.962	1262
250.025	-59
250.089	1610
250.152	3179
250.215	1401
250.279	-187
250.342	1619
250.405	1080
250.468	900
250.532	1014
250.595	2431
250.658	8345
250.721	18100
250.785	4846
250.848	4309
250.911	1101
250.974	2487
251.038	1361
251.101	3127
251.164	1452
251.227	1804
251.290	1148
251.354	3851
251.417	14429
251.480	15476
251.543	8485
251.606	26891
251.669	21063
251.732	7619
251.795	5587
251.859	6154
251.922	15955
251.985	10626
252.048	3639
252.111	1867
252.174	1057
252.237	3193
252.300	7255
252.363	7662
252.426	22004
252.489	7689
252.552	3031
252.615	1422
252.678	3071
252.741	5056
252.804	7809
252.867	22759
252.930	11050
252.993	4643
253.056	2927
253.119	1817
253.182	626
253.245	2982
253.308	2274
253.371	564
253.434	1195
253.497	1127
253.559	1911
253.622	1779
253.685	1266
253.748	1602
253.811	407
253.874	1559
253.937	53
254.000	497
254.062	1696
254.125	2142
254.188	2617
254.251	1591
254.314	186
254.376	359
254.439	1422
254.502	1414
254.565	499
254.628	3230
254.690	1445
254.753	-219
254.816	237
254.878	908
254.941	1627
255.004	1767
255.067	211
255.129	-478
255.192	370
255.255	-766
255.317	-141
255.380	-227
255.443	-585
255.505	-168
255.568	-1056
255.631	-316
255.693	-32
255.756	-851
255.819	859
255.881	-373
255.944	-104
256.006	-909
256.069	-135
256.132	-293
256.194	-279
256.257	582
256.319	180
256.382	73
256.444	1291
256.507	-158
256.569	-209
256.632	728
256.694	415
256.757	5308
256.819	19723
256.882	7840
256.944	2061
257.007	1934
257.069	1212
257.132	-280
257.194	1599
257.257	722
257.319	-79
257.381	933
257.444	5306
257.506	20798
257.569	24964
257.631	7152
257.693	3303
257.756	1597
257.818	647
257.880	523
257.943	1002
258.005	-952
258.067	405
258.130	-182
258.192	-213
258.254	-268
258.317	217
258.379	208
258.441	1142
258.503	1336
258.566	469
258.628	2121
258.690	235
258.753	399
258.815	396
258.877	-360
258.939	665
259.001	189
259.064	-353
259.126	392
259.188	439
259.250	433
259.312	591
259.375	678
259.437	62
259.499	-17
259.561	137
259.623	-100
259.685	271
259.747	382
259.809	1252
259.872	2248
259.934	4653
259.996	5714
260.058	2273
260.120	-497
260.182	-121
260.244	-82
260.306	-714
260.368	288
260.430	-163
260.492	1326
260.554	3484
260.616	-701
260.678	2467
260.740	2976
260.802	-309
260.864	709
260.926	-827
260.988	307
261.050	-340
261.112	902
261.174	5976
261.236	2246
261.298	641
261.359	571
261.421	2257
261.483	363
261.545	655
261.607	-1582
261.669	91
261.731	-58
261.793	1251
261.854	-1153
261.916	704
261.978	699
262.040	47
262.102	-159
262.164	-498
262.225	-335
262.287	-301
262.349	61
262.411	305
262.472	814
262.534	-661
262.596	441
262.658	203
262.719	-966
262.781	-77
262.843	397
262.904	184
262.966	88
263.028	386
263.090	4236
263.151	15249
263.213	5099
263.275	1134
263.336	131
263.398	884
263.459	-498
263.521	-79
263.583	807
263.644	344
263.706	-662
263.767	-922
263.829	344
263.891	86
263.952	-479
264.014	-483
264.075	-410
264.137	3372
264.198	1373
264.260	-130
264.321	172
264.383	285
264.444	5727
264.506	1189
264.567	598
264.629	1886
264.690	3301
264.752	1155
264.813	-61
264.875	-56
264.936	268
264.998	374
265.059	-528
265.120	169
265.182	623
265.243	11220
265.305	13208
265.366	2163
265.427	369
265.489	1319
265.550	-415
265.611	112
265.673	253
265.734	-588
265.795	-394
265.857	215
265.918	412
265.979	2893
266.040	17569
266.102	16509
266.163	3820
266.224	1401
266.286	268
266.347	-795
266.408	-367
266.469	205
266.530	-4
266.592	-658
266.653	300
266.714	724
266.775	-274
266.836	-287
266.898	-1117
266.959	353
267.020	-297
267.081	761
267.142	-567
267.203	-508
267.264	-1195
267.326	455
267.387	-1137
267.448	-353
267.509	-192
267.570	-502
267.631	-1344
267.692	-661
267.753	155
267.814	-1393
267.875	274
267.936	1729
267.997	768
268.058	120
268.119	-197
268.180	33
268.241	-1090
268.302	7
268.363	-549
268.424	-1190
268.485	-261
268.546	-839
268.607	-441
268.668	-1018
268.729	-1376
268.790	-986
268.851	-656
268.912	619
268.972	204
269.033	-557
269.094	-476
269.155	-111
269.216	-1070
269.277	52
269.338	-834
269.398	-316
269.459	-1059
269.520	571
269.581	333
269.642	0
269.702	-485
269.763	-262
269.824	-1221
269.885	-522
269.945	496
270.006	-193
270.067	-1222
270.128	-759
270.188	-537
270.249	-939
270.310	-1383
270.370	-387
270.431	-784
270.492	-331
270.553	-1450
270.613	-426
270.674	1124
270.734	-456
270.795	-186
270.856	-363
270.916	-684
270.977	-309
271.038	15
271.098	-575
271.159	-182
271.219	-211
271.280	-697
271.340	-454
271.401	-747
271.462	55
271.522	251
271.583	-323
271.643	-653
271.704	-826
271.764	-132
271.825	462
271.885	4608
271.946	6446
272.006	1678
272.066	2070
272.127	4333
272.187	3183
272.248	123
272.308	-7
272.369	3417
272.429	1281
272.489	-120
272.550	-376
272.610	1107
272.671	142
272.731	-95
272.791	802
272.852	-654
272.912	-192
272.972	-679
273.033	-553
273.093	-752
273.153	335
273.214	39
273.274	-254
273.334	2475
273.394	6202
273.455	1544
273.515	1721
273.575	4854
273.635	1146
273.696	1409
273.756	4110
273.816	1094
273.876	227
273.936	849
273.997	2978
274.057	-754
274.117	-669
274.177	749
274.237	6103
274.297	5528
274.358	2001
274.418	3291
274.478	2420
274.538	-555
274.598	-346
274.658	1541
274.718	1881
274.778	-49
274.838	148
274.898	-491
274.958	2882
275.018	3111
275.078	2888
275.138	-117
275.198	-338
275.258	-824
275.318	-96
275.378	74
275.438	1210
275.498	-6
275.558	697
275.618	3786
275.678	3212
275.738	781
275.798	882
275.858	215
275.918	-303
275.978	-492
276.038	104
276.098	-212
276.157	61
276.217	2933
276.277	401
276.337	212
276.397	-369
276.457	-328
276.517	-75
276.576	271
276.636	-585
276.696	-259
276.756	1216
276.815	775
276.875	91
276.935	-109
276.995	-654
277.055	-525
277.114	252
277.174	-142
277.234	2338
277.293	319
277.353	-159
277.413	-322
277.472	-41
277.532	-884
277.592	185
277.651	1720
277.711	6580
277.771	1454
277.830	7653
277.890	5695
277.950	2569
278.009	13763
278.069	4607
278.128	4671
278.188	7382
278.248	1666
278.307	6817
278.367	4641
278.426	655
278.486	-83
278.545	-681
278.605	-216
278.664	-473
278.724	-441
278.783	1390
278.843	5722
278.902	1041
278.962	-284
279.021	986
279.081	56
279.140	43
279.199	304
279.259	-211
279.318	281
279.378	940
279.437	1913
279.496	8373
279.556	33786
279.615	29592
279.675	6266
279.734	3013
279.793	3083
279.853	5864
279.912	2426
279.971	1830
280.031	1
280.090	2020
280.149	4910
280.208	3428
280.268	22037
280.327	27090
280.386	4518
280.445	2891
280.505	1739
280.564	813
280.623	475
280.682	716
280.742	2885
280.801	438
280.860	-147
280.919	491
280.978	156
281.037	-547
281.097	-724
281.156	176
281.215	-892
281.274	9
281.333	3512
281.392	2720
281.451	-489
281.510	-183
281.569	-404
281.628	-490
281.688	157
281.747	-434
281.806	-484
281.865	-43
281.924	-461
281.983	-495
282.042	-659
282.101	-171
282.160	-612
282.219	-1676
282.278	-1351
282.337	1096
282.396	-76
282.454	-792
282.513	-214
282.572	2087
282.631	949
282.690	-764
282.749	-1483
282.808	313
282.867	-855
282.926	-717
282.985	-739
283.043	-86
283.102	-219
283.161	-952
283.220	512
283.279	3585
283.338	475
283.396	296
283.455	-246
283.514	-69
283.573	109
283.631	602
283.690	-1381
283.749	-997
283.808	353
283.866	745
283.925	-952
283.984	454
284.043	-345
284.101	322
284.160	-748
284.219	652
284.277	-279
284.336	-165
284.395	3817
284.453	3139
284.512	239
284.570	712
284.629	300
284.688	1002
284.746	1286
284.805	1224
284.863	1720
284.922	2234
284.981	3641
285.039	5634
285.098	10072
285.156	23768
285.215	43992
285.273	44955
285.332	28419
285.390	13492
285.449	7887
285.507	4287
285.566	2786
285.624	2639
285.683	2280
285.741	1048
285.799	1213
285.858	943
285.916	360
285.975	415
286.033	-107
286.091	-128
286.150	-497
286.208	-448
286.267	-286
286.325	-332
286.383	445
286.442	-9
286.500	-111
286.558	157
286.616	-192
286.675	548
286.733	-113
286.791	-328
286.850	-87
286.908	470
286.966	950
287.024	220
287.083	-715
287.141	533
287.199	-255
287.257	304
287.315	-453
287.374	-276
287.432	1845
287.490	759
287.548	-753
287.606	359
287.664	-242
287.723	239
287.781	1140
287.839	558
287.897	48
287.955	869
288.013	2397
288.071	4080
288.129	19588
288.187	66479
288.245	30403
288.303	8305
288.361	3434
288.419	2261
288.477	1024
288.535	669
288.593	539
288.651	-83
288.709	-910
288.767	-498
288.825	-392
288.883	-250
288.941	-610
288.999	-214
289.057	188
289.115	-1006
289.173	-338
289.231	353
289.289	-688
289.346	-338
289.404	-2
289.462	42
289.520	-584
289.578	623
289.636	-586
289.694	-362
289.751	-1140
289.809	-673
289.867	-311
289.925	351
289.983	-520
290.040	-695
290.098	-536
290.156	-990
290.214	-355
290.271	-578
290.329	199
290.387	-654
290.444	-921
290.502	-415
290.560	-805
290.617	-70
290.675	-690
290.733	-776
290.790	315
290.848	-517
290.906	-1125
290.963	8
291.021	-216
291.078	197
291.136	-416
291.194	1271
291.251	4590
291.309	350
291.366	-564
291.424	-642
291.481	-407
291.539	-566
291.596	154
291.654	-475
291.711	-708
291.769	-4
291.826	-514
291.884	-247
291.941	-632
291.999	-585
292.056	-942
292.114	-1111
292.171	-950
292.228	-125
292.286	-2
292.343	532
292.401	-275
292.458	-159
292.515	-1056
292.573	-310
292.630	-700
292.687	-866
292.745	-20
292.802	-608
292.859	2777
292.917	4118
292.974	891
293.031	432
293.089	-346
293.146	-537
293.203	-79
293.260	-1023
293.318	72
293.375	305
293.432	-726
293.489	-1307
293.546	-802
293.604	-762
293.661	357
293.718	6117
293.775	3497
293.832	1645
293.889	-326
293.947	116
294.004	-375
294.061	-988
294.118	820
294.175	4108
294.232	8544
294.289	2617
294.346	413
294.403	490
294.460	154
294.517	375
294.574	-392
294.631	20
294.688	-538
294.745	1245
294.802	7892
294.859	13166
294.916	3125
294.973	369
295.030	778
295.087	-210
295.144	-188
295.201	167
295.258	-401
295.315	-122
295.372	1433
295.429	5355
295.486	1881
295.542	769
295.599	5118
295.656	10922
295.713	4740
295.770	5746
295.827	1297
295.883	246
295.940	-198
295.997	649
296.054	245
296.111	340
296.167	167
296.224	131
296.281	-113
296.338	-275
296.394	-422
296.451	-405
296.508	2386
296.564	3776
296.621	2693
296.678	4926
296.734	8830
296.791	2548
296.848	486
296.904	437
296.961	1940
297.018	5584
297.074	5302
297.131	2180
297.187	443
297.244	1148
297.301	4282
297.357	10984
297.414	3105
297.470	974
297.527	-192
297.583	-230
297.640	-670
297.696	-410
297.753	222
297.809	-358
297.866	-645
297.922	-368
297.979	-473
298.035	-247
298.092	221
298.148	2753
298.204	2645
298.261	1122
298.317	2402
298.374	8014
298.430	3372
298.486	692
298.543	621
298.599	675
298.656	932
298.712	1622
298.768	6643
298.824	6357
298.881	423
298.937	820
298.993	409
299.050	494
299.106	312
299.162	-612
299.218	324
299.275	-734
299.331	40
299.387	976
299.443	6489
299.500	9995
299.556	5724
299.612	1493
299.668	1805
299.724	4368
299.780	6354
299.837	1945
299.893	1643
299.949	6647
300.005	9933
300.061	6487
300.117	14136
300.173	6393
300.229	1877
300.285	911
300.341	1281
300.397	337
300.453	-69
300.510	-220
300.566	63
300.622	1140
300.678	8804
300.734	13537
300.790	7655
300.845	7224
300.901	6677
300.957	9952
301.013	5474
301.069	1578
301.125	434
301.181	355
301.237	831
301.293	716
301.349	698
301.405	504
301.461	-837
301.516	555
301.572	-585
301.628	366
301.684	705
301.740	1607
301.796	3635
301.851	2009
301.907	2529
301.963	3002
302.019	4924
302.074	18376
302.130	18929
302.186	7615
302.242	3147
302.297	2251
302.353	1531
302.409	3527
302.464	2870
302.520	2190
302.576	5550
302.631	7811
302.687	3554
302.743	1329
302.798	792
302.854	633
302.910	-169
302.965	728
303.021	1882
303.076	1244
303.132	777
303.187	1923
303.243	692
303.299	301
303.354	264
303.410	-327
303.465	-560
303.521	254
303.576	-27
303.632	630
303.687	1552
303.743	5899
303.798	4856
303.853	1375
303.909	763
303.964	275
304.020	454
304.075	979
304.130	1459
304.186	2652
304.241	3286
304.297	2515
304.352	650
304.358	646
304.407	612
304.449	338
304.463	246
304.518	491
304.539	562
304.573	670
304.629	1021
304.630	1026
304.684	1302
304.720	3155
304.739	4075
304.794	6085
304.811	5287
304.850	3378
304.902	1039
304.905	889
304.960	609
304.992	620
305.015	628
305.071	1090
305.083	939
305.126	334
305.173	102
305.181	82
305.236	-33
305.264	318
305.292	595
305.347	685
305.354	676
305.402	792
305.445	1574
305.457	1761
305.512	1996
305.535	1578
305.567	1079
305.622	1280
305.626	1333
305.678	2566
305.716	5534
305.733	6562
305.788	8528
305.807	7091
305.843	4701
305.897	6031
305.898	6042
305.953	6665
305.988	4637
306.008	3512
306.063	2390
306.078	1972
306.118	1015
306.168	739
306.173	708
306.228	119
306.259	297
306.283	548
306.338	482
306.349	478
306.393	349
306.440	1297
306.448	1482
306.503	981
306.530	1042
306.558	1398
306.613	3954
306.620	4218
306.668	5714
306.711	6371
306.723	6258
306.778	5497
306.801	4152
306.833	2787
306.888	1498
306.892	1458
306.943	1102
306.982	692
306.997	516
307.052	734
307.072	691
307.107	896
307.162	1482
307.163	1484
307.217	2184
307.253	3308
307.272	3529
307.327	3200
307.343	2933
307.381	2561
307.434	1389
307.436	1415
307.491	4635
307.524	6751
307.546	7253
307.600	6822
307.614	6187
307.655	4059
307.704	2159
307.710	2117
307.765	2660
307.795	3290
307.819	4011
307.874	7367
307.885	7531
307.929	6653
307.975	5398
307.984	5584
308.038	8138
308.065	10265
308.093	17932
308.148	38710
308.156	43281
308.202	66973
308.246	82518
308.257	80481
308.312	46591
308.336	31972
308.366	22728
308.421	12219
308.426	11474
308.475	7887
308.517	5804
308.530	5255
308.585	3880
308.607	3683
308.639	3894
308.694	4233
308.697	4258
308.748	6879
308.787	10227
308.803	10299
308.857	8014
308.877	6814
308.912	5925
308.967	6128
308.967	6127
309.021	8277
309.058	10629
309.076	13506
309.130	23909
309.148	28094
309.185	50695
309.238	90425
309.239	90747
309.293	99201
309.328	94354
309.348	82920
309.402	43048
309.418	32613
309.457	22345
309.508	12998
309.511	12704
309.566	10202
309.598	9167
309.620	9612
309.674	11957
309.688	12685
309.729	12046
309.778	9502
309.783	9266
309.837	6604
309.868	5491
309.892	5909
309.946	7144
309.959	7724
310.001	9791
310.049	11204
310.055	10865
310.109	7368
310.139	5007
310.163	3810
310.218	2208
310.229	1826
310.272	1653
310.319	2010
310.326	1999
310.381	1578
310.409	1437
310.435	1344
310.489	1221
310.499	1181
310.543	1388
310.589	1693
310.598	1721
310.652	1823
310.679	1874
310.706	1828
310.760	1584
310.769	1560
310.814	1519
310.859	1479
310.868	1475
310.923	1266
310.948	1262
310.977	1732
311.031	2411
311.038	2531
311.085	2066
311.128	1442
311.139	1469
311.193	1695
311.218	1758
311.247	1690
311.301	1524
311.308	1512
311.356	1842
311.398	2064
311.410	2036
311.464	1781
311.488	1730
311.518	1578
311.572	1196
311.578	1155
311.626	1900
311.668	2553
311.680	2524
311.734	2316
311.758	2212
311.788	2089
311.842	1869
311.847	1842
311.896	3056
311.937	4121
311.950	4041
312.004	3619
312.027	3428
312.058	3006
312.112	2241
312.117	2161
312.165	2003
312.207	1865
312.297	2510
312.386	2288
312.476	2488
312.566	2833
312.656	1787
312.745	1813
312.835	2612
312.925	1644
313.015	2385
313.104	1703
313.194	2046
313.284	1965
313.374	2068
313.463	2426
313.553	2460
313.643	839
313.732	1471
313.822	1226
313.912	2852
314.001	2153
314.091	2413
314.180	3226
314.270	3594
314.360	2910
314.449	2229
314.539	2234
314.628	2313
314.718	2360
314.808	2389
314.897	2472
314.987	2842
315.076	2154
315.166	2580
315.255	2643
315.345	2141
315.434	2643
315.524	2167
315.613	2424
315.703	3363
315.792	6301
315.881	19511
315.971	6175
316.060	4117
316.150	5003
316.239	5847
316.328	2746
316.418	2817
316.507	1959
316.597	2397
316.686	2496
316.775	2379
316.865	6208
316.954	2968
317.043	1710
317.133	2172
317.222	1352
317.311	1857
317.400	142
317.490	2822
317.579	1298
317.668	2922
317.757	2553
317.847	9211
317.936	32001
318.025	9964
318.114	6255
318.203	4232
318.293	4154
318.382	7512
318.471	5641
318.560	9391
318.649	21018
318.738	4316
318.828	2286
318.917	1240
319.006	3478
319.095	7512
319.184	23863
319.273	9917
319.362	2537
319.451	1670
319.540	1276
319.629	2246
319.718	3894
319.807	3561
319.896	6934
319.985	29413
320.074	8417
320.163	2271
320.252	3881
320.341	3771
320.430	3190
320.519	3385
320.608	2097
320.697	2241
320.786	2628
320.875	3372
320.964	2243
321.053	3948
321.142	4218
321.230	5613
321.319	5064
321.408	9463
321.497	5744
321.586	4573
321.675	6185
321.764	5593
321.852	4371
321.941	5345
322.030	2959
322.119	4763
322.207	8627
322.296	10024
322.385	6486
322.474	6148
322.562	11217
322.651	7175
322.740	4530
322.829	6383
322.917	7319
323.006	4238
323.095	2723
323.183	3528
323.272	4289
323.361	7349
323.449	25338
323.538	7923
323.626	16313
323.715	10569
323.804	4111
323.892	14540
323.981	6489
324.069	3016
324.158	7613
324.246	7575
324.335	2780
324.424	3667
324.512	1514
324.601	2273
324.689	3065
324.778	5086
324.866	4641
324.954	1970
325.043	1109
325.131	2813
325.220	6060
325.308	7062
325.397	5057
325.485	3208
325.574	1307
325.662	1077
325.750	893
325.839	1771
325.927	1377
326.015	1513
326.104	2140
326.192	4036
326.280	1701
326.369	1140
326.457	1554
326.545	3217
326.634	1317
326.722	1730
326.810	1317
326.898	2177
326.987	1742
327.075	2260
327.163	3843
327.251	1697
327.340	2655
327.428	3356
327.516	1744
327.604	1396
327.692	1782
327.781	2588
327.869	2433
327.957	1798
328.045	868
328.133	2131
328.221	1405
328.309	1552
328.397	1515
328.485	1408
328.574	2150
328.662	6272
328.750	3923
328.838	1910
328.926	533
329.014	1675
329.102	1671
329.190	4705
329.278	3130
329.366	1069
329.454	974
329.542	1191
329.630	699
329.718	1570
329.806	230
329.893	1838
329.981	407
330.069	944
330.157	2388
330.245	5118
330.333	2321
330.421	1089
330.509	2039
330.597	4581
330.684	3562
330.772	2564
330.860	2614
330.948	5300
331.036	2142
331.123	1612
331.211	828
331.299	2560
331.387	4186
331.475	6605
331.562	2615
331.650	1238
331.738	1340
331.825	1749
331.913	994
332.001	1116
332.089	1979
332.176	3567
332.264	8316
332.352	5547
332.439	2160
332.527	1586
332.614	800
332.702	2845
332.790	1250
332.877	3768
332.965	7267
333.052	2748
333.140	2111
333.228	3900
333.315	1153
333.403	1661
333.490	5166
333.578	3308
333.665	4640
333.753	3508
333.840	1187
333.928	2368
334.015	5069
334.103	9113
334.190	30527
334.278	9256
334.365	5834
334.452	4620
334.540	3324
334.627	3397
334.715	5065
334.802	8362
334.889	33763
334.977	38432
335.064	9788
335.151	4327
335.239	3554
335.326	4532
335.413	15957
335.501	23255
335.588	3390
335.675	3192
335.762	3662
335.850	6750
335.937	5768
336.024	14494
336.111	45478
336.199	25969
336.286	8488
336.373	3743
336.460	2477
336.547	2993
336.635	2738
336.722	2180
336.809	1573
336.896	3139
336.983	8155
337.070	22080
337.157	33159
337.245	20110
337.332	14777
337.419	2101
337.506	2395
337.593	2335
337.680	7004
337.767	23354
337.854	5203
337.941	6642
338.028	6129
338.115	1239
338.202	3565
338.289	5309
338.376	18525
338.463	6509
338.550	13296
338.637	13873
338.724	3841
338.811	6605
338.898	1684
338.984	1661
339.071	1907
339.158	1717
339.245	3156
339.332	2060
339.419	4080
339.506	4160
339.593	114
339.679	1711
339.766	1093
339.853	2150
339.940	2034
340.027	2128
340.113	1508
340.200	1488
340.287	645
340.374	1748
340.460	2214
340.547	1208
340.634	1353
340.720	5441
340.807	2740
340.894	1384
340.980	679
341.067	1275
341.154	1628
341.240	1977
341.327	3192
341.414	1880
341.500	419
341.587	1139
341.674	500
341.760	2082
341.847	1618
341.933	1539
342.020	-177
342.106	1622
342.193	36
342.279	1458
342.366	1235
342.452	1929
342.539	1320
342.625	2357
342.712	4759
342.798	2407
342.885	905
342.971	789
343.058	501
343.144	594
343.230	904
343.317	1532
343.403	329
343.490	929
343.576	405
343.662	941
343.749	572
343.835	1697
343.921	1934
344.008	12760
344.094	29870
344.180	6825
344.267	2418
344.353	8263
344.439	9413
344.525	3066
344.612	3083
344.698	4297
344.784	1791
344.870	2074
344.957	117
345.043	2557
345.129	592
345.215	1899
345.301	1430
345.387	975
345.474	390
345.560	864
345.646	878
345.732	984
345.818	968
345.904	1090
345.990	598
346.076	1707
346.162	1581
346.249	1807
346.335	941
346.421	2008
346.507	3121
346.593	12460
346.679	2392
346.765	2079
346.851	849
346.937	1062
347.023	1639
347.108	1458
347.194	944
347.280	1047
347.366	1220
347.452	4968
347.538	15228
347.624	10528
347.710	8401
347.796	1998
347.882	1335
347.967	461
348.053	1498
348.139	1739
348.225	1153
348.311	873
348.397	569
348.482	2045
348.568	1127
348.654	1608
348.740	4058
348.825	3316
348.911	3031
348.997	6355
349.083	13659
349.168	2448
349.254	943
349.340	1076
349.425	830
349.511	1858
349.597	1714
349.682	1288
349.768	7268
349.854	4082
349.939	1201
350.025	1346
350.110	1913
350.196	979
350.282	-359
350.367	1004
350.453	1481
350.538	1587
350.624	822
350.709	2155
350.795	-136
350.880	695
350.966	1788
351.051	1977
351.137	1561
351.222	293
351.308	1961
351.393	6321
351.479	1237
351.564	132
351.649	575
351.735	1338
351.820	290
351.906	614
351.991	138
352.076	3436
352.162	5710
352.247	1217
352.332	557
352.418	1662
352.503	2301
352.588	8544
352.673	5546
352.759	1949
352.844	72
352.929	877
353.014	447
353.100	859
353.185	1529
353.270	1886
353.355	2569
353.441	1647
353.526	1263
353.611	873
353.696	1277
353.781	2435
353.866	-51
353.952	1320
354.037	1233
354.122	3719
354.207	2808
354.292	1532
354.377	129
354.462	671
354.547	997
354.632	1200
354.717	1497
354.802	1431
354.887	107
354.972	1561
355.057	985
355.142	549
355.227	1099
355.312	836
355.397	1646
355.482	5238
355.567	2475
355.652	3270
355.737	2179
355.822	8211
355.907	6311
355.991	2246
356.076	393
356.161	1749
356.246	223
356.331	1055
356.416	1004
356.501	16401
356.585	16229
356.670	2010
356.755	2550
356.840	2614
356.924	8257
357.009	35662
357.094	12847
357.179	2529
357.263	1510
357.348	2011
357.433	1658
357.517	1920
357.602	1412
357.687	1292
357.771	2046
357.856	8339
357.941	4903
358.025	7004
358.110	35410
358.195	15740
358.279	1456
358.364	1864
358.448	4593
358.533	13946
358.617	9678
358.702	10555
358.787	4026
358.871	2568
358.956	750
359.040	1636
359.125	145
359.209	1162
359.294	3984
359.378	8280
359.462	2480
359.547	1790
359.631	885
359.716	157
359.800	660
359.885	2516
359.969	564
360.053	2239
360.138	383
360.222	1388
360.306	984
360.391	2008
360.475	3387
360.559	7880
360.644	4885
360.728	2598
360.812	8418
360.896	24622
360.981	8872
361.065	4534
361.149	2135
361.233	1669
361.318	697
361.402	1126
361.486	2254
361.570	1469
361.654	1225
361.739	2739
361.823	13354
361.907	25515
361.991	4144
362.075	2046
362.159	3176
362.243	6659
362.327	10464
362.411	20234
362.495	7138
362.580	2791
362.664	2285
362.748	3021
362.832	3685
362.916	8002
363.000	31266
363.084	60443
363.168	40590
363.252	9649
363.336	4204
363.420	4964
363.503	21238
363.587	27165
363.671	4400
363.755	2554
363.839	3968
363.923	2250
364.007	3578
364.091	5055
364.175	9215
364.258	44102
364.342	46246
364.426	79577
364.510	40350
364.594	12117
364.677	7851
364.761	21425
364.845	15812
364.929	4392
365.013	2377
365.096	3083
365.180	2538
365.264	8726
365.347	37164
365.431	15593
365.515	1989
365.598	604
365.682	2626
365.766	2208
365.849	3797
365.933	1845
366.017	3310
366.100	1886
366.184	204
366.267	2574
366.351	1443
366.435	1447
366.518	361
366.602	615
366.685	876
366.769	1235
366.852	2313
366.936	4509
367.019	1435
367.103	1525
367.186	5520
367.270	877
367.353	500
367.436	2080
367.520	1116
367.603	1497
367.687	532
367.770	2261
367.853	2119
367.937	6353
368.020	8860
368.104	1760
368.187	1944
368.270	2935
368.353	1792
368.437	3726
368.520	12206
368.603	5824
368.687	5097
368.770	11879
368.853	2259
368.936	3358
369.020	4088
369.103	2074
369.186	-128
369.269	714
369.352	1416
369.436	2791
369.519	1223
369.602	-337
369.685	1889
369.768	1071
369.851	966
369.934	489
370.018	634
370.101	1029
370.184	3807
370.267	1888
370.350	1948
370.433	3412
370.516	11136
370.599	18153
370.682	4066
370.765	6539
370.848	7336
370.931	14693
371.014	6429
371.097	470
371.180	1331
371.263	1151
371.346	194
371.429	1463
371.511	-113
371.594	928
371.677	2206
371.760	5816
371.843	2156
371.926	11415
372.009	26649
372.091	9920
372.174	4948
372.257	16315
372.340	5243
372.423	5749
372.505	7373
372.588	2211
372.671	4064
372.754	13277
372.836	7005
372.919	9232
373.002	19997
373.085	4016
373.167	2611
373.250	4394
373.332	13393
373.415	19114
373.498	39170
373.580	15943
373.663	24015
373.746	30869
373.828	5120
373.911	3366
373.993	2626
374.076	18320
374.159	17566
374.241	5207
374.324	10779
374.406	8168
374.489	10094
374.571	32948
374.654	11809
374.736	6940
374.819	19179
374.901	30263
374.983	30426
375.066	5777
375.148	2120
375.231	15161
375.313	32707
375.395	10280
375.478	1846
375.560	2415
375.643	1430
375.725	5313
375.807	25144
375.890	23336
375.972	8465
376.054	4853
376.136	8936
376.219	3446
376.301	7222
376.383	21887
376.465	7736
376.548	2840
376.630	4044
376.712	17612
376.794	8607
376.877	798
376.959	-640
377.041	1737
377.123	3429
377.205	4548
377.287	230
377.369	834
377.452	457
377.534	2103
377.616	624
377.698	1304
377.780	-59
377.862	277
377.944	1101
378.026	585
378.108	1096
378.190	597
378.272	1087
378.354	388
378.436	262
378.518	694
378.600	5838
378.682	5030
378.764	6915
378.846	6756
378.928	1486
379.010	1738
379.091	1538
379.173	965
379.255	48
379.337	611
379.419	3069
379.501	12083
379.583	4859
379.664	675
379.746	1292
379.828	7542
379.910	8182
379.991	9170
380.073	1259
380.155	1300
380.237	44
380.318	1233
380.400	295
380.482	1996
380.564	1110
380.645	1232
380.727	2347
380.809	2143
380.890	563
380.972	483
381.053	937
381.135	1843
381.217	1983
381.298	7727
381.380	3439
381.461	2636
381.543	15676
381.624	21607
381.706	3038
381.787	2548
381.869	2642
381.951	6836
382.032	29331
382.113	21408
382.195	2008
382.276	3722
382.358	4496
382.439	15303
382.521	17394
382.602	31247
382.684	12734
382.765	22054
382.846	23875
382.928	37314
383.009	19897
383.090	11954
383.172	51261
383.253	86119
383.334	27480
383.416	27054
383.497	13301
383.578	5284
383.659	10472
383.741	43532
383.822	128246
383.903	64676
383.984	17455
384.066	29665
384.147	16279
384.228	4663
384.309	2163
384.390	2553
384.471	1890
384.553	1998
384.634	2125
384.715	3494
384.796	1182
384.877	1663
384.958	7468
385.039	7672
385.120	2483
385.201	2343
385.282	2699
385.363	3694
385.444	1865
385.525	4279
385.606	12969
385.687	11340
385.768	3566
385.849	2865
385.930	12930
386.011	25024
386.092	6523
386.173	1990
386.254	2598
386.335	2409
386.416	1581
386.496	5440
386.577	8763
386.658	4384
386.739	2071
386.820	3876
386.901	639
386.981	2487
387.062	1690
387.143	2927
387.224	7769
387.304	9742
387.385	4910
387.466	3131
387.547	5440
387.627	3884
387.708	4581
387.789	15814
387.869	18549
387.950	7214
388.031	2123
388.111	622
388.192	5402
388.273	8040
388.353	3731
388.434	1909
388.514	3032
388.595	14423
388.676	17678
388.756	8490
388.837	6005
388.917	4570
388.998	-65
389.078	2414
389.159	1232
389.239	-150
389.320	3685
389.400	252
389.480	4523
389.561	8636
389.641	5008
389.722	2803
389.802	1216
389.883	4457
389.963	11901
390.043	8375
390.124	2510
390.204	3911
390.284	8109
390.365	5636
390.445	11388
390.525	27918
390.605	22253
390.686	4968
390.766	2724
390.846	2683
390.927	415
391.007	835
391.087	2272
391.167	1536
391.247	-98
391.328	3673
391.408	4637
391.488	3644
391.568	461
391.648	1227
391.728	2215
391.808	3023
391.888	1926
391.969	4806
392.049	8291
392.129	6146
392.209	5488
392.289	12195
392.369	7028
392.449	9296
392.529	6373
392.609	5242
392.689	5446
392.769	13223
392.849	12872
392.929	13701
393.009	23856
393.089	23065
393.169	33084
393.248	96942
393.328	314041
393.408	345592
393.488	115150
393.568	35012
393.648	16594
393.728	11273
393.807	7147
393.887	8030
393.967	5927
394.047	6572
394.127	6867
394.206	11470
394.286	35849
394.366	150372
394.446	169435
394.525	44556
394.605	11199
394.685	8267
394.764	13550
394.844	23557
394.924	17816
395.003	5352
395.083	3295
395.163	2982
395.242	2405
395.322	3797
395.402	1361
395.481	5033
395.561	8476
395.640	26734
395.720	28661
395.799	33289
395.879	25150
395.958	17511
396.038	55526
396.117	195101
396.197	219144
396.276	75775
396.356	23996
396.435	16552
396.515	13121
396.594	14310
396.673	26296
396.753	99548
396.832	290641
396.912	218088
396.991	51574
397.070	18034
397.150	8230
397.229	7502
397.308	12938
397.388	25945
397.467	11939
397.546	4551
397.625	987
397.705	4298
397.784	2132
397.863	1093
397.942	1366
398.022	2299
398.101	6784
398.180	23436
398.259	11525
398.338	3946
398.417	1153
398.497	1145
398.576	1716
398.655	1164
398.734	1575
398.813	1933
398.892	6103
398.971	24986
399.050	11779
399.129	1579
399.208	1500
399.287	1335
399.366	81
399.445	1551
399.524	1010
399.603	118
399.682	1255
399.761	4861
399.840	24556
399.919	22038
399.998	2741
400.077	90
400.156	-818
400.235	2776
400.313	85
400.392	-113
400.471	2675
400.550	5927
400.629	954
400.708	939
400.786	207
400.865	4350
400.944	3371
401.023	3394
401.102	-661
401.180	237
401.259	-2
401.338	713
401.416	19
401.495	301
401.574	1103
401.652	705
401.731	929
401.810	-160
401.888	-231
401.967	-567
402.046	68
402.124	1005
402.203	-100
402.281	1126
402.360	148
402.438	5888
402.517	2487
402.596	1312
402.674	519
402.753	369
402.831	782
402.910	1242
402.988	1341
403.066	7260
403.145	5175
403.223	3245
403.302	4631
403.380	4756
403.459	4519
403.537	2281
403.615	563
403.694	-550
403.772	1283
403.850	272
403.929	-222
404.007	-70
404.085	2752
404.164	34
404.242	334
404.320	5874
404.398	17942
404.477	17458
404.555	24089
404.633	23987
404.711	13869
404.789	9358
404.868	966
404.946	74
405.024	996
405.102	-97
405.180	-343
405.258	-1130
405.336	-134
405.415	113
405.493	1525
405.571	2021
405.649	-595
405.727	-367
405.805	1457
405.883	984
405.961	1183
406.039	1612
406.117	-849
406.195	386
406.273	2504
406.351	17743
406.429	11894
406.507	1345
406.585	8
406.663	1101
406.740	-223
406.818	209
406.896	-424
406.974	1470
407.052	-490
407.130	9502
407.208	14228
407.285	3625
407.363	-849
407.441	312
407.519	1083
407.596	817
407.674	5775
407.752	27759
407.830	23522
407.907	4149
407.985	239
408.063	440
408.141	55
408.218	1343
408.296	-562
408.373	97
408.451	-313
408.529	813
408.606	-572
408.684	201
408.762	-290
408.839	-210
408.917	189
408.994	1067
409.072	-600
409.149	1016
409.227	2609
409.304	3396
409.382	2930
409.459	3942
409.537	5660
409.614	5588
409.692	2701
409.769	2910
409.846	5155
409.924	8046
410.001	3833
410.079	3448
410.156	1901
410.233	1915
410.311	554
410.388	1018
410.465	768
410.543	768
410.620	1113
410.697	863
410.775	655
410.852	-249
410.929	1357
411.006	2300
411.083	589
411.161	1317
411.238	2033
411.315	1240
411.392	132
411.469	1020
411.547	822
411.624	-853
411.701	-458
411.778	1195
411.855	-272
411.932	228
412.009	-413
412.086	509
412.163	116
412.240	346
412.317	402
412.394	1885
412.471	496
412.548	-290
412.625	-283
412.702	7
412.779	797
412.856	1468
412.933	-696
413.010	1231
413.087	540
413.164	3015
413.241	4249
413.318	209
413.395	61
413.471	445
413.548	-402
413.625	460
413.702	-807
413.779	501
413.855	-649
413.932	-365
414.009	-966
414.086	39
414.162	575
414.239	762
414.316	2417
414.393	7079
414.469	1210
414.546	-827
414.623	-322
414.699	14
414.776	-459
414.853	239
414.929	-125
415.006	-235
415.082	-103
415.159	172
415.236	-774
415.312	71
415.389	15
415.465	-267
415.542	-514
415.618	-1038
415.695	792
415.771	-374
415.848	-211
415.924	224
416.000	-721
416.077	370
416.153	-1989
416.230	-1408
416.306	-638
416.383	108
416.459	813
416.535	441
416.612	-846
416.688	-438
416.764	-483
416.841	-259
416.917	-262
416.993	-100
417.069	-462
417.146	45
417.222	408
417.298	-139
417.374	-1096
417.451	-322
417.527	-536
417.603	-416
417.679	-166
417.755	-257
417.831	-1288
417.908	-235
417.984	-349
418.060	-1235
418.136	-218
418.212	377
418.288	-527
418.364	161
418.440	-1461
418.516	831
418.592	-25
418.668	1259
418.744	670
418.820	831
418.896	-195
418.972	-911
419.048	-258
419.124	1736
419.200	-856
419.276	82
419.352	-1383
419.428	-429
419.504	-1147
419.579	-297
419.655	-515
419.731	583
419.807	290
419.883	1346
419.959	499
420.034	935
420.110	371
420.186	3566
420.262	3291
420.337	304
420.413	-324
420.489	-18
420.565	1223
420.640	93
420.716	986
420.792	-297
420.867	674
420.943	-32
421.019	724
421.094	417
421.170	1208
421.245	706
421.321	917
421.397	682
421.472	5072
421.548	16617
421.623	10165
421.699	2645
421.774	2048
421.850	3117
421.925	4157
422.001	4975
422.076	5091
422.152	6735
422.227	9298
422.302	14407
422.378	21237
422.453	37880
422.529	82080
422.604	157374
422.679	181976
422.755	164475
422.830	94253
422.905	46682
422.981	24353
423.056	16552
423.131	11669
423.207	8690
423.282	6104
423.357	5721
423.432	4380
423.508	3754
423.583	3773
423.658	3299
423.733	2679
423.808	2826
423.883	2722
423.959	2214
424.034	2555
424.109	3644
424.184	1082
424.259	261
424.334	1207
424.409	603
424.484	-224
424.559	814
424.634	1
424.709	689
424.784	60
424.859	339
424.934	-369
425.009	2310
425.084	4835
425.159	898
425.234	695
425.309	-79
425.384	1414
425.459	3371
425.534	492
425.609	-241
425.683	-630
425.758	48
425.833	-487
425.908	1306
425.983	186
426.058	4317
426.132	1498
426.207	395
426.282	1701
426.357	463
426.431	17
426.506	754
426.581	-731
426.655	180
426.730	-863
426.805	-791
426.879	-258
426.954	514
427.029	-33
427.103	4524
427.178	14048
427.253	6047
427.327	454
427.402	776
427.476	4079
427.551	1764
427.625	-27
427.700	620
427.774	-1517
427.849	437
427.923	-565
427.998	351
428.072	-511
428.147	2847
428.221	13173
428.296	51409
428.370	29340
428.444	2766
428.519	1487
428.593	3967
428.667	3035
428.742	4326
428.816	6075
428.890	30548
428.965	53695
429.039	13656
429.113	4725
429.188	1706
429.262	-436
429.336	459
429.410	1306
429.485	1200
429.559	3230
429.633	3532
429.707	677
429.781	4454
429.855	30725
429.930	49242
430.004	17346
430.078	22325
430.152	25011
430.226	61921
430.300	66538
430.374	11041
430.448	2829
430.522	7015
430.596	20788
430.670	15041
430.744	39946
430.818	53309
430.892	9199
430.966	678
431.040	-499
431.114	-286
431.188	-1418
431.262	-468
431.336	-508
431.410	1298
431.484	3328
431.557	2765
431.631	-655
431.705	776
431.779	8818
431.853	46399
431.927	33028
432.000	3556
432.074	-85
432.148	-431
432.222	-674
432.295	-16
432.369	-1098
432.443	299
432.516	4769
432.590	14672
432.664	4421
432.737	-607
432.811	-1377
432.885	-1373
432.958	129
433.032	-1008
433.106	-1023
433.179	-307
433.253	-908
433.326	-864
433.400	-1412
433.473	-116
433.547	-1767
433.620	332
433.694	-989
433.767	229
433.841	-1829
433.914	443
433.988	-896
434.061	-611
434.134	-1068
434.208	-864
434.281	-1643
434.355	-1466
434.428	-858
434.501	-822
434.575	-1377
434.648	-895
434.721	-1065
434.795	-792
434.868	-1179
434.941	-829
435.014	-554
435.088	-522
435.161	-1008
435.234	-146
435.307	-138
435.381	-58
435.454	-524
435.527	2266
435.600	2536
435.673	2582
435.746	604
435.819	554
435.892	-747
435.966	106
436.039	-905
436.112	487
436.185	-872
436.258	-213
436.331	-1726
436.404	-687
436.477	-1687
436.550	-1192
436.623	-453
436.696	-715
436.769	-694
436.842	-596
436.915	-1189
436.987	-76
437.060	-905
437.133	-778
437.206	-1357
437.279	-1314
437.352	-1515
437.425	-578
437.498	-1042
437.570	-54
437.643	-446
437.716	-1554
437.789	-1829
437.861	-540
437.934	672
438.007	87
438.080	-1043
438.152	-100
438.225	-147
438.298	6060
438.370	22397
438.443	9019
438.516	605
438.588	-454
438.661	-1308
438.734	-681
438.806	-1252
438.879	-79
438.951	-690
439.024	343
439.096	-1101
439.169	-537
439.241	-1819
439.314	-588
439.386	-656
439.459	-352
439.531	-777
439.604	-666
439.676	-1020
439.749	-1172
439.821	-455
439.893	-153
439.966	-806
440.038	-1268
440.110	-472
440.183	-1055
440.255	-1522
440.327	-280
440.400	2003
440.472	12857
440.544	7916
440.617	39
440.689	517
440.761	295
440.833	269
440.905	379
440.978	-1170
441.050	-941
441.122	-136
441.194	-406
441.266	-671
441.338	-875
441.411	-790
441.483	2839
441.555	3427
441.627	-123
441.699	-268
441.771	1075
441.843	-1053
441.915	-310
441.987	-719
442.059	-263
442.131	31
442.203	374
442.275	471
442.347	1277
442.419	3803
442.491	28042
442.563	72768
442.635	27938
442.706	7074
442.778	3696
442.850	-407
442.922	319
442.994	309
443.066	734
443.137	949
443.209	1477
443.281	2112
443.353	6314
443.425	30807
443.496	112476
443.568	117723
443.640	43392
443.711	6764
443.783	2623
443.855	689
443.926	782
443.998	504
444.070	133
444.141	-340
444.213	-185
444.285	569
444.356	512
444.428	-114
444.499	377
444.571	-82
444.642	-659
444.714	-239
444.785	456
444.857	579
444.928	3363
445.000	901
445.071	2144
445.143	2234
445.214	3007
445.285	5211
445.357	18050
445.428	67920
445.500	150426
445.571	102416
445.642	63426
445.714	18463
445.785	9599
445.856	759
445.928	1082
445.999	442
446.070	492
446.141	261
446.213	409
446.284	-1091
446.355	1074
446.426	-1303
446.497	-324
446.569	-244
446.640	619
446.711	226
446.782	-86
446.853	-1012
446.924	240
446.995	-910
447.066	-293
447.138	3
447.209	-70
447.280	-1434
447.351	-399
447.422	-1144
447.493	-793
447.564	-1046
447.635	-365
447.706	-1000
447.777	-877
447.847	-720
447.918	-923
447.989	-1125
448.060	645
448.131	983
448.202	430
448.273	-1059
448.344	-134
448.414	-1076
448.485	-526
448.556	-473
448.627	-285
448.698	-596
448.768	-608
448.839	-1284
448.910	-422
448.981	-861
449.051	-69
449.122	-1222
449.193	-1393
449.263	-1462
449.334	-771
449.405	-776
449.475	-135
449.546	317
449.616	725
449.687	281
449.758	-385
449.828	-791
449.899	-905
449.969	-1395
450.040	-611
450.110	-310
450.181	-577
450.251	-1567
450.322	-121
450.392	-202
450.463	-326
450.533	-1442
450.604	-969
450.674	-1185
450.744	-138
450.815	-872
450.885	131
450.955	-242
451.026	-521
451.096	-477
451.166	-497
451.237	929
451.307	3332
451.377	155
451.447	-486
451.518	-457
451.588	-868
451.658	-284
451.728	1094
451.799	4027
451.869	4505
451.939	-182
452.009	-861
452.079	-890
452.149	941
452.219	376
452.289	3808
452.360	2812
452.430	270
452.500	-631
452.570	-429
452.640	2607
452.710	8129
452.780	10165
452.850	4985
452.920	1467
452.990	1107
453.060	26
453.129	-399
453.199	745
453.269	5255
453.339	11371
453.409	17531
453.479	17757
453.549	26572
453.619	28130
453.688	8503
453.758	994
453.828	-66
453.898	-28
453.968	-226
454.037	452
454.087	422
454.107	400
454.168	-1127
454.177	-1361
454.247	-670
454.249	-669
454.316	-999
454.330	-797
454.386	-117
454.411	513
454.456	1448
454.492	2015
454.525	2526
454.574	892
454.595	173
454.655	-151
454.665	-206
454.734	-582
454.736	-526
454.804	971
454.817	1596
454.873	3789
454.898	3951
454.943	4235
454.979	2135
455.013	264
455.060	160
455.082	173
455.141	594
455.152	692
455.221	4166
455.222	4257
455.291	8249
455.303	8709
455.360	9928
455.384	14388
455.430	20804
455.465	14554
455.499	9160
455.546	5644
455.569	3930
455.627	2896
455.638	2770
455.707	660
455.708	667
455.777	-253
455.789	-194
455.846	18
455.869	92
455.916	230
455.950	110
455.985	-52
456.031	-48
456.054	-57
456.112	-103
456.124	-108
456.193	-21
456.193	-33
456.262	30
456.274	306
456.332	1459
456.355	997
456.401	91
456.436	459
456.470	722
456.516	-116
456.540	-490
456.597	-139
456.609	-87
456.678	-176
456.678	-186
456.747	344
456.759	171
456.817	-793
456.840	-497
456.886	46
456.920	98
456.955	212
457.001	664
457.024	822
457.082	309
457.093	212
457.162	1155
457.163	1165
457.232	577
457.243	543
457.301	278
457.324	139
457.370	-126
457.405	428
457.439	1105
457.485	641
457.508	270
457.566	1184
457.577	1427
457.646	1576
457.647	1597
457.715	4219
457.727	4701
457.784	7840
457.808	10588
457.853	13748
457.889	16157
457.922	16494
457.969	10775
457.991	10347
458.050	12299
458.060	12762
458.129	23148
458.130	23445
458.198	23361
458.211	20584
458.267	10697
458.292	7362
458.336	4563
458.372	4380
458.405	6233
458.453	9735
458.474	12223
458.533	22490
458.543	23257
458.611	38163
458.614	38317
458.680	23985
458.694	18720
458.749	7854
458.775	5790
458.818	3498
458.855	2670
458.887	2123
458.936	1503
458.955	1317
459.016	1221
459.024	1227
459.093	2024
459.097	2023
459.162	1496
459.177	1583
459.230	2171
459.257	2102
459.299	1702
459.338	1706
459.368	1861
459.418	1936
459.437	1874
459.499	1902
459.505	1902
459.574	1246
459.579	1253
459.643	1171
459.659	1151
459.711	1356
459.740	1525
459.780	1546
459.820	1511
459.849	1733
459.900	2388
459.917	2423
459.981	1748
459.986	1709
460.054	1809
460.061	1796
460.123	1729
460.141	1819
460.191	2218
460.222	2408
460.260	2384
460.302	2234
460.328	2250
460.382	2782
460.397	2921
460.462	3143
460.465	3273
460.534	6698
460.543	7075
460.602	19192
460.623	24012
460.671	38455
460.703	52297
460.739	46887
460.783	34950
460.808	29576
460.864	7076
460.876	5109
460.944	2569
460.945	2539
461.013	2290
461.024	2202
461.081	1891
461.104	2062
461.150	2134
461.184	2051
461.218	2084
461.264	1877
461.286	1770
461.345	1389
461.355	1317
461.423	1660
461.425	1648
461.491	1693
461.505	1979
461.559	3833
461.585	4099
461.628	5409
461.665	7210
461.696	7629
461.745	9066
461.764	8239
461.825	3043
461.832	2946
461.901	2440
461.905	2468
461.969	1517
461.985	1235
462.037	2149
462.065	2823
462.105	2679
462.145	2157
462.173	2706
462.225	3997
462.241	4250
462.305	5643
462.310	5529
462.378	4033
462.385	3666
462.446	2198
462.465	2052
462.514	2554
462.545	2924
462.582	2880
462.625	2801
462.650	2664
462.705	1680
462.718	1676
462.785	2665
462.786	2674
462.854	2854
462.865	2884
462.922	3287
462.945	3485
462.990	2892
463.025	2189
463.058	2250
463.104	2618
463.126	2613
463.184	2446
463.194	2455
463.262	1996
463.264	2009
463.330	2915
463.344	3031
463.398	2887
463.424	2666
463.466	2106
463.504	1826
463.533	1997
463.583	2138
463.601	2313
463.663	3298
463.669	3321
463.737	3180
463.743	3161
463.805	4439
463.823	4877
463.873	7096
463.903	8428
463.940	8733
463.982	9526
464.008	8091
464.062	3745
464.076	3596
464.142	3304
464.144	3292
464.211	2780
464.221	2760
464.279	2651
464.301	2544
464.347	2427
464.381	2186
464.414	2448
464.461	3199
464.482	3604
464.540	4493
464.550	4358
464.617	3084
464.620	3048
464.685	3646
464.699	3712
464.753	5213
464.779	6022
464.820	6965
464.859	7925
464.888	7392
464.938	6269
464.956	6341
465.018	6484
465.023	6457
465.091	6040
465.098	5980
465.158	5759
465.177	5758
465.226	5677
465.257	5467
465.293	5594
465.336	5810
465.361	5820
465.416	5804
465.428	6079
465.495	7754
465.496	7788
465.563	10985
465.575	11602
465.631	12961
465.654	13539
465.698	9722
465.734	6271
465.765	5715
465.813	4733
465.833	4628
465.893	4692
465.900	4761
465.968	5247
465.972	5270
466.035	4855
466.052	4722
466.102	4416
466.131	4288
466.170	4804
466.210	5219
466.237	5247
466.290	5401
466.304	5445
466.369	5410
466.372	5409
466.439	5203
466.449	5146
466.506	5375
466.528	5468
466.573	6837
466.607	7837
466.641	10381
466.687	13916
466.708	15095
466.766	18373
466.775	17098
466.842	7127
466.845	6641
466.909	5725
466.925	5530
466.977	5975
467.004	6212
467.044	6759
467.083	7299
467.111	7939
467.163	9069
467.178	9140
467.242	9359
467.245	9356
467.312	8972
467.321	8906
467.379	8342
467.400	8115
467.446	8367
467.480	8528
467.559	8378
467.638	7641
467.717	6617
467.796	8413
467.875	8232
467.955	7668
468.034	10833
468.113	18631
468.192	25720
468.271	10494
468.350	8852
468.429	12751
468.508	13039
468.588	9965
468.667	7880
468.746	7216
468.825	8071
468.904	6810
468.983	8087
469.062	8976
469.141	10567
469.220	6290
469.299	7382
469.378	6553
469.456	10687
469.535	9390
469.614	8423
469.693	7954
469.772	9238
469.851	10410
469.930	7938
470.009	8172
470.088	6551
470.166	7034
470.245	8481
470.324	8184
470.403	8177
470.482	6350
470.560	7312
470.639	6647
470.718	8429
470.797	6962
470.875	8121
470.954	8432
471.033	8590
471.111	6235
471.190	6757
471.269	5587
471.347	6548
471.426	6598
471.505	7080
471.583	8978
471.662	8172
471.740	6427
471.819	7159
471.898	6561
471.976	7227
472.055	6352
472.133	7669
472.212	9554
472.290	8440
472.369	6071
472.447	7059
472.526	5933
472.604	7282
472.683	6272
472.761	7002
472.839	6203
472.918	6347
472.996	6146
473.075	6221
473.153	6164
473.231	5237
473.310	6903
473.388	6056
473.466	6294
473.545	6733
473.623	7728
473.701	7444
473.780	6848
473.858	5932
473.936	8430
474.014	6742
474.093	6779
474.171	8303
474.249	9980
474.327	7717
474.405	5622
474.484	5013
474.562	4984
474.640	5235
474.718	5477
474.796	5562
474.874	6044
474.952	4949
475.030	5503
475.108	5266
475.187	5558
475.265	5276
475.343	6917
475.421	6542
475.499	5402
475.577	5894
475.655	7333
475.733	10224
475.811	14006
475.889	13167
475.966	9975
476.044	6298
476.122	5614
476.200	6427
476.278	5022
476.356	6077
476.434	6157
476.512	5336
476.590	5972
476.667	6768
476.745	4780
476.823	5458
476.901	5582
476.979	5075
477.056	6146
477.134	5894
477.212	5705
477.290	5927
477.367	3940
477.445	5858
477.523	4631
477.601	4956
477.678	5470
477.756	6126
477.834	5612
477.911	4368
477.989	4509
478.066	4887
478.144	4753
478.222	5028
478.299	4640
478.377	5787
478.454	5363
478.532	4838
478.609	3719
478.687	5471
478.764	4343
478.842	4414
478.919	4755
478.997	4875
479.074	4865
479.152	5149
479.229	5579
479.307	3926
479.384	4251
479.461	4309
479.539	4969
479.616	5122
479.694	4488
479.771	4209
479.848	4478
479.926	4837
480.003	6778
480.080	3690
480.157	4674
480.235	4086
480.312	4609
480.389	4702
480.467	4964
480.544	6725
480.621	5133
480.698	5158
480.775	4906
480.853	4850
480.930	4621
481.007	5091
481.084	6081
481.161	7576
481.238	6152
481.315	3961
481.392	3886
481.470	4472
481.547	4289
481.624	3857
481.701	4866
481.778	3932
481.855	4736
481.932	6066
482.009	9266
482.086	6442
482.163	4947
482.240	5108
482.317	5726
482.393	4692
482.470	4412
482.547	5089
482.624	4112
482.701	3709
482.778	4376
482.855	3745
482.932	3698
483.009	4366
483.085	5309
483.162	6028
483.239	7217
483.316	3903
483.393	5219
483.469	4135
483.546	4252
483.623	5494
483.699	4241
483.776	3932
483.853	4296
483.930	6126
484.006	13367
484.083	23231
484.160	19439
484.236	32429
484.313	24009
484.389	18001
484.466	15618
484.543	15719
484.619	15864
484.696	17126
484.772	15697
484.849	15880
484.925	14434
485.002	15190
485.078	14294
485.155	14166
485.231	13026
485.308	12943
485.384	13653
485.461	13738
485.537	17823
485.614	19885
485.690	13032
485.766	12413
485.843	12510
485.919	13516
485.995	12437
486.072	12414
486.148	11352
486.224	11988
486.301	12600
486.377	13356
486.453	11409
486.530	13764
486.606	19207
486.682	19943
486.758	18649
486.835	19940
486.911	17059
486.987	21545
487.063	18976
487.139	18772
487.215	17157
487.292	15256
487.368	14147
487.444	15018
487.520	17886
487.596	19596
487.672	34767
487.748	85684
487.824	122175
487.900	40061
487.976	17049
488.052	13642
488.128	15360
488.204	11812
488.280	12316
488.356	12860
488.432	18946
488.508	24319
488.584	11527
488.660	9966
488.736	10467
488.812	10475
488.888	12521
488.964	13210
489.039	14776
489.115	18973
489.191	14459
489.267	11093
489.343	11340
489.418	9260
489.494	10440
489.570	8462
489.646	9632
489.722	8611
489.797	9848
489.873	11693
489.949	18627
490.024	16170
490.100	8391
490.176	8663
490.251	8828
490.327	9626
490.403	7789
490.478	9100
490.554	7340
490.629	8163
490.705	7906
490.781	8086
490.856	7362
490.932	8199
491.007	7340
491.083	7809
491.158	7226
491.234	9134
491.309	13975
491.385	13699
491.460	7675
491.536	8145
491.611	6327
491.686	6828
491.762	7775
491.837	9628
491.913	13871
491.988	15773
492.063	17901
492.139	10366
492.214	8251
492.289	6816
492.365	6241
492.440	6972
492.515	6536
492.590	6157
492.666	5981
492.741	5847
492.816	9660
492.891	6938
492.967	7799
493.042	6129
493.117	7212
493.192	6722
493.267	14339
493.342	45893
493.418	60325
493.493	10157
493.568	5958
493.643	5270
493.718	6896
493.793	6677
493.868	6581
493.943	4725
494.018	5316
494.093	4675
494.168	4491
494.243	4432
494.318	5818
494.393	4901
494.468	5398
494.543	5113
494.618	4515
494.693	3781
494.768	4789
494.842	5091
494.917	4443
494.992	4573
495.067	3982
495.142	3990
495.217	4392
495.292	4979
495.366	4926
495.441	5131
495.516	6326
495.591	7249
495.665	13090
495.740	25190
495.815	11015
495.890	4898
495.964	3710
496.039	7042
496.114	5917
496.188	6923
496.263	7739
496.338	4821
496.412	4765
496.487	6468
496.561	4789
496.636	5640
496.710	5166
496.785	6501
496.860	5692
496.934	4507
497.009	5079
497.083	5591
497.158	4584
497.232	5179
497.307	6126
497.381	5394
497.455	5231
497.530	7256
497.604	5525
497.679	6943
497.753	8452
497.827	8251
497.902	6884
497.976	10274
498.050	30699
498.125	116955
498.199	105025
498.273	10275
498.348	6213
498.422	5858
498.496	5945
498.570	6379
498.645	5781
498.719	4605
498.793	6580
498.867	10108
498.941	15196
499.016	47086
499.090	121025
499.164	37328
499.238	6166
499.312	4762
499.386	5965
499.460	6466
499.534	5668
499.609	6524
499.683	9655
499.757	9629
499.831	21624
499.905	80270
499.979	68543
500.053	10517
500.127	9107
500.201	5118
500.275	5456
500.349	5482
500.422	5240
500.496	6867
500.570	11888
500.644	41926
500.718	77952
500.792	16044
500.866	6141
500.940	7077
501.013	4956
501.087	5154
501.161	7121
501.235	9465
501.309	25502
501.382	68079
501.456	55801
501.530	12559
501.603	19953
501.677	8591
501.751	2716
501.825	6641
501.898	10114
501.972	26609
502.046	15711
502.119	4827
502.193	11749
502.266	28054
502.340	12650
502.413	13376
502.487	24726
502.561	12243
502.634	4933
502.708	3939
502.781	2813
502.855	4209
502.928	2669
503.002	3758
503.075	2745
503.149	3429
503.222	3663
503.295	3694
503.369	4634
503.442	7488
503.516	20610
503.589	47061
503.662	28499
503.736	11027
503.809	22907
503.882	18307
503.956	30574
504.029	31631
504.102	43119
504.175	59549
504.249	19824
504.322	9775
504.395	5565
504.468	4490
504.542	4649
504.615	2699
504.688	2805
504.761	2244
504.834	3658
504.907	3667
504.980	4254
505.053	2729
505.127	1779
505.200	5359
505.273	4560
505.346	2183
505.419	2063
505.492	3834
505.565	2530
505.638	2604
505.711	1883
505.784	2303
505.857	1450
505.930	4210
506.003	727
506.076	4664
506.149	3409
506.221	2488
506.294	4956
506.367	9745
506.440	35822
506.513	16886
506.586	3913
506.659	1973
506.731	2399
506.804	2019
506.877	1846
506.950	3424
507.022	3541
507.095	2638
507.168	3030
507.241	3817
507.313	2126
507.386	1143
507.459	2967
507.531	1331
507.604	1627
507.677	2202
507.749	1020
507.822	3973
507.894	6865
507.967	11012
508.040	6457
508.112	5720
508.185	6043
508.257	4057
508.330	6712
508.402	3986
508.475	4814
508.547	5255
508.620	4679
508.692	7350
508.765	5121
508.837	3814
508.909	4195
508.982	3715
509.054	4339
509.127	4051
509.199	3623
509.271	3081
509.344	3066
509.416	4522
509.488	3494
509.560	5156
509.633	3611
509.705	3421
509.777	5098
509.849	4962
509.922	4061
509.994	4641
510.066	5462
510.138	4627
510.210	13648
510.283	9776
510.355	7575
510.427	6923
510.499	5972
510.571	5414
510.643	4794
510.715	7600
510.787	4311
510.859	5972
510.931	5598
511.003	6293
511.076	6634
511.148	5660
511.219	4956
511.291	8857
511.363	8409
511.435	4777
511.507	4637
511.579	5305
511.651	5497
511.723	5348
511.795	4878
511.867	4826
511.939	6771
512.010	7839
512.082	6413
512.154	4385
512.226	4542
512.298	9330
512.369	11746
512.441	9278
512.513	7523
512.585	5436
512.656	7421
512.728	4930
512.800	6128
512.871	6383
512.943	6156
513.015	4039
513.086	5769
513.158	5422
513.230	4479
513.301	5667
513.373	6724
513.444	4167
513.516	4680
513.588	4787
513.659	5242
513.731	5178
513.802	3836
513.874	7611
513.945	7246
514.016	4402
514.088	4360
514.159	4318
514.231	5874
514.302	9411
514.374	8451
514.445	6400
514.516	12109
514.588	7085
514.659	6243
514.730	9028
514.802	6589
514.873	4182
514.944	6267
515.016	6256
515.087	5720
515.158	6957
515.229	9926
515.301	4150
515.372	5974
515.443	4095
515.514	5243
515.585	4196
515.656	5158
515.728	4856
515.799	3213
515.870	5043
515.941	4832
516.012	4142
516.083	8467
516.154	6646
516.225	7082
516.296	7963
516.367	5871
516.438	6929
516.509	7066
516.580	9543
516.651	23083
516.722	61572
516.793	25983
516.864	8600
516.935	8846
517.006	11329
517.077	12326
517.148	23186
517.219	80966
517.289	117349
517.360	43386
517.431	16507
517.502	5707
517.573	7719
517.643	6413
517.714	7568
517.785	7997
517.856	7012
517.926	9058
517.997	9513
518.068	8716
518.138	13074
518.209	16833
518.280	58246
518.350	195589
518.421	63887
518.492	12251
518.562	9696
518.633	11139
518.703	12728
518.774	29966
518.845	75911
518.915	70215
518.986	18133
519.056	11357
519.127	11995
519.197	16263
519.268	37333
519.338	25363
519.408	7411
519.479	5949
519.549	4738
519.620	5887
519.690	5300
519.760	4627
519.831	3354
519.901	3276
519.971	4454
520.042	4460
520.112	4415
520.182	5725
520.253	5763
520.323	4365
520.393	4878
520.463	8398
520.534	3955
520.604	11391
520.674	6698
520.744	5465
520.814	10240
520.885	9605
520.955	15584
521.025	47469
521.095	16859
521.165	5349
521.235	3741
521.305	3314
521.375	3699
521.445	4969
521.515	3583
521.585	6237
521.655	3027
521.725	5340
521.795	5145
521.865	2557
521.935	7431
522.005	3748
522.075	3496
522.145	5074
522.215	3316
522.285	5251
522.355	6949
522.424	12166
522.494	7843
522.564	5046
522.634	6574
522.704	13286
522.774	5068
522.843	3900
522.913	4716
522.983	3843
523.053	3287
523.122	3723
523.192	3634
523.262	7176
523.331	5318
523.401	3875
523.471	3879
523.540	3598
523.610	1533
523.680	3102
523.749	2764
523.819	4904
523.888	3837
523.958	2599
524.027	3722
524.097	3462
524.166	3746
524.236	2772
524.305	4488
524.375	2201
524.444	2572
524.514	5160
524.583	2765
524.653	3156
524.722	4473
524.791	2488
524.861	4543
524.930	2406
524.999	2375
525.069	4631
525.138	3634
525.207	4876
525.277	3948
525.346	3002
525.415	4703
525.484	4160
525.554	3396
525.623	5490
525.692	6241
525.761	6145
525.830	8282
525.900	8746
525.969	13884
526.038	25133
526.107	54186
526.176	155873
526.245	117317
526.314	34382
526.383	79079
526.452	104028
526.522	174989
526.591	152707
526.660	23322
526.729	14732
526.797	17725
526.867	28949
526.935	103583
527.004	313973
527.073	171076
527.142	16484
527.211	7617
527.280	5846
527.349	4762
527.418	2282
527.487	4877
527.555	2654
527.624	2410
527.693	1660
527.762	4204
527.831	1435
527.899	2992
527.968	2338
528.037	1947
528.106	3089
528.174	2886
528.243	3504
528.312	4440
528.380	4598
528.449	1687
528.518	4337
528.586	1207
528.655	3832
528.723	2310
528.792	2273
528.861	1306
528.929	718
528.998	4161
529.066	3885
529.135	5932
529.203	4734
529.272	5124
529.340	8650
529.409	8766
529.477	6591
529.545	6322
529.614	9536
529.682	8190
529.751	9094
529.819	12203
529.887	11139
529.956	9771
530.024	9396
530.092	7857
530.161	9808
530.229	9063
530.297	9089
530.365	10000
530.434	10047
530.502	10550
530.570	9352
530.638	7448
530.707	7534
530.775	7723
530.843	7101
530.911	8666
530.979	8898
531.047	9248
531.115	9573
531.183	8291
531.252	8693
531.320	7767
531.388	7154
531.456	9059
531.524	8932
531.592	11054
531.660	12292
531.728	8981
531.796	8877
531.864	9574
531.932	9333
532.000	9009
532.067	10505
532.135	10525
532.203	11727
532.271	11417
532.339	13064
532.407	14890
532.475	12724
532.542	11623
532.610	10600
532.678	11369
532.746	22392
532.814	34316
532.881	15674
532.949	11412
533.017	10570
533.084	10404
533.152	9912
533.220	9537
533.287	8126
533.355	10278
533.423	11729
533.490	10392
533.558	10240
533.625	10020
533.693	10691
533.761	9780
533.828	9960
533.896	9155
533.963	12512
534.031	13771
534.098	14293
534.166	11219
534.233	10910
534.300	11596
534.368	11486
534.435	9494
534.503	9921
534.570	10734
534.637	9625
534.705	12181
534.772	13011
534.840	19776
534.907	74847
534.974	86354
535.041	13647
535.109	8889
535.176	7358
535.243	8580
535.310	8073
535.378	6880
535.445	6743
535.512	7691
535.579	7977
535.646	6251
535.714	6736
535.781	8409
535.848	9074
535.915	9774
535.982	9246
536.049	8106
536.116	9010
536.183	6704
536.250	6730
536.317	5193
536.384	7277
536.451	7413
536.518	7600
536.585	5558
536.652	7779
536.719	8563
536.786	5393
536.853	5182
536.920	7610
536.987	7182
537.053	6900
537.120	17408
537.187	14736
537.254	5722
537.321	6026
537.388	6604
537.454	4904
537.521	5354
537.588	4359
537.654	7580
537.721	5841
537.788	8213
537.855	5516
537.921	5877
537.988	4950
538.055	6329
538.121	5765
538.188	5345
538.254	5480
538.321	7171
538.388	5864
538.454	5353
538.521	4471
538.587	5726
538.654	6067
538.720	5920
538.787	4669
538.853	5608
538.920	5761
538.986	5800
539.053	4208
539.119	4898
539.185	4174
539.252	5712
539.318	5587
539.385	7856
539.451	5604
539.517	6681
539.583	6973
539.650	6851
539.716	13156
539.782	6254
539.849	3994
539.915	5551
539.981	4079
540.047	5330
540.114	5121
540.180	5981
540.246	4434
540.312	5873
540.378	6238
540.444	7627
540.510	7699
540.576	13527
540.643	4993
540.709	3084
540.775	5222
540.841	4924
540.907	6261
540.973	8334
541.039	6120
541.105	6341
541.171	4290
541.237	4267
541.303	4910
541.369	5683
541.435	5172
541.500	5866
541.566	3997
541.632	3240
541.698	4331
541.764	5418
541.830	4650
541.896	4441
541.961	5739
542.027	4411
542.093	4965
542.159	5393
542.224	3950
542.290	6689
542.356	5744
542.421	6498
542.487	5121
542.553	4396
542.618	5761
542.684	4679
542.750	4748
542.815	5821
542.881	5390
542.947	12648
543.012	9475
543.078	3512
543.143	4116
543.209	4813
543.274	3993
543.340	5030
543.405	7376
543.471	7311
543.536	4997
543.602	5300
543.667	2646
543.732	6152
543.798	4438
543.863	5532
543.928	4543
543.994	4124
544.059	4908
544.124	5400
544.190	4651
544.255	5664
544.320	6006
544.386	4824
544.451	6367
544.516	5990
544.581	5705
544.646	9162
544.712	11966
544.777	6808
544.842	5556
544.907	5342
544.972	5878
545.037	5028
545.102	5644
545.168	5923
545.233	7685
545.298	6708
545.363	7044
545.428	7700
545.493	9565
545.558	11315
545.623	6450
545.688	5668
545.753	7175
545.818	6199
545.883	7554
545.947	6202
546.012	8366
546.077	7271
546.142	7593
546.207	7587
546.272	8515
546.337	8546
546.401	9901
546.466	8394
546.531	7913
546.596	9123
546.661	9790
546.725	10304
546.790	9580
546.855	10801
546.919	10844
546.984	13943
547.049	13457
547.113	16177
547.178	16285
547.243	19735
547.307	22249
547.372	24791
547.436	23492
547.501	24601
547.565	26844
547.630	25553
547.695	24777
547.759	24851
547.823	24779
547.888	23531
547.952	25542
548.017	26610
548.081	29347
548.146	28253
548.210	30014
548.274	30139
548.339	28381
548.403	26895
548.468	24327
548.532	24847
548.596	25875
548.660	26076
548.725	27171
548.789	30354
548.853	31140
548.917	27758
548.982	28148
549.046	26485
549.110	22293
549.174	23883
549.238	26627
549.303	28894
549.367	30790
549.431	28211
549.495	26769
549.559	26465
549.623	31543
549.687	35064
549.751	34927
549.815	39891
549.879	41163
549.943	38600
550.007	41297
550.071	39721
550.135	36303
550.199	33637
550.263	34325
550.327	33239
550.391	35471
550.455	39029
550.519	39440
550.582	41807
550.646	47595
550.710	47165
550.774	46904
550.838	47558
550.901	48726
550.965	52177
551.029	52153
551.093	58041
551.156	62765
551.220	73876
551.284	81770
551.347	61399
551.411	59889
551.475	57548
551.538	53024
551.602	48358
551.666	46017
551.729	42392
551.793	42763
551.856	42052
551.920	41140
551.983	41954
552.047	39637
552.110	41951
552.174	41246
552.237	42793
552.301	39732
552.364	36913
552.428	35876
552.491	37133
552.554	39185
552.618	38821
552.681	39968
552.745	37266
552.808	41422
552.871	44422
552.934	41490
552.998	39223
553.061	39082
553.124	37316
553.187	38062
553.251	39981
553.314	40293
553.377	41503
553.440	49146
553.503	77995
553.567	96945
553.630	47562
553.693	42388
553.756	43491
553.819	42484
553.882	40165
553.945	41033
554.008	40791
554.071	41422
554.134	42243
554.197	39036
554.260	38838
554.323	41281
554.386	40663
554.449	41419
554.512	40626
554.575	38894
554.638	39713
554.701	38394
554.764	39241
554.827	36586
554.889	35148
554.952	35069
555.015	33118
555.078	34142
555.141	33984
555.203	33901
555.266	34175
555.329	33811
555.391	33325
555.454	31834
555.517	30018
555.580	29746
555.642	29054
555.705	27629
555.768	28051
555.830	27624
555.893	26279
555.955	26850
556.018	25096
556.080	25647
556.143	25467
556.206	25362
556.268	24862
556.330	25043
556.393	23190
556.455	24505
556.518	24879
556.580	23456
556.643	22017
556.705	21238
556.767	19992
556.830	20082
556.892	19893
556.955	20102
557.017	20386
557.079	19264
557.142	18933
557.204	18385
557.266	19784
557.328	18218
557.391	15488
557.453	15747
557.515	16429
557.577	16981
557.639	15887
557.701	16025
557.764	15892
557.826	15954
557.888	17282
557.950	17495
558.012	19874
558.074	26420
558.136	53420
558.198	114180
558.260	41709
558.322	17895
558.384	19066
558.446	20318
558.508	22481
558.570	24722
558.632	31670
558.694	41510
558.756	69977
558.818	200890
558.880	431331
558.942	139756
559.003	119564
559.065	56979
559.127	23707
559.189	23158
559.251	29139
559.312	42806
559.374	100290
559.436	302355
559.498	136401
559.559	26073
559.621	23463
559.683	30376
559.744	50684
559.806	152392
559.868	210768
559.929	40783
559.991	26336
560.052	42542
560.114	112757
560.176	69063
560.237	64671
560.299	99368
560.360	22546
560.422	11019
560.483	9633
560.545	9277
560.606	8506
560.667	9166
560.729	7828
560.790	8125
560.852	7411
560.913	7834
560.974	8050
561.036	7746
561.097	7707
561.158	6960
561.220	7986
561.281	6860
561.342	6368
561.403	7401
561.465	7304
561.526	9750
561.587	11067
561.648	6080
561.709	6881
561.771	5915
561.832	6471
561.893	6036
561.954	6797
562.015	5798
562.076	5949
562.137	6712
562.198	6421
562.259	6231
562.320	5597
562.381	6668
562.442	6981
562.503	6213
562.564	5732
562.625	5398
562.686	5822
562.747	4844
562.808	5816
562.869	5845
562.930	6432
562.991	5719
563.051	5591
563.112	6097
563.173	5441
563.234	5660
563.294	5832
563.355	5456
563.416	5153
563.477	6054
563.537	5633
563.598	5531
563.659	6017
563.720	5122
563.780	6300
563.841	5759
563.901	6130
563.962	5156
564.023	5011
564.083	5759
564.144	4856
564.204	5238
564.265	5450
564.325	6504
564.386	8612
564.446	8358
564.507	5468
564.567	5920
564.628	5405
564.688	5356
564.749	4843
564.809	6063
564.869	6165
564.930	5349
564.990	5497
565.050	4336
565.111	5509
565.171	4553
565.231	5614
565.292	5389
565.352	4534
565.412	5690
565.472	4798
565.532	5168
565.593	5419
565.653	4643
565.713	4998
565.773	5999
565.833	5086
565.893	6427
565.953	5167
566.013	5227
566.074	5201
566.134	5657
566.194	7833
566.254	7273
566.314	6628
566.374	4628
566.434	4112
566.494	5627
566.554	4572
566.614	5781
566.673	5323
566.733	5843
566.793	6043
566.853	5531
566.913	5087
566.973	5158
567.033	5414
567.092	5185
567.152	5627
567.212	5006
567.272	5180
567.331	6062
567.391	5600
567.451	6581
567.511	7186
567.570	6841
567.630	5731
567.690	5554
567.749	5005
567.809	5134
567.868	5070
567.928	5470
567.988	5506
568.047	5378
568.107	5534
568.166	5697
568.226	6152
568.285	6816
568.345	5919
568.404	6825
568.464	5795
568.523	5345
568.582	5967
568.642	5310
568.701	6128
568.761	5594
568.820	7656
568.879	7412
568.939	7598
568.998	6365
569.057	6330
569.116	5504
569.176	5920
569.235	4500
569.294	4954
569.353	5225
569.413	5730
569.472	4740
569.531	5326
569.590	4935
569.649	4614
569.708	5074
569.767	6541
569.827	5927
569.886	4928
569.945	4294
570.004	5081
570.063	5486
570.122	5388
570.181	4993
570.240	5960
570.299	6094
570.358	5812
570.417	5971
570.475	5883
570.534	5575
570.593	6406
570.652	5622
570.711	5916
570.770	5509
570.829	6201
570.887	5404
570.946	5386
571.005	4719
571.064	4934
571.122	6030
571.181	5880
571.240	4914
571.299	5216
571.357	4841
571.416	5490
571.475	5883
571.533	6622
571.592	5059
571.650	5831
571.709	5662
571.768	6991
571.826	5550
571.885	5963
571.943	4968
572.002	5301
572.060	5760
572.119	4391
572.177	6181
572.236	5127
572.294	4847
572.352	6048
572.411	5061
572.469	5435
572.528	4697
572.586	5626
572.644	5086
572.703	6384
572.761	4898
572.819	4381
572.877	4724
572.936	4416
572.994	4589
573.052	5178
573.110	5502
573.169	5321
573.227	5030
573.285	5339
573.343	4974
573.401	4929
573.459	5549
573.517	4781
573.576	4305
573.634	5825
573.692	5795
573.750	4704
573.808	5166
573.866	4741
573.924	5336
573.982	6177
574.040	5139
574.098	4683
574.155	4291
574.213	5350
574.271	4407
574.329	4550
574.387	4481
574.445	4754
574.503	4405
574.560	4821
574.618	4628
574.676	4347
574.734	4221
574.792	4443
574.849	5103
574.907	3900
574.965	4427
575.022	4511
575.080	3728
575.138	4116
575.195	3315
575.253	4141
575.311	3781
575.368	4251
575.426	3685
575.483	4029
575.541	3801
575.598	3679
575.656	4350
575.713	4501
575.771	4038
575.828	3964
575.886	4343
575.943	5018
576.001	4701
576.058	4005
576.115	4173
576.173	4231
576.230	4945
576.287	4732
576.345	4617
576.402	4471
576.459	4825
576.517	3789
576.574	5544
576.631	5336
576.688	4395
576.746	3672
576.803	4633
576.860	4114
576.917	4208
576.974	5116
577.031	4398
577.089	4200
577.146	3647
577.203	4426
577.260	4534
577.317	4060
577.374	4544
577.431	4474
577.488	3709
577.545	4329
577.602	4881
577.659	4512
577.716	4418
577.773	5764
577.830	5150
577.886	5047
577.943	4449
578.000	4996
578.057	5024
578.114	5953
578.171	6831
578.227	9107
578.284	8861
578.341	7146
578.398	6336
578.454	5524
578.511	5385
578.568	5655
578.625	4951
578.681	4650
578.738	4718
578.794	3785
578.851	4652
578.908	4363
578.964	4544
579.021	5621
579.077	4643
579.134	4833
579.190	5072
579.247	4960
579.303	5006
579.360	4700
579.416	3620
579.473	4203
579.529	3675
579.586	4791
579.642	5278
579.698	4497
579.755	5380
579.811	5959
579.867	5868
579.924	5579
579.980	6424
580.036	8026
580.093	9027
580.149	13413
580.205	14910
580.261	11451
580.317	7765
580.374	6935
580.430	7230
580.486	5987
580.542	5568
580.598	6426
580.619	6277
580.654	6022
580.692	5639
580.710	5452
580.765	6195
580.767	6221
580.823	6136
580.838	6113
580.879	6062
580.911	5857
580.935	5722
580.984	6966
580.991	7136
581.047	7335
581.057	7262
581.103	6994
581.130	7218
581.159	7428
581.203	8268
581.215	8490
581.270	8577
581.276	8442
581.326	7216
581.349	7184
581.382	7129
581.422	7024
581.438	6969
581.494	6678
581.494	6675
581.550	6473
581.567	6770
581.606	7355
581.640	7021
581.661	6842
581.713	7685
581.717	7751
581.773	7641
581.786	7685
581.829	7929
581.859	7976
581.885	7940
581.932	8089
581.940	8148
581.996	8597
582.004	8659
582.052	8772
582.077	8159
582.107	7527
582.150	7625
582.163	7652
582.219	7965
582.223	8022
582.274	8782
582.296	8985
582.330	9234
582.368	8737
582.386	8593
582.441	9298
582.441	9298
582.497	8328
582.514	8773
582.552	10057
582.587	9924
582.608	9705
582.659	9760
582.663	9775
582.719	10284
582.732	10353
582.774	10493
582.805	10698
582.830	10963
582.877	10681
582.885	10633
582.941	11922
582.950	12182
582.996	13695
583.023	14677
583.052	15731
583.095	16456
583.107	16605
583.162	16632
583.168	16626
583.218	16372
583.240	15964
583.273	14954
583.313	13027
583.328	12435
583.384	12472
583.385	12417
583.439	11056
583.458	11098
583.494	10900
583.531	10072
583.549	9877
583.603	10706
583.605	10713
583.660	9797
583.676	9768
583.715	10196
583.748	10321
583.770	10212
583.820	10670
583.825	10730
583.881	10027
583.893	9966
583.936	9814
583.965	10299
583.991	10786
584.038	10657
584.046	10570
584.101	10542
584.110	10565
584.156	11083
584.183	11094
584.211	10839
584.255	10496
584.266	10579
584.321	11415
584.328	11455
584.376	11142
584.400	11171
584.431	11528
584.472	11479
584.486	11416
584.541	12915
584.545	12930
584.596	13299
584.617	13260
584.651	13164
584.689	13043
584.706	12981
584.761	13821
584.762	13813
584.816	13496
584.834	13698
584.871	14195
584.906	14090
584.926	14126
584.978	15153
584.980	15183
585.035	15082
585.051	15059
585.090	15208
585.123	15799
585.145	16317
585.195	17504
585.200	17659
585.254	17815
585.267	18278
585.309	20017
585.340	21759
585.364	22938
585.412	24136
585.419	24414
585.473	27606
585.484	28728
585.528	35439
585.556	41503
585.583	54640
585.628	84486
585.637	96430
585.692	190568
585.700	206912
585.747	267081
585.772	241452
585.801	157325
585.845	58890
585.856	48414
585.910	28156
585.917	26070
585.965	22453
585.989	21061
586.019	20560
586.061	19311
586.074	18974
586.128	18873
586.133	18795
586.183	17958
586.205	17756
586.237	17621
586.277	17062
586.292	16912
586.346	16207
586.349	16180
586.401	15962
586.421	15876
586.455	16323
586.493	16862
586.509	17213
586.564	18080
586.565	18127
586.618	23480
586.637	24192
586.672	22048
586.709	19600
586.727	19091
586.781	19382
586.781	19403
586.835	16895
586.853	16421
586.889	15800
586.925	14655
586.944	14298
586.996	14533
586.998	14577
587.052	14560
587.068	14787
587.106	15064
587.140	14819
587.161	14800
587.212	15336
587.215	15382
587.269	15260
587.284	15227
587.323	15428
587.356	15655
587.377	15704
587.427	15923
587.431	15995
587.485	16517
587.499	16545
587.539	16352
587.571	16237
587.593	16476
587.643	17144
587.648	17198
587.702	17645
587.715	17551
587.755	17596
587.786	17812
587.810	17876
587.858	17971
587.864	18102
587.917	19331
587.930	19437
587.971	19312
588.001	19655
588.025	20126
588.073	20143
588.079	20237
588.133	21214
588.145	21460
588.187	22558
588.217	23259
588.241	24146
588.288	25593
588.295	25837
588.348	27881
588.360	28216
588.402	29664
588.431	30796
588.456	32347
588.503	35561
588.510	36132
588.564	40442
588.575	41318
588.617	45909
588.646	49487
588.671	53601
588.718	62836
588.725	65760
588.778	90425
588.789	96476
588.832	154175
588.861	198405
588.886	274392
588.932	433640
588.939	446973
588.993	523836
589.004	523395
589.047	335580
589.075	218556
589.100	165443
589.147	85529
589.154	82669
589.207	64814
589.218	61265
589.261	59023
589.290	58413
589.314	61251
589.361	67736
589.368	71169
589.421	102453
589.433	109991
589.475	192878
589.504	256823
589.528	326623
589.576	465925
589.582	454671
589.635	282455
589.647	246516
589.689	136368
589.718	68601
589.742	58558
589.790	40890
589.795	40331
589.849	35497
589.861	34423
589.902	34426
589.932	33851
589.955	31310
590.004	25965
590.009	25930
590.062	25278
590.075	25073
590.115	24100
590.146	23275
590.168	23490
590.218	23668
590.222	23653
590.275	22711
590.289	22456
590.328	23309
590.360	23771
590.381	23777
590.431	23843
590.435	23906
590.488	23508
590.503	23451
590.541	23260
590.574	22932
590.594	23155
590.645	23394
590.647	23469
590.700	23887
590.716	23958
590.753	24483
590.787	24834
590.806	25187
590.859	25879
590.859	25949
590.912	25633
590.930	25553
590.965	25445
591.001	25113
591.018	25301
591.071	25714
591.072	25646
591.124	24826
591.143	24533
591.177	25345
591.214	25899
591.230	25980
591.283	26103
591.285	26036
591.336	26895
591.356	27059
591.389	27188
591.427	27204
591.442	26928
591.495	25698
591.498	25528
591.547	25753
591.569	25799
591.600	26188
591.640	26420
591.653	26456
591.706	26509
591.711	26436
591.759	27933
591.782	28546
591.811	29104
591.853	29743
591.864	29757
591.917	29373
591.924	29241
591.969	29282
591.995	29123
592.022	29472
592.066	29882
592.075	30119
592.127	31047
592.137	31130
592.180	32181
592.208	32698
592.233	32096
592.279	30697
592.285	30927
592.338	32134
592.350	32316
592.390	31628
592.421	30963
592.443	31417
592.491	32130
592.495	32276
592.548	32998
592.562	33103
592.600	33013
592.633	32763
592.653	32699
592.704	32114
592.705	32336
592.775	34239
592.846	33947
592.916	34477
592.987	35775
593.058	36066
593.128	35316
593.199	35542
593.270	34508
593.341	35666
593.411	35543
593.482	36992
593.553	38420
593.623	38313
593.694	39201
593.764	41344
593.835	39740
593.906	40237
593.976	40828
594.047	41547
594.117	44493
594.188	45985
594.258	43697
594.329	43863
594.399	45224
594.470	45945
594.540	47074
594.611	48826
594.681	48743
594.751	48086
594.822	50518
594.892	52381
594.963	52493
595.033	54551
595.103	55536
595.174	56775
595.244	61167
595.314	66887
595.384	60973
595.455	62033
595.525	64124
595.595	65898
595.665	65536
595.736	64122
595.806	64274
595.876	66045
595.946	65563
596.016	70305
596.087	71985
596.157	71561
596.227	71800
596.297	75033
596.367	79760
596.437	86003
596.507	86277
596.577	88566
596.647	86823
596.717	89273
596.787	89350
596.857	91926
596.927	91452
596.997	92389
597.067	94515
597.137	98444
597.207	96039
597.277	97675
597.347	94290
597.417	92304
597.487	92421
597.557	94434
597.626	96094
597.696	100109
597.766	100089
597.836	100667
597.906	91805
597.975	89790
598.045	90272
598.115	93661
598.185	99626
598.254	109845
598.324	118442
598.394	120144
598.464	118025
598.533	117262
598.603	111803
598.672	107995
598.742	110942
598.812	113001
598.881	115390
598.951	115896
599.020	116592
599.090	120885
599.159	123610
599.229	120359
599.299	119125
599.368	122564
599.437	122290
599.507	118628
599.576	114925
599.646	116799
599.715	116132
599.785	116700
599.854	114731
599.924	115059
599.993	115274
600.062	118077
600.132	121177
600.201	127243
600.270	139874
600.340	147519
600.409	147517
600.478	146849
600.547	151441
600.617	145028
600.686	126756
600.755	123196
600.824	120460
600.894	121979
600.963	123517
601.032	124824
601.101	123975
601.170	125288
601.239	124802
601.308	126636
601.378	128880
601.447	132262
601.516	133330
601.585	136015
601.654	138180
601.723	142254
601.792	146815
601.861	153319
601.930	161278
601.999	164344
602.068	162510
602.137	163560
602.206	164557
602.275	167392
602.343	169562
602.412	173522
602.481	171809
602.550	172337
602.619	177202
602.688	175876
602.756	179590
602.825	177218
602.894	185380
602.963	180719
603.032	185932
603.100	187328
603.169	181502
603.238	188831
603.307	180570
603.375	183164
603.444	192466
603.513	178290
603.581	183271
603.650	195213
603.719	166299
603.787	158329
603.856	161090
603.924	165382
603.993	169879
604.061	173706
604.130	179516
604.198	183174
604.267	186523
604.335	189329
604.404	192604
604.472	198664
604.541	196610
604.609	204329
604.678	208005
604.746	212654
604.815	222726
604.883	214241
604.951	209839
605.020	214821
605.088	205505
605.156	197630
605.225	196059
605.293	194659
605.361	195597
605.429	195020
605.498	200110
605.566	198647
605.634	207378
605.702	210210
605.771	214093
605.839	217654
605.907	204624
605.975	209868
606.043	203733
606.111	196434
606.180	213075
606.248	198715
606.316	196567
606.384	205155
606.452	174819
606.520	151190
606.588	153876
606.656	154914
606.724	152230
606.792	143921
606.860	131143
606.928	121348
606.996	115785
607.064	114805
607.132	116932
607.200	123529
607.267	129584
607.335	132027
607.403	134558
607.471	129122
607.539	124993
607.607	126471
607.674	111455
607.742	112799
607.810	112271
607.878	110287
607.946	112770
608.013	116636
608.081	120525
608.149	120812
608.216	125242
608.284	128154
608.352	126525
608.419	127169
608.487	126006
608.555	120913
608.622	123344
608.690	130877
608.757	139369
608.825	144084
608.893	140273
608.960	133707
609.028	127068
609.095	129852
609.163	126333
609.230	115027
609.298	104428
609.365	109593
609.432	118839
609.500	126596
609.567	145562
609.635	164867
609.702	176730
609.769	168940
609.837	132961
609.904	112962
609.971	116278
610.039	128363
610.106	159395
610.173	277924
610.241	592070
610.308	418907
610.375	190378
610.442	131579
610.509	120820
610.577	120532
610.644	119868
610.711	123030
610.778	126860
610.845	132989
610.912	140632
610.980	146481
611.047	153215
611.114	146833
611.181	138278
611.248	137995
611.315	144924
611.382	147959
611.449	154256
611.516	156529
611.583	153931
611.650	155109
611.717	155549
611.784	160287
611.851	166202
611.918	172766
611.984	194593
612.051	259279
612.118	462063
612.185	1003501
612.252	717914
612.319	247008
612.386	203400
612.452	188444
612.519	178072
612.586	176680
612.653	179103
612.719	183201
612.786	175053
612.853	163548
612.919	160931
612.986	164570
613.053	155350
613.120	148162
613.186	141150
613.253	142653
613.319	141757
613.386	143056
613.453	145558
613.519	147184
613.586	145357
613.652	147769
613.719	145323
613.785	147524
613.852	148249
613.918	146821
613.985	150732
614.051	163087
614.118	180283
614.184	174650
614.250	148393
614.317	151010
614.383	146974
614.449	152150
614.516	150054
614.582	152418
614.648	148044
614.715	147586
614.781	144839
614.847	145341
614.914	143953
614.980	141524
615.046	139983
615.112	146886
615.179	145431
615.245	147346
615.311	145842
615.377	148183
615.443	148996
615.509	151627
615.575	154592
615.642	153527
615.708	155992
615.774	165820
615.840	170386
615.906	179128
615.972	205328
616.038	286105
616.104	537662
616.170	1126375
616.236	1021939
616.302	334820
616.368	251537
616.434	197180
616.500	182614
616.565	192166
616.631	228167
616.697	199356
616.763	200752
616.829	268861
616.895	440536
616.961	441166
617.026	224853
617.092	166970
617.158	158521
617.224	156033
617.289	145561
617.355	139941
617.421	138808
617.487	139232
617.552	134090
617.618	132136
617.684	131930
617.749	133293
617.815	127538
617.880	125738
617.946	124588
618.012	128464
618.077	131005
618.143	127151
618.208	127336
618.274	135027
618.339	137374
618.405	118033
618.470	116014
618.536	117255
618.601	116541
618.667	109865
618.732	104857
618.798	102859
618.863	103309
618.928	103594
618.994	103731
619.059	104417
619.124	105310
619.190	102254
619.255	103100
619.320	103617
619.386	104013
619.451	104433
619.516	101507
619.581	102070
619.647	106002
619.712	106619
619.777	102253
619.842	103812
619.907	103967
619.972	105278
620.038	104412
620.103	102424
620.168	102040
620.233	104855
620.298	104682
620.363	106842
620.428	107954
620.493	111941
620.558	112400
620.623	113128
620.688	113299
620.753	111970
620.818	112891
620.883	114636
620.948	113930
621.013	112916
621.078	113377
621.143	113199
621.207	116445
621.272	114999
621.337	110634
621.402	111816
621.467	112320
621.532	114008
621.596	112608
621.661	108640
621.726	106862
621.791	109431
621.855	109085
621.920	108400
621.985	109556
622.049	113451
622.114	112748
622.179	114043
622.243	113741
622.308	117536
622.373	120986
622.437	120074
622.502	113879
622.566	114036
622.631	111731
622.695	116173
622.760	113795
622.824	114580
622.889	115181
622.953	113957
623.018	120422
623.082	121177
623.147	119300
623.211	116538
623.276	116593
623.340	112831
623.404	110393
623.469	111023
623.533	111636
623.597	109720
623.662	108666
623.726	103161
623.790	98471
623.854	96152
623.919	97949
623.983	99173
624.047	97335
624.111	100105
624.176	101133
624.240	102940
624.304	106110
624.368	101303
624.432	100632
624.496	102863
624.560	107299
624.625	106995
624.689	106866
624.753	111066
624.817	104639
624.881	101879
624.945	94681
625.009	92870
625.073	93675
625.137	95298
625.201	98503
625.265	99551
625.329	95048
625.393	96137
625.456	94603
625.520	97107
625.584	98032
625.648	103092
625.712	108427
625.776	126191
625.839	127232
625.903	91954
625.967	79350
626.031	91212
626.095	107835
626.158	92112
626.222	72978
626.286	70790
626.349	67201
626.413	64684
626.477	64414
626.540	63460
626.604	61797
626.668	63093
626.731	62142
626.795	62725
626.858	60356
626.922	58732
626.986	58351
627.049	58224
627.113	60728
627.176	60356
627.240	57824
627.303	57704
627.366	57049
627.430	56855
627.493	56591
627.557	55615
627.620	57190
627.684	57980
627.747	56923
627.810	52691
627.874	48356
627.937	47138
628.000	51033
628.064	49118
628.127	42524
628.190	43597
628.253	42769
628.317	41545
628.380	39352
628.443	38751
628.506	38522
628.569	37556
628.632	34648
628.696	36411
628.759	34317
628.822	34416
628.885	33293
628.948	32469
629.011	31783
629.074	31720
629.137	30944
629.200	30496
629.263	30696
629.326	28328
629.389	29434
629.452	29477
629.515	28828
629.578	28295
629.641	30089
629.704	28758
629.767	27817
629.830	28407
629.892	26927
629.955	26819
630.018	28707
630.081	25916
630.144	27235
630.207	25355
630.269	27620
630.332	27475
630.395	25855
630.458	24704
630.520	23349
630.583	25382
630.646	25396
630.708	25443
630.771	24958
630.834	26210
630.896	25138
630.959	25506
631.021	22968
631.084	25501
631.146	25314
631.209	27787
631.272	24399
631.334	25783
631.397	24280
631.459	25274
631.522	25974
631.584	27093
631.646	27776
631.709	27739
631.771	27978
631.834	27433
631.896	25592
631.958	25360
632.021	24504
632.083	22781
632.145	24466
632.208	23477
632.270	24123
632.332	22855
632.395	22164
632.457	24540
632.519	22236
632.581	24364
632.643	22180
632.706	23286
632.768	21781
632.830	23500
632.892	22555
632.954	23314
633.016	23878
633.078	22936
633.141	23903
633.203	23638
633.265	22687
633.327	23705
633.389	21525
633.451	23726
633.513	22660
633.575	24466
633.637	23544
633.698	23988
633.760	24287
633.822	24936
633.884	23577
633.946	25037
634.008	25050
634.070	27133
634.132	29931
634.193	29021
634.255	30683
634.317	29502
634.379	30018
634.441	27734
634.502	25369
634.564	24689
634.626	23427
634.687	22507
634.749	21871
634.811	22778
634.873	20365
634.934	22680
634.996	22306
635.057	21777
635.119	21165
635.181	22935
635.242	23047
635.304	20727
635.365	24110
635.427	21865
635.488	22330
635.550	21574
635.611	22768
635.673	20708
635.734	24363
635.796	23328
635.857	26049
635.918	26044
635.980	28599
636.041	28939
636.102	30116
636.164	30890
636.225	30148
636.286	26420
636.348	25216
636.409	23761
636.470	21793
636.531	22416
636.593	21792
636.654	21549
636.715	20981
636.776	20375
636.838	19167
636.899	21465
636.960	19355
637.021	20385
637.082	18979
637.143	20077
637.204	17805
637.265	17964
637.326	19561
637.387	20431
637.448	18208
637.509	19632
637.570	19033
637.631	20019
637.692	17318
637.753	17744
637.814	17467
637.875	18879
637.936	18933
637.997	17861
638.058	17459
638.119	19930
638.179	18122
638.240	17743
638.301	18242
638.362	17811
638.423	17614
638.483	18117
638.544	16228
638.605	18684
638.666	16896
638.726	19611
638.787	17702
638.848	17176
638.908	16830
638.969	16518
639.030	15836
639.090	16412
639.151	15638
639.211	17498
639.272	18369
639.332	19121
639.393	18262
639.453	17804
639.514	18127
639.574	17361
639.635	15612
639.695	16440
639.756	15635
639.816	17006
639.877	15565
639.937	17681
639.997	18537
640.058	15426
640.118	14660
640.178	16853
640.239	15993
640.299	15457
640.359	15706
640.420	16861
640.480	17056
640.540	19657
640.600	18539
640.661	18916
640.721	17450
640.781	20686
640.841	19684
640.901	17424
640.961	16486
641.021	16516
641.082	16258
641.142	16955
641.202	17159
641.262	13549
641.322	15459
641.382	14584
641.442	16121
641.502	14727
641.562	15503
641.622	16122
641.682	15671
641.742	17929
641.802	17133
641.861	16662
641.921	14672
641.981	15885
642.041	15057
642.101	14956
642.161	13734
642.221	14827
642.280	14646
642.340	13779
642.400	13348
642.460	15778
642.519	14369
642.579	15212
642.639	15472
642.698	12928
642.758	17034
642.818	15475
642.877	13943
642.937	14860
642.997	14866
643.056	16553
643.116	13521
643.175	16184
643.235	14803
643.294	15353
643.354	15933
643.414	17427
643.473	18293
643.532	21917
643.592	27254
643.651	41304
643.711	67293
643.770	128699
643.830	302168
643.889	625429
643.948	172306
644.008	37804
644.067	22622
644.126	20240
644.186	17615
644.245	18315
644.304	13659
644.363	16417
644.423	13321
644.482	14781
644.541	16482
644.600	14763
644.659	18645
644.719	21089
644.778	29830
644.837	47349
644.896	93007
644.955	216442
645.014	78860
645.073	22698
645.132	17044
645.191	16013
645.250	14449
645.309	17633
645.368	16469
645.427	21831
645.486	30257
645.545	51242
645.604	19827
645.663	15111
645.722	13790
645.781	16433
645.840	15779
645.898	19717
645.957	25798
646.016	37542
646.075	63977
646.134	125099
646.192	319278
646.251	478839
646.310	84289
646.369	28196
646.427	23528
646.486	18440
646.545	14759
646.603	13886
646.662	13000
646.721	14165
646.779	12596
646.838	13428
646.896	14872
646.955	20059
647.014	29502
647.072	53351
647.131	140710
647.189	72616
647.248	14591
647.306	13454
647.365	12020
647.423	10176
647.481	12434
647.540	10279
647.598	10748
647.657	10759
647.715	11327
647.773	10230
647.832	10855
647.890	9237
647.948	9170
648.007	10615
648.065	8378
648.123	9381
648.181	11005
648.240	11850
648.298	9820
648.356	10022
648.414	9739
648.472	8881
648.531	9378
648.589	9193
648.647	8454
648.705	8802
648.763	8812
648.821	9926
648.879	8050
648.937	9762
648.995	11366
649.053	14251
649.111	18744
649.169	30485
649.227	54530
649.285	110943
649.343	318187
649.401	156792
649.459	25644
649.516	17431
649.574	14013
649.632	25236
649.690	28731
649.748	19708
649.806	24752
649.863	45953
649.921	99619
649.979	69161
650.037	12453
650.094	8199
650.152	8036
650.210	8533
650.268	8174
650.325	9256
650.383	8772
650.440	6668
650.498	7385
650.556	7260
650.613	5858
650.671	7373
650.728	7051
650.786	7607
650.843	8925
650.901	6359
650.958	6668
651.016	6710
651.073	6538
651.131	5451
651.188	5023
651.246	5934
651.303	4702
651.360	5971
651.418	5163
651.475	5753
651.532	3771
651.590	6059
651.647	4511
651.704	4969
651.762	5317
651.819	5773
651.876	4420
651.933	4935
651.990	5471
652.048	4030
652.105	4012
652.162	5059
652.219	3893
652.276	5874
652.333	5583
652.390	4386
652.448	5155
652.505	5077
652.562	5139
652.619	5769
652.676	8703
652.733	9146
652.790	5084
652.847	3739
652.904	4768
652.961	3415
653.017	3856
653.074	5123
653.131	3983
653.188	3743
653.245	3368
653.302	3967
653.359	4473
653.415	5089
653.472	3499
653.529	4935
653.586	4030
653.642	3858
653.699	4009
653.756	4259
653.813	3611
653.869	4915
653.926	3334
653.983	3508
654.039	3913
654.096	3253
654.152	5244
654.209	3032
654.266	4741
654.322	2940
654.379	4164
654.435	4630
654.492	4205
654.548	4987
654.605	5298
654.661	5762
654.717	4412
654.774	4749
654.830	4437
654.887	4162
654.943	3804
655.000	5942
655.056	4191
655.112	4071
655.168	3573
655.225	4948
655.281	4108
655.337	5366
655.394	5618
655.450	4850
655.506	4632
655.562	5815
655.618	5908
655.675	3286
655.731	4027
655.787	3330
655.843	4358
655.899	3218
655.955	4359
656.011	4652
656.067	2717
656.123	4043
656.179	3697
656.235	4924
656.291	1531
656.347	4708
656.403	3469
656.459	4100
656.515	3613
656.571	4134
656.627	3930
656.683	3911
656.739	3628
656.795	4250
656.850	4408
656.906	4469
656.962	4508
657.018	3151
657.074	4498
657.129	5580
657.185	8049
657.241	16159
657.297	9639
657.352	5219
657.408	3339
657.464	4210
657.519	2968
657.575	3270
657.630	3455
657.686	4706
657.742	2349
657.797	3374
657.853	2534
657.908	4953
657.964	2184
658.019	3573
658.075	2851
658.130	3870
658.186	1372
658.241	3518
658.297	2221
658.352	3515
658.407	2960
658.463	3312
658.518	2443
658.573	3459
658.629	2752
658.684	3464
658.739	3021
658.795	2814
658.850	3215
658.905	3261
658.960	3365
659.016	2344
659.071	2534
659.126	3765
659.181	2912
659.236	4594
659.291	3538
659.346	3607
659.401	3755
659.457	5230
659.512	6451
659.567	5116
659.622	3582
659.677	3262
659.732	1738
659.787	3124
659.842	3628
659.897	3560
659.952	2258
660.007	3993
660.061	3139
660.116	2845
660.171	2273
660.226	3470
660.281	4197
660.336	2559
660.391	3860
660.445	2151
660.500	2565
660.555	3686
660.610	2495
660.664	2745
660.719	2592
660.774	2962
660.828	3766
660.883	3112
660.938	3292
660.992	1879
661.047	2616
661.101	2971
661.156	2784
661.211	1998
661.265	2773
661.320	3012
661.374	2152
661.429	2428
661.483	3182
661.538	2173
661.592	2966
661.647	3341
661.701	4150
661.755	3807
661.810	2678
661.864	3091
661.919	1806
661.973	2624
662.027	2355
662.081	2875
662.136	1678
662.190	4156
662.244	3010
662.299	2700
662.353	2973
662.407	2539
662.461	2550
662.515	2645
662.569	2500
662.624	3788
662.678	2472
662.732	3120
662.786	1680
662.840	2774
662.894	2897
662.948	3178
663.002	2537
663.056	2564
663.110	2363
663.164	2971
663.218	1914
663.272	2990
663.326	2250
663.380	2688
663.434	1981
663.488	2573
663.542	2463
663.595	2604
663.649	2082
663.703	2391
663.757	2319
663.811	1851
663.864	1669
663.918	2223
663.972	2914
664.026	2239
664.079	1661
664.133	3173
664.187	2657
664.240	3000
664.294	2735
664.348	2937
664.401	2418
664.455	2780
664.508	1807
664.562	2607
664.615	2373
664.669	3018
664.722	2495
664.776	2652
664.829	1987
664.883	2729
664.936	1613
664.990	2702
665.043	2802
665.097	3115
665.150	2709
665.203	2739
665.257	1578
665.310	3240
665.363	2628
665.417	3380
665.470	1500
665.523	1971
665.576	2960
665.630	2938
665.683	1992
665.736	2486
665.789	2673
665.842	2202
665.895	2020
665.949	2466
666.002	1491
666.055	2887
666.108	2567
666.161	2886
666.214	3221
666.267	3341
666.320	2791
666.373	3090
666.426	3113
666.479	2144
666.532	2991
666.585	3031
666.638	3254
666.691	2788
666.744	3176
666.796	3073
666.849	2411
666.902	3337
666.955	2503
667.008	2629
667.060	2036
667.113	2734
667.166	2301
667.219	3570
667.271	1403
667.324	3388
667.377	3080
667.430	3323
667.482	3891
667.535	4148
667.587	3462
667.640	3076
667.693	2627
667.745	3683
667.798	2992
667.850	3088
667.903	2339
667.955	1968
668.008	2407
668.060	3186
668.113	2576
668.165	3419
668.218	3023
668.270	3072
668.322	2636
668.375	2897
668.427	3163
668.479	2722
668.532	3708
668.584	3087
668.636	1775
668.689	2979
668.741	1763
668.793	3228
668.845	2501
668.898	3700
668.950	2414
669.002	2210
669.054	2460
669.106	2299
669.158	2713
669.211	2542
669.263	2830
669.315	3877
669.367	4339
669.419	3005
669.471	4067
669.523	4005
669.575	5019
669.627	3385
669.679	3193
669.731	3147
669.783	3057
669.835	3704
669.886	3278
669.938	3244
669.990	3136
670.042	3080
670.094	3304
670.146	3604
670.197	2990
670.249	4836
670.301	5505
670.353	7707
670.404	9667
670.456	14457
670.508	22041
670.560	37856
670.611	65082
670.663	116325
670.715	251502
670.766	363699
670.818	137206
670.869	30397
670.921	14926
670.972	10716
671.024	8009
671.075	7000
671.127	5082
671.178	4321
671.230	4592
671.281	4737
671.333	4112
671.384	3643
671.436	5147
671.487	6350
671.538	7537
671.590	11783
671.641	17894
671.692	32840
671.744	61111
671.795	43371
671.846	14802
671.897	7406
671.949	5173
672.000	4550
672.051	3425
672.102	3719
672.153	2562
672.204	3053
672.256	2896
672.307	3233
672.358	2208
672.409	2160
672.460	1967
672.511	2076
672.562	1840
672.613	2087
672.664	2358
672.715	2649
672.766	2692
672.817	3012
672.868	706
672.919	2346
672.970	1448
673.021	2674
673.071	1282
673.122	2109
673.173	1231
673.224	2009
673.275	1400
673.326	2103
673.376	2009
673.427	2042
673.478	1253
673.528	2445
673.579	1594
673.630	1703
673.680	2592
673.731	941
673.782	1552
673.832	1880
673.883	1911
673.934	2223
673.984	1375
674.035	2173
674.085	2272
674.136	2281
674.186	1076
674.237	2032
674.287	2183
674.338	1956
674.388	1311
674.438	1391
674.489	994
674.539	2433
674.589	1834
674.640	1799
674.690	842
674.740	1603
674.791	1551
674.841	2182
674.891	1223
674.942	1593
674.992	384
675.042	1932
675.092	621
675.142	1413
675.193	859
675.243	1303
675.293	1245
675.343	1753
675.393	1056
675.443	2035
675.493	937
675.543	1291
675.593	1354
675.643	1329
675.693	2015
675.743	2340
675.793	1105
675.843	896
675.893	1546
675.943	2111
675.993	768
676.043	1567
676.093	1240
676.142	1068
676.192	1126
676.242	1286
676.292	1385
676.341	1025
676.391	960
676.441	1577
676.491	1145
676.540	975
676.590	1320
676.640	1836
676.689	1435
676.739	573
676.789	1498
676.838	1017
676.888	1194
676.937	544
676.987	486
677.037	803
677.086	28
677.136	1502
677.185	401
677.235	1187
677.284	1365
677.333	901
677.383	83
677.432	480
677.482	710
677.531	1593
677.580	1022
677.630	996
677.679	925
677.728	896
677.778	484
677.827	1264
677.876	794
677.925	627
677.975	677
678.024	1663
678.073	1119
678.122	1654
678.171	626
678.220	887
678.269	1476
678.319	1226
678.368	1617
678.417	1713
678.466	1152
678.515	1226
678.564	937
678.613	1291
678.662	816
678.711	521
678.760	274
678.809	713
678.857	442
678.906	1058
678.955	1008
679.004	1366
679.053	405
679.102	840
679.151	416
679.199	810
679.248	457
679.297	1195
679.346	744
679.394	507
679.443	14
679.492	1374
679.540	562
679.589	1148
679.638	-206
679.686	1402
679.735	640
679.784	1339
679.832	677
679.881	624
679.929	825
679.978	871
680.026	595
680.075	945
680.123	231
680.172	1265
680.220	568
680.268	1394
680.317	385
680.365	1212
680.414	272
680.462	351
680.510	1131
680.559	1067
680.607	267
680.655	401
680.703	650
680.752	499
680.800	318
680.848	542
680.896	959
680.945	1087
680.993	264
681.041	1239
681.089	-57
681.137	761
681.185	178
681.233	249
681.258	336
681.281	375
681.329	890
681.377	8
681.380	113
681.425	1187
681.473	770
681.502	1209
681.521	1433
681.569	1293
681.617	1519
681.624	1543
681.665	1360
681.713	2118
681.745	1279
681.761	817
681.809	1095
681.857	2362
681.867	2271
681.904	1787
681.952	1901
681.989	2113
682.000	2104
682.048	1783
682.096	1744
682.111	1672
682.143	1435
682.191	2269
682.233	2461
682.239	2444
682.286	2667
682.334	1744
682.354	2305
682.382	2939
682.430	2099
682.476	2478
682.477	2448
682.525	2002
682.572	3156
682.598	2749
682.620	2376
682.667	3540
682.715	3589
682.720	3683
682.763	4069
682.810	3121
682.841	3414
682.857	3520
682.905	3187
682.952	4234
682.963	4224
683.000	4029
683.047	3816
683.085	4377
683.095	4491
683.142	3933
683.190	4751
683.206	4668
683.237	4388
683.284	5180
683.328	4735
683.332	4663
683.379	4854
683.426	4490
683.449	4405
683.473	4311
683.521	4616
683.568	4581
683.571	4681
683.615	5428
683.662	4670
683.693	4535
683.709	4466
683.757	4691
683.804	5786
683.814	5696
683.851	5178
683.898	5498
683.936	5609
683.945	5617
683.992	5815
684.039	5692
684.057	5895
684.086	6131
684.133	5681
684.179	5496
684.180	5461
684.227	5891
684.274	6628
684.300	6681
684.321	6683
684.368	6022
684.415	6168
684.422	6188
684.462	6206
684.509	6184
684.543	6815
684.556	7010
684.603	6185
684.649	6600
684.665	6727
684.696	6898
684.743	6826
684.786	7195
684.790	7207
684.837	7398
684.883	7603
684.908	7973
684.930	8321
684.977	8201
685.023	8207
685.029	8258
685.070	8305
685.117	7923
685.150	7584
685.164	7427
685.210	8240
685.257	8153
685.272	8423
685.303	9029
685.350	7927
685.393	8217
685.396	8212
685.443	8034
685.490	8862
685.514	8308
685.536	7862
685.583	8858
685.629	8637
685.636	8778
685.675	9340
685.722	8538
685.757	9013
685.768	9199
685.815	8322
685.861	8732
685.878	8692
685.908	8632
685.954	9688
686.000	9345
686.000	9330
686.047	10347
686.093	10330
686.121	10596
686.139	10542
686.185	10052
686.232	10090
686.242	9922
686.278	9545
686.324	10182
686.363	9975
686.370	9934
686.416	10358
686.463	10786
686.484	10677
686.509	10555
686.555	10584
686.601	10724
686.606	10666
686.647	9945
686.693	10688
686.727	10751
686.739	10751
686.785	11260
686.831	10441
686.848	10647
686.877	11166
686.923	10230
686.969	10912
686.969	10913
687.015	10562
687.061	11637
687.090	11469
687.107	11351
687.153	11777
687.199	11545
687.211	11561
687.245	11469
687.291	10641
687.332	10993
687.336	11066
687.382	11483
687.428	11902
687.453	11891
687.474	11747
687.520	12177
687.565	12325
687.574	12285
687.611	12484
687.657	12910
687.695	13474
687.702	13644
687.748	14955
687.794	16224
687.816	16088
687.839	15043
687.885	14701
687.931	12673
687.937	12633
687.976	13192
688.022	12956
688.058	13197
688.067	13283
688.113	12858
688.158	12671
688.179	12946
688.204	13355
688.249	13844
688.295	13387
688.300	13457
688.340	14102
688.386	14077
688.421	14172
688.431	14109
688.477	13142
688.522	13610
688.542	13450
688.567	13610
688.613	14292
688.658	14277
688.663	14325
688.703	14327
688.749	13478
688.784	14011
688.794	14257
688.839	14142
688.884	14233
688.905	14313
688.930	14300
688.975	14383
689.020	14300
689.026	14249
689.065	14170
689.110	14458
689.146	14552
689.155	14623
689.201	14354
689.246	15243
689.267	15194
689.291	15034
689.336	15510
689.381	15379
689.388	15294
689.426	14954
689.471	15133
689.509	15294
689.516	15345
689.561	14863
689.606	15129
689.630	14865
689.651	14637
689.696	14624
689.741	14848
689.750	14950
689.785	15658
689.830	15182
689.871	15701
689.875	15756
689.920	15252
689.965	15858
689.992	15677
690.010	15681
690.054	15923
690.099	16309
690.112	16459
690.144	16747
690.189	16018
690.233	16306
690.233	16331
690.278	16339
690.323	16386
690.354	16294
690.367	16271
690.412	16564
690.457	16665
690.474	16533
690.501	16675
690.546	17400
690.590	18265
690.595	18243
690.635	18943
690.680	20252
690.716	21020
690.724	21390
690.769	24154
690.813	25924
690.836	26893
690.857	30340
690.902	37785
690.946	45770
690.957	47603
690.991	64999
691.035	89580
691.077	111590
691.080	111554
691.124	103651
691.168	97162
691.198	92988
691.213	85995
691.257	65021
691.301	43800
691.318	35561
691.346	32812
691.390	28430
691.434	23989
691.439	23437
691.478	22335
691.522	21192
691.559	20319
691.567	20389
691.611	20202
691.655	20384
691.680	20268
691.699	20136
691.743	19820
691.787	19628
691.800	19521
691.831	19633
691.875	19602
691.919	19945
691.921	19904
691.964	19465
692.008	19799
692.041	19197
692.052	19076
692.096	18854
692.139	18809
692.162	18753
692.183	18849
692.227	18347
692.271	18528
692.282	18486
692.315	18630
692.359	19003
692.402	18590
692.403	18624
692.447	18736
692.490	18705
692.523	18730
692.534	18838
692.578	19038
692.622	19237
692.643	19251
692.666	19092
692.709	18578
692.753	18439
692.763	18403
692.797	18902
692.840	18652
692.884	19246
692.884	19292
692.928	19550
692.971	19973
693.004	20296
693.015	20378
693.059	20381
693.102	20375
693.124	20359
693.146	20820
693.189	21600
693.233	22508
693.245	22674
693.276	23349
693.320	24521
693.363	25349
693.365	25332
693.407	27952
693.450	30519
693.485	32683
693.493	33894
693.537	39695
693.580	45773
693.605	48928
693.624	55978
693.667	73226
693.710	90043
693.725	96220
693.753	129512
693.797	181014
693.840	233131
693.845	238601
693.883	223784
693.926	206749
693.966	191659
693.970	187565
694.013	141637
694.056	95138
694.086	63395
694.099	60502
694.142	50347
694.185	40129
694.206	35324
694.229	33979
694.272	31196
694.315	28390
694.326	27605
694.358	26876
694.401	25777
694.444	24810
694.446	24679
694.487	23812
694.530	23865
694.566	22989
694.573	22898
694.616	22434
694.659	21824
694.686	21443
694.702	21396
694.745	21105
694.787	20849
694.806	20642
694.830	20708
694.873	21051
694.916	20807
694.926	20845
694.959	21101
695.002	20931
695.044	20820
695.046	20771
695.087	20919
695.130	21009
695.166	20672
695.172	20712
695.215	21237
695.258	21516
695.286	21540
695.301	21606
695.343	21862
695.386	22037
695.406	22009
695.428	22209
695.471	22622
695.514	22986
695.526	23070
695.556	23840
695.599	24700
695.641	25651
695.646	25673
695.684	24774
695.726	23976
695.766	22949
695.769	22998
695.811	22878
695.854	22900
695.886	22842
695.896	22867
695.938	22584
695.981	22493
696.005	22283
696.023	22633
696.065	23390
696.108	24215
696.125	24532
696.150	24783
696.192	24951
696.235	25116
696.245	25098
696.277	25525
696.319	26023
696.361	26519
696.365	26498
696.404	27179
696.446	27675
696.485	28264
696.488	28281
696.530	27355
696.572	26608
696.604	25802
696.614	25787
696.656	25635
696.698	25405
696.724	25194
696.740	25205
696.783	24883
696.825	24890
696.844	24739
696.867	24827
696.909	24983
696.951	24973
696.964	24961
696.992	25133
697.034	25112
697.076	25298
697.083	25229
697.118	25574
697.160	26044
697.202	26443
697.203	26387
697.244	26088
697.286	25596
697.323	25063
697.327	25178
697.369	25700
697.411	26308
697.442	26538
697.453	26581
697.494	26604
697.536	26520
697.562	26506
697.578	26540
697.620	26219
697.661	26038
697.682	25849
697.703	26103
697.744	26538
697.786	27031
697.801	27093
697.828	27259
697.869	27387
697.911	27574
697.921	27544
697.952	27602
697.994	27604
698.035	27551
698.040	27485
698.077	27272
698.118	26794
698.160	26382
698.160	26309
698.201	26681
698.243	27050
698.279	27281
698.284	27426
698.325	28077
698.367	28744
698.399	29194
698.408	29298
698.449	29359
698.491	29482
698.518	29478
698.532	29590
698.573	29678
698.614	29753
698.638	29729
698.656	29766
698.697	29628
698.738	29548
698.757	29395
698.779	29574
698.820	29803
698.862	30016
698.877	30021
698.903	30051
698.944	29948
698.985	29853
698.996	29746
699.026	29591
699.067	29266
699.116	28801
699.235	29636
699.354	29070
699.474	28483
699.593	27930
699.713	29149
699.832	28540
699.951	28245
700.070	27750
700.190	27774
700.309	27120
700.428	26707
700.547	25737
700.667	25081
700.786	26743
700.905	26670
701.024	26130
701.143	25598
701.262	25966
701.381	26791
701.500	25788
701.619	26824
701.738	25338
701.857	25620
701.976	24295
702.095	25161
702.214	26752
702.333	25464
702.452	26093
702.571	26346
702.690	25463
702.809	25541
702.928	24565
703.047	23742
703.165	24181
703.284	24636
703.403	23044
703.522	23588
703.640	23649
703.759	23946
703.878	25254
703.997	23490
704.115	22546
704.234	22583
704.353	22735
704.471	21309
704.590	21515
704.708	22450
704.827	21406
704.946	22206
705.064	22488
705.183	22651
705.301	24635
705.420	27437
705.538	25517
705.656	23742
705.775	26002
705.893	35980
706.012	42932
706.130	26052
706.249	24529
706.367	24269
706.485	23926
706.604	23140
706.722	23954
706.840	25794
706.958	32247
707.077	25546
707.195	22212
707.313	22642
707.431	22257
707.549	21784
707.668	21798
707.786	22302
707.904	22283
708.022	21186
708.140	21048
708.258	20646
708.376	22473
708.494	20562
708.612	22770
708.730	26245
708.848	25033
708.966	25272
709.084	23626
709.202	24338
709.320	22609
709.438	23889
709.556	23397
709.674	22185
709.791	22884
709.909	21912
710.027	22661
710.145	21537
710.263	22228
710.380	21224
710.498	21937
710.616	21017
710.733	21444
710.851	21130
710.969	21753
711.086	21115
711.204	21008
711.322	20367
711.439	21145
711.557	21219
711.674	20629
711.792	20342
711.909	21759
712.027	23644
712.144	19653
712.262	20041
712.379	20379
712.497	25522
712.614	25930
712.732	23932
712.849	22752
712.966	22152
713.084	23722
713.201	21600
713.318	22966
713.436	21948
713.553	22712
713.670	23186
713.787	23158
713.905	23205
714.022	21876
714.139	22366
714.256	24880
714.373	28402
714.490	39866
714.608	81342
714.725	299635
714.842	332099
714.959	42361
715.076	25320
715.193	23491
715.310	21806
715.427	20492
715.544	19715
715.661	21188
715.778	19583
715.895	21330
716.011	21065
716.128	20622
716.245	19531
716.362	19566
716.479	18856
716.596	19312
716.713	20089
716.829	19479
716.946	18845
717.063	18578
717.180	18669
717.296	18311
717.413	17642
717.530	17963
717.646	17046
717.763	17516
717.880	16848
717.996	16544
718.113	17253
718.229	17762
718.346	16528
718.462	16733
718.579	17286
718.695	18165
718.812	17702
718.928	18261
719.045	16935
719.161	16589
719.277	16992
719.394	17747
719.510	16804
719.626	16995
719.743	19787
719.859	23542
719.975	34625
720.092	104242
720.208	246398
720.324	40742
720.440	19524
720.557	18184
720.673	18384
720.789	20768
720.905	29197
721.021	19870
721.137	15963
721.253	16155
721.369	15406
721.486	16573
721.602	17701
721.718	15877
721.834	15294
721.950	14882
722.066	14524
722.181	14649
722.297	15321
722.413	13666
722.529	15139
722.645	14967
722.761	14719
722.877	13577
722.993	14567
723.108	16150
723.224	15237
723.340	14438
723.456	13740
723.571	13836
723.687	13892
723.803	13842
723.918	12891
724.034	13756
724.150	12875
724.265	13113
724.381	16446
724.497	17723
724.612	13140
724.728	13029
724.843	12660
724.959	11900
725.074	17215
725.190	17654
725.305	12578
725.421	12494
725.536	12371
725.651	13339
725.767	13161
725.882	13019
725.997	13033
726.113	12291
726.228	12601
726.343	12008
726.459	11342
726.574	11492
726.689	11788
726.804	11814
726.920	12219
727.035	11910
727.150	12866
727.265	11293
727.380	12332
727.495	12278
727.610	10919
727.725	12776
727.841	12933
727.956	20537
728.071	17326
728.186	11635
728.301	10798
728.416	11010
728.531	11667
728.645	10426
728.760	10995
728.875	11613
728.990	10998
729.105	11539
729.220	10775
729.335	11428
729.449	11264
729.564	10668
729.679	10585
729.794	10690
729.908	10641
730.023	10914
730.138	10765
730.253	11132
730.367	10844
730.482	11610
730.596	10737
730.711	11832
730.826	13344
730.940	13806
731.055	12001
731.169	11884
731.284	11746
731.398	11460
731.513	11981
731.627	11494
731.742	13469
731.856	15062
731.970	13844
732.085	15989
732.199	18446
732.313	25958
732.428	55620
732.542	156939
732.656	99306
732.771	24055
732.885	17091
732.999	16995
733.113	17136
733.227	16752
733.342	16221
733.456	16337
733.570	15638
733.684	15000
733.798	14681
733.912	14729
734.026	14342
734.140	14484
734.254	14464
734.368	15115
734.482	17561
734.596	14776
734.710	13867
734.824	14194
734.938	14516
735.052	14879
735.166	14283
735.280	14095
735.393	14055
735.507	13573
735.621	13790
735.735	15783
735.849	14065
735.962	13601
736.076	14071
736.190	12413
736.303	13355
736.417	14961
736.531	13383
736.644	13661
736.758	12518
736.872	12625
736.985	11884
737.099	13440
737.212	12621
737.326	12239
737.439	12573
737.553	11706
737.666	12550
737.780	11939
737.893	11395
738.007	12172
738.120	12686
738.233	12484
738.347	11629
738.460	11135
738.573	12595
738.687	11786
738.800	12185
738.913	12188
739.026	12153
739.140	11634
739.253	12726
739.366	12030
739.479	11918
739.592	11888
739.705	11437
739.818	12399
739.932	11156
740.045	11511
740.158	11548
740.271	11768
740.384	11740
740.497	10724
740.610	12572
740.723	12149
740.836	11800
740.949	12185
741.062	12564
741.174	11355
741.287	11055
741.400	11959
741.513	10506
741.626	10415
741.739	10901
741.851	10485
741.964	11417
742.077	11680
742.189	10444
742.302	10905
742.415	10275
742.527	11120
742.640	11424
742.753	10454
742.865	10530
742.978	11152
743.090	10855
743.203	10589
743.316	10159
743.428	10697
743.541	10954
743.653	10591
743.766	10395
743.878	10541
743.990	10430
744.103	11140
744.215	10671
744.327	10071
744.440	11653
744.552	11371
744.664	9874
744.777	9962
744.889	9730
745.001	10974
745.113	10224
745.226	9689
745.338	10651
745.450	10126
745.562	10120
745.674	10193
745.786	9942
745.898	11140
746.010	10506
746.122	10596
746.234	10497
746.347	10149
746.459	10784
746.570	10559
746.682	10071
746.794	11237
746.906	10266
747.018	10880
747.130	10898
747.242	10333
747.354	10270
747.466	10694
747.577	10053
747.689	9629
747.801	10388
747.913	9058
748.024	10100
748.136	9562
748.248	10245
748.359	10500
748.471	11052
748.583	10720
748.694	9804
748.806	12075
748.918	9987
749.029	9966
749.141	10979
749.252	11215
749.364	9962
749.475	10761
749.587	9820
749.698	10381
749.809	9529
749.921	11006
750.032	10577
750.144	9433
750.255	9555
750.366	9655
750.478	10216
750.589	10560
750.700	8810
750.811	10444
750.923	10117
751.034	11009
751.145	11947
751.256	9553
751.367	10014
751.479	10224
751.590	9513
751.701	10126
751.812	8931
751.923	10660
752.034	10390
752.145	10515
752.256	10985
752.367	9394
752.478	10699
752.589	10556
752.700	10356
752.811	10602
752.922	10872
753.032	10741
753.143	10280
753.254	9510
753.365	11868
753.476	11187
753.586	10542
753.697	10166
753.808	10594
753.919	11259
754.029	10211
754.140	10788
754.251	10830
754.361	10605
754.472	11887
754.582	10686
754.693	10564
754.804	11066
754.914	11375
755.025	10659
755.135	11615
755.246	11497
755.356	10391
755.466	11709
755.577	11285
755.687	11788
755.798	11508
755.908	12269
756.018	11101
756.129	11566
756.239	11860
756.349	12871
756.460	12232
756.570	13716
756.680	12326
756.790	12398
756.900	12936
757.011	12828
757.121	12922
757.231	12329
757.341	12284
757.451	13257
757.561	13130
757.671	13378
757.781	14737
757.891	14368
758.001	13973
758.111	13517
758.221	14564
758.331	15402
758.441	15172
758.551	15556
758.661	15010
758.771	15840
758.880	15389
758.990	16186
759.100	15932
759.210	15804
759.320	16611
759.429	17356
759.539	16973
759.649	17557
759.758	18317
759.868	19547
759.978	17820
760.087	20254
760.197	19991
760.307	19966
760.416	20864
760.526	19894
760.635	19909
760.745	21487
760.854	21700
760.964	22460
761.073	23369
761.182	23218
761.292	23642
761.401	23914
761.511	24473
761.620	25099
761.729	24660
761.839	25956
761.948	27560
762.057	28116
762.166	28928
762.276	28628
762.385	29494
762.494	31497
762.603	31639
762.712	34098
762.822	34975
762.931	37325
763.040	37682
763.149	39503
763.258	40229
763.367	44151
763.476	45615
763.585	47872
763.694	49165
763.803	51639
763.912	55686
764.021	59641
764.130	61613
764.238	66937
764.347	72088
764.456	77874
764.565	81957
764.674	89240
764.783	97043
764.891	105097
765.000	119960
765.109	131874
765.217	148023
765.326	169260
765.435	193481
765.543	223400
765.652	259815
765.761	306391
765.869	358319
765.978	420553
766.086	486005
766.195	547658
766.303	582475
766.412	447202
766.520	434547
766.629	522981
766.737	519576
766.846	473777
766.954	414069
767.062	353430
767.171	297310
767.279	250098
767.387	210961
767.496	180911
767.604	157735
767.712	140266
767.820	126304
767.928	116881
768.037	108424
768.145	102606
768.253	98794
768.361	95088
768.469	95799
768.577	96999
768.685	102411
768.793	106739
768.901	116856
769.009	132664
769.117	154897
769.225	186768
769.333	236935
769.441	303812
769.549	397614
769.657	501741
769.765	550952
769.873	418127
769.981	466066
770.088	470707
770.196	403086
770.304	330318
770.412	266709
770.519	217896
770.627	182112
770.735	154600
770.842	131254
770.950	116593
771.058	102164
771.165	91004
771.273	82708
771.380	76651
771.488	71341
771.595	66318
771.703	61400
771.810	57665
771.918	53643
772.025	51452
772.133	48125
772.240	47115
772.348	45576
772.455	42175
772.562	41100
772.670	37842
772.777	37679
772.884	34736
772.991	34235
773.099	34245
773.206	32377
773.313	32021
773.420	29643
773.528	27846
773.635	27026
773.742	28323
773.849	26636
773.956	26284
774.063	24722
774.170	23848
774.277	24696
774.384	23156
774.491	22317
774.598	22196
774.705	21029
774.812	21956
774.919	21962
775.026	21768
775.133	20571
775.239	20452
775.346	19726
775.453	18800
775.560	19540
775.667	19012
775.773	17781
775.880	18189
775.987	17870
776.093	18304
776.200	17971
776.307	15846
776.413	16368
776.520	16908
776.627	17265
776.733	15218
776.840	13954
776.946	16840
777.053	16252
777.159	15349
777.266	14339
777.372	16045
777.478	13980
777.585	14418
777.691	12947
777.798	14103
777.904	14049
778.010	14460
778.117	13290
778.223	13207
778.329	12153
778.435	11901
778.542	12989
778.648	12726
778.754	12017
778.860	12453
778.966	12360
779.072	12052
779.178	12921
779.284	12623
779.391	11747
779.497	12987
779.603	16794
779.708	20211
779.815	37282
779.920	108445
780.026	193425
780.132	52835
780.238	18030
780.344	14735
780.450	13644
780.556	10228
780.661	10584
780.767	11833
780.873	10127
780.979	9713
781.085	10173
781.190	10156
781.296	9751
781.402	9705
781.507	9363
781.613	10281
781.719	9568
781.824	10080
781.930	9184
782.035	9138
782.141	9450
782.246	8201
782.352	8457
782.457	8789
782.563	8224
782.668	8344
782.773	8324
782.879	8098
782.984	8712
783.090	9007
783.195	8862
783.300	9061
783.405	7827
783.511	8667
783.616	7959
783.721	7794
783.826	7974
783.932	7680
784.037	7766
784.142	8099
784.247	7206
784.352	7278
784.457	7389
784.562	7903
784.667	7580
784.772	7699
784.877	6472
784.982	6981
785.087	6658
785.192	7260
785.297	6683
785.402	7439
785.507	6965
785.611	7013
785.716	7195
785.821	6769
785.926	6525
786.031	6357
786.135	5964
786.240	6875
786.345	5783
786.450	5733
786.554	6605
786.659	6776
786.763	5741
786.868	6623
786.973	6385
787.077	6224
787.182	6318
787.286	5533
787.391	6380
787.495	5288
787.600	5199
787.704	5409
787.809	6086
787.913	6066
788.017	5665
788.122	7026
788.226	5923
788.330	5336
788.435	5512
788.539	6194
788.643	5639
788.747	4993
788.852	5623
788.956	4807
789.060	6619
789.164	5756
789.268	4660
789.372	7095
789.476	5104
789.580	5310
789.684	4749
789.788	6018
789.892	4763
789.996	5151
790.100	5541
790.204	4635
790.308	5381
790.412	5314
790.516	5114
790.620	4775
790.724	5971
790.828	5123
790.931	3266
791.035	6257
791.139	5368
791.242	4576
791.346	5241
791.450	4885
791.554	5234
791.657	3422
791.761	5163
791.864	4630
791.968	4695
792.072	5360
792.175	4632
792.279	4412
792.382	4042
792.486	5380
792.589	4429
792.693	4587
792.796	3628
792.899	5246
793.003	4808
793.106	2927
793.209	3860
793.313	5492
793.416	2408
793.519	4776
793.623	5119
793.726	5037
793.829	4411
793.932	4667
794.035	3059
794.138	5824
794.242	5830
794.345	6003
794.448	9163
794.551	17679
794.654	61373
794.757	126018
794.860	31280
794.963	7625
795.066	4809
795.169	6239
795.272	4400
795.375	5141
795.477	3571
795.580	4166
795.683	3188
795.786	5212
795.889	3412
795.991	4523
796.094	4984
796.197	3970
796.300	4779
796.402	3293
796.505	3108
796.608	3278
796.710	4066
796.813	4095
796.915	3133
797.018	3581
797.120	2990
797.223	3098
797.326	4962
797.428	3025
797.530	3528
797.633	3392
797.735	4407
797.838	3828
797.940	4368
798.042	3305
798.145	3307
798.247	5227
798.349	2881
798.452	3882
798.554	3103
798.656	2343
798.758	3995
798.860	3285
798.962	1698
799.065	3061
799.167	2270
799.269	4189
799.371	4174
799.473	4147
799.575	3146
799.677	3571
799.779	3827
799.881	1798
799.983	3977
800.085	3802
800.187	3053
800.289	2706
800.390	3060
800.492	2931
800.594	3559
800.696	3085
800.798	3327
800.899	3340
801.001	2520
801.103	2834
801.205	2422
801.306	2668
801.408	2952
801.509	2695
801.611	2926
801.713	2869
801.814	2152
801.916	3823
802.017	2353
802.119	1806
802.220	3103
802.322	1871
802.423	4618
802.525	1607
802.626	3075
802.727	3592
802.829	3334
802.930	593
803.031	4251
803.133	2121
803.234	2058
803.335	2941
803.436	2599
803.538	2516
803.639	1615
803.740	4197
803.841	2423
803.942	2945
804.043	3190
804.144	2309
804.245	2551
804.346	1858
804.447	1477
804.548	1932
804.649	3313
804.750	2316
804.851	1915
804.952	2674
805.053	2978
805.154	2502
805.255	2854
805.355	1785
805.456	2326
805.557	2120
805.658	1723
805.758	3382
805.859	2577
805.960	2236
806.061	1284
806.161	1900
806.262	3414
806.362	2090
806.463	2009
806.564	2862
806.664	3017
806.765	2141
806.865	2034
806.966	2717
807.066	2170
807.166	3475
807.267	2107
807.367	1701
807.468	3045
807.568	951
807.668	2967
807.769	2430
807.869	2345
807.969	2644
808.069	2008
808.170	1605
808.270	1667
808.370	1867
808.470	2411
808.570	1360
808.670	2598
808.770	2032
808.870	1516
808.970	3090
809.070	1847
809.170	1816
809.271	2288
809.370	1875
809.470	2159
809.570	1735
809.670	1873
809.770	2068
809.870	2651
809.970	2351
810.070	1705
810.169	2281
810.269	-915
810.369	2138
810.469	2714
810.568	1923
810.668	1471
810.768	1913
810.867	1694
810.967	2129
811.066	1567
811.166	1814
811.265	2172
811.365	1352
811.464	1145
811.564	1666
811.663	1408
811.763	1201
811.862	2545
811.962	2383
812.061	1549
812.160	1686
812.260	2034
812.359	2138
812.458	2919
812.557	5961
812.657	8996
812.756	3946
812.855	1884
812.954	1409
813.053	2070
813.153	1622
813.252	979
813.351	1732
813.450	1636
813.549	1945
813.648	1978
813.747	1436
813.846	2443
813.945	1454
814.044	1326
814.143	2597
814.242	1999
814.341	1083
814.439	2108
814.538	2737
814.637	1436
814.736	1951
814.835	2027
814.933	1861
815.032	1482
815.131	3303
815.229	5139
815.328	5998
815.427	4623
815.525	5004
815.624	4227
815.722	3910
815.821	4235
815.919	4558
816.018	3585
816.116	4590
816.215	4377
816.313	5236
816.412	4872
816.510	5411
816.609	5418
816.707	6088
816.805	5702
816.904	4593
817.002	5301
817.100	6127
817.198	5398
817.296	5060
817.395	5741
817.493	5858
817.591	4691
817.689	4433
817.787	4280
817.885	5599
817.983	5880
818.081	8239
818.179	12622
818.277	29387
818.375	28870
818.473	9387
818.571	6361
818.669	5198
818.767	5457
818.865	5292
818.963	4946
819.061	6331
819.158	7574
819.256	13545
819.354	23706
819.452	54841
819.549	39703
819.647	13020
819.745	6738
819.842	5578
819.940	5185
820.038	5678
820.135	4628
820.233	5041
820.330	4618
820.428	4049
820.525	4380
820.623	4337
820.720	3197
820.818	4986
820.915	4287
821.012	4799
821.110	3341
821.207	4614
821.304	3445
821.402	4219
821.499	4238
821.596	3947
821.693	2889
821.791	4782
821.888	3084
821.985	5315
822.082	2980
822.179	4210
822.276	3389
822.373	2096
822.470	3455
822.567	3317
822.664	3486
822.761	3471
822.858	2563
822.955	4016
823.052	3885
823.149	3396
823.246	4098
823.343	2207
823.440	4933
823.536	3490
823.633	3467
823.730	3694
823.827	4173
823.923	4014
824.020	3970
824.117	3056
824.213	2241
824.310	2996
824.407	2235
824.503	4786
824.600	2848
824.696	2628
824.793	3627
824.889	3290
824.986	3267
825.082	2110
825.179	3231
825.275	3935
825.371	3137
825.468	3134
825.564	1924
825.660	2758
825.757	3739
825.853	3381
825.949	2028
826.045	3113
826.142	2799
826.238	3233
826.334	3426
826.430	1704
826.526	3078
826.622	1537
826.718	3177
826.814	3431
826.910	3872
827.006	2248
827.102	2148
827.198	3055
827.294	2422
827.390	2982
827.486	2682
827.582	987
827.678	1230
827.774	3209
827.869	492
827.965	3691
828.061	2085
828.157	3360
828.252	2845
828.348	2141
828.444	2174
828.539	1425
828.635	2748
828.731	2485
828.826	1784
828.922	3127
829.017	2320
829.113	3363
829.208	1348
829.304	1285
829.399	3687
829.495	1976
829.590	2382
829.685	2379
829.781	2443
829.876	1785
829.971	1812
830.066	2015
830.162	1899
830.257	3222
830.352	1623
830.447	2366
830.543	2307
830.638	1810
830.733	3312
830.828	2725
830.923	3448
831.018	1959
831.113	2718
831.208	1601
831.303	1830
831.398	1587
831.493	2951
831.588	3594
831.683	1468
831.778	1192
831.873	1394
831.967	3153
832.062	1444
832.157	1576
832.252	2149
832.346	420
832.441	2037
832.536	1825
832.631	3062
832.725	2303
832.820	1985
832.914	2494
833.009	2123
833.104	2067
833.198	1052
833.293	1457
833.387	2654
833.482	2301
833.576	1315
833.670	2810
833.765	1896
833.859	1561
833.954	1503
834.048	2465
834.142	1559
834.237	810
834.331	2151
834.425	2248
834.519	1526
834.613	2798
834.708	1311
834.802	2044
834.896	1657
834.990	1588
835.084	1611
835.178	1268
835.272	1893
835.366	2236
835.460	2112
835.554	1783
835.648	2277
835.742	672
835.836	1164
835.930	1164
836.024	1130
836.117	2431
836.211	1983
836.305	1733
836.399	2589
836.493	315
836.586	1671
836.680	533
836.774	1308
836.867	1820
836.961	974
837.055	1361
837.148	1906
837.242	2049
837.335	1224
837.429	2207
837.522	817
837.616	1444
837.709	1804
837.803	1886
837.896	2074
837.989	1579
838.083	2361
838.176	2355
838.269	1886
838.363	2005
838.456	723
838.549	1892
838.642	1625
838.735	2724
838.829	2198
838.922	1613
839.015	1180
839.108	457
839.201	1103
839.294	1705
839.387	1002
839.480	943
839.573	1345
839.666	934
839.759	1468
839.852	643
839.945	1525
840.038	1217
840.131	550
840.223	1623
840.316	1576
840.409	1362
840.502	137
840.594	2584
840.687	1295
840.780	1557
840.873	845
840.965	1012
841.058	1443
841.150	2547
841.243	1025
841.336	1983
841.428	370
841.521	414
841.613	851
841.706	1894
841.798	982
841.890	1354
841.983	358
842.075	2697
842.167	1454
842.260	1486
842.352	2344
842.444	1890
842.537	1463
842.629	1948
842.721	1406
842.813	1078
842.905	-88
842.997	1955
843.090	1091
843.182	2060
843.274	960
843.366	4026
843.458	5968
843.550	5953
843.642	1193
843.734	1432
843.826	845
843.918	1721
844.009	1609
844.101	1475
844.193	481
844.285	1676
844.377	1720
844.469	1556
844.560	696
844.652	1148
844.744	1823
844.835	319
844.927	1613
845.019	1179
845.110	802
845.202	1284
845.293	1054
845.385	181
845.476	1191
845.568	859
845.659	1232
845.751	2614
845.842	1037
845.934	330
846.025	800
846.116	216
846.208	1405
846.299	1269
846.390	662
846.482	1121
846.573	1247
846.664	1122
846.755	668
846.846	1235
846.937	-212
847.029	582
847.120	574
847.211	953
847.302	1542
847.393	397
847.484	1058
847.575	831
847.666	630
847.757	179
847.847	689
847.938	1544
848.029	625
848.120	1035
848.211	738
848.302	433
848.392	685
848.483	470
848.574	-241
848.664	880
848.755	1014
848.846	804
848.936	1093
849.027	642
849.118	486
849.208	1279
849.299	1033
849.389	2435
849.480	3042
849.570	6037
849.661	10138
849.751	19207
849.841	8187
849.932	2190
850.022	1319
850.112	1656
850.203	263
850.293	1484
850.383	1011
850.474	920
850.564	971
850.654	1337
850.744	929
850.834	1291
850.924	254
851.014	1836
851.104	747
851.194	912
851.284	520
851.374	959
851.464	772
851.554	658
851.644	1594
851.734	1903
851.824	1451
851.914	3890
852.004	7355
852.094	8091
852.183	2224
852.273	1249
852.363	1028
852.452	995
852.542	716
852.632	786
852.721	626
852.811	454
852.901	1264
852.990	965
853.080	55
853.169	1250
853.259	285
853.348	868
853.438	709
853.527	2042
853.617	1586
853.706	4519
853.795	6780
853.885	16118
853.974	28417
854.063	51344
854.152	82551
854.242	34994
854.331	6124
854.420	2829
854.509	1852
854.598	2440
854.687	1822
854.777	1072
854.866	965
854.955	1453
855.044	368
855.133	958
855.222	115
855.311	487
855.400	780
855.488	603
855.577	-439
855.666	294
855.755	1939
855.844	1798
855.933	1309
856.021	712
856.110	506
856.199	1333
856.288	185
856.376	660
856.465	129
856.554	898
856.642	346
856.731	1030
856.819	584
856.908	465
856.996	1113
857.085	885
857.173	373
857.262	175
857.350	163
857.438	-326
857.527	473
857.615	-460
857.703	1059
857.792	305
857.880	-362
857.968	749
858.056	713
858.145	360
858.233	706
858.321	392
858.409	685
858.497	73
858.585	371
858.673	1155
858.761	417
858.849	225
858.937	-330
859.025	191
859.113	933
859.201	-240
859.289	1225
859.377	443
859.465	557
859.552	519
859.640	-34
859.728	980
859.816	901
859.903	602
859.991	95
860.079	978
860.166	934
860.254	1019
860.342	802
860.429	-531
860.517	90
860.604	812
860.692	727
860.779	914
860.867	262
860.954	1258
861.042	-67
861.129	866
861.216	699
861.304	-118
861.391	428
861.478	380
861.565	254
861.653	939
861.740	387
861.827	-24
861.914	756
862.001	663
862.089	731
862.176	738
862.263	-497
862.350	569
862.437	-224
862.524	64
862.611	461
862.698	1082
862.785	667
862.871	1021
862.958	512
863.045	568
863.132	64
863.219	601
863.306	-327
863.392	1263
863.479	-185
863.566	621
863.652	-24
863.739	526
863.826	620
863.912	448
863.999	-278
864.086	1174
864.172	649
864.259	312
864.345	401
864.432	533
864.518	817
864.604	1416
864.691	616
864.777	558
864.863	1139
864.950	2007
865.036	2182
865.122	4945
865.209	4746
865.295	4505
865.381	4229
865.467	4118
865.553	4138
865.639	4143
865.726	5712
865.812	9846
865.898	17041
865.984	23812
866.070	41668
866.156	49458
866.242	15638
866.328	6930
866.414	4250
866.499	4023
866.585	3482
866.671	3137
866.757	3332
866.843	3797
866.928	2655
867.014	2468
867.100	4118
867.186	3523
867.271	3627
867.357	3450
867.442	2482
867.528	2890
867.614	2795
867.699	2802
867.785	2087
867.870	3058
867.956	2399
868.041	3779
868.127	3355
868.212	2448
868.297	2893
868.383	2397
868.468	2953
868.553	3829
868.639	2322
868.724	2769
868.809	4271
868.894	3216
868.979	2446
869.065	3044
869.150	1946
869.235	2644
869.320	2494
869.405	1779
869.490	2236
869.575	3178
869.660	1186
869.745	2735
869.830	2768
869.915	2588
870.000	2748
870.085	2629
870.169	3051
870.254	3226
870.339	2066
870.424	2128
870.509	2672
870.593	2944
870.678	3545
870.763	2694
870.847	2044
870.932	1873
871.016	2535
871.101	1298
871.186	2265
871.270	2925
871.355	1283
871.439	2072
871.523	2212
871.608	1621
871.692	1503
871.777	2812
871.861	2410
871.945	1343
872.030	2310
872.114	2352
872.198	1888
872.282	985
872.367	911
872.451	2450
872.535	2002
872.619	2020
872.703	1249
872.787	1878
872.871	1824
872.955	1564
873.039	737
873.123	1840
873.207	2590
873.291	1211
873.375	1876
873.459	1674
873.543	1902
873.627	2076
873.711	1180
873.794	1484
873.878	1783
873.962	958
874.045	1558
874.129	1305
874.137	1335
874.213	1638
874.245	1801
874.296	2068
874.352	1001
874.380	481
874.460	1355
874.464	1389
874.547	722
874.568	761
874.631	871
874.676	1071
874.714	1247
874.784	2051
874.798	2211
874.881	2114
874.892	1949
874.965	786
874.999	1025
875.048	1389
875.107	1716
875.131	1826
875.215	1104
875.215	1104
875.298	1245
875.323	1223
875.381	1231
875.430	1396
875.465	1464
875.538	1118
875.548	1076
875.631	342
875.646	493
875.714	1263
875.753	1209
875.798	1086
875.861	1460
875.881	1603
875.964	1135
875.968	1151
876.047	1277
876.076	1369
876.130	1630
876.183	1059
876.213	755
876.291	1954
876.296	2034
876.379	1258
876.398	1307
876.462	1357
876.506	1303
876.545	1294
876.613	851
876.628	756
876.711	629
876.721	708
876.794	1327
876.828	1263
876.877	1181
876.935	1308
876.960	1383
877.043	820
877.043	823
877.125	1232
877.150	1229
877.208	1362
877.258	1053
877.291	792
877.365	102
877.374	43
877.456	1239
877.472	1168
877.539	692
877.579	817
877.622	978
877.687	1358
877.704	1487
877.787	1259
877.794	1240
877.869	816
877.901	802
877.952	915
878.008	698
878.034	528
878.115	635
878.117	641
878.199	750
878.222	873
878.282	1159
878.329	1289
878.364	1397
878.437	1169
878.447	1114
878.529	482
878.544	465
878.611	540
878.651	853
878.694	1271
878.758	1204
878.776	1081
878.858	490
878.865	493
878.941	755
878.972	755
879.023	776
879.078	350
879.105	143
879.185	1305
879.187	1332
879.269	1019
879.292	1008
879.351	602
879.399	442
879.433	379
879.506	318
879.516	338
879.598	779
879.613	690
879.680	161
879.720	434
879.762	800
879.827	921
879.844	898
879.926	604
879.933	535
880.007	185
880.040	435
880.089	729
880.147	726
880.171	741
880.253	1349
880.254	1349
880.335	941
880.360	1080
880.417	1644
880.467	1575
880.499	1499
880.574	1819
880.580	1811
880.662	1127
880.680	932
880.744	489
880.787	479
880.825	483
880.893	262
880.907	227
880.989	-146
881.000	-47
881.070	849
881.106	1191
881.152	1176
881.213	863
881.233	898
881.315	441
881.319	468
881.396	489
881.426	230
881.478	42
881.532	604
881.559	833
881.639	186
881.641	166
881.722	309
881.745	188
881.803	364
881.852	684
881.885	678
881.958	748
881.966	737
882.047	146
882.064	88
882.129	156
882.171	389
882.210	550
882.277	352
882.291	323
882.372	544
882.383	579
882.454	788
882.489	855
882.535	943
882.596	596
882.616	365
882.697	177
882.702	140
882.778	187
882.808	297
882.859	243
882.914	344
882.940	362
883.020	257
883.021	255
883.102	-193
883.127	-98
883.183	355
883.233	244
883.264	23
883.339	385
883.345	420
883.426	134
883.445	243
883.507	430
883.551	398
883.587	394
883.657	377
883.668	473
883.749	1160
883.763	1173
883.830	246
883.869	80
883.910	71
883.975	-57
883.991	92
884.072	545
884.081	649
884.152	416
884.187	-19
884.233	-161
884.292	141
884.314	245
884.394	424
884.398	437
884.475	281
884.504	192
884.555	465
884.610	736
884.636	487
884.716	66
884.716	68
884.797	426
884.821	583
884.877	324
884.927	139
884.958	115
885.033	115
885.038	122
885.118	113
885.139	103
885.199	99
885.244	126
885.279	68
885.350	146
885.359	191
885.439	399
885.456	441
885.520	214
885.561	162
885.600	69
885.667	-267
885.680	-185
885.760	350
885.773	422
885.840	41
885.878	-93
885.920	110
885.984	382
886.000	364
886.080	368
886.089	371
886.160	635
886.195	620
886.240	314
886.300	218
886.320	276
886.400	257
886.406	252
886.480	-191
886.511	-324
886.560	-171
886.616	182
886.640	281
886.720	313
886.722	318
886.800	301
886.827	281
886.879	100
886.932	-76
886.959	91
887.038	592
887.039	585
887.119	-33
887.143	-147
887.198	70
887.248	237
887.278	181
887.354	7
887.358	27
887.437	544
887.459	656
887.517	556
887.564	480
887.596	251
887.669	-348
887.676	-330
887.755	173
887.774	233
887.835	385
887.880	621
887.914	501
887.985	-5
887.994	-14
888.073	153
888.090	172
888.153	335
888.195	437
888.232	220
888.300	-160
888.311	-205
888.391	-503
888.405	-549
888.470	-172
888.510	12
888.549	-27
888.615	31
888.628	47
888.708	87
888.720	99
888.787	137
888.825	147
888.866	-137
888.930	-512
888.945	-419
889.024	68
889.035	136
889.103	-72
889.140	-176
889.182	-27
889.245	225
889.261	242
889.340	312
889.349	324
889.419	290
889.454	278
889.498	219
889.559	164
889.577	89
889.656	-238
889.664	-262
889.735	-492
889.768	-594
889.814	-287
889.873	134
889.978	-286
890.083	140
890.187	491
890.292	71
890.397	228
890.501	-785
890.606	361
890.710	286
890.815	263
890.919	831
891.024	295
891.128	20
891.233	343
891.337	824
891.442	203
891.546	-478
891.650	-421
891.755	554
891.859	1438
891.963	72
892.068	-595
892.172	-384
892.276	110
892.380	-105
892.484	-436
892.589	400
892.693	115
892.797	299
892.901	-17
893.005	215
893.109	597
893.213	-45
893.317	238
893.421	628
893.525	557
893.629	-302
893.733	272
893.837	-190
893.941	72
894.045	334
894.148	-243
894.252	1244
894.356	214
894.460	-3
894.564	271
894.667	-211
894.771	763
894.875	-301
894.978	-581
895.082	-32
895.186	-272
895.289	-281
895.393	639
895.496	671
895.600	-166
895.703	-1288
895.807	-203
895.910	197
896.014	271
896.117	-424
896.221	1039
896.324	-29
896.427	210
896.531	381
896.634	173
896.737	327
896.840	330
896.944	-374
897.047	597
897.150	147
897.253	217
897.356	450
897.460	46
897.563	-753
897.666	490
897.769	-296
897.872	-278
897.975	158
898.078	-277
898.181	-194
898.284	-530
898.387	-56
898.490	-207
898.593	-153
898.695	-619
898.798	-649
898.901	-365
899.004	424
899.107	-278
899.209	-472
899.312	717
899.415	430
899.518	-416
899.620	-314
899.723	24
899.826	447
899.928	365
900.031	593
900.133	-646
900.236	-737
900.338	-470
900.441	-207
900.543	-307
900.646	-238
900.748	-638
900.851	134
900.953	-350
901.055	-571
901.158	359
901.260	-412
901.362	-32
901.465	-356
901.567	-264
901.669	-543
901.771	-195
901.873	-232
901.976	-39
902.078	-326
902.180	-682
902.282	16
902.384	-850
902.486	379
902.588	-128
902.690	-210
902.792	-255
902.894	-621
902.996	-330
903.098	476
903.200	141
903.302	-612
903.404	204
903.505	-395
903.607	-74
903.709	-120
903.811	-129
903.913	16
904.014	-458
904.116	-475
904.218	433
904.319	-48
904.421	181
904.523	168
904.624	447
904.726	-134
904.827	-73
904.929	-687
905.030	-733
905.132	-388
905.233	-547
905.335	-182
905.436	193
905.537	201
905.639	-411
905.740	-151
905.841	-695
905.943	-21
906.044	-329
906.145	-537
906.247	-611
906.348	599
906.449	-490
906.550	-445
906.651	-247
906.752	468
906.854	-262
906.955	432
907.056	-492
907.157	159
907.258	-602
907.359	-144
907.460	-643
907.561	-424
907.662	4
907.762	-655
907.863	-98
907.964	-469
908.065	-203
908.166	121
908.267	-761
908.367	81
908.468	397
908.569	567
908.670	-286
908.770	-379
908.871	423
908.971	3
909.072	106
909.173	-666
909.273	-827
909.374	-150
909.474	-65
909.575	-213
909.675	-297
909.776	227
909.876	229
909.977	-389
910.077	89
910.177	-202
910.278	-405
910.378	-204
910.478	-533
910.579	-791
910.679	-777
910.779	-133
910.879	314
910.980	211
911.080	-569
911.180	-852
911.280	-584
911.380	-436
911.480	-105
911.580	-107
911.680	132
911.780	-577
911.880	64
911.980	105
912.080	-431
912.180	327
912.280	377
912.380	-762
912.480	-511
912.580	-718
912.679	-166
912.779	53
912.879	-88
912.979	-225
913.078	114
913.178	-475
913.278	189
913.377	-495
913.477	258
913.577	-782
913.676	-396
913.776	100
913.875	31
913.975	249
914.074	202
914.174	-554
914.273	-783
914.373	586
914.472	-535
914.572	-274
914.671	-475
914.770	-1098
914.870	279
914.969	-897
915.068	-665
915.167	-418
915.267	-490
915.366	-146
915.465	-295
915.564	-922
915.663	234
915.763	376
915.862	-230
915.961	-417
916.060	-474
916.159	-104
916.258	-443
916.357	-772
916.456	-253
916.555	-679
916.654	230
916.752	-94
916.851	190
916.950	-422
917.049	-406
917.148	-475
917.247	-326
917.345	-436
917.444	-838
917.543	-676
917.642	-1392
917.740	79
917.839	-567
917.937	246
918.036	499
918.135	-836
918.233	-191
918.332	-155
918.430	-711
918.529	-1141
918.627	-158
918.726	-459
918.824	-123
918.923	602
919.021	-340
919.119	-833
919.218	-797
919.316	-6
919.414	-331
919.512	-211
919.611	-704
919.709	225
919.807	-183
919.905	-616
920.003	-166
920.102	-623
920.200	-19
920.298	-532
920.396	506
920.494	-311
920.592	-792
920.690	-515
920.788	230
920.886	-485
920.984	-761
921.082	-451
921.180	784
921.277	-231
921.375	-254
921.473	-365
921.571	-53
921.669	-63
921.766	237
921.864	-159
921.962	-227
922.060	-623
922.157	120
922.255	189
922.352	-474
922.450	1355
922.548	388
922.645	241
922.743	493
922.840	868
922.938	1036
923.035	326
923.133	701
923.230	392
923.327	1252
923.425	593
923.522	630
923.619	856
923.717	-319
923.814	566
923.911	1013
924.008	1291
924.106	1249
924.203	231
924.300	758
924.397	401
924.494	692
924.591	1148
924.688	708
924.786	332
924.883	743
924.979	343
925.077	624
925.173	598
925.270	398
925.367	457
925.464	1103
925.561	-161
925.658	939
925.755	269
925.852	967
925.948	583
926.045	176
926.142	-73
926.239	972
926.335	263
926.432	554
926.529	787
926.625	456
926.722	541
926.818	352
926.915	733
927.011	178
927.108	716
927.204	369
927.301	-156
927.397	1728
927.494	526
927.590	446
927.687	-42
927.783	879
927.879	701
927.976	-7
928.072	413
928.168	562
928.264	-571
928.361	-270
928.457	514
928.553	-534
928.649	68
928.745	574
928.841	88
928.937	730
929.033	-524
929.129	292
929.225	-133
929.321	1231
929.417	297
929.513	-63
929.609	2
929.705	123
929.801	949
929.897	-98
929.993	-270
930.089	-42
930.184	-281
930.280	208
930.376	297
930.471	-220
930.567	165
930.663	0
930.758	-155
930.854	657
930.950	-883
931.045	133
931.141	185
931.236	921
931.332	466
931.427	-490
931.523	-82
931.618	143
931.714	284
931.809	159
931.905	-247
932.000	-271
932.095	-68
932.191	474
932.286	88
932.381	91
932.476	90
932.572	-952
932.667	364
932.762	170
932.857	-130
932.952	475
933.047	-548
933.142	-297
933.237	-233
933.332	-757
933.427	116
933.522	-156
933.617	-58
933.712	-62
933.807	-659
933.902	-142
933.997	-145
934.092	-724
934.187	268
934.282	-400
934.376	-330
934.471	-76
934.566	185
934.661	263
934.755	-468
934.850	271
934.945	-135
935.039	34
935.134	-181
935.228	436
935.323	149
935.417	310
935.512	-688
935.606	-106
935.701	-900
935.795	497
935.890	-258
935.984	165
936.079	-696
936.173	-6
936.267	-567
936.362	-1558
936.456	-37
936.550	-755
936.644	386
936.738	98
936.833	-871
936.927	-323
937.021	-159
937.115	-923
937.209	-785
937.303	242
937.397	314
937.491	-492
937.585	-73
937.679	-88
937.773	29
937.867	-210
937.961	-663
938.055	-290
938.149	196
938.243	-229
938.337	-843
938.430	-827
938.524	118
938.618	559
938.712	-267
938.805	132
938.899	-493
938.993	-302
939.086	-476
939.180	-425
939.274	-403
939.367	-1210
939.461	34
939.554	-412
939.648	-798
939.741	-467
939.835	616
939.928	-272
940.022	504
940.115	-624
940.208	549
940.302	-341
940.395	842
940.488	-1206
940.582	536
940.675	-665
940.768	-611
940.861	-329
940.954	343
941.048	-494
941.141	-919
941.234	-531
941.327	-478
941.420	359
941.513	-448
941.606	-146
941.699	-177
941.792	-178
941.885	-381
941.978	-515
942.071	-800
942.164	-903
942.257	-216
942.349	-128
942.442	-735
942.535	-1086
942.628	-244
942.721	-452
942.813	-666
942.906	-282
942.999	-255
943.091	-718
943.184	-1307
943.277	-713
943.369	-609
943.462	-1013
943.554	-500
943.647	-741
943.739	649
943.832	-1119
943.924	-1010
944.017	-487
944.109	-1227
944.201	-567
944.294	-1086
944.386	-529
944.478	-793
944.571	-355
944.663	-1045
944.755	56
944.847	-841
944.940	-377
945.032	-744
945.124	-439
945.216	104
945.308	-867
945.400	-484
945.492	-779
945.584	-914
945.676	-643
945.768	63
945.860	-46
945.952	-804
946.044	285
946.136	-475
946.228	-12
946.320	-1024
946.412	-583
946.503	-523
946.595	356
946.687	-89
946.779	-426
946.870	-703
946.962	-31
947.054	-633
947.145	507
947.237	-1148
947.329	-904
947.420	-1336
947.512	176
947.603	-524
947.695	-1090
947.786	-1247
947.878	-1113
947.969	-1020
948.061	-985
948.152	-294
948.243	-717
948.335	8
948.426	-1433
948.517	-704
948.609	-603
948.700	-607
948.791	-578
948.882	-54
948.973	-999
949.065	-590
949.156	-201
949.247	-1070
949.338	-524
949.429	-662
949.520	-911
949.611	-1909
949.702	57
949.793	-636
949.884	-22
949.975	-229
950.066	-1403
950.157	-1200
950.247	-792
950.338	-792
950.429	-626
950.520	-652
950.611	-768
950.701	183
950.792	-779
950.883	-542
950.973	-843
951.064	-137
951.155	-1302
951.245	-20
951.336	-107
951.427	-1050
951.517	-868
951.608	-230
951.698	-750
951.788	-410
951.879	-826
951.969	-835
952.060	-440
952.150	-827
952.240	-28
952.331	-2076
952.421	1069
952.511	-1093
952.602	-81
952.692	-632
952.782	-846
952.872	-1219
952.962	-719
953.052	-427
953.143	-1111
953.233	-158
953.323	-617
953.413	-677
953.503	-587
953.593	-604
953.683	-1369
953.773	-1113
953.863	-605
953.953	-796
954.042	-175
954.132	-290
954.222	-330
954.312	-785
954.402	-637
954.492	-834
954.581	-712
954.671	-1060
954.761	-1162
954.850	241
954.940	292
955.030	-384
955.119	-325
955.209	-700
955.298	-1103
955.388	-1311
955.477	-560
955.567	-1448
955.656	-533
955.746	-171
955.835	-1040
955.925	-1084
956.014	-505
956.103	-768
956.193	-903
956.282	-1483
956.371	-404
956.461	-719
956.550	-1296
956.639	-920
956.728	-1123
956.817	-1182
956.906	-957
956.995	-471
957.085	-1173
957.174	-473
957.263	-1784
957.352	-523
957.441	-655
957.530	-384
957.619	-469
957.708	-526
957.796	-417
957.885	-1336
957.974	-785
958.063	-747
958.152	-1326
958.241	-989
958.329	-773
958.418	-975
958.507	-1270
958.596	-521
958.684	-1345
958.773	-841
958.861	-1452
958.950	-891
959.039	-820
959.127	-653
959.216	-98
959.304	-729
959.393	255
959.481	-1701
959.570	-365
959.658	-712
959.746	-596
959.835	-842
959.923	-366
960.011	-1059
960.100	-673
960.188	-517
960.276	-1185
960.365	-1298
960.453	-972
960.541	-1671
960.629	-797
960.717	-1020
960.805	-1968
960.893	-453
960.981	-2038
961.069	-114
961.158	-1508
961.245	160
961.333	-843
961.421	-2092
961.509	-839
961.597	-502
961.685	-1248
961.773	-990
961.861	-1763
961.949	-246
962.036	-1464
962.124	-390
962.212	-1725
962.299	-1070
962.387	-1376
962.475	-913
962.562	-1020
962.650	-215
962.738	-688
962.825	-1679
962.913	-713
963.000	-1037
963.088	-1334
963.175	-377
963.263	-906
963.350	-1233
963.438	-1634
963.525	-1294
963.612	-997
963.700	-1014
963.787	916
963.874	-543
963.962	-1409
964.049	-818
964.136	-1810
964.223	-1517
964.310	-663
964.398	-1293
964.485	-1115
964.572	-1484
964.659	-668
964.746	-1828
964.833	-1107
964.920	-1276
965.007	-1456
965.094	-1173
965.181	-920
965.268	-1560
965.355	-1194
965.441	-1889
965.528	-1295
965.615	-843
965.702	-1255
965.789	-2061
965.875	-998
965.962	-1903
966.049	-1754
966.136	-327
966.222	-78
966.309	-960
966.395	-1063
966.482	-454
966.569	-2146
966.655	-1112
966.742	-1196
966.828	-1499
966.915	-1749
967.001	-1303
967.087	-2551
967.174	-1683
967.260	-1078
967.347	-836
967.433	-1804
967.519	-290
967.605	-503
967.692	-1193
967.778	-1436
967.864	-2407
967.950	-1994
968.036	-1542
968.123	-1162
968.209	-943
968.295	-1893
968.381	-699
968.467	-751
968.553	-2372
968.639	-225
968.725	-2268
968.811	-1732
968.897	-1028
968.983	-1809
969.069	-1419
969.154	-626
969.240	-1140
969.326	-1174
969.412	-1583
969.497	-1876
969.583	-1686
969.669	-793
969.755	-1335
969.840	-1522
969.926	-1661
970.012	-1516
970.097	-844
970.183	-1400
970.268	-1304
970.354	-699
970.439	-2466
970.525	-991
970.610	-1932
970.696	-835
970.781	-1200
970.866	-1850
970.952	-1056
971.037	-1645
971.122	-1612
971.208	-1546
971.293	-1360
971.378	-2359
971.463	-1813
971.549	-1347
971.634	-1876
971.719	-1073
971.804	-1447
971.889	-782
971.974	-2469
972.059	-1772
972.144	-909
972.229	-1486
972.314	-1947
972.399	-1052
972.484	-2132
972.569	-1324
972.654	-2070
972.739	-969
972.824	-1206
972.908	-1406
972.993	-2183
973.078	-943
973.163	-1956
973.247	-1674
973.332	-2280
973.417	-584
973.501	-2334
973.586	-1041
973.671	-2229
973.755	-1231
973.840	-1759
973.924	-1382
974.009	-1360
974.093	-880
974.178	-1096
974.262	-1030
974.346	-1949
974.431	-858
974.515	-1819
974.600	-1268
974.684	-1547
974.768	-2377
974.852	-5
974.937	-2322
975.021	-1559
975.105	-2014
975.189	-1258
975.273	-2231
975.358	-2565
975.442	-2800
975.526	-1560
975.610	-2318
975.694	-2083
975.778	-618
975.862	-1150
975.946	-2916
976.030	-139
976.114	-1851
976.198	-1790
976.281	-1555
976.365	-734
976.449	-1344
976.533	-680
976.617	-1965
976.700	-1664
976.784	-2114
976.868	-1663
976.951	-1988
977.035	-1595
977.119	-1739
977.202	-1564
977.286	-801
977.369	-1982
977.453	-1042
977.536	-1774
977.620	-1995
977.703	-821
977.787	-2216
977.870	-1126
977.953	-1448
978.037	-2471
978.120	-1655
978.203	-2236
978.287	-1145
978.370	-1222
978.453	-2044
978.536	-1815
978.620	-1095
978.703	-1385
978.786	-2071
978.869	-2400
978.952	-2689
979.035	-119
979.118	-1281
979.201	-2010
979.284	-1229
979.367	-1530
979.450	-946
979.533	-2088
979.616	-2001
979.699	-1556
979.782	-1442
979.865	-1648
979.948	-2122
980.030	-1793
980.113	-1121
980.196	-1484
980.279	-1211
980.361	-1525
980.444	-1804
980.526	-1404
980.609	-1449
980.692	-1220
980.774	-1479
980.857	-2949
980.939	-240
981.022	-1818
981.104	-2045
981.187	-2002
981.269	-1607
981.352	-1452
981.434	-2142
981.516	-2467
981.599	-765
981.681	-1888
981.763	-1431
981.846	-1452
981.928	-1610
982.010	-2073
982.092	-2323
982.174	-435
982.256	-2061
982.339	-1982
982.421	-2141
982.503	-1115
982.585	-1972
982.667	-1203
982.749	-1817
982.831	-1396
982.913	-2233
982.995	-1363
983.077	-2180
983.158	-1170
983.240	-1707
983.322	-1297
983.404	-1100
983.486	-2437
983.568	-721
983.649	-1584
983.731	-723
983.813	-1593
983.894	-1112
983.976	-1516
984.058	-2123
984.139	-702
984.221	-2713
984.302	-733
984.384	-1423
984.465	-1171
984.547	-983
984.628	-1695
984.710	-1031
984.791	-1403
984.872	-1123
984.954	-1180
985.035	-1015
985.116	-2464
985.198	-1215
985.279	-1129
985.360	-1549
985.441	-1693
985.522	-1179
985.604	-1575
985.685	-3173
985.766	-638
985.847	-209
985.928	-2683
986.009	-914
986.090	-1545
986.171	-58
986.252	-1867
986.333	-1355
986.414	-1001
986.495	-1701
986.576	-1511
986.656	-1389
986.737	-1240
986.818	-1221
986.899	-1696
986.980	-1560
987.060	-983
987.141	-1818
987.222	-787
987.302	-1057
987.383	-781
987.464	-1479
987.544	-1194
987.625	-1319
987.705	-485
987.786	-1487
987.866	-771
987.947	-572
988.027	-1452
988.108	-1501
988.188	-784
988.268	-877
988.349	-1349
988.429	-2151
988.509	-1070
988.589	-1949
988.670	-2806
988.750	139
988.830	-987
988.910	-439
988.990	-1748
989.070	-895
989.151	-612
989.231	-1775
989.311	-208
989.391	-1937
989.471	-1081
989.551	-1400
989.631	-849
989.711	-982
989.791	-1274
989.870	-2331
989.950	-131
990.030	-1526
990.110	-1455
990.190	-978
990.269	-1338
990.349	-723
990.429	-832
990.509	-1008
990.588	-1507
990.668	-942
990.747	-1182
990.827	-1557
990.907	-712
990.986	-1442
991.066	-714
991.145	-2304
991.225	-1645
991.304	-1413
991.383	-103
991.463	-994
991.542	-1011
991.622	-1107
991.701	-1396
991.780	-2573
991.859	-399
991.939	-1062
992.018	-1217
992.097	-329
992.176	-481
992.256	-891
992.335	-1317
992.414	-795
992.493	-1589
992.572	-1199
992.651	-207
992.730	-1593
992.809	-1088
992.888	-1559
992.967	-1176
993.046	-710
993.125	-1856
993.203	-430
993.282	-561
993.361	-1187
993.440	-1019
993.519	-1633
993.597	-1893
993.676	-1437
993.755	21
993.834	-1535
993.912	-2194
993.991	-1021
994.069	-2263
994.148	-1137
994.226	-1531
994.305	-1393
994.384	-1437
994.462	-305
994.540	-1634
994.619	-1175
994.697	-848
994.776	-1319
994.854	-450
994.932	-1711
995.011	-1180
995.089	-1522
995.167	-1656
995.245	-1225
995.324	-2055
995.402	-1201
995.480	-1203
995.558	-1103
995.636	-2146
995.714	-1307
995.792	-301
995.870	-1578
995.948	-1003
996.026	-1487
996.104	-2285
996.182	-187
996.260	-1842
996.338	-901
996.416	-1892
996.494	-1526
996.572	-1422
996.649	-2174
996.727	-2180
996.805	-721
996.883	-1346
996.960	-1198
997.038	-944
997.116	-1042
997.193	-1685
997.271	-1675
997.348	-2132
997.426	-2135
997.504	-1845
997.581	-1439
997.658	-755
997.736	-2131
997.813	-1354
997.891	-485
997.968	-2204
998.046	-1681
998.123	-2262
998.200	-411
998.277	-2326
998.355	-1153
998.432	-1851
998.509	-1662
998.586	-923
998.663	-895
998.741	-1754
998.818	-2063
998.895	-1814
998.972	-742
999.049	-1671
999.126	-1527
999.203	-1815
999.280	-1444
999.357	-2159
999.434	-1273
999.511	-1720
999.587	-571
999.664	-1636
999.741	-1164
999.818	-1310
999.895	-1644
999.971	-1748
1000.048	-1684
1000.125	-979
1000.202	-2375
1000.278	-1159
1000.355	-881
1000.431	-987
1000.508	-1833
1000.584	-1000
1000.661	-961
1000.738	-1739
1000.814	-1028
1000.890	-888
1000.967	-1298
1001.043	-1561
1001.120	-3071
1001.196	-1315
1001.272	-1991
1001.349	-2442
1001.425	-1259
1001.501	-1806
1001.577	-2011
1001.654	-1177
1001.730	-1585
1001.806	-1132
1001.882	-2726
1001.958	-820
1002.034	-2001
1002.110	-801
1002.186	-2313
1002.262	-2452
1002.338	-1767
1002.414	-1395
1002.490	-1329
1002.566	-1506
1002.642	-1738
1002.718	-536
1002.794	-2466
1002.870	-1590
1002.945	-1555
1003.021	-1972
1003.097	-1803
1003.173	-1436
1003.248	-2160
1003.324	-1761
1003.400	-1812
1003.475	-2042
1003.551	-1760
1003.626	-1970
1003.702	-1896
1003.777	-1614
1003.853	-1596
1003.928	-1282
1004.004	-1877
1004.079	-1759
1004.155	-1166
1004.230	-3076
1004.305	-1188
1004.381	-2332
1004.456	-1809
1004.531	-1149
1004.607	-398
1004.682	-1641
1004.757	-1994
1004.832	-1694
1004.907	-1657
1004.982	-1687
1005.057	-1947
1005.133	-2167
1005.208	-776
1005.283	-2107
1005.358	-1891
1005.433	-2181
1005.508	-1335
1005.583	-2607
1005.657	-1688
1005.732	-1534
1005.807	-2521
1005.882	-2394
1005.957	-1856
1006.032	-1331
1006.106	-1500
1006.181	-2350
1006.256	-2309
1006.331	-2565
1006.405	-2716
1006.480	-1877
1006.554	-2333
1006.629	-2236
1006.704	-2560
1006.778	-2465
1006.853	-1784
1006.927	-2997
1007.002	-1731
1007.076	-1618
1007.150	-2265
1007.225	-1983
1007.299	-1490
1007.373	-2148
1007.448	-1309
1007.522	-1289
1007.596	-1155
1007.671	-2303
1007.745	-1433
1007.819	-2133
1007.893	-1739
1007.967	-2650
1008.041	-2997
1008.115	-1303
1008.190	-2853
1008.264	-1601
1008.338	-2036
1008.412	-1765
1008.486	-1999
1008.560	-2448
1008.633	-2759
1008.707	-2677
1008.781	-1423
1008.855	-2473
1008.929	-2085
1009.003	-2566
1009.076	-1963
1009.150	-2166
1009.224	-2496
1009.298	-1305
1009.371	-1957
1009.445	-1887
1009.519	-2027
1009.592	-2522
1009.666	-2897
1009.739	-1743
1009.813	-2868
1009.886	-1341
1009.960	-2776
1010.033	-1425
1010.107	-1141
1010.180	-2789
1010.253	-1621
1010.327	-2813
1010.400	-1942
1010.473	-2129
1010.547	-1165
1010.620	-2080
1010.693	-869
1010.766	-2150
1010.840	-1687
1010.913	-2111
1010.986	-2232
1011.059	-1930
1011.132	-2135
1011.205	-1620
1011.278	-3061
1011.351	-1511
1011.424	-1775
1011.497	-2861
1011.570	-2512
1011.643	-1758
1011.716	-1459
1011.789	-1494
1011.862	-2113
1011.934	-1765
1012.007	-3116
1012.080	-2011
1012.153	-1769
1012.225	-1599
1012.298	-2767
1012.371	-2994
1012.443	-1954
1012.516	-2287
1012.588	-2509
1012.661	-2004
1012.733	-2213
1012.806	-1065
1012.879	-2456
1012.951	-2665
1013.023	-2446
1013.096	-1417
1013.168	-2256
1013.241	-1804
1013.313	-2253
1013.385	-2507
1013.458	-2720
1013.530	-1717
1013.602	-2367
1013.674	-1731
1013.746	-3385
1013.819	-3156
1013.891	-2185
1013.963	-2016
1014.035	-1804
1014.107	-1921
1014.179	-2048
1014.251	-2279
1014.323	-2457
1014.395	-2473
1014.467	-2327
1014.539	-2951
1014.611	-2714
1014.683	-2246
1014.754	-2840
1014.826	-2091
1014.898	-2187
1014.970	-2544
1015.042	-1719
1015.113	-1851
1015.185	-2205
1015.257	-2604
1015.328	-1595
1015.400	-2492
1015.471	-2471
1015.543	-2044
1015.615	-1351
1015.686	-2343
1015.757	-1865
1015.829	-2114
1015.901	-2153
1015.972	-1672
1016.043	-2125
1016.115	-2093
1016.186	-2152
1016.257	-2380
1016.328	-2144
1016.400	-1654
1016.471	-2566
1016.542	-2105
1016.613	-1905
1016.685	-1831
1016.756	-1496
1016.827	-2324
1016.898	-2771
1016.969	-2212
1017.040	-1736
1017.111	-1990
1017.182	-1930
1017.253	-1341
1017.324	-1946
1017.395	-2512
1017.466	-1203
1017.537	-2274
1017.608	-2074
1017.678	-1805
1017.749	-2345
1017.820	-2378
1017.891	-2792
1017.961	-2077
1018.032	-2039
1018.103	-1698
1018.173	-2172
1018.244	-2924
1018.315	-2482
1018.385	-2284
1018.456	-2457
1018.526	-1973
1018.597	-1649
1018.667	-1866
1018.738	-2689
1018.808	-2102
1018.878	-1707
1018.949	-2147
1019.019	-2601
1019.089	-2999
1019.160	-1917
1019.230	-3177
1019.300	-2114
1019.371	-2699
1019.441	-1686
1019.511	-2049
1019.581	-1934
1019.651	-2517
1019.721	-1926
1019.791	-2708
1019.861	-2259
1019.931	-1343
1020.001	-2084
1020.071	-2732
1020.141	-2830
1020.211	-2230
1020.281	-2743
1020.351	-3008
1020.421	-2592
1020.491	-1993
1020.560	-2676
1020.630	-1459
1020.700	-1897
1020.770	-2085
1020.839	-1812
1020.909	-1921
1020.979	-2216
1021.048	-2768
1021.118	-2352
1021.187	-2744
1021.257	-2174
1021.326	-1545
1021.396	-2421
1021.465	-2224
1021.535	-2713
1021.604	-3090
1021.674	-2340
1021.743	-1825
1021.812	-2580
1021.882	-2703
1021.951	-1713
1022.020	-2139
1022.089	-1797
1022.159	-3084
1022.228	-2003
1022.297	-1906
1022.366	-3086
1022.435	-2981
1022.504	-2320
1022.573	-2333
1022.642	-2102
1022.711	-2513
1022.781	-1293
1022.849	-1520
1022.918	-2704
1022.987	-1855
1023.056	-2369
1023.125	-2118
1023.194	-2355
1023.263	-1693
1023.331	-1267
1023.400	-2612
1023.469	-2411
1023.538	-1332
1023.606	-2491
1023.675	-2524
1023.744	-2261
1023.812	-3086
1023.881	-2205
1023.949	-2413
1024.018	-2567
1024.086	-2018
1024.155	-2422
1024.223	-1936
1024.292	-2445
1024.360	-1325
1024.429	-2082
1024.497	-2437
1024.565	-1580
1024.634	-1801
1024.702	-2107
1024.770	-2303
1024.838	-3060
1024.907	-2218
1024.975	-2345
1025.043	-2570
1025.111	-2558
1025.179	-1958
1025.247	-2314
1025.315	-1760
1025.383	-2444
1025.451	-2457
1025.519	-2056
1025.587	-2674
1025.655	-2120
1025.723	-1804
1025.791	-1876
1025.859	-2146
1025.927	-1557
1025.995	-2625
1026.062	-1718
1026.130	-2020
1026.198	-2539
1026.266	-1924
1026.333	-1698
1026.401	-1504
1026.469	-1889
1026.536	-2547
1026.604	-2047
1026.671	-2388
1026.739	-2443
1026.806	-2377
1026.874	-2247
1026.941	-2812
1027.009	-2179
1027.076	-3027
1027.144	-1618
1027.211	-2479
1027.278	-2477
1027.345	-1639
1027.413	-1172
1027.480	-2104
1027.547	-1573
1027.614	-1900
1027.682	-1113
1027.749	-2425
1027.816	-2731
1027.883	-1588
1027.950	-1760
1028.017	-2230
1028.084	-1790
1028.151	-2178
1028.218	-1529
1028.285	-2357
1028.352	-2250
1028.419	-2346
1028.486	-2003
1028.553	-2231
1028.619	-2097
1028.686	-1531
1028.753	-1949
1028.820	-2320
1028.886	-2270
1028.953	-2138
1029.020	-2003
1029.086	-2343
1029.153	-2152
1029.220	-2815
1029.286	-2468
1029.353	-2610
1029.419	-1788
1029.486	-2252
1029.552	-1885
1029.619	-1941
1029.685	-2042
1029.751	-1844
1029.818	-1081
1029.884	-2626
1029.951	-1709
1030.017	-2970
1030.083	-2778
1030.149	-1965
1030.216	-2231
1030.282	-2752
1030.348	-2006
1030.414	-2450
1030.480	-1854
1030.546	-1992
1030.612	-1719
1030.678	-2601
1030.744	-1332
1030.810	-2663
1030.876	-1870
1030.942	-2635
1031.008	-1748
1031.074	-2382
1031.140	-1511
1031.206	-1740
1031.272	-2197
1031.337	-1609
1031.403	-2470
1031.469	-3336
1031.534	-2625
1031.600	-1837
1031.666	-2308
1031.731	-2255
1031.797	-1366
1031.863	-2152
1031.928	-2589
1031.994	-2431
1032.059	-2896
1032.125	-2382
1032.190	-1775
1032.256	-2105
1032.321	-2058
1032.386	-2092
1032.452	-1884
1032.517	-2359
1032.582	-2643
1032.647	-1815
1032.713	-2040
1032.778	-1889
1032.843	-2179
1032.908	-2934
1032.974	-1887
1033.039	-2368
1033.104	-2037
1033.169	-2585
1033.234	-1362
1033.299	-1419
1033.364	-1919
1033.429	-2666
1033.494	-2207
1033.559	-2422
1033.624	-1809
1033.688	-1884
1033.753	-2465
1033.818	-1506
1033.883	-1026
1033.948	-1658
1034.013	-1772
1034.077	-2692
1034.142	-1302
1034.207	-2691
1034.271	-1647
1034.336	-957
1034.400	-1641
1034.465	-1856
1034.530	-1704
1034.594	-1677
1034.658	-1829
1034.723	-2953
1034.787	-2713
1034.852	-2801
1034.916	-2051
1034.981	-2604
1035.045	-1550
1035.109	-2224
1035.173	-1652
1035.238	-1666
1035.302	-2689
1035.366	-2284
1035.430	-1921
1035.495	-2629
1035.559	-1821
1035.623	-2084
1035.687	-1642
1035.751	-2532
1035.815	-2461
1035.879	-3208
1035.943	-1894
1036.007	-2379
1036.071	-2222
1036.135	-1848
1036.198	-2473
1036.262	-2399
1036.326	-2581
1036.390	-2606
1036.454	-1914
1036.517	-2938
1036.581	-2683
1036.645	-2129
1036.709	-2616
1036.772	-2455
1036.836	-2154
1036.900	-1911
1036.963	-2166
1037.026	-2356
1037.090	-2042
1037.154	-2026
1037.217	-2654
1037.280	-3259
1037.344	-2081
1037.407	-3085
1037.471	-2139
1037.534	-2927
1037.597	-2279
1037.661	-2362
1037.724	-2210
1037.787	-2198
1037.850	-3164
1037.913	-2040
1037.977	-1380
1038.040	-2304
1038.103	-1941
1038.166	-2551
1038.229	-1496
1038.292	-2720
1038.355	-1970
1038.418	-2313
1038.481	-2060
1038.544	-2227
1038.607	-1889
1038.670	-1986
1038.732	-3468
1038.795	-3014
1038.858	-2299
1038.921	-2405
1038.984	-1525
1039.046	-1726
1039.109	-2560
1039.172	-2534
1039.234	-2137
1039.297	-2543
1039.360	-2817
1039.422	-2387
1039.485	-2752
1039.547	-2584
1039.610	-2203
1039.672	-2114
1039.734	-2660
1039.797	-2812
1039.859	-1909
1039.922	-2390
1039.984	-2161
1040.046	-2613
1040.109	-2496
1040.171	-2796
1040.233	-2374
1040.295	-2322
1040.358	-2970
1040.420	-2596
1040.482	-2558
1040.544	-2728
1040.606	-1822
1040.668	-2828
1040.730	-2114
1040.792	-2607
1040.854	-1898
1040.916	-2362
1040.978	-2343
1041.040	-2499
1041.102	-2309
1041.164	-2058
1041.225	-2664
1041.287	-2701
1041.349	-2522
1041.411	-2311
1041.472	-2389
1041.534	-2588
1041.596	-2930
1041.657	-2409
1041.719	-1465
1041.781	-1987
1041.842	-2877
1041.904	-2723
1041.965	-2229
1042.027	-2531
1042.088	-2131
1042.150	-1820
1042.211	-1947
1042.272	-2039
1042.334	-2215
1042.395	-2044
1042.456	-2362
1042.518	-2064
1042.579	-2008
1042.640	-1827
1042.701	-1991
1042.763	-2162
1042.824	-1897
1042.885	-2281
1042.946	-2928
1043.007	-2299
1043.068	-2540
1043.129	-2068
1043.190	-3101
1043.251	-2367
1043.312	-2155
1043.373	-1979
1043.434	-1825
1043.495	-2242
1043.556	-1655
1043.616	-2491
1043.677	-2356
1043.738	-3060
1043.799	-2296
1043.859	-2580
1043.920	-2533
1043.981	-2436
1044.041	-2752
1044.102	-2211
1044.162	-2563
1044.223	-2741
1044.284	-2217
1044.344	-3223
1044.405	-2684
1044.465	-2571
1044.525	-1859
1044.586	-2550
1044.646	-2026
1044.707	-2617
1044.767	-2699
1044.827	-3426
1044.887	-2425
1044.948	-2495
1045.008	-2285
1045.068	-2276
1045.128	-1588
1045.188	-2041
1045.249	-2204
1045.309	-2323
1045.369	-2781
1045.429	-2431
1045.489	-2124
1045.549	-2390
1045.609	-2221
1045.669	-3401
1045.729	-2062
1045.789	-2681
1045.848	-2301
1045.908	-1989
1045.968	-1990
1046.028	-2071
1046.088	-1762
1046.147	-1817
1046.207	-2573
1046.267	-2351
1046.326	-1906
1046.386	-1996
1046.446	-1070
1046.505	-2925
1046.565	-1769
1046.624	-1756
1046.684	-1255
1046.743	-1652
1046.803	-1176
1046.862	-798
1046.922	0
