'Start Wavelength	183.907
'End Wavelength	1046.922
'Gate Delay	5.000
'Gate Width (ms)	1.050
'Laser Output Level	0.000
'X Position	0.000
'Y Position	0.000
'Z Position	0.000
'Grid Point Number	1.000
'Shot Number	100.000
183.907	338.000
183.977	-266.000
184.047	298
184.116	565
184.186	658
184.256	-89
184.325	96
184.395	-1361
184.465	-169
184.534	-345
184.604	-85
184.674	-950
184.743	-300
184.813	-490
184.883	459
184.952	-181
185.022	670
185.092	4
185.161	87
185.231	-4
185.301	-125
185.370	197
185.440	63
185.509	-591
185.579	44
185.649	-75
185.718	652
185.788	-367
185.857	-25
185.927	-177
185.996	-18
186.066	-69
186.136	472
186.205	-383
186.275	-281
186.344	-1197
186.414	133
186.483	-517
186.553	1134
186.622	-317
186.692	-22
186.761	-516
186.831	-261
186.900	-576
186.970	471
187.039	178
187.109	571
187.178	54
187.248	-13
187.317	-1243
187.387	-428
187.456	-317
187.526	613
187.595	-282
187.664	-327
187.734	289
187.803	-360
187.873	339
187.942	128
188.012	314
188.081	5
188.150	352
188.220	427
188.289	202
188.358	16
188.428	-480
188.497	-531
188.567	661
188.636	-241
188.705	-131
188.775	-9
188.844	-410
188.913	782
188.983	-752
189.052	302
189.121	-140
189.191	-198
189.260	60
189.329	488
189.399	-730
189.468	159
189.537	-382
189.606	-288
189.676	-302
189.745	-233
189.814	211
189.883	16
189.953	-901
190.022	269
190.091	-403
190.161	-457
190.230	116
190.299	308
190.368	-845
190.437	137
190.507	-425
190.576	26
190.645	-564
190.714	-136
190.783	-176
190.853	580
190.922	-310
190.991	81
191.060	354
191.129	-1434
191.198	-31
191.268	-695
191.337	-149
191.406	498
191.475	-214
191.544	74
191.613	665
191.682	302
191.752	147
191.821	-251
191.890	-502
191.959	381
192.028	51
192.097	349
192.166	279
192.235	-773
192.304	-124
192.373	104
192.442	186
192.511	237
192.580	422
192.650	-486
192.719	-322
192.788	305
192.857	455
192.926	281
192.995	111
193.064	3
193.133	-189
193.202	-900
193.271	-141
193.340	226
193.409	-10
193.478	116
193.547	-382
193.615	453
193.684	262
193.753	-386
193.822	59
193.891	-41
193.960	-739
194.029	-183
194.098	406
194.167	-750
194.236	-267
194.305	31
194.374	-745
194.443	1
194.512	-576
194.580	-516
194.649	118
194.718	509
194.787	-896
194.856	115
194.925	-42
194.994	-167
195.062	84
195.131	17
195.200	-202
195.269	-8
195.338	-236
195.407	415
195.475	-137
195.544	-274
195.613	-569
195.682	109
195.751	-220
195.819	-255
195.888	-401
195.957	674
196.026	-801
196.094	263
196.163	115
196.232	309
196.301	-254
196.369	-89
196.438	-325
196.507	207
196.576	-1281
196.644	-195
196.713	-409
196.782	-52
196.850	-5
196.919	-21
196.988	-109
197.056	-644
197.125	-132
197.194	218
197.262	-320
197.331	-482
197.400	-586
197.468	-196
197.537	-838
197.606	-2
197.674	691
197.743	56
197.812	-269
197.880	132
197.949	8
198.017	83
198.086	194
198.155	560
198.223	-326
198.292	-31
198.360	-1044
198.429	-382
198.497	-833
198.566	-51
198.635	991
198.703	387
198.772	-220
198.840	526
198.909	-478
198.977	80
199.046	58
199.114	152
199.183	-773
199.251	388
199.320	-779
199.388	-313
199.457	-1138
199.525	312
199.594	-282
199.662	172
199.731	-93
199.799	-209
199.867	-306
199.936	410
200.004	-192
200.073	537
200.141	-419
200.210	130
200.278	11
200.346	133
200.415	363
200.483	16
200.552	-518
200.620	-278
200.688	-163
200.757	-202
200.825	-343
200.893	-142
200.962	216
201.030	-299
201.098	-895
201.167	380
201.235	-565
201.303	-501
201.372	-290
201.440	287
201.508	-467
201.577	-299
201.645	-363
201.713	-422
201.781	-272
201.850	170
201.918	-55
201.986	-87
202.055	-229
202.123	45
202.191	-65
202.259	-308
202.327	-549
202.396	1105
202.464	-126
202.532	260
202.600	-173
202.669	-340
202.737	-566
202.805	-186
202.873	-410
202.941	880
203.009	-84
203.078	-791
203.146	-418
203.214	-243
203.282	-491
203.350	537
203.418	-79
203.487	-135
203.555	-305
203.623	20
203.691	430
203.759	-147
203.827	-224
203.895	-348
203.963	-1094
204.031	-727
204.099	-366
204.168	-206
204.236	30
204.304	405
204.372	106
204.440	366
204.508	112
204.576	-771
204.644	-184
204.712	-271
204.780	-474
204.848	155
204.916	-94
204.984	32
205.052	-218
205.120	-601
205.188	-93
205.256	410
205.324	406
205.392	-442
205.460	463
205.528	435
205.596	134
205.664	432
205.732	-241
205.799	-207
205.867	94
205.935	394
206.003	67
206.071	-171
206.139	-134
206.207	-59
206.275	-133
206.343	-277
206.411	-353
206.478	132
206.546	-113
206.614	-549
206.682	-501
206.750	-88
206.818	-371
206.885	349
206.953	-1473
207.021	563
207.089	-122
207.157	-367
207.225	-402
207.292	-75
207.360	-778
207.428	-83
207.496	-204
207.563	541
207.631	370
207.699	-600
207.767	-1220
207.834	-105
207.902	-230
207.970	-379
208.038	-230
208.105	494
208.173	95
208.241	-309
208.309	68
208.376	-114
208.444	-303
208.512	-204
208.579	-1285
208.647	324
208.715	253
208.782	155
208.850	-27
208.918	-493
208.985	-615
209.053	317
209.120	209
209.188	34
209.256	-675
209.323	-677
209.391	-734
209.459	1519
209.526	-45
209.594	-826
209.661	-68
209.729	293
209.796	116
209.864	-937
209.932	-1410
209.999	912
210.067	-259
210.134	481
210.202	-411
210.269	464
210.337	-117
210.404	-408
210.472	-18
210.539	296
210.607	-60
210.674	61
210.742	-74
210.809	-652
210.877	-774
210.944	226
211.012	-1178
211.079	498
211.146	-373
211.214	-520
211.281	-834
211.349	775
211.416	13
211.484	160
211.551	-400
211.618	237
211.686	-125
211.753	-413
211.821	-318
211.888	103
211.955	-1026
212.023	103
212.090	-298
212.157	-93
212.225	-240
212.292	310
212.359	161
212.427	620
212.494	24
212.561	48
212.629	371
212.696	-428
212.763	-56
212.831	-774
212.898	331
212.965	-882
213.032	-103
213.100	-270
213.167	-755
213.234	-253
213.301	473
213.369	52
213.436	-393
213.503	-305
213.570	-677
213.638	-961
213.705	-801
213.772	20
213.839	-992
213.906	190
213.973	-446
214.041	-755
214.108	-37
214.175	-222
214.242	-790
214.309	-457
214.376	-341
214.444	46
214.511	-451
214.578	-113
214.645	-741
214.712	312
214.779	-223
214.846	-755
214.913	0
214.980	-148
215.048	-625
215.115	264
215.182	-370
215.249	-183
215.316	-595
215.383	761
215.450	-440
215.517	-757
215.584	53
215.651	-352
215.718	-377
215.785	70
215.852	-983
215.919	366
215.986	-464
216.053	-1064
216.120	-767
216.187	-405
216.254	188
216.321	-294
216.388	-880
216.455	-7
216.522	54
216.589	-252
216.656	-734
216.722	-268
216.789	-11
216.856	97
216.923	-243
216.990	-72
217.057	-68
217.124	-78
217.191	-786
217.258	95
217.324	-55
217.391	83
217.458	-196
217.525	37
217.592	-135
217.659	-93
217.725	-272
217.792	-1183
217.859	415
217.926	-653
217.993	-1286
218.059	418
218.126	-513
218.193	-644
218.260	-425
218.327	-1171
218.393	29
218.460	-335
218.527	-85
218.594	-471
218.660	-1252
218.727	-103
218.794	-1087
218.860	279
218.927	-53
218.994	-562
219.061	-494
219.127	-9
219.194	-1183
219.261	-20
219.327	-1050
219.394	-41
219.461	-1643
219.527	-525
219.594	-246
219.661	-1086
219.727	-1463
219.794	380
219.860	-755
219.927	22
219.994	596
220.060	-224
220.127	669
220.193	-132
220.260	-416
220.326	645
220.393	-126
220.460	1555
220.526	-243
220.593	-212
220.659	1327
220.726	132
220.792	-223
220.859	432
220.925	331
220.992	1823
221.058	1947
221.125	1591
221.191	658
221.258	-442
221.324	-329
221.391	-1401
221.457	-1074
221.524	195
221.590	-45
221.657	-194
221.723	-466
221.789	-54
221.856	-346
221.922	-183
221.989	-746
222.055	-298
222.121	-1304
222.188	395
222.254	-15
222.321	-565
222.387	-665
222.453	4
222.520	-1083
222.586	-4
222.652	-633
222.719	-205
222.785	-520
222.851	-361
222.918	-790
222.984	214
223.050	-1138
223.116	-1970
223.183	-125
223.249	-1035
223.315	-1176
223.382	-99
223.448	-392
223.514	-284
223.580	-527
223.647	-619
223.713	-1191
223.779	169
223.845	-800
223.911	-445
223.978	-1200
224.044	-537
224.110	-367
224.176	-66
224.242	-804
224.309	-768
224.375	51
224.441	-38
224.507	-661
224.573	-990
224.639	153
224.705	-521
224.772	-210
224.838	-346
224.904	-385
224.970	-58
225.036	-982
225.102	-953
225.168	-45
225.234	-78
225.300	-615
225.366	-250
225.432	-313
225.499	-353
225.565	-1098
225.631	-614
225.697	-463
225.763	-177
225.829	-1033
225.895	-390
225.961	-39
226.027	233
226.093	-287
226.159	1060
226.225	424
226.291	857
226.357	1764
226.423	602
226.489	-1350
226.554	500
226.620	-885
226.686	-376
226.752	-146
226.818	877
226.884	2597
226.950	2212
227.016	164
227.082	357
227.148	-26
227.214	135
227.279	-509
227.345	-467
227.411	-604
227.477	-282
227.543	243
227.609	663
227.674	9
227.740	-426
227.806	-822
227.872	-282
227.938	-565
228.003	-102
228.069	-1199
228.135	-478
228.201	-944
228.267	-204
228.332	-1449
228.398	-1160
228.464	-809
228.530	-706
228.595	-570
228.661	-1355
228.727	-1094
228.792	1007
228.858	-1315
228.924	-1417
228.990	-210
229.055	-599
229.121	-797
229.187	-295
229.252	-1473
229.318	-1029
229.384	-1061
229.449	-612
229.515	-2423
229.581	-1463
229.646	-20
229.712	-203
229.777	-1515
229.843	-468
229.909	-779
229.974	-85
230.040	-946
230.105	-1278
230.171	-1636
230.236	-347
230.302	-408
230.368	-501
230.433	-895
230.499	-264
230.564	-172
230.630	-693
230.695	-308
230.761	158
230.826	-1644
230.892	161
230.957	-1488
231.023	-890
231.088	-906
231.154	-700
231.219	-414
231.284	-902
231.350	-796
231.415	-1422
231.481	-664
231.546	-975
231.612	-91
231.677	-553
231.742	-1748
231.808	45
231.873	-846
231.939	-2646
232.004	-271
232.069	-380
232.135	-1326
232.200	-572
232.265	-247
232.331	-1011
232.396	-498
232.461	-1608
232.527	-1035
232.592	-872
232.657	-1112
232.723	-774
232.788	-1322
232.853	-166
232.918	-1156
232.984	-1501
233.049	-1029
233.114	-1385
233.179	-1199
233.245	-172
233.310	-923
233.375	-914
233.440	-1296
233.506	-856
233.571	-1622
233.636	-127
233.701	-387
233.766	-1005
233.832	-356
233.897	-397
233.962	-2292
234.027	1020
234.092	-292
234.157	-895
234.222	-1018
234.288	-162
234.353	-590
234.418	187
234.483	-19
234.548	-1111
234.613	-1382
234.678	-739
234.743	-1528
234.808	437
234.873	-1712
234.938	523
235.004	-1296
235.069	-11
235.134	-1159
235.199	639
235.264	-1393
235.329	-1798
235.394	-375
235.459	54
235.524	-1749
235.589	-345
235.654	-750
235.719	-1780
235.784	-191
235.849	-411
235.913	-873
235.978	-95
236.043	-817
236.108	-924
236.173	-1741
236.238	-543
236.303	-2131
236.368	-439
236.433	-587
236.498	-407
236.563	-476
236.627	389
236.692	3610
236.757	2845
236.822	-332
236.887	-79
236.952	-223
237.017	-1554
237.081	962
237.146	-919
237.211	1656
237.276	2955
237.341	6409
237.405	2012
237.470	176
237.535	179
237.600	-146
237.664	-290
237.729	-1073
237.794	-966
237.859	448
237.923	-928
237.988	-943
238.053	344
238.118	-1017
238.182	17
238.247	1293
238.312	-1177
238.376	-782
238.441	-1878
238.506	-109
238.570	-852
238.635	324
238.700	-191
238.764	-878
238.829	-18
238.893	-1067
238.958	-438
239.023	-436
239.087	-180
239.152	-62
239.216	-688
239.281	-768
239.346	-991
239.410	-1683
239.475	-646
239.539	1067
239.604	-1032
239.668	159
239.733	508
239.797	191
239.862	1611
239.926	582
239.991	-78
240.055	-808
240.120	-250
240.184	-998
240.249	-1482
240.313	-682
240.378	-986
240.442	-372
240.507	-195
240.571	-800
240.635	-1242
240.700	-696
240.764	71
240.829	-1179
240.893	-1670
240.957	-454
241.022	-635
241.086	-165
241.151	-737
241.215	-1839
241.279	100
241.344	-1066
241.408	111
241.472	-2171
241.537	50
241.601	-804
241.665	-1200
241.730	-786
241.794	-140
241.858	-1442
241.922	-329
241.987	-1372
242.051	-708
242.115	-2599
242.179	-459
242.244	-1817
242.308	-206
242.372	-1119
242.436	-1096
242.501	-851
242.565	-1505
242.629	-1268
242.693	-401
242.757	-2143
242.822	-1012
242.886	-357
242.950	-128
243.014	-1215
243.078	69
243.142	-1096
243.206	-664
243.271	-516
243.335	-1769
243.399	-708
243.463	-42
243.527	3250
243.591	-537
243.655	-721
243.719	-623
243.783	-406
243.847	-473
243.911	31
243.975	-554
244.040	-2206
244.104	582
244.168	-928
244.232	-748
244.296	-632
244.360	-409
244.424	-1469
244.488	-366
244.552	-828
244.615	-1921
244.679	-655
244.743	-817
244.807	-1750
244.871	-582
244.935	-547
244.999	-1923
245.063	-921
245.127	-127
245.191	-389
245.255	-1142
245.319	-1406
245.383	-1740
245.446	-503
245.510	-1327
245.574	-882
245.638	-280
245.702	-1568
245.766	-243
245.829	-361
245.893	-1584
245.957	-1885
246.021	-660
246.085	-1463
246.149	-697
246.212	-177
246.276	-413
246.340	-928
246.404	-1015
246.467	-961
246.531	-2048
246.595	-136
246.659	495
246.722	-1687
246.786	53
246.850	-847
246.913	-683
246.977	-1924
247.041	-669
247.104	-1279
247.168	-217
247.232	-225
247.295	280
247.359	-790
247.423	-553
247.486	-253
247.550	-210
247.614	-1305
247.677	-568
247.741	-661
247.804	-576
247.868	-892
247.932	-576
247.995	1265
248.059	-306
248.122	-2105
248.186	-313
248.249	-128
248.313	1496
248.376	1751
248.440	202
248.503	-1880
248.567	1475
248.630	-1244
248.694	-263
248.757	357
248.821	1854
248.884	1217
248.948	-590
249.011	1116
249.075	2245
249.138	1557
249.202	-337
249.265	-932
249.328	-513
249.392	-1739
249.455	-44
249.519	-455
249.582	-546
249.645	-78
249.709	-997
249.772	-1096
249.835	-786
249.899	-768
249.962	114
250.025	-836
250.089	-335
250.152	952
250.215	680
250.279	-276
250.342	553
250.405	-392
250.468	-1230
250.532	-853
250.595	437
250.658	1941
250.721	6148
250.785	184
250.848	1152
250.911	-1330
250.974	141
251.038	-918
251.101	1296
251.164	-1120
251.227	-264
251.290	-1045
251.354	772
251.417	3998
251.480	4573
251.543	2106
251.606	10090
251.669	6207
251.732	1457
251.795	272
251.859	1950
251.922	5380
251.985	3683
252.048	641
252.111	277
252.174	-617
252.237	629
252.300	1814
252.363	2081
252.426	8116
252.489	922
252.552	-83
252.615	-114
252.678	497
252.741	1748
252.804	1302
252.867	8648
252.930	2950
252.993	338
253.056	-364
253.119	-143
253.182	-1412
253.245	-253
253.308	85
253.371	-867
253.434	-373
253.497	325
253.559	958
253.622	-478
253.685	-279
253.748	-140
253.811	-821
253.874	-56
253.937	-1700
254.000	-108
254.062	-357
254.125	487
254.188	246
254.251	-139
254.314	-1096
254.376	-610
254.439	858
254.502	279
254.565	-152
254.628	1223
254.690	-658
254.753	-475
254.816	-812
254.878	-118
254.941	171
255.004	175
255.067	-934
255.129	-1318
255.192	-801
255.255	-1327
255.317	-698
255.380	-267
255.443	-1423
255.505	-1067
255.568	-2344
255.631	-746
255.693	-29
255.756	-704
255.819	39
255.881	-967
255.944	-958
256.006	-555
256.069	-1361
256.132	-1317
256.194	-1453
256.257	-76
256.319	372
256.382	-1129
256.444	50
256.507	-645
256.569	-1420
256.632	-561
256.694	-1880
256.757	994
256.819	6812
256.882	787
256.944	679
257.007	725
257.069	-1510
257.132	-1502
257.194	75
257.257	-1000
257.319	-1004
257.381	-860
257.444	924
257.506	6705
257.569	8718
257.631	2169
257.693	259
257.756	-236
257.818	-1284
257.880	-195
257.943	-959
258.005	-979
258.067	-335
258.130	-796
258.192	-971
258.254	-617
258.317	-827
258.379	43
258.441	-395
258.503	1765
258.566	-540
258.628	1036
258.690	-2444
258.753	-211
258.815	-446
258.877	-667
258.939	-658
259.001	-547
259.064	-1234
259.126	-1182
259.188	-679
259.250	-632
259.312	-861
259.375	-415
259.437	-622
259.499	211
259.561	-798
259.623	-308
259.685	-1637
259.747	-804
259.809	-32
259.872	1024
259.934	989
259.996	1281
260.058	227
260.120	-895
260.182	-638
260.244	-1171
260.306	-1275
260.368	-105
260.430	-2139
260.492	-284
260.554	452
260.616	-1374
260.678	203
260.740	736
260.802	-448
260.864	-48
260.926	-2045
260.988	206
261.050	-846
261.112	-296
261.174	322
261.236	183
261.298	217
261.359	-217
261.421	-223
261.483	-1770
261.545	-7
261.607	-1194
261.669	-1430
261.731	-361
261.793	-360
261.854	-1815
261.916	-369
261.978	-703
262.040	-905
262.102	-668
262.164	-1640
262.225	-219
262.287	-213
262.349	-338
262.411	-364
262.472	-51
262.534	-1044
262.596	-1389
262.658	-1229
262.719	-1391
262.781	-584
262.843	-1285
262.904	-1302
262.966	205
263.028	-1188
263.090	502
263.151	2274
263.213	497
263.275	-1128
263.336	-105
263.398	-326
263.459	-1389
263.521	-685
263.583	-180
263.644	-639
263.706	-596
263.767	-1323
263.829	-34
263.891	-1692
263.952	-899
264.014	-1306
264.075	-705
264.137	-287
264.198	498
264.260	-1575
264.321	-823
264.383	-5
264.444	1212
264.506	-813
264.567	-557
264.629	-474
264.690	-533
264.752	89
264.813	125
264.875	-1918
264.936	-134
264.998	-1334
265.059	-1297
265.120	-1195
265.182	-905
265.243	2032
265.305	4152
265.366	-306
265.427	-61
265.489	300
265.550	-1974
265.611	-782
265.673	-328
265.734	-1241
265.795	-135
265.857	-1324
265.918	-704
265.979	-212
266.040	5812
266.102	3562
266.163	1009
266.224	-829
266.286	25
266.347	-1465
266.408	-751
266.469	-1139
266.530	-611
266.592	-1339
266.653	-1685
266.714	-883
266.775	-537
266.836	-1514
266.898	-1180
266.959	-1863
267.020	-594
267.081	-447
267.142	-1011
267.203	-1286
267.264	-1187
267.326	369
267.387	-1290
267.448	-1672
267.509	-441
267.570	-857
267.631	-1659
267.692	-1292
267.753	-848
267.814	-1798
267.875	-162
267.936	-294
267.997	-504
268.058	-1228
268.119	-496
268.180	-1929
268.241	-1131
268.302	-952
268.363	-872
268.424	-935
268.485	-758
268.546	-1604
268.607	-840
268.668	-1206
268.729	-1006
268.790	-1495
268.851	-624
268.912	-203
268.972	31
269.033	-1219
269.094	-1117
269.155	-903
269.216	-1016
269.277	-1040
269.338	-316
269.398	-1140
269.459	-364
269.520	-413
269.581	-787
269.642	-1586
269.702	-1145
269.763	-572
269.824	-984
269.885	-1170
269.945	-273
270.006	-354
270.067	-262
270.128	-1013
270.188	-710
270.249	-1813
270.310	-662
270.370	-1229
270.431	-1576
270.492	-1882
270.553	-777
270.613	-947
270.674	-19
270.734	-1576
270.795	-776
270.856	-775
270.916	-1757
270.977	-1674
271.038	-576
271.098	-867
271.159	-916
271.219	-635
271.280	-1069
271.340	-980
271.401	-1558
271.462	78
271.522	-1004
271.583	-965
271.643	-1153
271.704	-1113
271.764	-1091
271.825	-582
271.885	1760
271.946	1873
272.006	629
272.066	335
272.127	1663
272.187	596
272.248	-141
272.308	-760
272.369	719
272.429	-396
272.489	168
272.550	-1001
272.610	568
272.671	-1606
272.731	-761
272.791	-983
272.852	-294
272.912	-273
272.972	-565
273.033	-1135
273.093	-1486
273.153	77
273.214	-481
273.274	-1088
273.334	421
273.394	1457
273.455	6
273.515	231
273.575	672
273.635	-245
273.696	371
273.756	753
273.816	-374
273.876	-432
273.936	366
273.997	820
274.057	-1232
274.117	-1141
274.177	-622
274.237	1626
274.297	1848
274.358	401
274.418	711
274.478	412
274.538	-860
274.598	-538
274.658	496
274.718	234
274.778	134
274.838	-1494
274.898	-805
274.958	579
275.018	1718
275.078	325
275.138	-441
275.198	-783
275.258	-653
275.318	-746
275.378	-624
275.438	-901
275.498	-576
275.558	108
275.618	1463
275.678	807
275.738	281
275.798	-618
275.858	-347
275.918	-1725
275.978	-540
276.038	-1098
276.098	-710
276.157	-946
276.217	399
276.277	-303
276.337	-646
276.397	-1188
276.457	-382
276.517	-983
276.576	-738
276.636	-1303
276.696	-971
276.756	-422
276.815	-220
276.875	-644
276.935	-798
276.995	-853
277.055	-717
277.114	243
277.174	-756
277.234	834
277.293	-728
277.353	-789
277.413	-185
277.472	-862
277.532	-1343
277.592	-383
277.651	540
277.711	2123
277.771	359
277.830	2965
277.890	2280
277.950	1511
278.009	6726
278.069	2440
278.128	1081
278.188	2283
278.248	-302
278.307	1801
278.367	2135
278.426	-689
278.486	-463
278.545	-1295
278.605	-889
278.664	-595
278.724	-105
278.783	772
278.843	1700
278.902	-438
278.962	-648
279.021	-834
279.081	-458
279.140	-139
279.199	-281
279.259	-1122
279.318	859
279.378	-290
279.437	1168
279.496	3585
279.556	18002
279.615	15416
279.675	2376
279.734	679
279.793	1498
279.853	2686
279.912	1036
279.971	16
280.031	2
280.090	457
280.149	1575
280.208	1183
280.268	12162
280.327	14166
280.386	1730
280.445	225
280.505	695
280.564	-290
280.623	-548
280.682	-661
280.742	1100
280.801	-1464
280.860	-622
280.919	-1178
280.978	-771
281.037	-1287
281.097	-870
281.156	-622
281.215	-1041
281.274	-390
281.333	1098
281.392	387
281.451	-791
281.510	-823
281.569	-1161
281.628	-1041
281.688	-433
281.747	-537
281.806	-321
281.865	-990
281.924	-1181
281.983	-1412
282.042	-940
282.101	-1708
282.160	-1257
282.219	-1246
282.278	-1299
282.337	-583
282.396	-756
282.454	-1535
282.513	-1172
282.572	-16
282.631	-440
282.690	-844
282.749	-1063
282.808	-499
282.867	-1094
282.926	-1206
282.985	-312
283.043	-1124
283.102	-620
283.161	-1285
283.220	-378
283.279	901
283.338	-378
283.396	-1297
283.455	-619
283.514	-852
283.573	-579
283.631	26
283.690	-340
283.749	-1330
283.808	-139
283.866	-168
283.925	-1343
283.984	-1270
284.043	-333
284.101	25
284.160	-972
284.219	97
284.277	-523
284.336	-830
284.395	1438
284.453	1003
284.512	-700
284.570	-761
284.629	-571
284.688	-1009
284.746	208
284.805	-134
284.863	764
284.922	777
284.981	1276
285.039	2541
285.098	4019
285.156	10486
285.215	23111
285.273	22637
285.332	13767
285.390	5770
285.449	3740
285.507	1732
285.566	1040
285.624	580
285.683	-139
285.741	98
285.799	2
285.858	-879
285.916	-858
285.975	-253
286.033	-1097
286.091	-1251
286.150	-623
286.208	-903
286.267	-380
286.325	-647
286.383	-618
286.442	-126
286.500	-542
286.558	-1226
286.616	-823
286.675	-1331
286.733	-561
286.791	-877
286.850	-488
286.908	-1072
286.966	265
287.024	-840
287.083	-826
287.141	-1632
287.199	-134
287.257	-29
287.315	76
287.374	-541
287.432	-416
287.490	-96
287.548	-339
287.606	-634
287.664	-1181
287.723	-508
287.781	23
287.839	-1146
287.897	-357
287.955	-707
288.013	-489
288.071	-128
288.129	6717
288.187	26571
288.245	10834
288.303	2664
288.361	756
288.419	-255
288.477	-296
288.535	-445
288.593	-758
288.651	-901
288.709	-425
288.767	-676
288.825	-1098
288.883	-1060
288.941	-525
288.999	-1295
289.057	-339
289.115	-1823
289.173	-1077
289.231	-322
289.289	-857
289.346	-1287
289.404	-348
289.462	-1336
289.520	-422
289.578	-1595
289.636	-675
289.694	-829
289.751	-900
289.809	-721
289.867	-1437
289.925	513
289.983	-382
290.040	-894
290.098	-417
290.156	-1187
290.214	-703
290.271	-1901
290.329	-581
290.387	-1014
290.444	-1454
290.502	-1969
290.560	-1204
290.617	-1136
290.675	-630
290.733	-1281
290.790	-395
290.848	-981
290.906	-439
290.963	-931
291.021	-841
291.078	-594
291.136	-350
291.194	-1013
291.251	705
291.309	-503
291.366	-1180
291.424	-1107
291.481	-959
291.539	-908
291.596	-142
291.654	-1309
291.711	-553
291.769	-1110
291.826	-484
291.884	-962
291.941	-293
291.999	-581
292.056	-869
292.114	-579
292.171	-860
292.228	-308
292.286	-966
292.343	-861
292.401	-767
292.458	-1374
292.515	-913
292.573	-801
292.630	-1253
292.687	-910
292.745	-550
292.802	-1288
292.859	-771
292.917	1106
292.974	101
293.031	-964
293.089	-1639
293.146	-1791
293.203	-983
293.260	-1135
293.318	-1019
293.375	-52
293.432	-871
293.489	-1177
293.546	-715
293.604	-1479
293.661	89
293.718	2774
293.775	1352
293.832	-96
293.889	-781
293.947	-985
294.004	-1529
294.061	-1689
294.118	21
294.175	1022
294.232	1315
294.289	-457
294.346	-737
294.403	-700
294.460	-1253
294.517	-186
294.574	-178
294.631	-967
294.688	-678
294.745	-482
294.802	3369
294.859	3456
294.916	952
294.973	-337
295.030	-1185
295.087	-1279
295.144	-1123
295.201	-177
295.258	-905
295.315	-280
295.372	246
295.429	2097
295.486	202
295.542	-244
295.599	691
295.656	3101
295.713	1564
295.770	1489
295.827	-98
295.883	-14
295.940	-354
295.997	-814
296.054	-984
296.111	-96
296.167	-556
296.224	-1300
296.281	-1451
296.338	-1179
296.394	-790
296.451	-724
296.508	-428
296.564	943
296.621	337
296.678	2062
296.734	4770
296.791	1346
296.848	258
296.904	-457
296.961	-68
297.018	1770
297.074	1063
297.131	158
297.187	-431
297.244	-250
297.301	2684
297.357	5424
297.414	1414
297.470	424
297.527	-57
297.583	-757
297.640	-586
297.696	-951
297.753	-1059
297.809	-851
297.866	-1115
297.922	-596
297.979	-1463
298.035	-1183
298.092	-70
298.148	571
298.204	900
298.261	-538
298.317	366
298.374	2878
298.430	1205
298.486	-735
298.543	-690
298.599	-1193
298.656	-744
298.712	-68
298.768	1433
298.824	53
298.881	-874
298.937	-1442
298.993	-1368
299.050	-597
299.106	-1122
299.162	-841
299.218	-968
299.275	-1184
299.331	-1290
299.387	56
299.443	3031
299.500	5472
299.556	3325
299.612	-22
299.668	181
299.724	1739
299.780	3362
299.837	-34
299.893	139
299.949	3650
300.005	5282
300.061	2773
300.117	7902
300.173	2813
300.229	211
300.285	-383
300.341	446
300.397	-357
300.453	-957
300.510	-646
300.566	487
300.622	564
300.678	4783
300.734	8424
300.790	3877
300.845	3431
300.901	4293
300.957	5664
301.013	1922
301.069	-121
301.125	-308
301.181	-1202
301.237	-306
301.293	-986
301.349	-730
301.405	-1365
301.461	-680
301.516	-1253
301.572	-1275
301.628	-652
301.684	-852
301.740	-670
301.796	1006
301.851	-213
301.907	1585
301.963	1033
302.019	2283
302.074	9758
302.130	10251
302.186	4787
302.242	995
302.297	-264
302.353	508
302.409	490
302.464	819
302.520	-452
302.576	2286
302.631	3307
302.687	882
302.743	-127
302.798	-346
302.854	-642
302.910	-245
302.965	-259
303.021	-408
303.076	-447
303.132	373
303.187	255
303.243	-326
303.299	-825
303.354	-390
303.410	-1234
303.465	-369
303.521	-775
303.576	115
303.632	-675
303.687	-19
303.743	2384
303.798	1752
303.853	-424
303.909	-522
303.964	-399
304.020	-681
304.075	460
304.130	-216
304.186	443
304.241	1750
304.297	150
304.352	-720
304.358	-667
304.407	-245
304.449	-205
304.463	-190
304.518	-1325
304.539	-1341
304.573	-1366
304.629	-667
304.630	-664
304.684	-586
304.720	141
304.739	517
304.794	3501
304.811	2941
304.850	1556
304.902	149
304.905	59
304.960	-136
304.992	-478
305.015	-719
305.071	-209
305.083	-174
305.126	-103
305.173	-576
305.181	-645
305.236	-1101
305.264	-966
305.292	-846
305.347	-972
305.354	-888
305.402	-309
305.445	-56
305.457	-4
305.512	213
305.535	29
305.567	-213
305.622	38
305.626	77
305.678	1040
305.716	2307
305.733	2672
305.788	3530
305.807	2668
305.843	1358
305.897	2683
305.898	2696
305.953	2410
305.988	1650
306.008	1306
306.063	59
306.078	34
306.118	-53
306.168	-674
306.173	-720
306.228	213
306.259	-79
306.283	-307
306.338	-510
306.349	-449
306.393	-195
306.440	-103
306.448	-87
306.503	316
306.530	347
306.558	399
306.613	575
306.620	647
306.668	1433
306.711	2127
306.723	2148
306.778	2081
306.801	1624
306.833	1129
306.888	139
306.892	107
306.943	-125
306.982	-60
306.997	-11
307.052	-238
307.072	-133
307.107	160
307.162	207
307.163	206
307.217	129
307.253	241
307.272	349
307.327	534
307.343	477
307.381	335
307.434	155
307.436	182
307.491	734
307.524	2058
307.546	2581
307.600	1929
307.614	1856
307.655	1622
307.704	632
307.710	583
307.765	152
307.795	756
307.819	1125
307.874	1791
307.885	1740
307.929	1758
307.975	2501
307.984	2730
308.038	3530
308.065	4306
308.093	7625
308.148	16644
308.156	18889
308.202	29862
308.246	36132
308.257	35381
308.312	19765
308.336	13802
308.366	9756
308.421	5201
308.426	4748
308.475	2310
308.517	2058
308.530	2124
308.585	2014
308.607	1890
308.639	1717
308.694	1454
308.697	1457
308.748	1931
308.787	2665
308.803	2801
308.857	2406
308.877	2209
308.912	2314
308.967	2568
308.967	2570
309.021	4046
309.058	5122
309.076	6544
309.130	11922
309.148	13918
309.185	23186
309.238	40503
309.239	40666
309.293	47668
309.328	44181
309.348	38407
309.402	19374
309.418	14802
309.457	10192
309.508	6244
309.511	6138
309.566	4817
309.598	4544
309.620	5105
309.674	6903
309.688	7411
309.729	7011
309.778	5331
309.783	5217
309.837	4327
309.868	3643
309.892	3670
309.946	4172
309.959	4429
310.001	5965
310.049	7102
310.055	6829
310.109	4070
310.139	2433
310.163	2026
310.218	1493
310.229	1374
310.272	1428
310.319	1643
310.326	1578
310.381	1054
310.409	704
310.435	716
310.489	832
310.499	831
310.543	942
310.589	1272
310.598	1315
310.652	1189
310.679	1117
310.706	975
310.760	957
310.769	930
310.814	952
310.859	847
310.868	885
310.923	1192
310.948	1259
310.977	1100
311.031	857
311.038	824
311.085	809
311.128	683
311.139	742
311.193	1115
311.218	1261
311.247	1465
311.301	1802
311.308	1835
311.356	1463
311.398	1089
311.410	1112
311.464	1195
311.488	1203
311.518	1005
311.572	708
311.578	668
311.626	1252
311.668	1700
311.680	1656
311.734	1450
311.758	1359
311.788	1521
311.842	1777
311.847	1796
311.896	1783
311.937	1774
311.950	1782
312.004	1772
312.027	1767
312.058	1550
312.112	1148
312.117	1107
312.165	1415
312.207	1677
312.297	939
312.386	2103
312.476	1890
312.566	2028
312.656	1641
312.745	1233
312.835	832
312.925	1258
313.015	2071
313.104	2017
313.194	2056
313.284	1863
313.374	2370
313.463	2189
313.553	1806
313.643	1572
313.732	1876
313.822	1700
313.912	2391
314.001	2559
314.091	2664
314.180	2869
314.270	3864
314.360	2476
314.449	1911
314.539	2338
314.628	2594
314.718	2404
314.808	2334
314.897	2664
314.987	3134
315.076	2002
315.166	1822
315.255	3481
315.345	1859
315.434	1748
315.524	2665
315.613	2275
315.703	2863
315.792	4337
315.881	10165
315.971	3788
316.060	3350
316.150	2383
316.239	3065
316.328	2101
316.418	2168
316.507	1673
316.597	2874
316.686	2964
316.775	2540
316.865	2927
316.954	2670
317.043	1785
317.133	1258
317.222	2312
317.311	1341
317.400	741
317.490	2960
317.579	1951
317.668	2029
317.757	2353
317.847	6410
317.936	16634
318.025	6537
318.114	5187
318.203	2715
318.293	2644
318.382	3821
318.471	4491
318.560	5257
318.649	8255
318.738	2827
318.828	2470
318.917	1708
319.006	2144
319.095	3301
319.184	9857
319.273	5388
319.362	3146
319.451	1178
319.540	2071
319.629	2650
319.718	3456
319.807	2155
319.896	3446
319.985	12222
320.074	4434
320.163	1727
320.252	2946
320.341	2536
320.430	2395
320.519	3019
320.608	2047
320.697	2514
320.786	2700
320.875	2785
320.964	3730
321.053	3691
321.142	4188
321.230	5442
321.319	4880
321.408	7473
321.497	4870
321.586	4652
321.675	3939
321.764	4248
321.852	3535
321.941	4414
322.030	3952
322.119	3539
322.207	7317
322.296	5688
322.385	6199
322.474	6591
322.562	9702
322.651	6079
322.740	4832
322.829	4388
322.917	3415
323.006	2983
323.095	4240
323.183	2432
323.272	3834
323.361	3177
323.449	7831
323.538	3760
323.626	4831
323.715	3776
323.804	2474
323.892	3585
323.981	2899
324.069	2470
324.158	3418
324.246	1906
324.335	2403
324.424	2102
324.512	2389
324.601	1712
324.689	2674
324.778	4084
324.866	2279
324.954	1857
325.043	1635
325.131	1207
325.220	3154
325.308	2449
325.397	2924
325.485	2570
325.574	1241
325.662	1443
325.750	2077
325.839	2258
325.927	2080
326.015	1494
326.104	1574
326.192	1715
326.280	1396
326.369	1034
326.457	1552
326.545	2313
326.634	2011
326.722	1887
326.810	1530
326.898	1983
326.987	2830
327.075	2262
327.163	2716
327.251	1918
327.340	2332
327.428	2976
327.516	2747
327.604	2013
327.692	1874
327.781	1935
327.869	2386
327.957	1435
328.045	993
328.133	1825
328.221	2105
328.309	1364
328.397	1796
328.485	1595
328.574	3004
328.662	5565
328.750	3352
328.838	1670
328.926	2530
329.014	1996
329.102	1512
329.190	3296
329.278	2277
329.366	1684
329.454	1370
329.542	2127
329.630	1311
329.718	2148
329.806	1638
329.893	1501
329.981	1029
330.069	1593
330.157	2089
330.245	3309
330.333	2554
330.421	1954
330.509	2143
330.597	4417
330.684	2978
330.772	2014
330.860	1934
330.948	2802
331.036	1871
331.123	1868
331.211	1624
331.299	1952
331.387	2713
331.475	3468
331.562	2228
331.650	1844
331.738	1460
331.825	2676
331.913	1370
332.001	2065
332.089	1583
332.176	1716
332.264	2442
332.352	1931
332.439	2005
332.527	1523
332.614	945
332.702	1951
332.790	2508
332.877	1898
332.965	2952
333.052	2480
333.140	2109
333.228	3321
333.315	1732
333.403	1604
333.490	2489
333.578	2089
333.665	4415
333.753	2738
333.840	1833
333.928	1849
334.015	2462
334.103	5026
334.190	12620
334.278	5742
334.365	6558
334.452	6429
334.540	4277
334.627	3598
334.715	5440
334.802	7777
334.889	15112
334.977	19248
335.064	10416
335.151	5879
335.239	4067
335.326	3663
335.413	8471
335.501	10181
335.588	3878
335.675	4069
335.762	4883
335.850	6240
335.937	8565
336.024	14287
336.111	26470
336.199	21836
336.286	9821
336.373	5495
336.460	3724
336.547	3592
336.635	4016
336.722	3032
336.809	2491
336.896	2222
336.983	5062
337.070	9467
337.157	13736
337.245	5825
337.332	4729
337.419	2224
337.506	2630
337.593	1970
337.680	3471
337.767	9772
337.854	3151
337.941	3084
338.028	2015
338.115	1345
338.202	2915
338.289	2019
338.376	4469
338.463	3081
338.550	5914
338.637	5682
338.724	1872
338.811	2216
338.898	2427
338.984	2556
339.071	1189
339.158	2433
339.245	3299
339.332	2614
339.419	1918
339.506	2055
339.593	1212
339.679	1216
339.766	1824
339.853	2009
339.940	2552
340.027	1816
340.113	1680
340.200	1064
340.287	1451
340.374	1766
340.460	2912
340.547	817
340.634	2834
340.720	4692
340.807	3312
340.894	2196
340.980	1404
341.067	1534
341.154	2650
341.240	1903
341.327	3152
341.414	2080
341.500	1607
341.587	1902
341.674	2278
341.760	2975
341.847	2847
341.933	1722
342.020	1492
342.106	1608
342.193	1044
342.279	1906
342.366	1929
342.452	2720
342.539	1493
342.625	2404
342.712	4494
342.798	2890
342.885	1375
342.971	1482
343.058	1275
343.144	1611
343.230	1981
343.317	1880
343.403	551
343.490	1698
343.576	1391
343.662	1238
343.749	1856
343.835	1228
343.921	2676
344.008	8135
344.094	16951
344.180	5034
344.267	2676
344.353	5608
344.439	5356
344.525	2845
344.612	3911
344.698	3141
344.784	2678
344.870	1232
344.957	792
345.043	2058
345.129	1602
345.215	1829
345.301	1423
345.387	1587
345.474	1436
345.560	1137
345.646	1101
345.732	1215
345.818	1937
345.904	1475
345.990	1444
346.076	1058
346.162	1064
346.249	1687
346.335	1375
346.421	1585
346.507	3038
346.593	6777
346.679	1612
346.765	2385
346.851	2132
346.937	2006
347.023	2107
347.108	1985
347.194	1474
347.280	1321
347.366	2634
347.452	5982
347.538	10661
347.624	8405
347.710	6435
347.796	2160
347.882	1816
347.967	889
348.053	1748
348.139	1599
348.225	902
348.311	841
348.397	1524
348.482	1596
348.568	3140
348.654	1433
348.740	5502
348.825	5876
348.911	3413
348.997	5075
349.083	8479
349.168	2068
349.254	1954
349.340	1562
349.425	861
349.511	2021
349.597	2246
349.682	2163
349.768	5648
349.854	3996
349.939	2417
350.025	1165
350.110	1988
350.196	1385
350.282	1712
350.367	2536
350.453	1740
350.538	1645
350.624	1387
350.709	1124
350.795	2177
350.880	1139
350.966	2086
351.051	2567
351.137	1612
351.222	1409
351.308	2526
351.393	5263
351.479	2055
351.564	1722
351.649	1856
351.735	1616
351.820	817
351.906	1373
351.991	605
352.076	3698
352.162	6290
352.247	1724
352.332	2332
352.418	1619
352.503	2716
352.588	7352
352.673	6049
352.759	1568
352.844	999
352.929	1588
353.014	1442
353.100	2143
353.185	2652
353.270	1057
353.355	2637
353.441	1478
353.526	1658
353.611	2371
353.696	1598
353.781	2339
353.866	610
353.952	2731
354.037	1588
354.122	3359
354.207	3335
354.292	2381
354.377	1403
354.462	2192
354.547	927
354.632	1504
354.717	1968
354.802	2101
354.887	1861
354.972	1804
355.057	761
355.142	935
355.227	1565
355.312	2210
355.397	2416
355.482	4370
355.567	2397
355.652	3281
355.737	3166
355.822	6239
355.907	5146
355.991	2329
356.076	1775
356.161	1557
356.246	1955
356.331	1755
356.416	765
356.501	9869
356.585	8951
356.670	2218
356.755	3530
356.840	1532
356.924	7257
357.009	19456
357.094	8640
357.179	2811
357.263	2292
357.348	2973
357.433	2406
357.517	2909
357.602	1459
357.687	1924
357.771	2936
357.856	4985
357.941	4285
358.025	5811
358.110	21139
358.195	9800
358.279	2459
358.364	2340
358.448	4417
358.533	11579
358.617	8070
358.702	8345
358.787	4390
358.871	2688
358.956	2649
359.040	1238
359.125	1557
359.209	1217
359.294	3006
359.378	4391
359.462	3569
359.547	2188
359.631	1376
359.716	1178
359.800	1810
359.885	2505
359.969	1203
360.053	2193
360.138	1329
360.222	1785
360.306	1950
360.391	3556
360.475	2867
360.559	5186
360.644	4298
360.728	2616
360.812	6799
360.896	14114
360.981	5974
361.065	3268
361.149	3193
361.233	1898
361.318	1511
361.402	1576
361.486	2380
361.570	2109
361.654	2089
361.739	2459
361.823	8948
361.907	14439
361.991	4453
362.075	3284
362.159	4306
362.243	7681
362.327	15045
362.411	26346
362.495	9835
362.580	4993
362.664	4144
362.748	4154
362.832	6703
362.916	13083
363.000	39532
363.084	62980
363.168	32888
363.252	9247
363.336	4875
363.420	5088
363.503	10640
363.587	12237
363.671	3718
363.755	2316
363.839	4295
363.923	3054
364.007	5302
364.091	5956
364.175	8644
364.258	28470
364.342	47179
364.426	83314
364.510	46081
364.594	15755
364.677	8755
364.761	13877
364.845	11059
364.929	4863
365.013	2754
365.096	2997
365.180	2326
365.264	5240
365.347	15998
365.431	7136
365.515	2409
365.598	1012
365.682	3221
365.766	1850
365.849	2995
365.933	2575
366.017	3973
366.100	2050
366.184	1774
366.267	3196
366.351	2916
366.435	1690
366.518	1606
366.602	2130
366.685	2263
366.769	2014
366.852	3314
366.936	2792
367.019	2604
367.103	1524
367.186	4756
367.270	2552
367.353	1280
367.436	2682
367.520	1962
367.603	2977
367.687	2264
367.770	2336
367.853	2900
367.937	5693
368.020	7422
368.104	1779
368.187	3079
368.270	2826
368.353	2363
368.437	1914
368.520	4132
368.603	2684
368.687	4643
368.770	8891
368.853	3315
368.936	3002
369.020	3237
369.103	1510
369.186	637
369.269	1716
369.352	2959
369.436	2531
369.519	2965
369.602	196
369.685	3330
369.768	939
369.851	2519
369.934	1373
370.018	1419
370.101	1812
370.184	4457
370.267	3091
370.350	2329
370.433	2975
370.516	7316
370.599	11355
370.682	3566
370.765	6161
370.848	7059
370.931	9887
371.014	5806
371.097	973
371.180	2460
371.263	2048
371.346	1452
371.429	2417
371.511	2100
371.594	1732
371.677	4020
371.760	4545
371.843	2739
371.926	9331
372.009	18683
372.091	9436
372.174	4932
372.257	11012
372.340	5382
372.423	4598
372.505	5562
372.588	2089
372.671	4397
372.754	9399
372.836	5880
372.919	5326
373.002	9446
373.085	3628
373.167	3868
373.250	5071
373.332	9715
373.415	13116
373.498	23750
373.580	12029
373.663	16612
373.746	19227
373.828	5215
373.911	3941
373.993	3644
374.076	8527
374.159	7725
374.241	4638
374.324	9303
374.406	7187
374.489	8710
374.571	20835
374.654	9320
374.736	5475
374.819	12186
374.901	19280
374.983	18483
375.066	5485
375.148	3908
375.231	8202
375.313	15066
375.395	5762
375.478	3237
375.560	2927
375.643	4163
375.725	4539
375.807	14288
375.890	12744
375.972	2639
376.054	3422
376.136	3689
376.219	2052
376.301	5633
376.383	12858
376.465	5650
376.548	2881
376.630	4536
376.712	11812
376.794	6733
376.877	1575
376.959	1229
377.041	1565
377.123	2596
377.205	2590
377.287	1396
377.369	2215
377.452	2174
377.534	2702
377.616	2230
377.698	1857
377.780	953
377.862	2350
377.944	2504
378.026	679
378.108	2662
378.190	2049
378.272	1615
378.354	1908
378.436	1431
378.518	1394
378.600	3671
378.682	4089
378.764	6674
378.846	5638
378.928	2838
379.010	2597
379.091	3110
379.173	1659
379.255	837
379.337	2328
379.419	2608
379.501	10039
379.583	4034
379.664	1848
379.746	1906
379.828	8188
379.910	8209
379.991	8293
380.073	2079
380.155	1854
380.237	1629
380.318	883
380.400	1346
380.482	2678
380.564	1257
380.645	2265
380.727	2382
380.809	2465
380.890	1553
380.972	629
381.053	2231
381.135	2850
381.217	2388
381.298	8160
381.380	3623
381.461	2872
381.543	10806
381.624	13592
381.706	3166
381.787	2307
381.869	2710
381.951	5059
382.032	17081
382.113	13596
382.195	2183
382.276	4085
382.358	4503
382.439	9765
382.521	11899
382.602	18122
382.684	8307
382.765	14585
382.846	16953
382.928	25663
383.009	15730
383.090	9853
383.172	35662
383.253	53754
383.334	18767
383.416	17289
383.497	10135
383.578	5751
383.659	8997
383.741	31897
383.822	74039
383.903	38726
383.984	13583
384.066	21270
384.147	11910
384.228	5080
384.309	3491
384.390	3603
384.471	3041
384.553	2544
384.634	2304
384.715	3442
384.796	2280
384.877	1938
384.958	7548
385.039	6904
385.120	3593
385.201	2513
385.282	2514
385.363	2868
385.444	2053
385.525	4586
385.606	9119
385.687	8369
385.768	4311
385.849	2819
385.930	10851
386.011	17937
386.092	5696
386.173	2829
386.254	3288
386.335	2643
386.416	2858
386.496	5837
386.577	7763
386.658	3826
386.739	2161
386.820	4298
386.901	2190
386.981	4361
387.062	3535
387.143	3471
387.224	8793
387.304	10108
387.385	7272
387.466	3518
387.547	6230
387.627	4934
387.708	6441
387.789	14392
387.869	14960
387.950	6518
388.031	3578
388.111	1655
388.192	4404
388.273	5083
388.353	3165
388.434	2658
388.514	3529
388.595	10635
388.676	13423
388.756	8320
388.837	7234
388.917	4617
388.998	1491
389.078	2857
389.159	1842
389.239	395
389.320	3887
389.400	1262
389.480	4120
389.561	7394
389.641	5701
389.722	2813
389.802	2945
389.883	5201
389.963	9871
390.043	5495
390.124	1951
390.204	3588
390.284	6983
390.365	4732
390.445	6186
390.525	9081
390.605	8248
390.686	4352
390.766	3570
390.846	3111
390.927	1352
391.007	1362
391.087	2841
391.167	2346
391.247	1638
391.328	2865
391.408	4218
391.488	3789
391.568	1054
391.648	1898
391.728	3587
391.808	3782
391.888	3215
391.969	4967
392.049	7067
392.129	4839
392.209	5007
392.289	10464
392.369	7441
392.449	5440
392.529	5072
392.609	5063
392.689	6513
392.769	11258
392.849	10895
392.929	11148
393.009	17821
393.089	18458
393.169	30803
393.248	73869
393.328	179906
393.408	183638
393.488	77673
393.568	30480
393.648	15332
393.728	10566
393.807	6566
393.887	6590
393.967	6125
394.047	5633
394.127	4867
394.206	8771
394.286	22579
394.366	78550
394.446	84840
394.525	24858
394.605	7719
394.685	5957
394.764	7978
394.844	13243
394.924	13988
395.003	5058
395.083	3851
395.163	3647
395.242	3481
395.322	3570
395.402	2819
395.481	4747
395.561	5081
395.640	17546
395.720	26376
395.799	20253
395.879	14056
395.958	10750
396.038	32393
396.117	100307
396.197	108280
396.276	39739
396.356	15016
396.435	11151
396.515	10533
396.594	11480
396.673	23922
396.753	72482
396.832	165075
396.912	125605
396.991	38832
397.070	15921
397.150	8481
397.229	9220
397.308	15720
397.388	30857
397.467	15842
397.546	5620
397.625	2019
397.705	5030
397.784	4209
397.863	2371
397.942	3477
398.022	3290
398.101	4144
398.180	10407
398.259	6071
398.338	3450
398.417	3032
398.497	2525
398.576	3132
398.655	797
398.734	1857
398.813	1620
398.892	4595
398.971	10952
399.050	5202
399.129	1412
399.208	1999
399.287	2248
399.366	693
399.445	1626
399.524	2024
399.603	184
399.682	2100
399.761	3519
399.840	12034
399.919	9766
399.998	2106
400.077	196
400.156	90
400.235	4004
400.313	1071
400.392	-87
400.471	4155
400.550	5714
400.629	1453
400.708	2303
400.786	1613
400.865	2879
400.944	1782
401.023	3636
401.102	1160
401.180	775
401.259	1459
401.338	1313
401.416	1233
401.495	491
401.574	1823
401.652	820
401.731	2056
401.810	190
401.888	1109
401.967	1210
402.046	1102
402.124	1465
402.203	744
402.281	1245
402.360	803
402.438	3178
402.517	1994
402.596	2008
402.674	832
402.753	1249
402.831	1680
402.910	1779
402.988	1518
403.066	8591
403.145	6799
403.223	3888
403.302	7607
403.380	6645
403.459	6072
403.537	2753
403.615	1736
403.694	412
403.772	2013
403.850	1588
403.929	1361
404.007	829
404.085	2691
404.164	1734
404.242	1756
404.320	4453
404.398	14731
404.477	12775
404.555	16501
404.633	15119
404.711	11448
404.789	7529
404.868	2109
404.946	1384
405.024	797
405.102	1092
405.180	-51
405.258	-476
405.336	1902
405.415	-88
405.493	1873
405.571	1456
405.649	1124
405.727	674
405.805	2246
405.883	1403
405.961	1924
406.039	666
406.117	300
406.195	1669
406.273	1881
406.351	12380
406.429	8860
406.507	1166
406.585	367
406.663	220
406.740	1143
406.818	89
406.896	650
406.974	1475
407.052	725
407.130	7717
407.208	10522
407.285	3442
407.363	441
407.441	923
407.519	781
407.596	1273
407.674	5429
407.752	19856
407.830	17062
407.907	4107
407.985	226
408.063	1458
408.141	440
408.218	1807
408.296	416
408.373	402
408.451	1026
408.529	1562
408.606	923
408.684	1064
408.762	1937
408.839	1301
408.917	1494
408.994	1781
409.072	879
409.149	1585
409.227	3662
409.304	5624
409.382	6739
409.459	6491
409.537	9216
409.614	7276
409.692	5707
409.769	5666
409.846	8684
409.924	11855
410.001	6941
410.079	5610
410.156	4814
410.233	2706
410.311	2056
410.388	1918
410.465	1608
410.543	1988
410.620	2659
410.697	1836
410.775	2425
410.852	721
410.929	3276
411.006	3189
411.083	1795
411.161	2483
411.238	2137
411.315	2033
411.392	1165
411.469	2106
411.547	1151
411.624	322
411.701	964
411.778	1196
411.855	1378
411.932	243
412.009	831
412.086	1732
412.163	817
412.240	890
412.317	1408
412.394	732
412.471	1900
412.548	1144
412.625	927
412.702	618
412.779	1247
412.856	1205
412.933	663
413.010	648
413.087	851
413.164	3051
413.241	4439
413.318	1561
413.395	1681
413.471	1079
413.548	1649
413.625	935
413.702	66
413.779	976
413.855	485
413.932	159
414.009	-75
414.086	699
414.162	1195
414.239	1416
414.316	3298
414.393	7224
414.469	1504
414.546	-108
414.623	650
414.699	553
414.776	537
414.853	-244
414.929	1180
415.006	378
415.082	915
415.159	1026
415.236	151
415.312	1002
415.389	1028
415.465	767
415.542	1107
415.618	-667
415.695	1310
415.771	60
415.848	215
415.924	339
416.000	940
416.077	983
416.153	365
416.230	-250
416.306	827
416.383	113
416.459	1868
416.535	384
416.612	298
416.688	31
416.764	652
416.841	-108
416.917	712
416.993	721
417.069	929
417.146	1056
417.222	1266
417.298	391
417.374	526
417.451	865
417.527	413
417.603	-313
417.679	1339
417.755	822
417.831	-519
417.908	418
417.984	39
418.060	-246
418.136	1231
418.212	345
418.288	802
418.364	857
418.440	-247
418.516	1488
418.592	620
418.668	1065
418.744	1254
418.820	1744
418.896	1406
418.972	118
419.048	1177
419.124	2017
419.200	509
419.276	1143
419.352	525
419.428	853
419.504	579
419.579	1445
419.655	1048
419.731	313
419.807	2408
419.883	2272
419.959	1695
420.034	1974
420.110	1431
420.186	4438
420.262	3908
420.337	1586
420.413	1797
420.489	1218
420.565	3516
420.640	1964
420.716	2302
420.792	1423
420.867	2940
420.943	1206
421.019	2453
421.094	2204
421.170	3807
421.245	2948
421.321	3284
421.397	3590
421.472	7942
421.548	16152
421.623	12091
421.699	5906
421.774	7072
421.850	6005
421.925	8817
422.001	10297
422.076	13426
422.152	15852
422.227	20013
422.302	29013
422.378	40509
422.453	62137
422.529	95911
422.604	116088
422.679	99187
422.755	110904
422.830	103092
422.905	71041
422.981	47625
423.056	33363
423.131	24997
423.207	18734
423.282	15202
423.357	12886
423.432	10305
423.508	9238
423.583	7678
423.658	7461
423.733	6332
423.808	5619
423.883	5525
423.959	5093
424.034	5508
424.109	5316
424.184	4687
424.259	3459
424.334	2721
424.409	2731
424.484	2755
424.559	2644
424.634	2114
424.709	1817
424.784	2583
424.859	1469
424.934	1866
425.009	3257
425.084	5384
425.159	2798
425.234	1701
425.309	962
425.384	2411
425.459	2133
425.534	1709
425.609	987
425.683	920
425.758	1237
425.833	1161
425.908	1819
425.983	1496
426.058	4856
426.132	2535
426.207	1179
426.282	2542
426.357	1622
426.431	1250
426.506	991
426.581	390
426.655	856
426.730	1212
426.805	218
426.879	1443
426.954	26
427.029	898
427.103	5104
427.178	10410
427.253	5050
427.327	1096
427.402	914
427.476	2587
427.551	1053
427.625	692
427.700	901
427.774	1019
427.849	511
427.923	-281
427.998	363
428.072	814
428.147	3357
428.221	13089
428.296	40710
428.370	24152
428.444	3328
428.519	1876
428.593	1874
428.667	1983
428.742	2925
428.816	5633
428.890	25162
428.965	39299
429.039	10384
429.113	2920
429.188	2007
429.262	1311
429.336	1334
429.410	2873
429.485	1989
429.559	2103
429.633	2066
429.707	946
429.781	3688
429.855	23787
429.930	36970
430.004	12168
430.078	11257
430.152	18981
430.226	52234
430.300	53446
430.374	11157
430.448	3828
430.522	4049
430.596	9181
430.670	9951
430.744	32513
430.818	40498
430.892	7418
430.966	1306
431.040	569
431.114	116
431.188	462
431.262	193
431.336	-314
431.410	1375
431.484	1788
431.557	2162
431.631	547
431.705	938
431.779	9510
431.853	38522
431.927	26676
432.000	3608
432.074	1673
432.148	-123
432.222	-259
432.295	123
432.369	-199
432.443	545
432.516	3636
432.590	10585
432.664	3490
432.737	418
432.811	-355
432.885	118
432.958	733
433.032	381
433.106	-56
433.179	126
433.253	-121
433.326	-210
433.400	421
433.473	-71
433.547	-505
433.620	640
433.694	-516
433.767	493
433.841	-496
433.914	260
433.988	327
434.061	284
434.134	-144
434.208	-324
434.281	-82
434.355	-922
434.428	47
434.501	-1094
434.575	-656
434.648	362
434.721	59
434.795	-65
434.868	-487
434.941	-146
435.014	-56
435.088	-132
435.161	-114
435.234	-521
435.307	1284
435.381	838
435.454	1891
435.527	3680
435.600	4637
435.673	3652
435.746	1999
435.819	1377
435.892	1783
435.966	228
436.039	380
436.112	440
436.185	-443
436.258	-641
436.331	-552
436.404	-439
436.477	-202
436.550	-183
436.623	500
436.696	-653
436.769	537
436.842	245
436.915	295
436.987	168
437.060	-185
437.133	-84
437.206	-206
437.279	211
437.352	852
437.425	-596
437.498	226
437.570	1045
437.643	-70
437.716	-45
437.789	-602
437.861	533
437.934	865
438.007	-334
438.080	-506
438.152	139
438.225	462
438.298	5287
438.370	15011
438.443	6077
438.516	375
438.588	699
438.661	293
438.734	129
438.806	-591
438.879	410
438.951	-59
439.024	522
439.096	-826
439.169	-223
439.241	-363
439.314	-151
439.386	2
439.459	-221
439.531	-265
439.604	144
439.676	-112
439.749	-54
439.821	-191
439.893	525
439.966	-893
440.038	-147
440.110	575
440.183	178
440.255	49
440.327	980
440.400	2459
440.472	8333
440.544	5633
440.617	981
440.689	991
440.761	254
440.833	1156
440.905	631
440.978	-454
441.050	-262
441.122	141
441.194	-366
441.266	210
441.338	-175
441.411	750
441.483	3623
441.555	4504
441.627	1646
441.699	453
441.771	351
441.843	279
441.915	-343
441.987	132
442.059	50
442.131	314
442.203	1156
442.275	1385
442.347	3005
442.419	6072
442.491	27928
442.563	63491
442.635	26690
442.706	6879
442.778	3364
442.850	1625
442.922	1104
442.994	1137
443.066	1201
443.137	2178
443.209	2280
443.281	3599
443.353	9179
443.425	32838
443.496	91714
443.568	100180
443.640	42699
443.711	8716
443.783	3324
443.855	2404
443.926	1089
443.998	1229
444.070	989
444.141	181
444.213	1120
444.285	926
444.356	525
444.428	706
444.499	347
444.571	750
444.642	562
444.714	-1
444.785	1261
444.857	969
444.928	1185
445.000	1843
445.071	2823
445.143	3226
445.214	4279
445.285	7303
445.357	19286
445.428	60538
445.500	110521
445.571	91612
445.642	61389
445.714	21179
445.785	7265
445.856	2570
445.928	1978
445.999	1511
446.070	645
446.141	1104
446.213	1220
446.284	199
446.355	371
446.426	534
446.497	546
446.569	471
446.640	418
446.711	664
446.782	-94
446.853	-385
446.924	16
446.995	-218
447.066	-256
447.138	-37
447.209	395
447.280	-967
447.351	-263
447.422	-222
447.493	167
447.564	183
447.635	-349
447.706	-503
447.777	-633
447.847	381
447.918	-135
447.989	-113
448.060	589
448.131	533
448.202	392
448.273	-73
448.344	-265
448.414	448
448.485	-386
448.556	565
448.627	-29
448.698	368
448.768	-503
448.839	-440
448.910	-338
448.981	586
449.051	-150
449.122	-361
449.193	-593
449.263	113
449.334	-580
449.405	-409
449.475	256
449.546	303
449.616	1076
449.687	457
449.758	99
449.828	355
449.899	274
449.969	-823
450.040	-233
450.110	223
450.181	-107
450.251	-501
450.322	48
450.392	72
450.463	388
450.533	422
450.604	-352
450.674	-126
450.744	315
450.815	360
450.885	199
450.955	469
451.026	-231
451.096	-308
451.166	125
451.237	506
451.307	2220
451.377	862
451.447	99
451.518	-929
451.588	-192
451.658	64
451.728	220
451.799	1581
451.869	1733
451.939	26
452.009	-131
452.079	165
452.149	184
452.219	-173
452.289	2067
452.360	491
452.430	445
452.500	335
452.570	1175
452.640	3506
452.710	9086
452.780	10930
452.850	4914
452.920	3190
452.990	595
453.060	384
453.129	484
453.199	-190
453.269	2071
453.339	4510
453.409	6983
453.479	6541
453.549	10442
453.619	10265
453.688	3386
453.758	873
453.828	-490
453.898	124
453.968	-570
454.037	281
454.087	56
454.107	-41
454.168	-13
454.177	-21
454.247	-631
454.249	-618
454.316	-405
454.330	-365
454.386	-270
454.411	130
454.456	769
454.492	1113
454.525	1413
454.574	706
454.595	411
454.655	-617
454.665	-793
454.734	127
454.736	137
454.804	258
454.817	647
454.873	2110
454.898	1970
454.943	1684
454.979	1078
455.013	562
455.060	486
455.082	455
455.141	129
455.152	73
455.221	1508
455.222	1536
455.291	2615
455.303	2803
455.360	3420
455.384	4627
455.430	6328
455.465	4693
455.499	3277
455.546	1718
455.569	995
455.627	1044
455.638	1057
455.707	11
455.708	16
455.777	182
455.789	249
455.846	478
455.869	363
455.916	139
455.950	255
455.985	384
456.031	233
456.054	109
456.112	-204
456.124	-249
456.193	-29
456.193	-36
456.262	649
456.274	630
456.332	370
456.355	370
456.401	471
456.436	555
456.470	558
456.516	289
456.540	133
456.597	-41
456.609	-96
456.678	-171
456.678	-175
456.747	435
456.759	381
456.817	5
456.840	-74
456.886	-244
456.920	-56
456.955	120
457.001	529
457.024	613
457.082	489
457.093	544
457.162	389
457.163	395
457.232	-244
457.243	-146
457.301	373
457.324	166
457.370	-127
457.405	301
457.439	628
457.485	731
457.508	772
457.566	1174
457.577	1341
457.646	1923
457.647	1936
457.715	3583
457.727	4183
457.784	7769
457.808	10866
457.853	14862
457.889	18128
457.922	19394
457.969	11720
457.991	10443
458.050	12203
458.060	12535
458.129	23644
458.130	23975
458.198	27796
458.211	24522
458.267	12354
458.292	8552
458.336	4593
458.372	4166
458.405	5794
458.453	9224
458.474	11722
458.533	22189
458.543	22934
458.611	40492
458.614	40574
458.680	26293
458.694	20531
458.749	7333
458.775	5227
458.818	2606
458.855	1831
458.887	1537
458.936	1413
458.955	1331
459.016	1205
459.024	1179
459.093	1393
459.097	1383
459.162	1021
459.177	966
459.230	779
459.257	803
459.299	1137
459.338	1449
459.368	1389
459.418	1336
459.437	1383
459.499	1016
459.505	960
459.574	1144
459.579	1127
459.643	1147
459.659	1035
459.711	568
459.740	655
459.780	967
459.820	1383
459.849	1337
459.900	1028
459.917	1093
459.981	1195
459.986	1176
460.054	638
460.061	668
460.123	1584
460.141	1768
460.191	2041
460.222	2131
460.260	1969
460.302	1762
460.328	1751
460.382	1853
460.397	1933
460.462	2381
460.465	2473
460.534	4888
460.543	5165
460.602	14272
460.623	18037
460.671	28626
460.703	39495
460.739	37399
460.783	29334
460.808	25011
460.864	5929
460.876	4127
460.944	2158
460.945	2129
461.013	1474
461.024	1439
461.081	1542
461.104	1503
461.150	1276
461.184	1329
461.218	1565
461.264	1694
461.286	1608
461.345	1152
461.355	1086
461.423	1094
461.425	1090
461.491	912
461.505	916
461.559	1596
461.585	1809
461.628	2219
461.665	2984
461.696	3311
461.745	3775
461.764	3494
461.825	1678
461.832	1627
461.901	1059
461.905	1063
461.969	889
461.985	929
462.037	1527
462.065	1615
462.105	1500
462.145	1543
462.173	1684
462.225	1807
462.241	1813
462.305	2299
462.310	2315
462.378	1950
462.385	1914
462.446	1399
462.465	1345
462.514	1689
462.545	1743
462.582	1512
462.625	1425
462.650	1537
462.705	1684
462.718	1644
462.785	1564
462.786	1563
462.854	1234
462.865	1176
462.922	1184
462.945	1315
462.990	1372
463.025	1342
463.058	1344
463.104	925
463.126	778
463.184	1024
463.194	1118
463.262	1341
463.264	1361
463.330	1878
463.344	1911
463.398	1669
463.424	1582
463.466	1290
463.504	1118
463.533	1299
463.583	1567
463.601	1692
463.663	1945
463.669	1899
463.737	1564
463.743	1515
463.805	1948
463.823	2140
463.873	3050
463.903	3559
463.940	3688
463.982	3752
464.008	3128
464.062	2119
464.076	2209
464.142	1849
464.144	1843
464.211	1952
464.221	1965
464.279	1814
464.301	1732
464.347	1661
464.381	1689
464.414	1848
464.461	2211
464.482	2173
464.540	1529
464.550	1507
464.617	1719
464.620	1726
464.685	2379
464.699	2460
464.753	2968
464.779	3319
464.820	3621
464.859	3903
464.888	3587
464.938	3017
464.956	3046
465.018	2965
465.023	2951
465.091	2644
465.098	2620
465.158	2501
465.177	2501
465.226	2795
465.257	2928
465.293	2758
465.336	2540
465.361	2482
465.416	2397
465.428	2524
465.495	3169
465.496	3177
465.563	3628
465.575	3758
465.631	4571
465.654	4893
465.698	4111
465.734	3298
465.765	2859
465.813	2224
465.833	2354
465.893	2788
465.900	2693
465.968	1876
465.972	1812
466.035	1744
466.052	1770
466.102	2015
466.131	2051
466.170	2253
466.210	2531
466.237	2522
466.290	2460
466.304	2490
466.369	2644
466.372	2654
466.439	2841
466.449	2852
466.506	2917
466.528	2979
466.573	3353
466.607	3580
466.641	4570
466.687	5965
466.708	6205
466.766	6845
466.775	6455
466.842	3423
466.845	3274
466.909	2523
466.925	2347
466.977	2684
467.004	2864
467.044	3104
467.083	3341
467.111	3927
467.163	5029
467.178	5035
467.242	5015
467.245	4968
467.312	3879
467.321	3733
467.379	3770
467.400	3775
467.446	4195
467.480	4490
467.559	4103
467.638	3981
467.717	2905
467.796	4323
467.875	4334
467.955	3813
468.034	4449
468.113	8319
468.192	9711
468.271	4958
468.350	5110
468.429	8777
468.508	9756
468.588	6751
468.667	4993
468.746	3456
468.825	4178
468.904	3443
468.983	3063
469.062	4368
469.141	5884
469.220	2538
469.299	3782
469.378	3204
469.456	4786
469.535	4538
469.614	3408
469.693	2728
469.772	4447
469.851	5119
469.930	4227
470.009	3065
470.088	3984
470.166	4522
470.245	4859
470.324	4999
470.403	4229
470.482	3142
470.560	3348
470.639	3154
470.718	4136
470.797	3906
470.875	3996
470.954	2871
471.033	3919
471.111	3646
471.190	2533
471.269	3258
471.347	4105
471.426	2906
471.505	3680
471.583	4535
471.662	3548
471.740	3510
471.819	3254
471.898	2981
471.976	3751
472.055	2721
472.133	3606
472.212	4311
472.290	3336
472.369	2733
472.447	2761
472.526	2546
472.604	3459
472.683	3337
472.761	3020
472.839	2506
472.918	3895
472.996	2581
473.075	3278
473.153	3367
473.231	2973
473.310	3852
473.388	4009
473.466	3116
473.545	3946
473.623	4033
473.701	2976
473.780	3917
473.858	2144
473.936	5046
474.014	2866
474.093	4419
474.171	4423
474.249	4652
474.327	3549
474.405	2308
474.484	3431
474.562	2791
474.640	2671
474.718	3155
474.796	2203
474.874	3118
474.952	3673
475.030	2546
475.108	2689
475.187	2479
475.265	2745
475.343	3884
475.421	4143
475.499	2795
475.577	3014
475.655	3482
475.733	4682
475.811	5865
475.889	4172
475.966	4172
476.044	2193
476.122	2771
476.200	3318
476.278	3322
476.356	2796
476.434	3062
476.512	2469
476.590	3107
476.667	3347
476.745	2741
476.823	3002
476.901	3068
476.979	2562
477.056	3089
477.134	2507
477.212	3580
477.290	3091
477.367	1971
477.445	2402
477.523	2403
477.601	1749
477.678	2374
477.756	2043
477.834	3735
477.911	1881
477.989	2711
478.066	3148
478.144	2916
478.222	2678
478.299	3701
478.377	3088
478.454	2916
478.532	2152
478.609	2285
478.687	2156
478.764	2129
478.842	2172
478.919	1290
478.997	3031
479.074	2396
479.152	2707
479.229	2312
479.307	1197
479.384	2174
479.461	3139
479.539	2110
479.616	1898
479.694	2418
479.771	1980
479.848	2047
479.926	1962
480.003	3805
480.080	1799
480.157	1558
480.235	1600
480.312	2743
480.389	2739
480.467	2585
480.544	2768
480.621	2830
480.698	2721
480.775	3104
480.853	2970
480.930	2513
481.007	2458
481.084	3655
481.161	5016
481.238	3913
481.315	1481
481.392	2807
481.470	2051
481.547	2251
481.624	1819
481.701	1607
481.778	1687
481.855	2762
481.932	2828
482.009	3756
482.086	3134
482.163	2849
482.240	3780
482.317	4425
482.393	2135
482.470	2250
482.547	2275
482.624	2876
482.701	3091
482.778	1893
482.855	2160
482.932	2409
483.009	1811
483.085	4411
483.162	3699
483.239	4894
483.316	2381
483.393	3618
483.469	2563
483.546	2273
483.623	2628
483.699	2033
483.776	2061
483.853	2261
483.930	3071
484.006	4247
484.083	9713
484.160	9134
484.236	15665
484.313	11207
484.389	8804
484.466	8448
484.543	7397
484.619	8022
484.696	9851
484.772	7609
484.849	8227
484.925	6809
485.002	6697
485.078	7509
485.155	6602
485.231	6736
485.308	5811
485.384	5650
485.461	7287
485.537	7857
485.614	8731
485.690	5206
485.766	6597
485.843	5723
485.919	6669
485.995	7172
486.072	5683
486.148	5667
486.224	4799
486.301	5262
486.377	5732
486.453	5644
486.530	6676
486.606	9068
486.682	9465
486.758	7962
486.835	8568
486.911	7213
486.987	9755
487.063	10578
487.139	10428
487.215	10214
487.292	8746
487.368	7073
487.444	8219
487.520	10638
487.596	12840
487.672	26835
487.748	77017
487.824	112426
487.900	29584
487.976	10505
488.052	7346
488.128	7781
488.204	6447
488.280	6296
488.356	6682
488.432	8578
488.508	9631
488.584	5536
488.660	5408
488.736	5560
488.812	4940
488.888	6641
488.964	6841
489.039	8537
489.115	11534
489.191	7528
489.267	5608
489.343	4444
489.418	4622
489.494	4888
489.570	3610
489.646	5628
489.722	4701
489.797	4407
489.873	5553
489.949	8054
490.024	6600
490.100	3839
490.176	4986
490.251	4150
490.327	4901
490.403	4259
490.478	4961
490.554	4037
490.629	4512
490.705	3383
490.781	4182
490.856	3753
490.932	4442
491.007	3502
491.083	4387
491.158	3322
491.234	3571
491.309	6694
491.385	4926
491.460	2627
491.536	3862
491.611	3095
491.686	3632
491.762	4302
491.837	5165
491.913	8194
491.988	9993
492.063	10931
492.139	5252
492.214	3726
492.289	3186
492.365	3458
492.440	3606
492.515	3049
492.590	2574
492.666	2768
492.741	3351
492.816	4302
492.891	2788
492.967	3399
493.042	2487
493.117	2852
493.192	3503
493.267	5679
493.342	14086
493.418	19546
493.493	3999
493.568	2954
493.643	2550
493.718	2646
493.793	2435
493.868	3461
493.943	2502
494.018	3170
494.093	3119
494.168	3683
494.243	2009
494.318	2436
494.393	2629
494.468	2494
494.543	2495
494.618	3080
494.693	2202
494.768	2308
494.842	2071
494.917	2260
494.992	3233
495.067	2463
495.142	2003
495.217	2462
495.292	1531
495.366	859
495.441	2120
495.516	3629
495.591	3223
495.665	8713
495.740	18055
495.815	7227
495.890	2524
495.964	379
496.039	3475
496.114	3239
496.188	5226
496.263	4873
496.338	2243
496.412	2085
496.487	3326
496.561	2400
496.636	3530
496.710	2328
496.785	3174
496.860	3427
496.934	845
497.009	2006
497.083	2001
497.158	2774
497.232	2883
497.307	3313
497.381	3051
497.455	2244
497.530	3474
497.604	2930
497.679	2903
497.753	3841
497.827	3654
497.902	2794
497.976	4829
498.050	11635
498.125	44784
498.199	40441
498.273	5146
498.348	3474
498.422	3435
498.496	3139
498.570	2594
498.645	2428
498.719	1157
498.793	3919
498.867	4890
498.941	5278
499.016	17178
499.090	45081
499.164	13952
499.238	3443
499.312	2710
499.386	3719
499.460	1733
499.534	3051
499.609	3483
499.683	3761
499.757	4159
499.831	7976
499.905	29368
499.979	24596
500.053	3769
500.127	4643
500.201	2155
500.275	2559
500.349	2927
500.422	3379
500.496	3843
500.570	5841
500.644	16030
500.718	27265
500.792	6471
500.866	2977
500.940	3334
501.013	2235
501.087	3081
501.161	3643
501.235	3935
501.309	10742
501.382	23437
501.456	19817
501.530	5198
501.603	7207
501.677	3656
501.751	1101
501.825	3322
501.898	3436
501.972	9629
502.046	5420
502.119	2467
502.193	5630
502.266	9770
502.340	5004
502.413	4769
502.487	8977
502.561	3582
502.634	2606
502.708	2499
502.781	1929
502.855	2643
502.928	143
503.002	1811
503.075	1510
503.149	1809
503.222	1504
503.295	1810
503.369	3733
503.442	3642
503.516	6988
503.589	16361
503.662	10318
503.736	5152
503.809	9787
503.882	8133
503.956	14895
504.029	17914
504.102	40447
504.175	59973
504.249	17105
504.322	6445
504.395	3807
504.468	2900
504.542	1976
504.615	2051
504.688	2045
504.761	575
504.834	2637
504.907	1521
504.980	2938
505.053	1139
505.127	416
505.200	4179
505.273	948
505.346	913
505.419	712
505.492	1860
505.565	343
505.638	1798
505.711	1160
505.784	737
505.857	1097
505.930	3557
506.003	-398
506.076	2692
506.149	1487
506.221	601
506.294	2985
506.367	3248
506.440	12620
506.513	6173
506.586	2485
506.659	1251
506.731	1623
506.804	1148
506.877	801
506.950	1820
507.022	1715
507.095	-3
507.168	1278
507.241	1969
507.313	1048
507.386	507
507.459	2833
507.531	308
507.604	131
507.677	2350
507.749	66
507.822	2600
507.894	3605
507.967	6214
508.040	2773
508.112	3207
508.185	2605
508.257	596
508.330	4214
508.402	2438
508.475	2250
508.547	2000
508.620	1533
508.692	2349
508.765	2004
508.837	1477
508.909	2733
508.982	996
509.054	2438
509.127	1711
509.199	1766
509.271	656
509.344	938
509.416	1658
509.488	1909
509.560	2763
509.633	1221
509.705	1433
509.777	2545
509.849	3102
509.922	871
509.994	1726
510.066	2940
510.138	1229
510.210	6923
510.283	4646
510.355	4658
510.427	3825
510.499	2704
510.571	2783
510.643	3029
510.715	4571
510.787	2136
510.859	3243
510.931	2521
511.003	3433
511.076	4499
511.148	2042
511.219	2005
511.291	3113
511.363	3958
511.435	2456
511.507	962
511.579	3296
511.651	2848
511.723	1749
511.795	2017
511.867	1585
511.939	2139
512.010	2747
512.082	3570
512.154	412
512.226	2666
512.298	4224
512.369	5247
512.441	4205
512.513	4344
512.585	1588
512.656	3252
512.728	2308
512.800	3596
512.871	3169
512.943	2200
513.015	1864
513.086	2555
513.158	2373
513.230	1558
513.301	2886
513.373	3929
513.444	2050
513.516	2418
513.588	1947
513.659	2667
513.731	2188
513.802	703
513.874	4103
513.945	4599
514.016	2000
514.088	2580
514.159	1456
514.231	3827
514.302	4651
514.374	4040
514.445	1964
514.516	6316
514.588	3237
514.659	2534
514.730	3316
514.802	3820
514.873	480
514.944	4490
515.016	3013
515.087	2586
515.158	2263
515.229	5107
515.301	1899
515.372	4150
515.443	1539
515.514	2087
515.585	1746
515.656	3375
515.728	2750
515.799	1615
515.870	2648
515.941	2692
516.012	1164
516.083	4315
516.154	2650
516.225	3956
516.296	4795
516.367	3471
516.438	2485
516.509	3796
516.580	5508
516.651	16802
516.722	49156
516.793	18422
516.864	4616
516.935	5995
517.006	6107
517.077	6898
517.148	16403
517.219	65246
517.289	85976
517.360	18507
517.431	7174
517.502	2946
517.573	3514
517.643	3449
517.714	4585
517.785	4946
517.856	3613
517.926	5881
517.997	5466
518.068	5197
518.138	8060
518.209	12665
518.280	46107
518.350	158852
518.421	45969
518.492	8301
518.562	6208
518.633	8342
518.703	8835
518.774	26999
518.845	74603
518.915	69186
518.986	15811
519.056	7772
519.127	7282
519.197	9135
519.268	13906
519.338	10176
519.408	4057
519.479	3440
519.549	2857
519.620	3892
519.690	2938
519.760	2865
519.831	2497
519.901	2086
519.971	2639
520.042	2826
520.112	1377
520.182	3569
520.253	2971
520.323	2259
520.393	1866
520.463	4585
520.534	141
520.604	5091
520.674	3561
520.744	2528
520.814	3441
520.885	5142
520.955	5299
521.025	16264
521.095	6686
521.165	3783
521.235	2101
521.305	2150
521.375	1642
521.445	2198
521.515	1165
521.585	3597
521.655	1014
521.725	3392
521.795	2322
521.865	486
521.935	4554
522.005	1798
522.075	1361
522.145	3731
522.215	1527
522.285	3921
522.355	3057
522.424	5131
522.494	3688
522.564	2875
522.634	4317
522.704	10604
522.774	2834
522.843	2294
522.913	1880
522.983	1781
523.053	1010
523.122	2465
523.192	1633
523.262	5665
523.331	2774
523.401	2820
523.471	2607
523.540	2452
523.610	474
523.680	2305
523.749	1152
523.819	3156
523.888	2557
523.958	936
524.027	2016
524.097	2264
524.166	1833
524.236	1388
524.305	3218
524.375	1403
524.444	599
524.514	4129
524.583	1949
524.653	1045
524.722	2409
524.791	1297
524.861	2992
524.930	347
524.999	2441
525.069	2418
525.138	807
525.207	2206
525.277	3387
525.346	1976
525.415	2865
525.484	2378
525.554	1623
525.623	4351
525.692	4120
525.761	5156
525.830	6519
525.900	7386
525.969	12518
526.038	22931
526.107	49185
526.176	147304
526.245	108711
526.314	30456
526.383	72704
526.452	97386
526.522	156399
526.591	134800
526.660	19479
526.729	10687
526.797	14468
526.867	23227
526.935	83178
527.004	266217
527.073	144722
527.142	13346
527.211	6643
527.280	4905
527.349	3719
527.418	1944
527.487	3679
527.555	1332
527.624	1418
527.693	-186
527.762	2827
527.831	843
527.899	2357
527.968	1887
528.037	-742
528.106	2512
528.174	2360
528.243	2462
528.312	3069
528.380	2450
528.449	1336
528.518	3225
528.586	962
528.655	2864
528.723	927
528.792	1281
528.861	1840
528.929	613
528.998	3037
529.066	2651
529.135	3141
529.203	2561
529.272	2474
529.340	6423
529.409	6266
529.477	3240
529.545	3316
529.614	5957
529.682	3580
529.751	6508
529.819	8246
529.887	7348
529.956	6561
530.024	6958
530.092	5359
530.161	6780
530.229	6303
530.297	5837
530.365	7689
530.434	6524
530.502	6925
530.570	6983
530.638	4337
530.707	6324
530.775	6482
530.843	4498
530.911	5964
530.979	6040
531.047	5726
531.115	6323
531.183	4995
531.252	7088
531.320	4880
531.388	4324
531.456	6032
531.524	4540
531.592	6810
531.660	9599
531.728	5918
531.796	5694
531.864	6520
531.932	6069
532.000	6085
532.067	6960
532.135	7554
532.203	8283
532.271	7480
532.339	9401
532.407	10031
532.475	8394
532.542	8285
532.610	8863
532.678	6968
532.746	15772
532.814	25416
532.881	10565
532.949	9329
533.017	7786
533.084	7127
533.152	6901
533.220	6247
533.287	5256
533.355	7648
533.423	7705
533.490	7134
533.558	6374
533.625	6922
533.693	5994
533.761	6567
533.828	7153
533.896	5675
533.963	8864
534.031	9089
534.098	9814
534.166	8033
534.233	6643
534.300	8320
534.368	7405
534.435	6390
534.503	6890
534.570	8465
534.637	7972
534.705	8672
534.772	10789
534.840	16384
534.907	69294
534.974	79565
535.041	11946
535.109	5772
535.176	6484
535.243	6434
535.310	5919
535.378	5196
535.445	6417
535.512	5707
535.579	6171
535.646	4418
535.714	5698
535.781	7025
535.848	6416
535.915	6608
535.982	6752
536.049	6299
536.116	6926
536.183	4305
536.250	4462
536.317	3983
536.384	5468
536.451	5753
536.518	5058
536.585	3553
536.652	6527
536.719	6685
536.786	4375
536.853	4503
536.920	6853
536.987	6191
537.053	5133
537.120	13470
537.187	12413
537.254	4433
537.321	4600
537.388	6375
537.454	4013
537.521	4180
537.588	4186
537.654	5298
537.721	5053
537.788	5688
537.855	4127
537.921	5026
537.988	4463
538.055	4890
538.121	3540
538.188	4756
538.254	4554
538.321	5671
538.388	5386
538.454	5271
538.521	4852
538.587	5146
538.654	4764
538.720	5083
538.787	5284
538.853	4859
538.920	4394
538.986	4189
539.053	3811
539.119	3806
539.185	4629
539.252	5147
539.318	4797
539.385	6520
539.451	4193
539.517	5492
539.583	5526
539.650	6544
539.716	9192
539.782	5242
539.849	4074
539.915	4818
539.981	4469
540.047	4315
540.114	4401
540.180	5038
540.246	4270
540.312	4806
540.378	4777
540.444	6514
540.510	6928
540.576	9795
540.643	5462
540.709	3023
540.775	4703
540.841	3848
540.907	5288
540.973	6288
541.039	4690
541.105	4656
541.171	4586
541.237	4145
541.303	4878
541.369	6567
541.435	5099
541.500	5256
541.566	3153
541.632	4066
541.698	4357
541.764	5720
541.830	4151
541.896	3263
541.961	4618
542.027	3251
542.093	4570
542.159	4270
542.224	4128
542.290	5357
542.356	4951
542.421	4982
542.487	5130
542.553	3559
542.618	3768
542.684	3726
542.750	3494
542.815	5038
542.881	5012
542.947	9873
543.012	7920
543.078	3916
543.143	3415
543.209	4946
543.274	3177
543.340	5143
543.405	6412
543.471	6913
543.536	4819
543.602	4267
543.667	3365
543.732	4906
543.798	4457
543.863	5091
543.928	3413
543.994	3901
544.059	4834
544.124	5183
544.190	4393
544.255	5891
544.320	5140
544.386	4158
544.451	5674
544.516	5003
544.581	4506
544.646	7535
544.712	10907
544.777	5541
544.842	5352
544.907	4757
544.972	4834
545.037	5198
545.102	5642
545.168	4518
545.233	5804
545.298	6149
545.363	4943
545.428	6459
545.493	7851
545.558	8589
545.623	6542
545.688	4888
545.753	6123
545.818	5158
545.883	6573
545.947	6152
546.012	6536
546.077	7126
546.142	7806
546.207	6940
546.272	8589
546.337	7693
546.401	7601
546.466	9163
546.531	7615
546.596	8901
546.661	10036
546.725	11004
546.790	10019
546.855	12412
546.919	11778
546.984	13991
547.049	15607
547.113	17146
547.178	19416
547.243	22615
547.307	26545
547.372	27538
547.436	27674
547.501	29050
547.565	30332
547.630	29109
547.695	28071
547.759	28630
547.823	29319
547.888	28833
547.952	28870
548.017	31867
548.081	33491
548.146	32546
548.210	32874
548.274	33667
548.339	34350
548.403	31993
548.468	27995
548.532	28391
548.596	30345
548.660	29449
548.725	33809
548.789	34033
548.853	35357
548.917	32688
548.982	32752
549.046	29134
549.110	26673
549.174	26231
549.238	31052
549.303	33567
549.367	35834
549.431	33655
549.495	31292
549.559	31615
549.623	37489
549.687	41537
549.751	39426
549.815	48274
549.879	48560
549.943	45968
550.007	49088
550.071	48241
550.135	43506
550.199	41015
550.263	41428
550.327	39216
550.391	39589
550.455	43654
550.519	45587
550.582	48908
550.646	54106
550.710	56613
550.774	55565
550.838	55032
550.901	57285
550.965	60566
551.029	61756
551.093	67010
551.156	71205
551.220	78110
551.284	88567
551.347	69367
551.411	63682
551.475	60244
551.538	61606
551.602	57352
551.666	53985
551.729	50747
551.793	51242
551.856	49069
551.920	48517
551.983	49028
552.047	47256
552.110	50377
552.174	49553
552.237	50683
552.301	47340
552.364	45332
552.428	44608
552.491	45018
552.554	46071
552.618	46707
552.681	48763
552.745	45477
552.808	47116
552.871	49182
552.934	48133
552.998	46597
553.061	44995
553.124	43702
553.187	44154
553.251	44739
553.314	46056
553.377	45809
553.440	50795
553.503	60677
553.567	66297
553.630	51760
553.693	50721
553.756	49924
553.819	50171
553.882	48005
553.945	48509
554.008	49132
554.071	49783
554.134	49499
554.197	46627
554.260	47232
554.323	48336
554.386	47256
554.449	48321
554.512	50074
554.575	47455
554.638	48265
554.701	46726
554.764	46266
554.827	44792
554.889	43668
554.952	41744
555.015	39606
555.078	39760
555.141	41118
555.203	40117
555.266	40915
555.329	40147
555.391	38098
555.454	37920
555.517	36425
555.580	35177
555.642	33406
555.705	34501
555.768	33422
555.830	32709
555.893	30005
555.955	30741
556.018	29703
556.080	29704
556.143	29772
556.206	30305
556.268	29263
556.330	28374
556.393	27969
556.455	26400
556.518	26581
556.580	26343
556.643	25074
556.705	24867
556.767	22460
556.830	23985
556.892	22593
556.955	22419
557.017	22771
557.079	21162
557.142	21996
557.204	21727
557.266	22159
557.328	20585
557.391	18731
557.453	17601
557.515	18594
557.577	18940
557.639	18338
557.701	18780
557.764	17741
557.826	18235
557.888	18008
557.950	19190
558.012	20921
558.074	25580
558.136	50784
558.198	108289
558.260	40469
558.322	18869
558.384	19907
558.446	20065
558.508	21728
558.570	24662
558.632	27536
558.694	36621
558.756	60151
558.818	167394
558.880	349034
558.942	121255
559.003	111810
559.065	52884
559.127	23438
559.189	23639
559.251	26389
559.312	37831
559.374	86673
559.436	254432
559.498	117477
559.559	25078
559.621	22840
559.683	26287
559.744	43143
559.806	129312
559.868	178754
559.929	36947
559.991	24808
560.052	38143
560.114	103602
560.176	65046
560.237	61272
560.299	93064
560.360	21697
560.422	11276
560.483	10464
560.545	9227
560.606	8376
560.667	9335
560.729	8065
560.790	7397
560.852	7997
560.913	8589
560.974	7097
561.036	7636
561.097	7058
561.158	8086
561.220	7958
561.281	6684
561.342	6751
561.403	7301
561.465	7242
561.526	9630
561.587	8736
561.648	6092
561.709	6002
561.771	7492
561.832	6345
561.893	6828
561.954	6559
562.015	5909
562.076	6177
562.137	5983
562.198	5673
562.259	6426
562.320	5549
562.381	6427
562.442	6080
562.503	6389
562.564	6227
562.625	6248
562.686	5546
562.747	5825
562.808	5607
562.869	5601
562.930	6078
562.991	5986
563.051	5383
563.112	4858
563.173	6068
563.234	5322
563.294	5436
563.355	5026
563.416	6018
563.477	5414
563.537	5029
563.598	5189
563.659	4951
563.720	4300
563.780	4881
563.841	4126
563.901	5171
563.962	4948
564.023	5060
564.083	5784
564.144	5570
564.204	4713
564.265	4804
564.325	5749
564.386	6813
564.446	5564
564.507	4707
564.567	4349
564.628	4421
564.688	4804
564.749	4303
564.809	5188
564.869	5038
564.930	5155
564.990	5802
565.050	4389
565.111	4889
565.171	4511
565.231	5446
565.292	5541
565.352	3947
565.412	5091
565.472	4797
565.532	4139
565.593	4263
565.653	4555
565.713	4419
565.773	4758
565.833	4661
565.893	5648
565.953	4968
566.013	5235
566.074	4951
566.134	5215
566.194	4739
566.254	6208
566.314	4929
566.374	4073
566.434	4297
566.494	4417
566.554	3952
566.614	4252
566.673	4329
566.733	5623
566.793	4649
566.853	4190
566.913	4891
566.973	5240
567.033	4927
567.092	5287
567.152	5241
567.212	5143
567.272	4589
567.331	4868
567.391	5132
567.451	6011
567.511	4767
567.570	5087
567.630	4547
567.690	5262
567.749	5270
567.809	4206
567.868	4976
567.928	4201
567.988	4485
568.047	4639
568.107	4958
568.166	5297
568.226	4835
568.285	5529
568.345	5206
568.404	5560
568.464	4356
568.523	4238
568.582	4925
568.642	4407
568.701	5196
568.761	5272
568.820	5512
568.879	5213
568.939	5117
568.998	4485
569.057	4156
569.116	4633
569.176	4691
569.235	4397
569.294	5016
569.353	4119
569.413	5294
569.472	5338
569.531	4153
569.590	4447
569.649	4296
569.708	4511
569.767	5824
569.827	4318
569.886	4120
569.945	3957
570.004	4645
570.063	4643
570.122	4138
570.181	4847
570.240	4822
570.299	4829
570.358	5136
570.417	4664
570.475	4691
570.534	5257
570.593	4920
570.652	5020
570.711	4980
570.770	4516
570.829	4291
570.887	4093
570.946	5177
571.005	4088
571.064	4552
571.122	4738
571.181	4834
571.240	4635
571.299	4338
571.357	4573
571.416	5336
571.475	4608
571.533	4428
571.592	4933
571.650	4844
571.709	4626
571.768	6095
571.826	5511
571.885	5359
571.943	5061
572.002	4322
572.060	4908
572.119	4498
572.177	4931
572.236	4572
572.294	4891
572.352	5502
572.411	5283
572.469	3973
572.528	4953
572.586	4735
572.644	4939
572.703	4538
572.761	5412
572.819	4302
572.877	3419
572.936	4129
572.994	4594
573.052	3987
573.110	4831
573.169	5114
573.227	4758
573.285	4364
573.343	4539
573.401	5228
573.459	4711
573.517	4499
573.576	4487
573.634	3942
573.692	4605
573.750	4165
573.808	3709
573.866	4479
573.924	4534
573.982	4234
574.040	3659
574.098	4094
574.155	3877
574.213	4712
574.271	4476
574.329	3587
574.387	3048
574.445	4329
574.503	3867
574.560	3906
574.618	3881
574.676	4201
574.734	3577
574.792	4767
574.849	3803
574.907	3630
574.965	3944
575.022	3317
575.080	3981
575.138	3419
575.195	3485
575.253	3460
575.311	3228
575.368	3829
575.426	2911
575.483	4378
575.541	3926
575.598	3143
575.656	3416
575.713	3256
575.771	3876
575.828	2717
575.886	3934
575.943	3949
576.001	3247
576.058	3651
576.115	3248
576.173	3162
576.230	3713
576.287	4311
576.345	3869
576.402	3660
576.459	3662
576.517	1934
576.574	3363
576.631	3679
576.688	3387
576.746	3223
576.803	3537
576.860	3415
576.917	3412
576.974	3353
577.031	3899
577.089	3820
577.146	3238
577.203	2596
577.260	3380
577.317	3124
577.374	3161
577.431	2998
577.488	3494
577.545	3324
577.602	3815
577.659	3164
577.716	3165
577.773	2834
577.830	2961
577.886	3962
577.943	3865
578.000	3639
578.057	3872
578.114	3777
578.171	3353
578.227	5747
578.284	4922
578.341	4131
578.398	3757
578.454	3664
578.511	4360
578.568	4107
578.625	3121
578.681	2607
578.738	2602
578.794	3712
578.851	3781
578.908	3849
578.964	3939
579.021	3936
579.077	3713
579.134	3524
579.190	4045
579.247	3295
579.303	3368
579.360	3121
579.416	3628
579.473	3560
579.529	4155
579.586	4117
579.642	3572
579.698	3717
579.755	3681
579.811	5107
579.867	3695
579.924	4572
579.980	4257
580.036	5260
580.093	5024
580.149	6614
580.205	7673
580.261	5806
580.317	5322
580.374	5478
580.430	4509
580.486	4571
580.542	4698
580.598	3289
580.619	3691
580.654	4382
580.692	3959
580.710	3734
580.765	4256
580.767	4263
580.823	5327
580.838	5149
580.879	4638
580.911	4450
580.935	4290
580.984	4672
580.991	4719
581.047	5004
581.057	5078
581.103	5389
581.130	5658
581.159	5894
581.203	5909
581.215	5896
581.270	5657
581.276	5609
581.326	5021
581.349	5467
581.382	6106
581.422	6003
581.438	5943
581.494	5822
581.494	5821
581.550	4762
581.567	5087
581.606	5702
581.640	5685
581.661	5686
581.713	6280
581.717	6317
581.773	6383
581.786	6480
581.829	6682
581.859	6746
581.885	6848
581.932	7099
581.940	7119
581.996	7347
582.004	7389
582.052	7496
582.077	7376
582.107	7255
582.150	7091
582.163	7020
582.219	6947
582.223	7026
582.274	8007
582.296	7797
582.330	7374
582.368	7999
582.386	8281
582.441	8367
582.441	8357
582.497	8164
582.514	8210
582.552	8454
582.587	9469
582.608	9925
582.659	9012
582.663	8948
582.719	9286
582.732	9465
582.774	10248
582.805	10244
582.830	10145
582.877	10877
582.885	11019
582.941	11577
582.950	11800
582.996	13293
583.023	14285
583.052	15235
583.095	16002
583.107	16083
583.162	16356
583.168	16355
583.218	15873
583.240	15302
583.273	14247
583.313	13444
583.328	13299
583.384	13213
583.385	13184
583.439	12238
583.458	12124
583.494	11917
583.531	12067
583.549	12331
583.603	11662
583.605	11641
583.660	12225
583.676	12164
583.715	12018
583.748	12766
583.770	13186
583.820	12491
583.825	12455
583.881	13438
583.893	13357
583.936	13047
583.965	13080
583.991	13242
584.038	13546
584.046	13534
584.101	13694
584.110	13704
584.156	14414
584.183	14289
584.211	14036
584.255	14702
584.266	14933
584.321	16094
584.328	16107
584.376	16175
584.400	16275
584.431	16445
584.472	16926
584.486	17105
584.541	17048
584.545	17094
584.596	18380
584.617	18422
584.651	18713
584.689	18767
584.706	18758
584.761	19282
584.762	19261
584.816	20031
584.834	20087
584.871	20491
584.906	20402
584.926	20395
584.978	20627
584.980	20663
585.035	21117
585.051	21363
585.090	22436
585.123	22726
585.145	22973
585.195	23498
585.200	23628
585.254	24403
585.267	24811
585.309	26196
585.340	27205
585.364	28528
585.412	31136
585.419	31556
585.473	35113
585.484	35982
585.528	42399
585.556	48123
585.583	61501
585.628	89867
585.637	101208
585.692	190310
585.700	205021
585.747	255027
585.772	233083
585.801	157744
585.845	70967
585.856	61821
585.910	40359
585.917	37968
585.965	34119
585.989	32476
586.019	32213
586.061	31448
586.074	31207
586.128	29957
586.133	29791
586.183	29125
586.205	28940
586.237	28893
586.277	27990
586.292	27912
586.346	27603
586.349	27557
586.401	27531
586.421	27217
586.455	27103
586.493	26819
586.509	27213
586.564	28128
586.565	28092
586.618	30090
586.637	30196
586.672	30090
586.709	30816
586.727	31328
586.781	31515
586.781	31596
586.835	29575
586.853	28999
586.889	28159
586.925	27056
586.944	27095
586.996	28063
586.998	28156
587.052	27579
587.068	27362
587.106	27953
587.140	27987
587.161	27749
587.212	27595
587.215	27717
587.269	28375
587.284	28437
587.323	28975
587.356	29586
587.377	30117
587.427	30204
587.431	30320
587.485	30941
587.499	31013
587.539	31843
587.571	32355
587.593	32830
587.643	33473
587.648	33656
587.702	34402
587.715	34455
587.755	34583
587.786	34679
587.810	35052
587.858	34401
587.864	34539
587.917	36388
587.930	36432
587.971	36085
588.001	35982
588.025	36434
588.073	36379
588.079	36626
588.133	38371
588.145	38639
588.187	39724
588.217	40000
588.241	40357
588.288	40548
588.295	40925
588.348	43682
588.360	43959
588.402	45060
588.431	45901
588.456	47237
588.503	49350
588.510	49906
588.564	52949
588.575	53507
588.617	58517
588.646	61661
588.671	64762
588.718	70479
588.725	73329
588.778	96006
588.789	100663
588.832	149032
588.861	183737
588.886	241944
588.932	361410
588.939	370102
588.993	421373
589.004	420673
589.047	288044
589.075	205743
589.100	164866
589.147	97190
589.154	95128
589.207	78206
589.218	74542
589.261	73182
589.290	72122
589.314	74620
589.361	79681
589.368	82954
589.421	108871
589.433	114565
589.475	182693
589.504	232764
589.528	285890
589.576	392652
589.582	383695
589.635	255051
589.647	227715
589.689	142022
589.718	86220
589.742	78125
589.790	61518
589.795	61157
589.849	56122
589.861	54752
589.902	53951
589.932	52784
589.955	51985
590.004	49695
590.009	49817
590.062	49408
590.075	49021
590.115	48910
590.146	48517
590.168	48673
590.218	48209
590.222	48431
590.275	48987
590.289	48843
590.328	49799
590.360	50340
590.381	50496
590.431	49998
590.435	50279
590.488	51550
590.503	51613
590.541	51873
590.574	51785
590.594	52245
590.645	52777
590.647	53065
590.700	54421
590.716	54632
590.753	55824
590.787	56489
590.806	57310
590.859	58640
590.859	58895
590.912	58888
590.930	58597
590.965	59979
591.001	60960
591.018	60899
591.071	59714
591.072	59439
591.124	60120
591.143	59995
591.177	60953
591.214	61386
591.230	61745
591.283	62144
591.285	61881
591.336	62227
591.356	62017
591.389	62447
591.427	62196
591.442	62527
591.495	62905
591.498	62644
591.547	63132
591.569	62959
591.600	63497
591.640	63552
591.653	64057
591.706	64900
591.711	64704
591.759	66242
591.782	66558
591.811	68018
591.853	69436
591.864	69761
591.917	69761
591.924	69445
591.969	70413
591.995	70494
592.022	71185
592.066	71388
592.075	71967
592.127	73617
592.137	73583
592.180	74660
592.208	74802
592.233	75665
592.279	76316
592.285	76971
592.338	79522
592.350	79737
592.390	79738
592.421	79102
592.443	79688
592.491	79803
592.495	80280
592.548	81789
592.562	81831
592.600	82100
592.633	81633
592.653	82388
592.704	82903
592.705	83411
592.775	84752
592.846	86852
592.916	88385
592.987	86934
593.058	88315
593.128	89086
593.199	89054
593.270	89702
593.341	91845
593.411	92322
593.482	94507
593.553	97688
593.623	97373
593.694	100619
593.764	103689
593.835	102780
593.906	102843
593.976	105021
594.047	106789
594.117	112251
594.188	114667
594.258	113674
594.329	113133
594.399	116397
594.470	118278
594.540	121910
594.611	124805
594.681	124289
594.751	124698
594.822	129259
594.892	129399
594.963	134798
595.033	137517
595.103	139611
595.174	143367
595.244	146894
595.314	149967
595.384	150417
595.455	154296
595.525	159258
595.595	164949
595.665	164628
595.736	161138
595.806	164799
595.876	166120
595.946	167588
596.016	174376
596.087	179089
596.157	179158
596.227	180439
596.297	188704
596.367	198308
596.437	207180
596.507	209452
596.577	210024
596.647	213906
596.717	223003
596.787	224573
596.857	223870
596.927	227030
596.997	229824
597.067	232505
597.137	236798
597.207	238594
597.277	238522
597.347	232954
597.417	227812
597.487	228184
597.557	232611
597.626	238281
597.696	243500
597.766	240319
597.836	233313
597.906	224434
597.975	220343
598.045	223638
598.115	232826
598.185	246620
598.254	267531
598.324	286223
598.394	291576
598.464	283701
598.533	280685
598.603	269687
598.672	263552
598.742	268284
598.812	270361
598.881	280238
598.951	278086
599.020	281222
599.090	289503
599.159	295345
599.229	287728
599.299	287264
599.368	293574
599.437	292446
599.507	277754
599.576	273677
599.646	275360
599.715	275679
599.785	274147
599.854	271643
599.924	271442
599.993	272692
600.062	276482
600.132	284541
600.201	296459
600.270	326911
600.340	343182
600.409	340902
600.478	339960
600.547	348263
600.617	331157
600.686	293697
600.755	280594
600.824	277477
600.894	280687
600.963	281446
601.032	284444
601.101	282041
601.170	282826
601.239	283181
601.308	285736
601.378	292171
601.447	293775
601.516	300257
601.585	304763
601.654	311485
601.723	316239
601.792	324001
601.861	335135
601.930	347675
601.999	357935
602.068	351579
602.137	356103
602.206	360795
602.275	364255
602.343	363980
602.412	369742
602.481	372472
602.550	376731
602.619	381468
602.688	382430
602.756	388443
602.825	383311
602.894	397559
602.963	394034
603.032	401005
603.100	400664
603.169	392720
603.238	409624
603.307	394384
603.375	395446
603.444	409918
603.513	389006
603.581	398288
603.650	413528
603.719	363344
603.787	354724
603.856	361379
603.924	367509
603.993	376741
604.061	387931
604.130	397024
604.198	406700
604.267	408600
604.335	416729
604.404	417841
604.472	430227
604.541	431114
604.609	439671
604.678	450414
604.746	453469
604.815	469100
604.883	460082
604.951	450064
605.020	460982
605.088	442204
605.156	432960
605.225	431840
605.293	431322
605.361	434839
605.429	432107
605.498	441469
605.566	438256
605.634	459767
605.702	461495
605.771	467547
605.839	478199
605.907	457113
605.975	460289
606.043	445965
606.111	439302
606.180	463719
606.248	437351
606.316	430823
606.384	449686
606.452	396137
606.520	364470
606.588	371912
606.656	375542
606.724	369372
606.792	351250
606.860	324093
606.928	300803
606.996	290573
607.064	285951
607.132	294006
607.200	307558
607.267	318153
607.335	322674
607.403	328382
607.471	318978
607.539	309508
607.607	313319
607.674	281386
607.742	280730
607.810	277101
607.878	279041
607.946	282144
608.013	290937
608.081	295450
608.149	299923
608.216	306078
608.284	317390
608.352	317223
608.419	314991
608.487	307081
608.555	298646
608.622	306483
608.690	322073
608.757	348714
608.825	353260
608.893	344206
608.960	331453
609.028	315474
609.095	318189
609.163	316834
609.230	287486
609.298	265278
609.365	280551
609.432	297208
609.500	318378
609.567	358913
609.635	401043
609.702	419277
609.769	404036
609.837	324594
609.904	283565
609.971	286341
610.039	297991
610.106	328808
610.173	438174
610.241	704422
610.308	572273
610.375	372829
610.442	311223
610.509	295606
610.577	297017
610.644	301049
610.711	307862
610.778	316297
610.845	326611
610.912	345150
610.980	357916
611.047	357506
611.114	351681
611.181	342799
611.248	343353
611.315	356299
611.382	364002
611.449	374667
611.516	382769
611.583	376211
611.650	378133
611.717	378289
611.784	384257
611.851	390651
611.918	397067
611.984	420229
612.051	479692
612.118	623562
612.185	946646
612.252	787102
612.319	497564
612.386	457594
612.452	434395
612.519	422875
612.586	413311
612.653	422761
612.719	437549
612.786	425982
612.853	399979
612.919	394134
612.986	400822
613.053	381969
613.120	362492
613.186	353808
613.253	353908
613.319	354182
613.386	356696
613.453	361460
613.519	365187
613.586	357851
613.652	365121
613.719	360140
613.785	364872
613.852	368378
613.918	367329
613.985	368503
614.051	383339
614.118	382070
614.184	370836
614.250	367653
614.317	374968
614.383	369947
614.449	376052
614.516	374734
614.582	375850
614.648	369642
614.715	369243
614.781	361064
614.847	362884
614.914	360774
614.980	354151
615.046	355949
615.112	362725
615.179	364561
615.245	369565
615.311	366105
615.377	368853
615.443	369397
615.509	373485
615.575	380109
615.642	375421
615.708	382926
615.774	392176
615.840	403869
615.906	407393
615.972	428744
616.038	499897
616.104	690818
616.170	1005957
616.236	936852
616.302	580454
616.368	508279
616.434	435183
616.500	415487
616.565	425125
616.631	474324
616.697	441284
616.763	436680
616.829	510126
616.895	692698
616.961	682468
617.026	461182
617.092	396012
617.158	386381
617.224	383535
617.289	364664
617.355	351047
617.421	351794
617.487	351526
617.552	337501
617.618	334803
617.684	337803
617.749	340854
617.815	329870
617.880	324883
617.946	324295
618.012	331740
618.077	337289
618.143	327065
618.208	327189
618.274	347036
618.339	349464
618.405	305570
618.470	306306
618.536	308930
618.601	301313
618.667	290235
618.732	278226
618.798	277538
618.863	276577
618.928	274692
618.994	273954
619.059	270349
619.124	277961
619.190	272021
619.255	274353
619.320	274666
619.386	275887
619.451	275008
619.516	269958
619.581	273984
619.647	282435
619.712	284925
619.777	276119
619.842	276399
619.907	280428
619.972	283546
620.038	280937
620.103	276709
620.168	274780
620.233	283341
620.298	285532
620.363	282540
620.428	289126
620.493	293110
620.558	295957
620.623	301103
620.688	300874
620.753	299141
620.818	301560
620.883	304955
620.948	301882
621.013	300969
621.078	299011
621.143	299195
621.207	304109
621.272	300168
621.337	295141
621.402	296253
621.467	292930
621.532	292957
621.596	292408
621.661	290040
621.726	283793
621.791	287778
621.855	289791
621.920	288232
621.985	289437
622.049	295865
622.114	292642
622.179	298358
622.243	300513
622.308	309893
622.373	316497
622.437	310861
622.502	299324
622.566	297829
622.631	296374
622.695	301527
622.760	299172
622.824	300476
622.889	301076
622.953	300174
623.018	312683
623.082	315532
623.147	311816
623.211	306770
623.276	306299
623.340	299625
623.404	291967
623.469	294010
623.533	298054
623.597	292531
623.662	287154
623.726	274923
623.790	265211
623.854	258598
623.919	266149
623.983	263914
624.047	268545
624.111	266437
624.176	271825
624.240	272572
624.304	278011
624.368	268982
624.432	268801
624.496	273228
624.560	281790
624.625	283093
624.689	280331
624.753	290099
624.817	280619
624.881	275243
624.945	254725
625.009	250176
625.073	253060
625.137	254893
625.201	263336
625.265	262586
625.329	255650
625.393	255399
625.456	257127
625.520	262194
625.584	261677
625.648	268969
625.712	273696
625.776	275081
625.839	264917
625.903	231159
625.967	215680
626.031	230376
626.095	258601
626.158	239591
626.222	204134
626.286	194668
626.349	188824
626.413	179449
626.477	176103
626.540	177508
626.604	176138
626.668	175208
626.731	171695
626.795	172717
626.858	166895
626.922	165278
626.986	165344
627.049	162596
627.113	169042
627.176	165298
627.240	161386
627.303	158813
627.366	156621
627.430	160093
627.493	156852
627.557	155379
627.620	157534
627.684	159033
627.747	157781
627.810	149937
627.874	135993
627.937	134160
628.000	137417
628.064	135339
628.127	122627
628.190	121229
628.253	117481
628.317	115699
628.380	112589
628.443	109605
628.506	108290
628.569	106684
628.632	100670
628.696	100741
628.759	99437
628.822	96167
628.885	93891
628.948	92762
629.011	91815
629.074	89329
629.137	87914
629.200	86075
629.263	86446
629.326	83699
629.389	82750
629.452	82136
629.515	80293
629.578	80646
629.641	79988
629.704	80976
629.767	80012
629.830	79056
629.892	78373
629.955	76309
630.018	77001
630.081	76745
630.144	75319
630.207	73325
630.269	75396
630.332	72667
630.395	71750
630.458	70612
630.520	67846
630.583	70188
630.646	68729
630.708	69789
630.771	70629
630.834	71822
630.896	71386
630.959	71388
631.021	68302
631.084	68131
631.146	69672
631.209	69372
631.272	67555
631.334	70453
631.397	68555
631.459	67358
631.522	69032
631.584	69624
631.646	70923
631.709	71308
631.771	69379
631.834	69564
631.896	68027
631.958	65882
632.021	67089
632.083	63153
632.145	64475
632.208	65967
632.270	64501
632.332	64397
632.395	64014
632.457	66051
632.519	63550
632.581	63910
632.643	62840
632.706	64155
632.768	60971
632.830	64123
632.892	64121
632.954	65023
633.016	64537
633.078	64580
633.141	64023
633.203	63309
633.265	63437
633.327	62561
633.389	62407
633.451	63592
633.513	63371
633.575	65078
633.637	60624
633.698	64224
633.760	65281
633.822	66514
633.884	65497
633.946	66298
634.008	66945
634.070	66357
634.132	68315
634.193	68055
634.255	70792
634.317	69134
634.379	71170
634.441	66947
634.502	65306
634.564	63010
634.626	61697
634.687	59884
634.749	58780
634.811	60049
634.873	59026
634.934	59337
634.996	59958
635.057	60381
635.119	60183
635.181	59914
635.242	61017
635.304	58311
635.365	62563
635.427	60164
635.488	59563
635.550	59806
635.611	58075
635.673	57623
635.734	60291
635.796	60103
635.857	61818
635.918	63682
635.980	66364
636.041	66448
636.102	68336
636.164	67604
636.225	67258
636.286	61295
636.348	60277
636.409	58641
636.470	56766
636.531	59510
636.593	57296
636.654	58726
636.715	56059
636.776	57339
636.838	55990
636.899	56775
636.960	55297
637.021	55954
637.082	55113
637.143	55646
637.204	52743
637.265	53955
637.326	54185
637.387	55190
637.448	53438
637.509	54996
637.570	54344
637.631	55343
637.692	51969
637.753	51795
637.814	53465
637.875	53045
637.936	53691
637.997	53014
638.058	52709
638.119	53263
638.179	52558
638.240	53074
638.301	53940
638.362	51492
638.423	50880
638.483	51391
638.544	49215
638.605	51504
638.666	51497
638.726	53017
638.787	52469
638.848	51919
638.908	49920
638.969	49845
639.030	49187
639.090	48655
639.151	49610
639.211	49574
639.272	50644
639.332	51339
639.393	50324
639.453	50888
639.514	50756
639.574	49445
639.635	47863
639.695	48768
639.756	47086
639.816	47803
639.877	46527
639.937	49324
639.997	47924
640.058	45972
640.118	47399
640.178	48300
640.239	45485
640.299	46824
640.359	48182
640.420	48235
640.480	50677
640.540	50287
640.600	50643
640.661	50249
640.721	48964
640.781	54754
640.841	53423
640.901	48951
640.961	47037
641.021	46812
641.082	47087
641.142	48140
641.202	47467
641.262	45874
641.322	47175
641.382	46421
641.442	45359
641.502	45662
641.562	46613
641.622	47011
641.682	46836
641.742	47986
641.802	47221
641.861	45607
641.921	43776
641.981	44086
642.041	43393
642.101	42707
642.161	41170
642.221	43403
642.280	43361
642.340	43211
642.400	42814
642.460	44225
642.519	44387
642.579	44073
642.639	44953
642.698	41836
642.758	46067
642.818	45345
642.877	42968
642.937	43418
642.997	43470
643.056	44243
643.116	41106
643.175	44965
643.235	44174
643.294	44477
643.354	45928
643.414	45939
643.473	47998
643.532	49926
643.592	53778
643.651	66341
643.711	90327
643.770	140284
643.830	274704
643.889	468885
643.948	183724
644.008	70017
644.067	54922
644.126	47502
644.186	45208
644.245	43691
644.304	39853
644.363	42773
644.423	38598
644.482	40991
644.541	42501
644.600	41297
644.659	45685
644.719	48449
644.778	56675
644.837	74812
644.896	120945
644.955	233411
645.014	103433
645.073	50660
645.132	43629
645.191	43508
645.250	40932
645.309	43865
645.368	43409
645.427	49302
645.486	62651
645.545	89715
645.604	47883
645.663	40059
645.722	39735
645.781	42094
645.840	41712
645.898	44003
645.957	49626
646.016	59384
646.075	83666
646.134	132601
646.192	281810
646.251	375372
646.310	107669
646.369	56255
646.427	49180
646.486	43265
646.545	40436
646.603	38488
646.662	38225
646.721	36378
646.779	35528
646.838	35366
646.896	38975
646.955	43910
647.014	54812
647.072	79121
647.131	168737
647.189	97416
647.248	38028
647.306	35374
647.365	34629
647.423	30849
647.481	32648
647.540	30954
647.598	33018
647.657	31763
647.715	32688
647.773	30244
647.832	31067
647.890	29414
647.948	30192
648.007	29576
648.065	28418
648.123	27995
648.181	29109
648.240	30004
648.298	26702
648.356	27642
648.414	27505
648.472	27258
648.531	27423
648.589	27111
648.647	26365
648.705	26847
648.763	26422
648.821	26505
648.879	25963
648.937	27129
648.995	28060
649.053	29962
649.111	35006
649.169	45272
649.227	65322
649.285	116213
649.343	272104
649.401	149485
649.459	42309
649.516	32728
649.574	27283
649.632	30217
649.690	32803
649.748	32682
649.806	39881
649.863	60434
649.921	125859
649.979	90548
650.037	27745
650.094	22290
650.152	23032
650.210	22425
650.268	22591
650.325	22927
650.383	24119
650.440	20034
650.498	21302
650.556	19937
650.613	19244
650.671	19651
650.728	19602
650.786	21042
650.843	23372
650.901	19636
650.958	18649
651.016	18329
651.073	18350
651.131	17927
651.188	17479
651.246	18257
651.303	16941
651.360	18201
651.418	17232
651.475	17430
651.532	16531
651.590	18075
651.647	16356
651.704	17461
651.762	16321
651.819	17340
651.876	15802
651.933	16307
651.990	16141
652.048	14766
652.105	15403
652.162	16294
652.219	14375
652.276	15477
652.333	14724
652.390	14476
652.448	15850
652.505	16197
652.562	15590
652.619	15686
652.676	16723
652.733	18425
652.790	15014
652.847	13337
652.904	14954
652.961	13392
653.017	14078
653.074	14694
653.131	14307
653.188	13474
653.245	13953
653.302	14812
653.359	14126
653.415	14587
653.472	12711
653.529	14496
653.586	13662
653.642	13215
653.699	14183
653.756	13541
653.813	13642
653.869	14270
653.926	12648
653.983	12463
654.039	13744
654.096	13114
654.152	14137
654.209	12482
654.266	13991
654.322	12692
654.379	12773
654.435	13882
654.492	12489
654.548	14459
654.605	14120
654.661	14926
654.717	13587
654.774	13060
654.830	13678
654.887	14340
654.943	13341
655.000	15573
655.056	13159
655.112	13415
655.168	12599
655.225	13079
655.281	13242
655.337	12270
655.394	13118
655.450	13666
655.506	12203
655.562	12507
655.618	13359
655.675	11901
655.731	12671
655.787	12410
655.843	12808
655.899	11635
655.955	12570
656.011	13256
656.067	11679
656.123	12727
656.179	13225
656.235	14174
656.291	11669
656.347	13552
656.403	12312
656.459	12748
656.515	12159
656.571	12163
656.627	13067
656.683	12052
656.739	12887
656.795	12769
656.850	11811
656.906	12090
656.962	13508
657.018	12541
657.074	13787
657.129	16030
657.185	20688
657.241	37046
657.297	24664
657.352	13301
657.408	12187
657.464	13527
657.519	12248
657.575	11881
657.630	11110
657.686	11513
657.742	9929
657.797	11695
657.853	11655
657.908	12701
657.964	11456
658.019	10768
658.075	11107
658.130	12053
658.186	10045
658.241	11938
658.297	10563
658.352	10928
658.407	11803
658.463	10509
658.518	11938
658.573	11109
658.629	10111
658.684	11061
658.739	11885
658.795	10634
658.850	11005
658.905	11455
658.960	11544
659.016	10473
659.071	10712
659.126	10914
659.181	11127
659.236	11629
659.291	11602
659.346	11305
659.401	11897
659.457	12099
659.512	12308
659.567	12825
659.622	11633
659.677	10794
659.732	9610
659.787	10942
659.842	10570
659.897	10761
659.952	10774
660.007	10325
660.061	11738
660.116	10022
660.171	10706
660.226	10856
660.281	11819
660.336	9682
660.391	11486
660.445	10631
660.500	10716
660.555	10756
660.610	9826
660.664	12047
660.719	9969
660.774	10032
660.828	10592
660.883	10230
660.938	10175
660.992	9931
661.047	10550
661.101	9249
661.156	9898
661.211	10483
661.265	9717
661.320	9900
661.374	10701
661.429	10380
661.483	10261
661.538	10352
661.592	10558
661.647	11286
661.701	12710
661.755	11134
661.810	11025
661.864	10309
661.919	9523
661.973	11578
662.027	10359
662.081	9767
662.136	9145
662.190	10231
662.244	10632
662.299	9676
662.353	10189
662.407	10227
662.461	10212
662.515	10250
662.569	9748
662.624	9985
662.678	8953
662.732	9195
662.786	9512
662.840	9637
662.894	9680
662.948	10052
663.002	9015
663.056	10063
663.110	9127
663.164	9887
663.218	9196
663.272	9982
663.326	9325
663.380	9586
663.434	10261
663.488	8631
663.542	9578
663.595	8899
663.649	9246
663.703	9363
663.757	10019
663.811	9325
663.864	9019
663.918	9647
663.972	9251
664.026	9274
664.079	9073
664.133	10300
664.187	8924
664.240	9317
664.294	9855
664.348	9678
664.401	8763
664.455	8469
664.508	8492
664.562	8792
664.615	9753
664.669	8320
664.722	9704
664.776	8800
664.829	9225
664.883	9743
664.936	8838
664.990	9235
665.043	9962
665.097	9574
665.150	10418
665.203	9491
665.257	8454
665.310	9947
665.363	9396
665.417	9024
665.470	9417
665.523	9360
665.576	9214
665.630	8812
665.683	8622
665.736	8627
665.789	9370
665.842	9832
665.895	9956
665.949	9217
666.002	9095
666.055	9301
666.108	9990
666.161	8940
666.214	9359
666.267	8846
666.320	9421
666.373	9881
666.426	9160
666.479	9167
666.532	9389
666.585	9898
666.638	9732
666.691	8242
666.744	9710
666.796	8899
666.849	9166
666.902	9809
666.955	8552
667.008	9166
667.060	9277
667.113	9425
667.166	9963
667.219	10131
667.271	10089
667.324	9345
667.377	9644
667.430	9276
667.482	10019
667.535	9304
667.587	9644
667.640	9072
667.693	9048
667.745	10334
667.798	9955
667.850	8795
667.903	9780
667.955	9563
668.008	9260
668.060	9543
668.113	9155
668.165	9110
668.218	9832
668.270	9193
668.322	8865
668.375	8934
668.427	9186
668.479	8844
668.532	8659
668.584	9267
668.636	8624
668.689	9260
668.741	8794
668.793	9381
668.845	8444
668.898	9754
668.950	8661
669.002	9109
669.054	9198
669.106	9014
669.158	9557
669.211	9313
669.263	8340
669.315	9808
669.367	8549
669.419	8814
669.471	9103
669.523	9328
669.575	9827
669.627	8681
669.679	8225
669.731	9495
669.783	9156
669.835	9573
669.886	8769
669.938	9983
669.990	9190
670.042	9420
670.094	9244
670.146	9921
670.197	9556
670.249	11597
670.301	10958
670.353	13055
670.404	16814
670.456	20163
670.508	28610
670.560	45120
670.611	70663
670.663	119887
670.715	233937
670.766	298470
670.818	141669
670.869	44008
670.921	25299
670.972	18578
671.024	15002
671.075	12463
671.127	11271
671.178	11007
671.230	10295
671.281	10859
671.333	10108
671.384	9945
671.436	11173
671.487	13789
671.538	15001
671.590	20897
671.641	31697
671.692	51322
671.744	87970
671.795	63477
671.846	27313
671.897	15415
671.949	12832
672.000	10253
672.051	9135
672.102	9541
672.153	7462
672.204	8170
672.256	8031
672.307	7821
672.358	8572
672.409	7618
672.460	7181
672.511	6432
672.562	7136
672.613	6857
672.664	7314
672.715	7946
672.766	6236
672.817	6623
672.868	6571
672.919	6920
672.970	5963
673.021	6349
673.071	5469
673.122	6752
673.173	6272
673.224	6427
673.275	5939
673.326	5763
673.376	5782
673.427	6305
673.478	6716
673.528	7183
673.579	5862
673.630	5932
673.680	6926
673.731	5758
673.782	6254
673.832	6210
673.883	5439
673.934	6347
673.984	5933
674.035	5910
674.085	5532
674.136	6024
674.186	5931
674.237	6185
674.287	6353
674.338	6118
674.388	5817
674.438	5523
674.489	6367
674.539	6834
674.589	5977
674.640	6595
674.690	5849
674.740	5768
674.791	6089
674.841	5674
674.891	5326
674.942	5962
674.992	4359
675.042	5341
675.092	4485
675.142	5131
675.193	4651
675.243	5149
675.293	5251
675.343	5187
675.393	5255
675.443	6345
675.493	5240
675.543	5648
675.593	5573
675.643	5947
675.693	5864
675.743	5648
675.793	4433
675.843	4937
675.893	5164
675.943	5175
675.993	5130
676.043	5897
676.093	5813
676.142	4973
676.192	5173
676.242	5804
676.292	4990
676.341	4984
676.391	5414
676.441	4856
676.491	5026
676.540	5012
676.590	5127
676.640	4751
676.689	4248
676.739	3981
676.789	4960
676.838	4911
676.888	5336
676.937	4605
676.987	4468
677.037	5452
677.086	3967
677.136	5063
677.185	4680
677.235	3771
677.284	4046
677.333	4133
677.383	4105
677.432	4247
677.482	3752
677.531	4120
677.580	4310
677.630	3748
677.679	4389
677.728	4947
677.778	3588
677.827	4386
677.876	4503
677.925	4435
677.975	4819
678.024	5135
678.073	4115
678.122	4200
678.171	3530
678.220	4525
678.269	5788
678.319	5100
678.368	4957
678.417	5615
678.466	4532
678.515	4443
678.564	4425
678.613	4113
678.662	3813
678.711	4830
678.760	3813
678.809	4209
678.857	3884
678.906	5061
678.955	3990
679.004	4289
679.053	4929
679.102	4592
679.151	4196
679.199	4133
679.248	3445
679.297	4156
679.346	4400
679.394	4190
679.443	4074
679.492	3759
679.540	5100
679.589	3962
679.638	3692
679.686	4057
679.735	3446
679.784	4231
679.832	4416
679.881	4782
679.929	4272
679.978	3944
680.026	3785
680.075	5207
680.123	3104
680.172	3884
680.220	3281
680.268	3722
680.317	3603
680.365	3584
680.414	2839
680.462	4375
680.510	4018
680.559	4513
680.607	3704
680.655	3410
680.703	3763
680.752	3641
680.800	4156
680.848	3923
680.896	3755
680.945	3858
680.993	3479
681.041	3974
681.089	4299
681.137	3493
681.185	2764
681.233	3607
681.258	3789
681.281	3934
681.329	3887
681.377	2795
681.380	2879
681.425	3874
681.473	4440
681.502	4117
681.521	3843
681.569	3907
681.617	4412
681.624	4417
681.665	4205
681.713	4609
681.745	4057
681.761	3755
681.809	4183
681.857	4459
681.867	4539
681.904	4690
681.952	4093
681.989	4612
682.000	4733
682.048	4965
682.096	4078
682.111	4324
682.143	4743
682.191	4823
682.233	5361
682.239	5414
682.286	4175
682.334	5265
682.354	5073
682.382	4738
682.430	5594
682.476	4951
682.477	4912
682.525	4864
682.572	4481
682.598	4630
682.620	4720
682.667	4886
682.715	5210
682.720	5251
682.763	5318
682.810	5135
682.841	5265
682.857	5284
682.905	5510
682.952	5843
682.963	5808
683.000	5605
683.047	5178
683.085	6079
683.095	6300
683.142	6573
683.190	5262
683.206	5675
683.237	6307
683.284	6237
683.328	5926
683.332	5881
683.379	6088
683.426	6000
683.449	6109
683.473	6223
683.521	5965
683.568	6121
683.571	6193
683.615	6715
683.662	6477
683.693	6396
683.709	6304
683.757	5524
683.804	6204
683.814	5968
683.851	5156
683.898	7172
683.936	6418
683.945	6195
683.992	6772
684.039	5982
684.057	6226
684.086	6537
684.133	6260
684.179	6590
684.180	6584
684.227	6219
684.274	6923
684.300	6892
684.321	6866
684.368	6964
684.415	6591
684.422	6670
684.462	6977
684.509	6797
684.543	7045
684.556	7139
684.603	7027
684.649	7525
684.665	7685
684.696	7948
684.743	7710
684.786	8056
684.790	8058
684.837	7715
684.883	6962
684.908	7607
684.930	8206
684.977	8084
685.023	8185
685.029	8147
685.070	7697
685.117	8521
685.150	8415
685.164	8370
685.210	8346
685.257	8599
685.272	8658
685.303	8703
685.350	8227
685.393	8463
685.396	8477
685.443	8693
685.490	8974
685.514	9296
685.536	9488
685.583	8506
685.629	8414
685.636	8420
685.675	8387
685.722	8345
685.757	8161
685.768	8163
685.815	8200
685.861	8470
685.878	8705
685.908	8973
685.954	9393
686.000	8885
686.000	8869
686.047	9664
686.093	8950
686.121	9152
686.139	9293
686.185	9136
686.232	9398
686.242	9392
686.278	9234
686.324	9185
686.363	9130
686.370	9161
686.416	8995
686.463	10071
686.484	9952
686.509	9667
686.555	9601
686.601	9825
686.606	9845
686.647	10093
686.693	9221
686.727	9377
686.739	9410
686.785	9849
686.831	9693
686.848	9625
686.877	9597
686.923	9344
686.969	10201
686.969	10204
687.015	10539
687.061	10790
687.090	10852
687.107	10738
687.153	10765
687.199	10699
687.211	10470
687.245	10018
687.291	10404
687.332	10739
687.336	10783
687.382	11264
687.428	10456
687.453	10980
687.474	11288
687.520	11029
687.565	10896
687.574	10845
687.611	10992
687.657	11528
687.695	11800
687.702	11903
687.748	12843
687.794	14710
687.816	14136
687.839	12930
687.885	12919
687.931	11884
687.937	11742
687.976	11266
688.022	11499
688.058	11458
688.067	11504
688.113	11343
688.158	11116
688.179	10854
688.204	10555
688.249	11598
688.295	11093
688.300	11135
688.340	11584
688.386	11179
688.421	11661
688.431	11807
688.477	11225
688.522	12496
688.542	12302
688.567	12158
688.613	12880
688.658	12561
688.663	12590
688.703	12413
688.749	12372
688.784	12384
688.794	12482
688.839	12009
688.884	12567
688.905	12545
688.930	12440
688.975	12338
689.020	11882
689.026	11877
689.065	12052
689.110	12184
689.146	12444
689.155	12547
689.201	12635
689.246	13428
689.267	13375
689.291	13198
689.336	13460
689.381	12846
689.388	12850
689.426	12891
689.471	12458
689.509	12659
689.516	12761
689.561	12733
689.606	13351
689.630	13106
689.651	12753
689.696	12733
689.741	13018
689.750	12894
689.785	12877
689.830	13138
689.871	13579
689.875	13615
689.920	13583
689.965	13793
689.992	13846
690.010	13874
690.054	13726
690.099	13487
690.112	13540
690.144	13558
690.189	13013
690.233	12784
690.233	12800
690.278	12945
690.323	13239
690.354	12707
690.367	12644
690.412	13215
690.457	13809
690.474	14194
690.501	14472
690.546	14118
690.590	14297
690.595	14221
690.635	13954
690.680	14161
690.716	14211
690.724	14330
690.769	15232
690.813	16224
690.836	16445
690.857	17727
690.902	21015
690.946	24251
690.957	25073
690.991	31240
691.035	40721
691.077	48855
691.080	48766
691.124	42086
691.168	35623
691.198	32488
691.213	30592
691.257	24769
691.301	19338
691.318	17138
691.346	16717
691.390	15961
691.434	15322
691.439	15227
691.478	15261
691.522	15349
691.559	15292
691.567	15312
691.611	15596
691.655	15361
691.680	15210
691.699	15149
691.743	15637
691.787	15626
691.800	15559
691.831	15351
691.875	15001
691.919	15222
691.921	15191
691.964	15250
692.008	15462
692.041	15361
692.052	15307
692.096	15112
692.139	15183
692.162	14881
692.183	14525
692.227	14490
692.271	14410
692.282	14275
692.315	14448
692.359	14541
692.402	14863
692.403	14891
692.447	15192
692.490	14962
692.523	15193
692.534	15259
692.578	15079
692.622	15035
692.643	14918
692.666	14936
692.709	15010
692.753	15081
692.763	15114
692.797	15288
692.840	14898
692.884	15116
692.884	15146
692.928	14837
692.971	14976
693.004	14587
693.015	14567
693.059	15131
693.102	15160
693.124	15462
693.146	15829
693.189	15912
693.233	15870
693.245	16010
693.276	16339
693.320	16275
693.363	16242
693.365	16224
693.407	17685
693.450	18645
693.485	19534
693.493	19886
693.537	21518
693.580	23131
693.605	24258
693.624	26888
693.667	33011
693.710	39478
693.725	41701
693.753	53410
693.797	73157
693.840	92075
693.845	93740
693.883	81877
693.926	68352
693.966	57525
693.970	56350
694.013	43273
694.056	30404
694.086	21603
694.099	21294
694.142	19642
694.185	18486
694.206	17808
694.229	17632
694.272	17451
694.315	17124
694.326	17002
694.358	17127
694.401	17054
694.444	17353
694.446	17326
694.487	17189
694.530	16743
694.566	16465
694.573	16493
694.616	16530
694.659	16367
694.686	16405
694.702	16490
694.745	16514
694.787	16661
694.806	16612
694.830	16632
694.873	16631
694.916	16415
694.926	16366
694.959	16442
695.002	16722
695.044	16865
695.046	16833
695.087	17176
695.130	17428
695.166	17485
695.172	17482
695.215	17618
695.258	17415
695.286	17264
695.301	17297
695.343	17325
695.386	17465
695.406	17459
695.428	17785
695.471	18208
695.514	18994
695.526	19117
695.556	19915
695.599	20943
695.641	21840
695.646	21883
695.684	21094
695.726	20474
695.766	19800
695.769	19856
695.811	20057
695.854	19926
695.886	20028
695.896	20054
695.938	19821
695.981	19690
696.005	19456
696.023	19796
696.065	20875
696.108	21585
696.125	21965
696.150	22130
696.192	22025
696.235	22100
696.245	22056
696.277	22290
696.319	22522
696.361	22764
696.365	22730
696.404	22485
696.446	22259
696.485	21832
696.488	21890
696.530	22093
696.572	22247
696.604	22316
696.614	22317
696.656	22206
696.698	21942
696.724	21797
696.740	21980
696.783	22276
696.825	22624
696.844	22676
696.867	22512
696.909	22195
696.951	21790
696.964	21655
696.992	21983
697.034	22265
697.076	22682
697.083	22677
697.118	22957
697.160	23317
697.202	23555
697.203	23506
697.244	23304
697.286	23098
697.323	22809
697.327	22834
697.369	22457
697.411	22266
697.442	22028
697.453	22186
697.494	22501
697.536	22911
697.562	23158
697.578	23262
697.620	23254
697.661	23336
697.682	23258
697.703	23607
697.744	24350
697.786	25060
697.801	25222
697.828	25036
697.869	24702
697.911	24341
697.921	24184
697.952	23973
697.994	23719
698.035	23339
698.040	23248
698.077	23533
698.118	23716
698.160	23899
698.160	23840
698.201	24563
698.243	25182
698.279	25714
698.284	25802
698.325	26038
698.367	26217
698.399	26327
698.408	26427
698.449	26535
698.491	26719
698.518	26726
698.532	26855
698.573	27092
698.614	27308
698.638	27365
698.656	27334
698.697	27114
698.738	26884
698.757	26706
698.779	26853
698.820	27004
698.862	27171
698.877	27164
698.903	27248
698.944	27267
698.985	27293
698.996	27234
699.026	27291
699.067	27274
699.116	27189
699.235	27610
699.354	26942
699.474	25887
699.593	25663
699.713	25468
699.832	25357
699.951	26611
700.070	25517
700.190	24468
700.309	24404
700.428	24680
700.547	23327
700.667	23914
700.786	23079
700.905	23087
701.024	22977
701.143	23320
701.262	23916
701.381	23736
701.500	22121
701.619	23681
701.738	23683
701.857	24200
701.976	21631
702.095	23156
702.214	23388
702.333	22838
702.452	22905
702.571	23546
702.690	23366
702.809	23123
702.928	21456
703.047	22061
703.165	21304
703.284	22110
703.403	20968
703.522	20960
703.640	20850
703.759	22081
703.878	20166
703.997	21247
704.115	20878
704.234	19695
704.353	21626
704.471	19869
704.590	19467
704.708	20441
704.827	19811
704.946	19117
705.064	19586
705.183	18720
705.301	19867
705.420	20568
705.538	20379
705.656	19067
705.775	17718
705.893	21736
706.012	22378
706.130	18612
706.249	18911
706.367	18395
706.485	18831
706.604	18129
706.722	19056
706.840	19961
706.958	23948
707.077	20951
707.195	18025
707.313	18371
707.431	16981
707.549	17398
707.668	17486
707.786	18111
707.904	17515
708.022	18062
708.140	16890
708.258	16922
708.376	17495
708.494	16081
708.612	17240
708.730	17884
708.848	18630
708.966	17155
709.084	17260
709.202	17480
709.320	16216
709.438	17256
709.556	17472
709.674	16053
709.791	16537
709.909	16473
710.027	15555
710.145	16155
710.263	16686
710.380	15818
710.498	15980
710.616	15464
710.733	15432
710.851	15457
710.969	16422
711.086	15309
711.204	15571
711.322	16417
711.439	14850
711.557	15719
711.674	14263
711.792	15312
711.909	15034
712.027	14026
712.144	14173
712.262	14421
712.379	15380
712.497	16583
712.614	16019
712.732	16744
712.849	14194
712.966	14653
713.084	15482
713.201	14544
713.318	15107
713.436	15589
713.553	14207
713.670	15325
713.787	14583
713.905	14343
714.022	15142
714.139	14960
714.256	15695
714.373	17430
714.490	23854
714.608	43541
714.725	146380
714.842	147999
714.959	22241
715.076	15462
715.193	14909
715.310	14404
715.427	14046
715.544	14584
715.661	13183
715.778	13832
715.895	12245
716.011	13509
716.128	13348
716.245	13786
716.362	14063
716.479	12970
716.596	13410
716.713	12943
716.829	12981
716.946	13014
717.063	12133
717.180	12428
717.296	12249
717.413	12443
717.530	13071
717.646	12022
717.763	12811
717.880	12411
717.996	11749
718.113	12145
718.229	12356
718.346	10416
718.462	11268
718.579	11908
718.695	11819
718.812	12061
718.928	11729
719.045	11530
719.161	10369
719.277	11702
719.394	11614
719.510	11948
719.626	11661
719.743	12461
719.859	14136
719.975	20280
720.092	54988
720.208	115999
720.324	21933
720.440	12614
720.557	11616
720.673	12588
720.789	11936
720.905	12729
721.021	11742
721.137	10520
721.253	10766
721.369	10431
721.486	11136
721.602	10503
721.718	10449
721.834	10795
721.950	10387
722.066	9929
722.181	9734
722.297	10061
722.413	9671
722.529	9547
722.645	9642
722.761	10541
722.877	9658
722.993	10646
723.108	9948
723.224	10217
723.340	10413
723.456	10583
723.571	9301
723.687	9230
723.803	9668
723.918	10067
724.034	8771
724.150	9383
724.265	9539
724.381	9867
724.497	9799
724.612	10304
724.728	9696
724.843	8660
724.959	8657
725.074	9649
725.190	9352
725.305	9050
725.421	8602
725.536	9302
725.651	9786
725.767	10125
725.882	9220
725.997	8919
726.113	9589
726.228	9467
726.343	8970
726.459	8800
726.574	8766
726.689	8649
726.804	8983
726.920	8270
727.035	8975
727.150	8527
727.265	8404
727.380	8499
727.495	8874
727.610	8933
727.725	8555
727.841	8857
727.956	10544
728.071	9396
728.186	8833
728.301	8039
728.416	9249
728.531	8571
728.645	8201
728.760	8809
728.875	7890
728.990	7795
729.105	8062
729.220	8161
729.335	7882
729.449	8526
729.564	7995
729.679	7776
729.794	8271
729.908	8062
730.023	8094
730.138	8415
730.253	8747
730.367	7285
730.482	7970
730.596	8261
730.711	8981
730.826	11041
730.940	10064
731.055	9704
731.169	9157
731.284	8992
731.398	8148
731.513	8902
731.627	9384
731.742	11199
731.856	11634
731.970	11362
732.085	11593
732.199	14346
732.313	16362
732.428	32213
732.542	86833
732.656	56740
732.771	16324
732.885	13453
732.999	13168
733.113	14438
733.227	15209
733.342	13585
733.456	14220
733.570	14181
733.684	12777
733.798	13198
733.912	13031
734.026	13117
734.140	13243
734.254	13165
734.368	13375
734.482	13522
734.596	12719
734.710	12758
734.824	13469
734.938	12944
735.052	13484
735.166	12834
735.280	12572
735.393	12242
735.507	12079
735.621	12422
735.735	11833
735.849	12699
735.962	11497
736.076	12358
736.190	10773
736.303	12302
736.417	12989
736.531	11134
736.644	11524
736.758	11326
736.872	11327
736.985	11297
737.099	10795
737.212	10395
737.326	10338
737.439	11169
737.553	11647
737.666	12037
737.780	9915
737.893	11150
738.007	10722
738.120	11884
738.233	10520
738.347	11222
738.460	10796
738.573	11325
738.687	9813
738.800	10423
738.913	9878
739.026	11207
739.140	9593
739.253	10739
739.366	9942
739.479	10097
739.592	9844
739.705	10242
739.818	11500
739.932	9470
740.045	9399
740.158	9851
740.271	10197
740.384	10257
740.497	9522
740.610	9391
740.723	9385
740.836	9550
740.949	9751
741.062	10371
741.174	9666
741.287	9253
741.400	9448
741.513	8856
741.626	9507
741.739	8915
741.851	8686
741.964	9350
742.077	8376
742.189	7592
742.302	8628
742.415	9502
742.527	8626
742.640	9035
742.753	8646
742.865	8798
742.978	8708
743.090	8808
743.203	9235
743.316	8418
743.428	8249
743.541	8432
743.653	8193
743.766	8436
743.878	8588
743.990	8124
744.103	9103
744.215	8339
744.327	7043
744.440	9205
744.552	8560
744.664	8334
744.777	7651
744.889	7824
745.001	8869
745.113	8685
745.226	7979
745.338	8052
745.450	8650
745.562	8218
745.674	8000
745.786	8250
745.898	8226
746.010	7455
746.122	7820
746.234	8107
746.347	7859
746.459	8271
746.570	6842
746.682	8747
746.794	8912
746.906	7704
747.018	7090
747.130	8573
747.242	7019
747.354	7284
747.466	8210
747.577	6604
747.689	8176
747.801	8497
747.913	7496
748.024	6593
748.136	6429
748.248	7514
748.359	6981
748.471	6825
748.583	7147
748.694	7019
748.806	6973
748.918	7359
749.029	7526
749.141	7010
749.252	7818
749.364	6690
749.475	7440
749.587	6891
749.698	7748
749.809	7722
749.921	7004
750.032	7491
750.144	6735
750.255	6269
750.366	6969
750.478	7417
750.589	7929
750.700	6274
750.811	7237
750.923	7566
751.034	6732
751.145	8118
751.256	6361
751.367	6904
751.479	7414
751.590	6537
751.701	6964
751.812	6770
751.923	7283
752.034	8145
752.145	6629
752.256	6644
752.367	6616
752.478	7329
752.589	7300
752.700	7023
752.811	6519
752.922	6818
753.032	6317
753.143	7343
753.254	6323
753.365	6693
753.476	6983
753.586	7421
753.697	6702
753.808	6630
753.919	7099
754.029	7194
754.140	6585
754.251	7474
754.361	6431
754.472	7491
754.582	6456
754.693	6155
754.804	6684
754.914	6500
755.025	6249
755.135	6501
755.246	7125
755.356	5740
755.466	7283
755.577	7222
755.687	7678
755.798	7262
755.908	6473
756.018	7000
756.129	7152
756.239	6133
756.349	6921
756.460	6884
756.570	6742
756.680	7025
756.790	6564
756.900	7510
757.011	7623
757.121	6062
757.231	7242
757.341	6754
757.451	7007
757.561	7651
757.671	6140
757.781	7347
757.891	7099
758.001	7105
758.111	7407
758.221	6789
758.331	7322
758.441	6992
758.551	6875
758.661	7516
758.771	7758
758.880	7736
758.990	8078
759.100	7638
759.210	8313
759.320	7340
759.429	7545
759.539	7980
759.649	8147
759.758	8915
759.868	8646
759.978	8027
760.087	9311
760.197	10086
760.307	8595
760.416	9141
760.526	7921
760.635	8036
760.745	8598
760.854	9553
760.964	9457
761.073	10994
761.182	10101
761.292	10133
761.401	9905
761.511	9972
761.620	10080
761.729	9970
761.839	9948
761.948	10863
762.057	10872
762.166	11552
762.276	11015
762.385	12334
762.494	12319
762.603	11548
762.712	12577
762.822	13288
762.931	13414
763.040	12907
763.149	14672
763.258	15258
763.367	16106
763.476	16092
763.585	16063
763.694	16684
763.803	17888
763.912	18525
764.021	19820
764.130	21017
764.238	22671
764.347	22589
764.456	24683
764.565	27912
764.674	29317
764.783	30846
764.891	34496
765.000	39865
765.109	44074
765.217	48963
765.326	57059
765.435	66792
765.543	78397
765.652	96104
765.761	118692
765.869	154764
765.978	199626
766.086	267208
766.195	348747
766.303	411592
766.412	317013
766.520	314899
766.629	370119
766.737	320177
766.846	250057
766.954	192439
767.062	149499
767.171	116357
767.279	95447
767.387	78202
767.496	66601
767.604	58031
767.712	50753
767.820	45180
767.928	42151
768.037	39021
768.145	37135
768.253	34725
768.361	33895
768.469	34550
768.577	34402
768.685	36792
768.793	38622
768.901	40934
769.009	47596
769.117	55892
769.225	69603
769.333	92866
769.441	131369
769.549	195746
769.657	297729
769.765	374543
769.873	294851
769.981	327894
770.088	273696
770.196	193119
770.304	138459
770.412	103494
770.519	81430
770.627	66094
770.735	54159
770.842	46435
770.950	39982
771.058	35635
771.165	33197
771.273	29420
771.380	27995
771.488	26936
771.595	25854
771.703	23388
771.810	22210
771.918	20669
772.025	21100
772.133	21140
772.240	19822
772.348	20645
772.455	20276
772.562	17832
772.670	17466
772.777	17608
772.884	17230
772.991	15781
773.099	16430
773.206	15519
773.313	14811
773.420	15478
773.528	14399
773.635	13282
773.742	13831
773.849	14249
773.956	12271
774.063	12473
774.170	13731
774.277	12369
774.384	11903
774.491	11566
774.598	12126
774.705	11955
774.812	12237
774.919	12766
775.026	11764
775.133	11002
775.239	10293
775.346	11099
775.453	10453
775.560	9871
775.667	11029
775.773	9418
775.880	9799
775.987	10131
776.093	10222
776.200	10506
776.307	9362
776.413	9864
776.520	9991
776.627	9696
776.733	9875
776.840	7839
776.946	11592
777.053	10436
777.159	8960
777.266	7914
777.372	9566
777.478	9065
777.585	9422
777.691	8389
777.798	9182
777.904	9040
778.010	8037
778.117	8577
778.223	8553
778.329	8114
778.435	7517
778.542	8489
778.648	7474
778.754	7600
778.860	7246
778.966	8330
779.072	7598
779.178	7830
779.284	7011
779.391	7707
779.497	7968
779.603	10512
779.708	11697
779.815	20379
779.920	60713
780.026	103017
780.132	21704
780.238	9264
780.344	8059
780.450	9159
780.556	6978
780.661	6665
780.767	7109
780.873	5800
780.979	6761
781.085	6331
781.190	6332
781.296	6808
781.402	6507
781.507	5638
781.613	6166
781.719	5533
781.824	6667
781.930	6479
782.035	6499
782.141	7299
782.246	5212
782.352	5976
782.457	5692
782.563	5777
782.668	5989
782.773	5475
782.879	3775
782.984	5544
783.090	5987
783.195	6606
783.300	5987
783.405	5290
783.511	4709
783.616	6557
783.721	4977
783.826	5094
783.932	5373
784.037	5926
784.142	6092
784.247	5095
784.352	4739
784.457	5522
784.562	4610
784.667	5885
784.772	4074
784.877	3825
784.982	5682
785.087	4957
785.192	4487
785.297	4391
785.402	5387
785.507	4909
785.611	4574
785.716	4133
785.821	4248
785.926	4898
786.031	4554
786.135	4965
786.240	5217
786.345	4105
786.450	4089
786.554	4154
786.659	4146
786.763	3842
786.868	4512
786.973	5584
787.077	4353
787.182	4235
787.286	3446
787.391	4959
787.495	3969
787.600	3841
787.704	4205
787.809	4430
787.913	3746
788.017	4552
788.122	4546
788.226	3966
788.330	2858
788.435	4137
788.539	4762
788.643	3929
788.747	3211
788.852	3869
788.956	3722
789.060	4421
789.164	3921
789.268	2888
789.372	5016
789.476	4433
789.580	2915
789.684	3276
789.788	4403
789.892	3999
789.996	3565
790.100	2665
790.204	3430
790.308	4297
790.412	2829
790.516	2784
790.620	3693
790.724	4177
790.828	3401
790.931	2625
791.035	3803
791.139	3647
791.242	3018
791.346	3414
791.450	3403
791.554	3610
791.657	2894
791.761	4468
791.864	4216
791.968	4076
792.072	4525
792.175	4200
792.279	3108
792.382	4170
792.486	3370
792.589	2654
792.693	3719
792.796	1966
792.899	3755
793.003	3962
793.106	1772
793.209	2384
793.313	3135
793.416	2818
793.519	3154
793.623	4529
793.726	3649
793.829	2818
793.932	2485
794.035	2255
794.138	3877
794.242	4432
794.345	3888
794.448	5066
794.551	9169
794.654	34297
794.757	64927
794.860	13900
794.963	4438
795.066	3476
795.169	4016
795.272	3561
795.375	4475
795.477	2433
795.580	2584
795.683	1706
795.786	2949
795.889	1826
795.991	2250
796.094	3080
796.197	2201
796.300	3232
796.402	2526
796.505	2429
796.608	1484
796.710	4143
796.813	3086
796.915	2761
797.018	2780
797.120	3307
797.223	1612
797.326	2543
797.428	1271
797.530	2499
797.633	1974
797.735	3985
797.838	2284
797.940	3677
798.042	2579
798.145	1932
798.247	2767
798.349	2159
798.452	2740
798.554	1928
798.656	2509
798.758	3970
798.860	1691
798.962	1991
799.065	1710
799.167	2077
799.269	2688
799.371	2873
799.473	2882
799.575	1975
799.677	1293
799.779	3251
799.881	616
799.983	3186
800.085	2168
800.187	2511
800.289	1595
800.390	1398
800.492	2495
800.594	3576
800.696	1827
800.798	1777
800.899	849
801.001	1924
801.103	2464
801.205	1834
801.306	2317
801.408	2322
801.509	1864
801.611	2531
801.713	2334
801.814	1393
801.916	1803
802.017	2007
802.119	818
802.220	2273
802.322	684
802.423	3187
802.525	478
802.626	1942
802.727	2303
802.829	2663
802.930	138
803.031	2404
803.133	1572
803.234	2655
803.335	2324
803.436	1211
803.538	1902
803.639	1372
803.740	2629
803.841	946
803.942	1507
804.043	2905
804.144	861
804.245	1253
804.346	1208
804.447	1242
804.548	1338
804.649	1965
804.750	1488
804.851	1462
804.952	1855
805.053	2083
805.154	1951
805.255	1893
805.355	1774
805.456	1913
805.557	1401
805.658	975
805.758	2542
805.859	1482
805.960	2087
806.061	1264
806.161	1378
806.262	1894
806.362	1538
806.463	1380
806.564	2326
806.664	1181
806.765	1786
806.865	1943
806.966	817
807.066	1276
807.166	1929
807.267	2225
807.367	946
807.468	2314
807.568	518
807.668	2214
807.769	2467
807.869	1383
807.969	2494
808.069	1323
808.170	839
808.270	1548
808.370	1373
808.470	1879
808.570	307
808.670	1536
808.770	2047
808.870	1681
808.970	1243
809.070	1341
809.170	1025
809.271	1760
809.370	1649
809.470	1814
809.570	1155
809.670	1253
809.770	1424
809.870	2722
809.970	2294
810.070	1895
810.169	1683
810.269	-108
810.369	2445
810.469	1162
810.568	685
810.668	1010
810.768	1400
810.867	1695
810.967	949
811.066	1124
811.166	1280
811.265	1176
811.365	905
811.464	1351
811.564	1255
811.663	1501
811.763	428
811.862	1254
811.962	2503
812.061	1757
812.160	892
812.260	1991
812.359	1424
812.458	1132
812.557	3529
812.657	3911
812.756	1902
812.855	2033
812.954	2075
813.053	1356
813.153	2264
813.252	880
813.351	1386
813.450	1539
813.549	1286
813.648	1711
813.747	1864
813.846	2048
813.945	1614
814.044	1317
814.143	1073
814.242	2507
814.341	467
814.439	1776
814.538	2042
814.637	1718
814.736	1375
814.835	2175
814.933	1487
815.032	2422
815.131	2881
815.229	4356
815.328	6450
815.427	4373
815.525	4373
815.624	3979
815.722	2981
815.821	4073
815.919	4812
816.018	3996
816.116	4608
816.215	4273
816.313	5048
816.412	6499
816.510	5719
816.609	5719
816.707	6022
816.805	5579
816.904	4122
817.002	6369
817.100	5604
817.198	6211
817.296	5339
817.395	5193
817.493	5903
817.591	5090
817.689	4796
817.787	4681
817.885	5513
817.983	4250
818.081	5420
818.179	6939
818.277	11920
818.375	9781
818.473	4817
818.571	4911
818.669	5609
818.767	5367
818.865	4106
818.963	4486
819.061	4492
819.158	4865
819.256	7822
819.354	9343
819.452	17879
819.549	11773
819.647	6625
819.745	3855
819.842	4094
819.940	4404
820.038	4280
820.135	3454
820.233	4510
820.330	3840
820.428	3805
820.525	5351
820.623	4293
820.720	3187
820.818	3889
820.915	4434
821.012	3304
821.110	2625
821.207	4298
821.304	3337
821.402	3975
821.499	4833
821.596	3313
821.693	3183
821.791	4327
821.888	3138
821.985	4546
822.082	2929
822.179	3586
822.276	3720
822.373	3101
822.470	3774
822.567	3430
822.664	3501
822.761	3870
822.858	3842
822.955	3755
823.052	2917
823.149	3362
823.246	4396
823.343	2721
823.440	3905
823.536	2783
823.633	3573
823.730	3365
823.827	3496
823.923	2967
824.020	3863
824.117	3362
824.213	2942
824.310	4043
824.407	2584
824.503	3123
824.600	3534
824.696	2595
824.793	3828
824.889	3023
824.986	3168
825.082	2107
825.179	3251
825.275	3413
825.371	2679
825.468	2909
825.564	1175
825.660	3502
825.757	4696
825.853	2983
825.949	2215
826.045	3237
826.142	2926
826.238	3411
826.334	4391
826.430	3011
826.526	2902
826.622	1716
826.718	3247
826.814	2778
826.910	2767
827.006	826
827.102	1577
827.198	3814
827.294	2584
827.390	3154
827.486	2392
827.582	1847
827.678	1804
827.774	3882
827.869	1565
827.965	3161
828.061	1293
828.157	3080
828.252	3561
828.348	1513
828.444	2308
828.539	1368
828.635	2277
828.731	2348
828.826	2170
828.922	1997
829.017	3063
829.113	2674
829.208	1643
829.304	1260
829.399	3516
829.495	2354
829.590	2012
829.685	1720
829.781	1996
829.876	1827
829.971	1376
830.066	1184
830.162	1291
830.257	3146
830.352	2112
830.447	1515
830.543	2254
830.638	1228
830.733	2962
830.828	2081
830.923	3034
831.018	2779
831.113	2147
831.208	1113
831.303	1648
831.398	956
831.493	1902
831.588	3108
831.683	996
831.778	1061
831.873	1476
831.967	2748
832.062	1970
832.157	1151
832.252	2518
832.346	997
832.441	2254
832.536	1739
832.631	2966
832.725	1235
832.820	2059
832.914	1722
833.009	954
833.104	1176
833.198	720
833.293	1180
833.387	2759
833.482	2276
833.576	1773
833.670	1279
833.765	1366
833.859	920
833.954	1690
834.048	1501
834.142	2373
834.237	1036
834.331	1516
834.425	1588
834.519	713
834.613	2470
834.708	1595
834.802	1888
834.896	1002
834.990	1373
835.084	1183
835.178	816
835.272	1136
835.366	1559
835.460	2793
835.554	1849
835.648	1449
835.742	467
835.836	366
835.930	520
836.024	2067
836.117	2028
836.211	1817
836.305	1675
836.399	1835
836.493	252
836.586	1907
836.680	1009
836.774	965
836.867	1518
836.961	750
837.055	93
837.148	1575
837.242	1439
837.335	1279
837.429	605
837.522	427
837.616	804
837.709	1252
837.803	817
837.896	2077
837.989	1858
838.083	2292
838.176	663
838.269	527
838.363	1205
838.456	411
838.549	1724
838.642	580
838.735	935
838.829	2515
838.922	618
839.015	1935
839.108	709
839.201	1085
839.294	1662
839.387	1012
839.480	597
839.573	1488
839.666	536
839.759	1151
839.852	309
839.945	1391
840.038	855
840.131	871
840.223	783
840.316	1399
840.409	1574
840.502	1096
840.594	2062
840.687	77
840.780	-93
840.873	407
840.965	725
841.058	1460
841.150	1459
841.243	735
841.336	742
841.428	551
841.521	1043
841.613	1374
841.706	427
841.798	782
841.890	1032
841.983	-265
842.075	2041
842.167	430
842.260	1399
842.352	1984
842.444	702
842.537	813
842.629	668
842.721	851
842.813	280
842.905	-31
842.997	1463
843.090	807
843.182	775
843.274	28
843.366	1695
843.458	1790
843.550	2661
843.642	858
843.734	1047
843.826	603
843.918	583
844.009	1274
844.101	246
844.193	630
844.285	533
844.377	1251
844.469	1019
844.560	184
844.652	-53
844.744	975
844.835	990
844.927	1543
845.019	731
845.110	241
845.202	1127
845.293	-309
845.385	-587
845.476	627
845.568	676
845.659	589
845.751	1946
845.842	498
845.934	480
846.025	569
846.116	690
846.208	1375
846.299	362
846.390	683
846.482	450
846.573	1271
846.664	731
846.755	312
846.846	1363
846.937	-1564
847.029	423
847.120	775
847.211	747
847.302	1730
847.393	-819
847.484	578
847.575	-624
847.666	614
847.757	86
847.847	664
847.938	1410
848.029	117
848.120	509
848.211	615
848.302	-214
848.392	291
848.483	102
848.574	53
848.664	-245
848.755	1370
848.846	-155
848.936	551
849.027	646
849.118	824
849.208	-38
849.299	555
849.389	1173
849.480	2041
849.570	2391
849.661	4263
849.751	7223
849.841	2674
849.932	437
850.022	143
850.112	212
850.203	1369
850.293	648
850.383	584
850.474	-68
850.564	47
850.654	323
850.744	-128
850.834	1123
850.924	-40
851.014	1267
851.104	357
851.194	-410
851.284	-325
851.374	154
851.464	147
851.554	171
851.644	-340
851.734	343
851.824	209
851.914	627
852.004	2242
852.094	1953
852.183	768
852.273	1126
852.363	-122
852.452	228
852.542	787
852.632	-352
852.721	266
852.811	275
852.901	579
852.990	1014
853.080	1242
853.169	249
853.259	738
853.348	344
853.438	549
853.527	573
853.617	654
853.706	2513
853.795	2464
853.885	7296
853.974	12363
854.063	22533
854.152	32883
854.242	12691
854.331	3467
854.420	1005
854.509	211
854.598	1217
854.687	874
854.777	1027
854.866	99
854.955	563
855.044	-287
855.133	-211
855.222	476
855.311	803
855.400	482
855.488	576
855.577	292
855.666	389
855.755	723
855.844	195
855.933	818
856.021	192
856.110	1213
856.199	-965
856.288	-318
856.376	-197
856.465	360
856.554	885
856.642	989
856.731	1035
856.819	-82
856.908	-462
856.996	-150
857.085	-125
857.173	167
857.262	777
857.350	197
857.438	157
857.527	499
857.615	182
857.703	441
857.792	1004
857.880	-251
857.968	302
858.056	6
858.145	824
858.233	406
858.321	479
858.409	1419
858.497	-374
858.585	176
858.673	730
858.761	-93
858.849	122
858.937	231
859.025	-326
859.113	265
859.201	-148
859.289	1310
859.377	261
859.465	86
859.552	112
859.640	-142
859.728	476
859.816	851
859.903	596
859.991	154
860.079	406
860.166	-24
860.254	462
860.342	429
860.429	11
860.517	-97
860.604	556
860.692	7
860.779	-203
860.867	399
860.954	260
861.042	17
861.129	520
861.216	202
861.304	75
861.391	-40
861.478	177
861.565	405
861.653	443
861.740	131
861.827	519
861.914	514
862.001	-32
862.089	-112
862.176	299
862.263	177
862.350	1220
862.437	67
862.524	-252
862.611	-284
862.698	1071
862.785	847
862.871	1296
862.958	810
863.045	274
863.132	142
863.219	377
863.306	-354
863.392	576
863.479	-174
863.566	214
863.652	784
863.739	341
863.826	587
863.912	260
863.999	219
864.086	-54
864.172	127
864.259	671
864.345	414
864.432	916
864.518	666
864.604	-157
864.691	13
864.777	511
864.863	1489
864.950	1760
865.036	2564
865.122	5184
865.209	4860
865.295	4699
865.381	3503
865.467	4107
865.553	4136
865.639	3260
865.726	4941
865.812	7405
865.898	10060
865.984	12378
866.070	20473
866.156	22755
866.242	8436
866.328	4914
866.414	4705
866.499	4436
866.585	4201
866.671	3886
866.757	4220
866.843	3894
866.928	4121
867.014	3604
867.100	3864
867.186	3534
867.271	3799
867.357	3664
867.442	3257
867.528	3284
867.614	3168
867.699	2970
867.785	3456
867.870	2746
867.956	3546
868.041	3262
868.127	3270
868.212	3582
868.297	3454
868.383	2911
868.468	3011
868.553	3256
868.639	2860
868.724	3176
868.809	4099
868.894	3487
868.979	3264
869.065	3256
869.150	1479
869.235	2933
869.320	2623
869.405	2176
869.490	3550
869.575	2980
869.660	2360
869.745	3695
869.830	3578
869.915	2353
870.000	2960
870.085	2947
870.169	2748
870.254	3384
870.339	2051
870.424	1009
870.509	3119
870.593	3168
870.678	2767
870.763	2140
870.847	2288
870.932	1998
871.016	3216
871.101	1268
871.186	2143
871.270	3668
871.355	2261
871.439	1690
871.523	2964
871.608	2038
871.692	1590
871.777	2858
871.861	2551
871.945	1986
872.030	2451
872.114	1711
872.198	1362
872.282	2062
872.367	2419
872.451	1898
872.535	1816
872.619	1970
872.703	2394
872.787	2766
872.871	2968
872.955	1997
873.039	1409
873.123	2617
873.207	2497
873.291	974
873.375	1150
873.459	2288
873.543	1530
873.627	1285
873.711	1337
873.794	1947
873.878	2269
873.962	255
874.045	1354
874.129	2406
874.137	2292
874.213	1150
874.245	1453
874.296	1952
874.352	1428
874.380	1171
874.460	1017
874.464	1011
874.547	1195
874.568	1515
874.631	2455
874.676	2078
874.714	1765
874.784	2490
874.798	2632
874.881	2651
874.892	2503
874.965	1498
874.999	1662
875.048	1902
875.107	1653
875.131	1536
875.215	1365
875.215	1364
875.298	942
875.323	1066
875.381	1349
875.430	1624
875.465	1823
875.538	1918
875.548	1927
875.631	1314
875.646	1289
875.714	1184
875.753	1024
875.798	895
875.861	1769
875.881	2011
875.964	1663
875.968	1623
876.047	1024
876.076	1126
876.130	1177
876.183	1080
876.213	1115
876.291	1598
876.296	1627
876.379	924
876.398	922
876.462	844
876.506	832
876.545	852
876.613	672
876.628	642
876.711	1253
876.721	1244
876.794	1063
876.828	1284
876.877	1623
876.935	980
876.960	773
877.043	957
877.043	958
877.125	966
877.150	1127
877.208	1338
877.258	1078
877.291	1025
877.365	1131
877.374	1136
877.456	464
877.472	518
877.539	808
877.579	914
877.622	964
877.687	1479
877.704	1631
877.787	779
877.794	853
877.869	1516
877.901	1383
877.952	1264
878.008	925
878.034	778
878.115	726
878.117	722
878.199	653
878.222	649
878.282	696
878.329	1291
878.364	1669
878.437	1560
878.447	1565
878.529	315
878.544	407
878.611	730
878.651	700
878.694	706
878.758	773
878.776	802
878.858	1233
878.865	1224
878.941	851
878.972	674
879.023	510
879.078	769
879.105	959
879.185	842
879.187	833
879.269	525
879.292	579
879.351	808
879.399	382
879.433	53
879.506	454
879.516	526
879.598	832
879.613	796
879.680	483
879.720	575
879.762	716
879.827	663
879.844	636
879.926	888
879.933	867
880.007	602
880.040	536
880.089	462
880.147	309
880.171	322
880.253	885
880.254	884
880.335	368
880.360	567
880.417	1070
880.467	1142
880.499	1324
880.574	1795
880.580	1774
880.662	1253
880.680	1002
880.744	409
880.787	485
880.825	596
880.893	693
880.907	680
880.989	671
881.000	660
881.070	928
881.106	970
881.152	664
881.213	473
881.233	516
881.315	194
881.319	212
881.396	809
881.426	964
881.478	793
881.532	766
881.559	917
881.639	374
881.641	360
881.722	326
881.745	549
881.803	1165
881.852	1140
881.885	949
881.958	410
881.966	378
882.047	672
882.064	706
882.129	886
882.171	522
882.210	56
882.277	258
882.291	354
882.372	700
882.383	738
882.454	737
882.489	404
882.535	113
882.596	440
882.616	595
882.697	567
882.702	572
882.778	422
882.808	580
882.859	940
882.914	812
882.940	571
883.020	436
883.021	441
883.102	921
883.127	979
883.183	581
883.233	346
883.264	442
883.339	338
883.345	294
883.426	176
883.445	200
883.507	630
883.551	575
883.587	493
883.657	512
883.668	513
883.749	739
883.763	714
883.830	333
883.869	252
883.910	332
883.975	469
883.991	455
884.072	665
884.081	634
884.152	537
884.187	506
884.233	559
884.292	515
884.314	395
884.394	178
884.398	173
884.475	-231
884.504	-415
884.555	-34
884.610	293
884.636	274
884.716	533
884.716	535
884.797	599
884.821	690
884.877	796
884.927	784
884.958	581
885.033	338
885.038	337
885.118	191
885.139	162
885.199	204
885.244	151
885.279	150
885.350	398
885.359	514
885.439	1448
885.456	1564
885.520	901
885.561	589
885.600	373
885.667	229
885.680	284
885.760	32
885.773	76
885.840	-30
885.878	-160
885.920	-241
885.984	-167
886.000	-20
886.080	195
886.089	265
886.160	300
886.195	217
886.240	403
886.300	616
886.320	590
886.400	583
886.406	590
886.480	686
886.511	584
886.560	90
886.616	-178
886.640	-135
886.720	-520
886.722	-518
886.800	-131
886.827	-22
886.879	449
886.932	900
886.959	967
887.038	1020
887.039	1009
887.119	-57
887.143	-329
887.198	407
887.248	934
887.278	884
887.354	856
887.358	843
887.437	467
887.459	374
887.517	451
887.564	552
887.596	581
887.669	484
887.676	458
887.755	359
887.774	290
887.835	558
887.880	797
887.914	854
887.985	941
887.994	867
888.073	235
888.090	98
888.153	620
888.195	876
888.232	664
888.300	431
888.311	451
888.391	574
888.405	588
888.470	272
888.510	103
888.549	121
888.615	121
888.628	129
888.708	170
888.720	181
888.787	565
888.825	779
888.866	434
888.930	-134
888.945	-17
889.024	692
889.035	771
889.103	481
889.140	364
889.182	361
889.245	341
889.261	450
889.340	972
889.349	1031
889.419	869
889.454	795
889.498	845
889.559	908
889.577	806
889.656	367
889.664	328
889.735	388
889.768	422
889.814	396
889.873	365
889.978	-167
890.083	1371
890.187	623
890.292	290
890.397	117
890.501	692
890.606	403
890.710	707
890.815	641
890.919	65
891.024	733
891.128	721
891.233	799
891.337	703
891.442	-133
891.546	31
891.650	-393
891.755	1054
891.859	1136
891.963	974
892.068	703
892.172	967
892.276	275
892.380	516
892.484	486
892.589	1082
892.693	204
892.797	-182
892.901	483
893.005	-189
893.109	777
893.213	207
893.317	782
893.421	193
893.525	-216
893.629	57
893.733	762
893.837	937
893.941	462
894.045	876
894.148	-107
894.252	460
894.356	369
894.460	928
894.564	343
894.667	178
894.771	71
894.875	294
894.978	352
895.082	229
895.186	697
895.289	406
895.393	311
895.496	745
895.600	-127
895.703	189
895.807	545
895.910	-150
896.014	497
896.117	-30
896.221	1003
896.324	623
896.427	368
896.531	251
896.634	77
896.737	702
896.840	343
896.944	-110
897.047	-25
897.150	296
897.253	234
897.356	285
897.460	-139
897.563	191
897.666	-318
897.769	663
897.872	-43
897.975	771
898.078	46
898.181	394
898.284	654
898.387	1150
898.490	205
898.593	381
898.695	228
898.798	-263
898.901	440
899.004	-33
899.107	454
899.209	-300
899.312	325
899.415	648
899.518	-298
899.620	261
899.723	-99
899.826	1074
899.928	941
900.031	-35
900.133	184
900.236	414
900.338	109
900.441	216
900.543	401
900.646	143
900.748	-351
900.851	624
900.953	-244
901.055	-669
901.158	301
901.260	696
901.362	-673
901.465	-53
901.567	350
901.669	271
901.771	24
901.873	535
901.976	109
902.078	-355
902.180	300
902.282	13
902.384	-668
902.486	820
902.588	410
902.690	577
902.792	-103
902.894	119
902.996	-89
903.098	1622
903.200	777
903.302	275
903.404	99
903.505	221
903.607	472
903.709	1723
903.811	396
903.913	709
904.014	227
904.116	-772
904.218	-402
904.319	-68
904.421	-65
904.523	707
904.624	-583
904.726	-459
904.827	-195
904.929	170
905.030	123
905.132	682
905.233	544
905.335	408
905.436	-384
905.537	1227
905.639	45
905.740	-23
905.841	341
905.943	155
906.044	-409
906.145	338
906.247	20
906.348	283
906.449	287
906.550	1074
906.651	-97
906.752	-310
906.854	135
906.955	-779
907.056	146
907.157	288
907.258	458
907.359	486
907.460	92
907.561	44
907.662	14
907.762	38
907.863	-519
907.964	-202
908.065	-72
908.166	283
908.267	916
908.367	-652
908.468	1075
908.569	207
908.670	33
908.770	-25
908.871	-406
908.971	-256
909.072	753
909.173	247
909.273	262
909.374	-166
909.474	-79
909.575	491
909.675	170
909.776	117
909.876	-540
909.977	747
910.077	469
910.177	1157
910.278	366
910.378	-127
910.478	180
910.579	397
910.679	-202
910.779	732
910.879	-449
910.980	363
911.080	-333
911.180	-54
911.280	-152
911.380	-68
911.480	124
911.580	30
911.680	178
911.780	458
911.880	96
911.980	89
912.080	-661
912.180	248
912.280	-82
912.380	-334
912.480	-19
912.580	299
912.679	259
912.779	142
912.879	303
912.979	435
913.078	-384
913.178	-384
913.278	-29
913.377	614
913.477	209
913.577	244
913.676	466
913.776	-525
913.875	670
913.975	855
914.074	-316
914.174	-570
914.273	-585
914.373	-145
914.472	-785
914.572	474
914.671	-829
914.770	-150
914.870	-479
914.969	-22
915.068	-590
915.167	713
915.267	-292
915.366	320
915.465	14
915.564	849
915.663	527
915.763	-10
915.862	416
915.961	-43
916.060	26
916.159	-714
916.258	-527
916.357	323
916.456	122
916.555	730
916.654	119
916.752	338
916.851	-532
916.950	208
917.049	-249
917.148	-200
917.247	408
917.345	-21
917.444	-52
917.543	465
917.642	-581
917.740	110
917.839	-261
917.937	625
918.036	127
918.135	363
918.233	-94
918.332	419
918.430	144
918.529	382
918.627	-474
918.726	-34
918.824	-204
918.923	207
919.021	-164
919.119	746
919.218	-23
919.316	93
919.414	-108
919.512	607
919.611	-184
919.709	596
919.807	-560
919.905	19
920.003	-188
920.102	-307
920.200	403
920.298	345
920.396	-331
920.494	1125
920.592	-297
920.690	293
920.788	243
920.886	597
920.984	190
921.082	324
921.180	272
921.277	639
921.375	608
921.473	476
921.571	-218
921.669	221
921.766	697
921.864	563
921.962	575
922.060	182
922.157	-218
922.255	832
922.352	588
922.450	436
922.548	294
922.645	797
922.743	594
922.840	2185
922.938	1580
923.035	1699
923.133	2011
923.230	2428
923.327	2441
923.425	3054
923.522	1738
923.619	1943
923.717	1179
923.814	2038
923.911	1283
924.008	2456
924.106	1546
924.203	1396
924.300	2071
924.397	1564
924.494	1932
924.591	2201
924.688	1584
924.786	1696
924.883	2164
924.979	2256
925.077	2179
925.173	1564
925.270	1528
925.367	791
925.464	1844
925.561	1938
925.658	1778
925.755	1377
925.852	1111
925.948	2555
926.045	2262
926.142	1722
926.239	1282
926.335	1246
926.432	1745
926.529	2227
926.625	2482
926.722	803
926.818	982
926.915	2373
927.011	1231
927.108	1953
927.204	715
927.301	2505
927.397	1966
927.494	2321
927.590	1648
927.687	675
927.783	1243
927.879	1588
927.976	1291
928.072	1488
928.168	595
928.264	1350
928.361	1599
928.457	2109
928.553	1197
928.649	1190
928.745	2086
928.841	2103
928.937	1219
929.033	1914
929.129	1806
929.225	1662
929.321	1622
929.417	1545
929.513	1385
929.609	735
929.705	803
929.801	1776
929.897	1158
929.993	1109
930.089	1780
930.184	1104
930.280	1091
930.376	1248
930.471	971
930.567	-57
930.663	1275
930.758	574
930.854	1499
930.950	1115
931.045	683
931.141	1359
931.236	947
931.332	848
931.427	438
931.523	1086
931.618	1271
931.714	204
931.809	920
931.905	2398
932.000	205
932.095	335
932.191	1116
932.286	2301
932.381	1038
932.476	937
932.572	629
932.667	823
932.762	513
932.857	1306
932.952	874
933.047	521
933.142	11
933.237	589
933.332	1102
933.427	1316
933.522	937
933.617	274
933.712	749
933.807	1001
933.902	804
933.997	1624
934.092	337
934.187	958
934.282	76
934.376	1521
934.471	1467
934.566	156
934.661	156
934.755	506
934.850	442
934.945	1860
935.039	235
935.134	235
935.228	611
935.323	1260
935.417	1185
935.512	854
935.606	388
935.701	807
935.795	1025
935.890	209
935.984	1426
936.079	674
936.173	134
936.267	75
936.362	268
936.456	693
936.550	1219
936.644	977
936.738	-243
936.833	978
936.927	286
937.021	749
937.115	323
937.209	-532
937.303	1197
937.397	1108
937.491	896
937.585	800
937.679	408
937.773	259
937.867	1035
937.961	546
938.055	849
938.149	732
938.243	1473
938.337	386
938.430	698
938.524	1182
938.618	742
938.712	716
938.805	488
938.899	414
938.993	1255
939.086	575
939.180	123
939.274	161
939.367	1606
939.461	660
939.554	330
939.648	654
939.741	138
939.835	16
939.928	1657
940.022	1455
940.115	558
940.208	968
940.302	1043
940.395	856
940.488	98
940.582	656
940.675	126
940.768	595
940.861	546
940.954	547
941.048	-163
941.141	370
941.234	-687
941.327	345
941.420	343
941.513	724
941.606	-551
941.699	545
941.792	124
941.885	1309
941.978	505
942.071	584
942.164	-76
942.257	-496
942.349	-230
942.442	247
942.535	128
942.628	-64
942.721	114
942.813	-194
942.906	1282
942.999	84
943.091	-668
943.184	439
943.277	-184
943.369	-183
943.462	-219
943.554	156
943.647	-214
943.739	283
943.832	-24
943.924	-319
944.017	-54
944.109	-303
944.201	-573
944.294	246
944.386	630
944.478	-426
944.571	-176
944.663	-107
944.755	117
944.847	-317
944.940	-322
945.032	-321
945.124	-424
945.216	1526
945.308	426
945.400	1150
945.492	382
945.584	19
945.676	751
945.768	-79
945.860	726
945.952	448
946.044	751
946.136	-226
946.228	-272
946.320	749
946.412	43
946.503	-82
946.595	988
946.687	268
946.779	-25
946.870	200
946.962	-503
947.054	821
947.145	121
947.237	-631
947.329	381
947.420	-321
947.512	588
947.603	80
947.695	69
947.786	-946
947.878	561
947.969	938
948.061	-924
948.152	-231
948.243	182
948.335	39
948.426	-393
948.517	-627
948.609	-535
948.700	156
948.791	-485
948.882	67
948.973	105
949.065	369
949.156	225
949.247	-45
949.338	-268
949.429	-1205
949.520	237
949.611	-566
949.702	118
949.793	-167
949.884	307
949.975	380
950.066	-882
950.157	-25
950.247	-600
950.338	-158
950.429	-142
950.520	-66
950.611	-368
950.701	380
950.792	100
950.883	479
950.973	-853
951.064	-341
951.155	-370
951.245	355
951.336	227
951.427	-309
951.517	330
951.608	317
951.698	-879
951.788	-257
951.879	-989
951.969	-303
952.060	-339
952.150	-129
952.240	-192
952.331	-1143
952.421	605
952.511	-191
952.602	-398
952.692	-235
952.782	-602
952.872	-202
952.962	-703
953.052	-164
953.143	-1025
953.233	-555
953.323	-524
953.413	-744
953.503	-127
953.593	201
953.683	-640
953.773	-1160
953.863	-560
953.953	225
954.042	-230
954.132	-573
954.222	139
954.312	221
954.402	-148
954.492	-368
954.581	-87
954.671	51
954.761	-1023
954.850	409
954.940	-806
955.030	-285
955.119	-797
955.209	-599
955.298	-1152
955.388	-532
955.477	458
955.567	-236
955.656	202
955.746	-358
955.835	-703
955.925	-322
956.014	384
956.103	24
956.193	-58
956.282	98
956.371	-215
956.461	-654
956.550	-446
956.639	-672
956.728	-435
956.817	-203
956.906	-641
956.995	147
957.085	-334
957.174	-714
957.263	-697
957.352	52
957.441	-1375
957.530	-155
957.619	-138
957.708	-457
957.796	-303
957.885	-481
957.974	236
958.063	852
958.152	-740
958.241	-99
958.329	-221
958.418	-771
958.507	-1230
958.596	1030
958.684	-759
958.773	406
958.861	-329
958.950	-289
959.039	-309
959.127	-424
959.216	312
959.304	-161
959.393	-733
959.481	27
959.570	-524
959.658	-821
959.746	-774
959.835	-68
959.923	-105
960.011	-668
960.100	391
960.188	-4
960.276	-805
960.365	-380
960.453	-745
960.541	-964
960.629	-522
960.717	-229
960.805	141
960.893	101
960.981	-735
961.069	766
961.158	-29
961.245	443
961.333	375
961.421	-820
961.509	81
961.597	-1235
961.685	-587
961.773	-995
961.861	-642
961.949	-615
962.036	-533
962.124	644
962.212	-133
962.299	-520
962.387	-1311
962.475	-534
962.562	-1282
962.650	65
962.738	-801
962.825	-338
962.913	-394
963.000	50
963.088	-188
963.175	-97
963.263	-795
963.350	-294
963.438	-220
963.525	-763
963.612	453
963.700	-677
963.787	241
963.874	-603
963.962	-1016
964.049	-331
964.136	78
964.223	-926
964.310	-1407
964.398	-202
964.485	-1412
964.572	-123
964.659	-189
964.746	-97
964.833	-783
964.920	-1258
965.007	-50
965.094	-376
965.181	-1845
965.268	-195
965.355	-785
965.441	-1189
965.528	-847
965.615	-102
965.702	-476
965.789	-911
965.875	-109
965.962	-357
966.049	-1123
966.136	419
966.222	-582
966.309	331
966.395	-798
966.482	-41
966.569	-695
966.655	-494
966.742	-666
966.828	-300
966.915	-221
967.001	42
967.087	-1283
967.174	-482
967.260	-445
967.347	-475
967.433	-320
967.519	-782
967.605	-497
967.692	-235
967.778	-663
967.864	-436
967.950	-684
968.036	-1169
968.123	-151
968.209	-47
968.295	-1009
968.381	270
968.467	-674
968.553	-2113
968.639	41
968.725	-1042
968.811	-653
968.897	195
968.983	-1167
969.069	-616
969.154	-279
969.240	699
969.326	-1252
969.412	-910
969.497	-1040
969.583	-1252
969.669	67
969.755	-114
969.840	-623
969.926	-619
970.012	-953
970.097	768
970.183	70
970.268	-566
970.354	-347
970.439	-985
970.525	495
970.610	-1283
970.696	230
970.781	-307
970.866	-1551
970.952	-772
971.037	-490
971.122	-117
971.208	-298
971.293	342
971.378	-911
971.463	-817
971.549	-225
971.634	-579
971.719	-1189
971.804	-843
971.889	393
971.974	-466
972.059	-483
972.144	-776
972.229	147
972.314	-1420
972.399	-697
972.484	-1053
972.569	-541
972.654	-985
972.739	-490
972.824	-1247
972.908	-913
972.993	-1007
973.078	-562
973.163	-697
973.247	246
973.332	-1388
973.417	479
973.501	-2013
973.586	-704
973.671	541
973.755	-846
973.840	-686
973.924	-342
974.009	-428
974.093	-905
974.178	200
974.262	-985
974.346	-777
974.431	-761
974.515	-1
974.600	-959
974.684	-121
974.768	-446
974.852	-132
974.937	-1371
975.021	-343
975.105	-561
975.189	-225
975.273	48
975.358	-580
975.442	-1306
975.526	597
975.610	-1147
975.694	-1029
975.778	69
975.862	-313
975.946	-1625
976.030	151
976.114	-1461
976.198	-939
976.281	-1075
976.365	93
976.449	-1294
976.533	359
976.617	-1385
976.700	-1002
976.784	-926
976.868	-1266
976.951	-647
977.035	-831
977.119	-1307
977.202	-186
977.286	-673
977.369	-686
977.453	271
977.536	-168
977.620	-1628
977.703	-77
977.787	-1046
977.870	197
977.953	-368
978.037	-1901
978.120	-302
978.203	-739
978.287	-799
978.370	-747
978.453	-990
978.536	-979
978.620	-703
978.703	-368
978.786	-789
978.869	-642
978.952	-2757
979.035	478
979.118	-476
979.201	-1372
979.284	-303
979.367	-702
979.450	-432
979.533	-329
979.616	-1536
979.699	74
979.782	-19
979.865	-266
979.948	-1315
980.030	-812
980.113	-1276
980.196	-1028
980.279	-537
980.361	-775
980.444	-1116
980.526	-387
980.609	-438
980.692	-1064
980.774	807
980.857	-96
980.939	-182
981.022	-496
981.104	-1281
981.187	-1243
981.269	-124
981.352	-767
981.434	-966
981.516	-1445
981.599	-456
981.681	-619
981.763	-717
981.846	102
981.928	-1100
982.010	-846
982.092	-1047
982.174	-12
982.256	-858
982.339	-453
982.421	-377
982.503	-691
982.585	-1696
982.667	-715
982.749	-1250
982.831	-46
982.913	-1799
982.995	-344
983.077	-1186
983.158	-45
983.240	-1659
983.322	-184
983.404	79
983.486	-1562
983.568	-72
983.649	-917
983.731	13
983.813	-636
983.894	-901
983.976	-1313
984.058	-728
984.139	99
984.221	-1157
984.302	-14
984.384	-583
984.465	-1109
984.547	-89
984.628	-93
984.710	-290
984.791	-993
984.872	-156
984.954	-871
985.035	-1161
985.116	-749
985.198	-1734
985.279	484
985.360	-1040
985.441	-1163
985.522	79
985.604	-569
985.685	-2584
985.766	707
985.847	6
985.928	-1109
986.009	-460
986.090	-593
986.171	-162
986.252	-1249
986.333	-1125
986.414	-1239
986.495	-1099
986.576	-1045
986.656	-401
986.737	-12
986.818	-802
986.899	-936
986.980	-313
987.060	382
987.141	-1471
987.222	20
987.302	-1411
987.383	310
987.464	-1321
987.544	-203
987.625	-375
987.705	-14
987.786	-545
987.866	-1166
987.947	-1129
988.027	-668
988.108	-1350
988.188	-364
988.268	-628
988.349	-347
988.429	-668
988.509	8
988.589	-689
988.670	-2014
988.750	189
988.830	-529
988.910	-679
988.990	-380
989.070	-397
989.151	-384
989.231	-1739
989.311	-275
989.391	-835
989.471	36
989.551	-1178
989.631	-948
989.711	-539
989.791	-702
989.870	-1318
989.950	-72
990.030	-1872
990.110	-1082
990.190	-806
990.269	-861
990.349	-612
990.429	-1137
990.509	-225
990.588	-1165
990.668	-213
990.747	-166
990.827	-1430
990.907	-568
990.986	-995
991.066	383
991.145	-1085
991.225	-180
991.304	-1135
991.383	-900
991.463	-1269
991.542	-569
991.622	-988
991.701	-966
991.780	-1186
991.859	-1277
991.939	-610
992.018	-572
992.097	-1126
992.176	-340
992.256	-342
992.335	-140
992.414	-626
992.493	-1380
992.572	-1039
992.651	526
992.730	-1123
992.809	-968
992.888	-1089
992.967	-998
993.046	-386
993.125	-1550
993.203	-667
993.282	-325
993.361	-858
993.440	-1162
993.519	-1655
993.597	-718
993.676	-1364
993.755	-487
993.834	-1279
993.912	-1847
993.991	-628
994.069	-965
994.148	-1272
994.226	-1357
994.305	-911
994.384	-1719
994.462	-915
994.540	-890
994.619	-1187
994.697	-352
994.776	-1458
994.854	-524
994.932	-1499
995.011	-1358
995.089	-2046
995.167	-1102
995.245	-1514
995.324	-1527
995.402	-776
995.480	-1621
995.558	-1239
995.636	-2032
995.714	-1041
995.792	29
995.870	-1835
995.948	-1630
996.026	-890
996.104	-2236
996.182	-178
996.260	-1068
996.338	-348
996.416	-1680
996.494	-1282
996.572	-558
996.649	-2205
996.727	-1471
996.805	-642
996.883	-1810
996.960	-1288
997.038	-1140
997.116	-972
997.193	-1700
997.271	-1450
997.348	-2691
997.426	-830
997.504	-1557
997.581	-1051
997.658	-672
997.736	-1843
997.813	-2084
997.891	-1220
997.968	-1661
998.046	-826
998.123	-1293
998.200	-1506
998.277	-965
998.355	-625
998.432	-2542
998.509	-2012
998.586	-770
998.663	-1855
998.741	-803
998.818	-1132
998.895	-1459
998.972	-1334
999.049	-872
999.126	-1564
999.203	-840
999.280	-1676
999.357	-1875
999.434	-1294
999.511	-1374
999.587	-1482
999.664	-1787
999.741	-1208
999.818	-712
999.895	-1469
999.971	-1788
1000.048	-1212
1000.125	-849
1000.202	-1617
1000.278	-826
1000.355	-1593
1000.431	-2254
1000.508	-2286
1000.584	-1633
1000.661	-1493
1000.738	-1941
1000.814	-1375
1000.890	-989
1000.967	-1320
1001.043	-1410
1001.120	-2438
1001.196	-895
1001.272	-1961
1001.349	-1846
1001.425	-1354
1001.501	-963
1001.577	-2000
1001.654	-1529
1001.730	-1606
1001.806	-1079
1001.882	-2649
1001.958	-789
1002.034	-600
1002.110	-806
1002.186	-1926
1002.262	-1721
1002.338	-2717
1002.414	-1078
1002.490	-680
1002.566	-1463
1002.642	-1993
1002.718	-468
1002.794	-1547
1002.870	-1642
1002.945	-1555
1003.021	-1619
1003.097	-1667
1003.173	-491
1003.248	-1378
1003.324	-2120
1003.400	-1143
1003.475	-2000
1003.551	-1734
1003.626	-1208
1003.702	-2107
1003.777	-1574
1003.853	-1973
1003.928	-2278
1004.004	-2619
1004.079	-871
1004.155	-1503
1004.230	-1855
1004.305	-1011
1004.381	-2217
1004.456	-1752
1004.531	-1608
1004.607	-1175
1004.682	-1311
1004.757	-2045
1004.832	-1175
1004.907	-2089
1004.982	-616
1005.057	-1382
1005.133	-1469
1005.208	-2220
1005.283	-1262
1005.358	-1283
1005.433	-1301
1005.508	-1615
1005.583	-2328
1005.657	-2211
1005.732	-611
1005.807	-1757
1005.882	-1827
1005.957	-1796
1006.032	-1423
1006.106	-1541
1006.181	-1364
1006.256	-1530
1006.331	-2472
1006.405	-2013
1006.480	-1445
1006.554	-2688
1006.629	-924
1006.704	-1731
1006.778	-1199
1006.853	-1600
1006.927	-1683
1007.002	-1764
1007.076	-1304
1007.150	-1647
1007.225	-1588
1007.299	-1392
1007.373	-2051
1007.448	-1873
1007.522	-1023
1007.596	-1447
1007.671	-1507
1007.745	-482
1007.819	-2477
1007.893	-1833
1007.967	-282
1008.041	-1831
1008.115	-758
1008.190	-2438
1008.264	-1128
1008.338	-2666
1008.412	-2040
1008.486	-684
1008.560	-1433
1008.633	-2063
1008.707	-1537
1008.781	-1072
1008.855	-1585
1008.929	-1938
1009.003	-1527
1009.076	-2017
1009.150	-1664
1009.224	-2212
1009.298	-1547
1009.371	-2067
1009.445	-1043
1009.519	-1590
1009.592	-2283
1009.666	-1056
1009.739	-1370
1009.813	-1256
1009.886	-1244
1009.960	-2388
1010.033	-1233
1010.107	-1462
1010.180	-1616
1010.253	-1695
1010.327	-2236
1010.400	-2395
1010.473	-2267
1010.547	-809
1010.620	-1850
1010.693	-1810
1010.766	-2169
1010.840	-1287
1010.913	-1195
1010.986	-2457
1011.059	-1932
1011.132	-1999
1011.205	-855
1011.278	-1395
1011.351	-2075
1011.424	-1235
1011.497	-2233
1011.570	-2360
1011.643	-1262
1011.716	-2110
1011.789	-2113
1011.862	-1702
1011.934	-1525
1012.007	-2509
1012.080	-1423
1012.153	-1011
1012.225	-1158
1012.298	-1923
1012.371	-2113
1012.443	-1289
1012.516	-2484
1012.588	-2030
1012.661	-1634
1012.733	-2374
1012.806	-1363
1012.879	-935
1012.951	-845
1013.023	-2012
1013.096	-2057
1013.168	-2791
1013.241	-786
1013.313	-2031
1013.385	-2676
1013.458	-1582
1013.530	-1152
1013.602	-1646
1013.674	-1290
1013.746	-1906
1013.819	-2546
1013.891	-1816
1013.963	-1547
1014.035	-1211
1014.107	-1286
1014.179	-961
1014.251	-1290
1014.323	-1760
1014.395	-2142
1014.467	-2229
1014.539	-1796
1014.611	-2355
1014.683	-1693
1014.754	-2424
1014.826	-2165
1014.898	-1938
1014.970	-2306
1015.042	-1238
1015.113	-1952
1015.185	-1672
1015.257	-2137
1015.328	-1124
1015.400	-2749
1015.471	-2394
1015.543	-2246
1015.615	-1185
1015.686	-1253
1015.757	-2156
1015.829	-1242
1015.901	-1820
1015.972	-2294
1016.043	-2541
1016.115	-2101
1016.186	-1903
1016.257	-2427
1016.328	-2270
1016.400	-869
1016.471	-2891
1016.542	-2593
1016.613	-2401
1016.685	-771
1016.756	-1638
1016.827	-1188
1016.898	-1702
1016.969	-1170
1017.040	-1869
1017.111	-2077
1017.182	-1926
1017.253	-1944
1017.324	-1604
1017.395	-1442
1017.466	-1337
1017.537	-2219
1017.608	-1115
1017.678	-1926
1017.749	-1947
1017.820	-1881
1017.891	-2787
1017.961	-1625
1018.032	-1386
1018.103	-2054
1018.173	-1058
1018.244	-1433
1018.315	-1371
1018.385	-2200
1018.456	-1167
1018.526	-1833
1018.597	-2747
1018.667	-1656
1018.738	-2006
1018.808	-2284
1018.878	-2099
1018.949	-1671
1019.019	-1599
1019.089	-1848
1019.160	-1537
1019.230	-2282
1019.300	-1420
1019.371	-2145
1019.441	-1825
1019.511	-1007
1019.581	-2259
1019.651	-2024
1019.721	-2387
1019.791	-2030
1019.861	-1161
1019.931	-1853
1020.001	-1774
1020.071	-2371
1020.141	-2503
1020.211	-1652
1020.281	-2389
1020.351	-2326
1020.421	-1775
1020.491	-780
1020.560	-1755
1020.630	-976
1020.700	-1356
1020.770	-1788
1020.839	-2694
1020.909	-1555
1020.979	-2223
1021.048	-1488
1021.118	-1762
1021.187	-1924
1021.257	-2122
1021.326	-1674
1021.396	-2129
1021.465	-1471
1021.535	-1866
1021.604	-2899
1021.674	-1354
1021.743	-1873
1021.812	-2182
1021.882	-1438
1021.951	-2549
1022.020	-1484
1022.089	-1531
1022.159	-2250
1022.228	-1754
1022.297	-1622
1022.366	-2012
1022.435	-1530
1022.504	-1827
1022.573	-2517
1022.642	-1733
1022.711	-2876
1022.781	-1990
1022.849	-2357
1022.918	-2027
1022.987	-1586
1023.056	-2860
1023.125	-1843
1023.194	-1681
1023.263	-1364
1023.331	-1921
1023.400	-1967
1023.469	-2564
1023.538	-1551
1023.606	-2567
1023.675	-2080
1023.744	-1740
1023.812	-2476
1023.881	-2200
1023.949	-1815
1024.018	-1999
1024.086	-2866
1024.155	-1925
1024.223	-1944
1024.292	-1413
1024.360	-1581
1024.429	-2247
1024.497	-2131
1024.565	-1621
1024.634	-2601
1024.702	-1529
1024.770	-1815
1024.838	-2344
1024.907	-1981
1024.975	-2900
1025.043	-1465
1025.111	-3136
1025.179	-1313
1025.247	-2197
1025.315	-2066
1025.383	-1634
1025.451	-2018
1025.519	-1775
1025.587	-1653
1025.655	-2548
1025.723	-2000
1025.791	-1997
1025.859	-1797
1025.927	-1073
1025.995	-2535
1026.062	-1032
1026.130	-1771
1026.198	-2864
1026.266	-1751
1026.333	-2109
1026.401	-1873
1026.469	-1447
1026.536	-1254
1026.604	-1873
1026.671	-3060
1026.739	-1798
1026.806	-1893
1026.874	-2749
1026.941	-1634
1027.009	-1997
1027.076	-2966
1027.144	-2086
1027.211	-2434
1027.278	-2066
1027.345	-2434
1027.413	-1587
1027.480	-2187
1027.547	-2413
1027.614	-2485
1027.682	-1887
1027.749	-2678
1027.816	-2344
1027.883	-2358
1027.950	-2678
1028.017	-2390
1028.084	-1212
1028.151	-2514
1028.218	-1554
1028.285	-2519
1028.352	-2169
1028.419	-2791
1028.486	-2496
1028.553	-2046
1028.619	-1952
1028.686	-2116
1028.753	-2516
1028.820	-1913
1028.886	-2729
1028.953	-2798
1029.020	-1961
1029.086	-1655
1029.153	-2088
1029.220	-2220
1029.286	-2621
1029.353	-1408
1029.419	-1706
1029.486	-1937
1029.552	-1740
1029.619	-2205
1029.685	-2702
1029.751	-2308
1029.818	-1601
1029.884	-1718
1029.951	-1699
1030.017	-2294
1030.083	-2433
1030.149	-2045
1030.216	-2162
1030.282	-1886
1030.348	-2613
1030.414	-2211
1030.480	-1720
1030.546	-2521
1030.612	-2440
1030.678	-2718
1030.744	-2602
1030.810	-3169
1030.876	-2046
1030.942	-2851
1031.008	-2134
1031.074	-2326
1031.140	-3951
1031.206	-1307
1031.272	-3142
1031.337	-2105
1031.403	-2445
1031.469	-2142
1031.534	-2127
1031.600	-1669
1031.666	-2706
1031.731	-3136
1031.797	-1730
1031.863	-2720
1031.928	-1822
1031.994	-2657
1032.059	-1641
1032.125	-2291
1032.190	-2761
1032.256	-1992
1032.321	-3396
1032.386	-2236
1032.452	-1727
1032.517	-2665
1032.582	-2364
1032.647	-2560
1032.713	-2626
1032.778	-2105
1032.843	-2340
1032.908	-2929
1032.974	-2214
1033.039	-2177
1033.104	-2246
1033.169	-1590
1033.234	-2427
1033.299	-1859
1033.364	-1672
1033.429	-2390
1033.494	-1037
1033.559	-2596
1033.624	-1796
1033.688	-1390
1033.753	-2705
1033.818	-1754
1033.883	-1921
1033.948	-2500
1034.013	-1900
1034.077	-2010
1034.142	-2173
1034.207	-2640
1034.271	-1486
1034.336	-996
1034.400	-2049
1034.465	-1896
1034.530	-2601
1034.594	-2073
1034.658	-2676
1034.723	-2232
1034.787	-2908
1034.852	-2184
1034.916	-2488
1034.981	-2449
1035.045	-2392
1035.109	-3408
1035.173	-2387
1035.238	-1863
1035.302	-2371
1035.366	-3126
1035.430	-2736
1035.495	-1852
1035.559	-1123
1035.623	-1841
1035.687	-2746
1035.751	-2516
1035.815	-2285
1035.879	-2357
1035.943	-2137
1036.007	-2657
1036.071	-2566
1036.135	-2472
1036.198	-2037
1036.262	-1847
1036.326	-1614
1036.390	-2140
1036.454	-1908
1036.517	-3125
1036.581	-2136
1036.645	-1836
1036.709	-1935
1036.772	-2400
1036.836	-2299
1036.900	-2588
1036.963	-1717
1037.026	-2116
1037.090	-2248
1037.154	-1500
1037.217	-2620
1037.280	-2282
1037.344	-1755
1037.407	-2383
1037.471	-2569
1037.534	-2290
1037.597	-2628
1037.661	-2104
1037.724	-2350
1037.787	-2004
1037.850	-2373
1037.913	-2024
1037.977	-1642
1038.040	-2061
1038.103	-2650
1038.166	-2431
1038.229	-2337
1038.292	-2262
1038.355	-2629
1038.418	-2040
1038.481	-1430
1038.544	-2258
1038.607	-2154
1038.670	-2247
1038.732	-2359
1038.795	-1924
1038.858	-3375
1038.921	-1908
1038.984	-1261
1039.046	-1750
1039.109	-2484
1039.172	-2767
1039.234	-2647
1039.297	-2349
1039.360	-1896
1039.422	-1957
1039.485	-2364
1039.547	-2782
1039.610	-3180
1039.672	-2299
1039.734	-2456
1039.797	-2332
1039.859	-1394
1039.922	-2372
1039.984	-2178
1040.046	-2300
1040.109	-2133
1040.171	-2741
1040.233	-2752
1040.295	-2690
1040.358	-2647
1040.420	-1890
1040.482	-3012
1040.544	-1695
1040.606	-2397
1040.668	-1510
1040.730	-2433
1040.792	-2481
1040.854	-1839
1040.916	-1559
1040.978	-2413
1041.040	-1784
1041.102	-2346
1041.164	-2261
1041.225	-2811
1041.287	-2835
1041.349	-2338
1041.411	-2301
1041.472	-2193
1041.534	-2916
1041.596	-2466
1041.657	-1756
1041.719	-3350
1041.781	-1901
1041.842	-2726
1041.904	-2277
1041.965	-2423
1042.027	-2497
1042.088	-2566
1042.150	-2273
1042.211	-1483
1042.272	-2221
1042.334	-2452
1042.395	-1516
1042.456	-2461
1042.518	-2311
1042.579	-1845
1042.640	-2578
1042.701	-2823
1042.763	-1869
1042.824	-2282
1042.885	-2459
1042.946	-2631
1043.007	-1856
1043.068	-2608
1043.129	-2092
1043.190	-2804
1043.251	-1496
1043.312	-2046
1043.373	-1718
1043.434	-1687
1043.495	-2043
1043.556	-2208
1043.616	-2202
1043.677	-1939
1043.738	-2094
1043.799	-2154
1043.859	-1846
1043.920	-2391
1043.981	-1616
1044.041	-2274
1044.102	-1641
1044.162	-1784
1044.223	-2211
1044.284	-1746
1044.344	-2199
1044.405	-1847
1044.465	-1028
1044.525	-3434
1044.586	-2151
1044.646	-2792
1044.707	-2019
1044.767	-2167
1044.827	-3040
1044.887	-1850
1044.948	-714
1045.008	-2066
1045.068	-2067
1045.128	-2140
1045.188	-1896
1045.249	-1871
1045.309	-1757
1045.369	-2232
1045.429	-2335
1045.489	-2526
1045.549	-2222
1045.609	-2217
1045.669	-2326
1045.729	-2606
1045.789	-957
1045.848	-1459
1045.908	-1529
1045.968	-1374
1046.028	-1016
1046.088	-2030
1046.147	-1655
1046.207	-1247
1046.267	-2130
1046.326	-1618
1046.386	-1472
1046.446	-680
1046.505	-1235
1046.565	-1242
1046.624	-1952
1046.684	-1292
1046.743	-973
1046.803	-1117
1046.862	-233
1046.922	0
