'Start Wavelength	183.907
'End Wavelength	1046.922
'Gate Delay	5.000
'Gate Width (ms)	1.050
'Laser Output Level	0.000
'X Position	0.000
'Y Position	0.000
'Z Position	0.000
'Grid Point Number	1.000
'Shot Number	100.000
183.907	642.000
183.977	-39.000
184.047	27
184.116	863
184.186	499
184.256	-19
184.325	373
184.395	-665
184.465	1185
184.534	463
184.604	-638
184.674	620
184.743	-252
184.813	1270
184.883	204
184.952	294
185.022	138
185.092	331
185.161	328
185.231	-300
185.301	-127
185.370	718
185.440	-113
185.509	726
185.579	361
185.649	-229
185.718	-20
185.788	352
185.857	-202
185.927	-536
185.996	-138
186.066	202
186.136	37
186.205	-71
186.275	741
186.344	-24
186.414	-254
186.483	-762
186.553	1216
186.622	1013
186.692	90
186.761	-106
186.831	816
186.900	264
186.970	1103
187.039	383
187.109	1083
187.178	552
187.248	528
187.317	761
187.387	401
187.456	62
187.526	140
187.595	634
187.664	275
187.734	629
187.803	-291
187.873	549
187.942	785
188.012	1021
188.081	96
188.150	-143
188.220	514
188.289	654
188.358	301
188.428	206
188.497	-481
188.567	-139
188.636	-59
188.705	357
188.775	445
188.844	82
188.913	1349
188.983	-190
189.052	397
189.121	597
189.191	525
189.260	217
189.329	863
189.399	-488
189.468	-260
189.537	64
189.606	891
189.676	250
189.745	679
189.814	936
189.883	138
189.953	446
190.022	703
190.091	1090
190.161	1621
190.230	788
190.299	522
190.368	765
190.437	-140
190.507	147
190.576	389
190.645	76
190.714	771
190.783	-742
190.853	526
190.922	863
190.991	667
191.060	589
191.129	151
191.198	364
191.268	873
191.337	-9
191.406	1092
191.475	557
191.544	273
191.613	-144
191.682	23
191.752	229
191.821	142
191.890	394
191.959	806
192.028	463
192.097	316
192.166	620
192.235	-208
192.304	379
192.373	210
192.442	544
192.511	271
192.580	31
192.650	1166
192.719	-75
192.788	696
192.857	132
192.926	-182
192.995	144
193.064	2102
193.133	1032
193.202	810
193.271	1182
193.340	528
193.409	133
193.478	887
193.547	1667
193.615	2300
193.684	1532
193.753	759
193.822	1817
193.891	408
193.960	1118
194.029	-476
194.098	-29
194.167	-36
194.236	244
194.305	545
194.374	60
194.443	1011
194.512	984
194.580	694
194.649	-30
194.718	194
194.787	180
194.856	-484
194.925	607
194.994	-445
195.062	661
195.131	469
195.200	-121
195.269	498
195.338	991
195.407	740
195.475	457
195.544	481
195.613	-53
195.682	208
195.751	822
195.819	394
195.888	742
195.957	811
196.026	959
196.094	708
196.163	703
196.232	524
196.301	332
196.369	924
196.438	887
196.507	41
196.576	275
196.644	812
196.713	794
196.782	489
196.850	1104
196.919	301
196.988	695
197.056	-272
197.125	329
197.194	497
197.262	161
197.331	1677
197.400	1302
197.468	655
197.537	129
197.606	1072
197.674	924
197.743	1693
197.812	676
197.880	1413
197.949	1451
198.017	1301
198.086	675
198.155	663
198.223	887
198.292	2158
198.360	1326
198.429	487
198.497	494
198.566	1036
198.635	2378
198.703	1146
198.772	271
198.840	1854
198.909	1691
198.977	1220
199.046	594
199.114	272
199.183	1027
199.251	796
199.320	256
199.388	635
199.457	360
199.525	395
199.594	1098
199.662	1000
199.731	-16
199.799	999
199.867	851
199.936	270
200.004	1134
200.073	1106
200.141	1681
200.210	248
200.278	-153
200.346	322
200.415	809
200.483	597
200.552	550
200.620	395
200.688	1043
200.757	370
200.825	648
200.893	898
200.962	1272
201.030	1329
201.098	477
201.167	1002
201.235	1457
201.303	1117
201.372	765
201.440	608
201.508	975
201.577	799
201.645	565
201.713	524
201.781	209
201.850	1583
201.918	547
201.986	912
202.055	836
202.123	688
202.191	1032
202.259	274
202.327	617
202.396	113
202.464	92
202.532	869
202.600	2231
202.669	1056
202.737	1222
202.805	626
202.873	511
202.941	1011
203.009	374
203.078	748
203.146	495
203.214	461
203.282	-474
203.350	1006
203.418	-535
203.487	1173
203.555	1025
203.623	873
203.691	624
203.759	1036
203.827	17
203.895	1047
203.963	1242
204.031	928
204.099	882
204.168	570
204.236	515
204.304	777
204.372	1069
204.440	935
204.508	854
204.576	-1
204.644	1726
204.712	347
204.780	1112
204.848	1369
204.916	490
204.984	333
205.052	1201
205.120	966
205.188	377
205.256	491
205.324	1412
205.392	1125
205.460	1108
205.528	801
205.596	1091
205.664	1384
205.732	1405
205.799	2417
205.867	4201
205.935	336
206.003	1591
206.071	1112
206.139	1015
206.207	1247
206.275	837
206.343	737
206.411	1123
206.478	909
206.546	572
206.614	354
206.682	882
206.750	1600
206.818	1944
206.885	2586
206.953	399
207.021	1993
207.089	830
207.157	630
207.225	1536
207.292	1092
207.360	1327
207.428	459
207.496	956
207.563	1091
207.631	1831
207.699	368
207.767	1115
207.834	26
207.902	576
207.970	568
208.038	1607
208.105	983
208.173	751
208.241	2362
208.309	1828
208.376	1296
208.444	1563
208.512	1479
208.579	8
208.647	1941
208.715	1951
208.782	538
208.850	1073
208.918	1643
208.985	1722
209.053	1378
209.120	1380
209.188	618
209.256	766
209.323	407
209.391	1160
209.459	2271
209.526	737
209.594	147
209.661	477
209.729	1669
209.796	845
209.864	979
209.932	-39
209.999	2991
210.067	692
210.134	1630
210.202	1158
210.269	2092
210.337	2392
210.404	1548
210.472	1622
210.539	1799
210.607	1815
210.674	976
210.742	1528
210.809	447
210.877	1470
210.944	2033
211.012	1128
211.079	2553
211.146	1064
211.214	2152
211.281	1942
211.349	2418
211.416	1438
211.484	1556
211.551	799
211.618	1135
211.686	1569
211.753	1282
211.821	1148
211.888	2138
211.955	1212
212.023	319
212.090	1415
212.157	1522
212.225	1207
212.292	2480
212.359	4322
212.427	10279
212.494	4735
212.561	2731
212.629	2457
212.696	1350
212.763	1877
212.831	794
212.898	2054
212.965	1540
213.032	1781
213.100	1831
213.167	1833
213.234	2289
213.301	1725
213.369	1263
213.436	1030
213.503	1573
213.570	1539
213.638	1188
213.705	1060
213.772	783
213.839	1456
213.906	1944
213.973	1763
214.041	1703
214.108	1440
214.175	1511
214.242	1002
214.309	1639
214.376	1958
214.444	1395
214.511	1681
214.578	1729
214.645	1863
214.712	1866
214.779	1920
214.846	676
214.913	2247
214.980	2862
215.048	3380
215.115	2786
215.182	1639
215.249	1542
215.316	1030
215.383	2190
215.450	1434
215.517	799
215.584	806
215.651	982
215.718	2029
215.785	2301
215.852	1205
215.919	1645
215.986	1438
216.053	1505
216.120	520
216.187	1509
216.254	1441
216.321	-3
216.388	193
216.455	1596
216.522	1344
216.589	749
216.656	2467
216.722	2124
216.789	1986
216.856	2981
216.923	1786
216.990	2277
217.057	1694
217.124	1954
217.191	2396
217.258	3549
217.324	4041
217.391	4038
217.458	2717
217.525	2542
217.592	2111
217.659	1475
217.725	2148
217.792	1831
217.859	2280
217.926	1627
217.993	655
218.059	2188
218.126	1611
218.193	1356
218.260	685
218.327	728
218.393	1056
218.460	1081
218.527	525
218.594	614
218.660	1577
218.727	2661
218.794	487
218.860	2006
218.927	238
218.994	797
219.061	1369
219.127	932
219.194	2234
219.261	1052
219.327	159
219.394	1339
219.461	-370
219.527	1214
219.594	1304
219.661	119
219.727	39
219.794	1257
219.860	662
219.927	1342
219.994	1691
220.060	2796
220.127	2304
220.193	2156
220.260	2229
220.326	3197
220.393	5919
220.460	7284
220.526	5453
220.593	2994
220.659	3915
220.726	2941
220.792	6101
220.859	6433
220.925	8934
220.992	12693
221.058	10373
221.125	9269
221.191	6549
221.258	2805
221.324	2803
221.391	1869
221.457	1676
221.524	1172
221.590	2496
221.657	7015
221.723	4871
221.789	3781
221.856	4321
221.922	2469
221.989	1764
222.055	1515
222.121	731
222.188	3224
222.254	1689
222.321	1118
222.387	437
222.453	1230
222.520	520
222.586	701
222.652	1294
222.719	934
222.785	1526
222.851	402
222.918	773
222.984	1091
223.050	1111
223.116	325
223.183	677
223.249	817
223.315	236
223.382	776
223.448	841
223.514	768
223.580	1320
223.647	620
223.713	644
223.779	975
223.845	1317
223.911	903
223.978	-294
224.044	448
224.110	82
224.176	754
224.242	963
224.309	-132
224.375	1479
224.441	1247
224.507	199
224.573	224
224.639	1460
224.705	138
224.772	1137
224.838	591
224.904	1978
224.970	538
225.036	852
225.102	-19
225.168	1412
225.234	1313
225.300	921
225.366	-135
225.432	1117
225.499	1135
225.565	1057
225.631	788
225.697	795
225.763	2026
225.829	1417
225.895	1476
225.961	1979
226.027	2425
226.093	2179
226.159	2759
226.225	3913
226.291	9155
226.357	15672
226.423	8071
226.489	5347
226.554	2379
226.620	2884
226.686	3629
226.752	5444
226.818	9347
226.884	17340
226.950	16568
227.016	7636
227.082	3391
227.148	2622
227.214	1763
227.279	2749
227.345	1453
227.411	2123
227.477	2988
227.543	4041
227.609	4368
227.674	3010
227.740	1098
227.806	1503
227.872	1424
227.938	1554
228.003	2969
228.069	1577
228.135	738
228.201	961
228.267	1293
228.332	1505
228.398	576
228.464	1887
228.530	307
228.595	716
228.661	817
228.727	868
228.792	1475
228.858	262
228.924	-9
228.990	2158
229.055	509
229.121	1848
229.187	1797
229.252	591
229.318	78
229.384	1108
229.449	1004
229.515	-455
229.581	-674
229.646	2430
229.712	1250
229.777	1015
229.843	2513
229.909	1762
229.974	1964
230.040	1634
230.105	836
230.171	1105
230.236	2825
230.302	3625
230.368	1923
230.433	945
230.499	2289
230.564	2437
230.630	919
230.695	1276
230.761	1754
230.826	-131
230.892	1849
230.957	257
231.023	-58
231.088	1032
231.154	539
231.219	559
231.284	829
231.350	2322
231.415	245
231.481	1311
231.546	826
231.612	805
231.677	851
231.742	209
231.808	1778
231.873	870
231.939	-462
232.004	2666
232.069	2032
232.135	671
232.200	1171
232.265	1300
232.331	393
232.396	893
232.461	245
232.527	311
232.592	528
232.657	1255
232.723	749
232.788	563
232.853	982
232.918	780
232.984	674
233.049	628
233.114	1510
233.179	1347
233.245	2411
233.310	2267
233.375	151
233.440	1234
233.506	470
233.571	351
233.636	1023
233.701	826
233.766	1180
233.832	1996
233.897	759
233.962	-12
234.027	1769
234.092	1152
234.157	974
234.222	757
234.288	1849
234.353	6357
234.418	4299
234.483	2954
234.548	1386
234.613	1169
234.678	1375
234.743	751
234.808	5064
234.873	2407
234.938	3525
235.004	1384
235.069	1327
235.134	170
235.199	1623
235.264	1151
235.329	207
235.394	1570
235.459	2225
235.524	797
235.589	1772
235.654	934
235.719	545
235.784	957
235.849	1302
235.913	3361
235.978	3113
236.043	4082
236.108	1551
236.173	929
236.238	2351
236.303	806
236.368	1328
236.433	2292
236.498	3380
236.563	3181
236.627	6639
236.692	22212
236.757	19035
236.822	7633
236.887	5070
236.952	4190
237.017	2326
237.081	4921
237.146	4958
237.211	11929
237.276	21570
237.341	32146
237.405	18126
237.470	7682
237.535	4732
237.600	2992
237.664	3095
237.729	1505
237.794	2975
237.859	8541
237.923	4612
237.988	2139
238.053	3677
238.118	3392
238.182	8340
238.247	9592
238.312	2478
238.376	3541
238.441	783
238.506	3093
238.570	1240
238.635	2353
238.700	1543
238.764	402
238.829	3545
238.893	4622
238.958	2148
239.023	1830
239.087	1977
239.152	2435
239.216	1353
239.281	1500
239.346	1391
239.410	968
239.475	1522
239.539	8078
239.604	6471
239.668	3213
239.733	1794
239.797	3411
239.862	8723
239.926	9317
239.991	3981
240.055	1538
240.120	1444
240.184	2060
240.249	190
240.313	925
240.378	1624
240.442	3851
240.507	7823
240.571	2751
240.635	2915
240.700	4561
240.764	1858
240.829	609
240.893	-76
240.957	2003
241.022	4083
241.086	7935
241.151	2844
241.215	510
241.279	2334
241.344	3811
241.408	2274
241.472	1053
241.537	2427
241.601	1949
241.665	904
241.730	587
241.794	2280
241.858	2119
241.922	1670
241.987	1743
242.051	898
242.115	852
242.179	1591
242.244	1628
242.308	1079
242.372	2181
242.436	2350
242.501	1841
242.565	395
242.629	435
242.693	1319
242.757	943
242.822	1072
242.886	1739
242.950	2676
243.014	773
243.078	1569
243.142	1560
243.206	1737
243.271	1433
243.335	1669
243.399	3139
243.463	11165
243.527	32886
243.591	10208
243.655	3880
243.719	1815
243.783	2850
243.847	4120
243.911	6234
243.975	4330
244.040	2179
244.104	3018
244.168	1760
244.232	2153
244.296	3116
244.360	4667
244.424	759
244.488	2242
244.552	2026
244.615	744
244.679	886
244.743	2185
244.807	464
244.871	1422
244.935	1513
244.999	221
245.063	1717
245.127	2649
245.191	2996
245.255	3006
245.319	2043
245.383	504
245.446	2963
245.510	-20
245.574	1294
245.638	740
245.702	58
245.766	3659
245.829	3016
245.893	1390
245.957	907
246.021	1943
246.085	740
246.149	1725
246.212	4528
246.276	6532
246.340	2866
246.404	2709
246.467	2391
246.531	2652
246.595	2535
246.659	2671
246.722	1014
246.786	2604
246.850	2523
246.913	3025
246.977	1352
247.041	1545
247.104	2048
247.168	2449
247.232	4882
247.295	9282
247.359	4336
247.423	1867
247.486	3530
247.550	2468
247.614	1743
247.677	2086
247.741	1201
247.804	1817
247.868	3755
247.932	3038
247.995	8654
248.059	3144
248.122	1160
248.186	3069
248.249	3998
248.313	12947
248.376	13600
248.440	7982
248.503	2317
248.567	4263
248.630	2781
248.694	5850
248.757	7463
248.821	15163
248.884	9146
248.948	6532
249.011	11998
249.075	17124
249.138	14131
249.202	5932
249.265	3347
249.328	5819
249.392	3299
249.455	3111
249.519	2630
249.582	3531
249.645	5430
249.709	5075
249.772	5947
249.835	4788
249.899	3150
249.962	3049
250.025	2025
250.089	5661
250.152	8078
250.215	3942
250.279	3084
250.342	3529
250.405	3111
250.468	3092
250.532	4395
250.595	7870
250.658	29023
250.721	50728
250.785	16029
250.848	8002
250.911	4461
250.974	5460
251.038	5547
251.101	9165
251.164	5760
251.227	6152
251.290	5625
251.354	9464
251.417	42345
251.480	43917
251.543	27403
251.606	79555
251.669	59599
251.732	21901
251.795	17181
251.859	18140
251.922	48242
251.985	28099
252.048	10575
252.111	7219
252.174	5881
252.237	9771
252.300	18843
252.363	24841
252.426	60611
252.489	23658
252.552	11562
252.615	7981
252.678	7292
252.741	15606
252.804	24363
252.867	64794
252.930	33063
252.993	14656
253.056	8742
253.119	6172
253.182	5560
253.245	10065
253.308	8077
253.371	5030
253.434	5487
253.497	5565
253.559	9046
253.622	5714
253.685	6808
253.748	6856
253.811	2928
253.874	5163
253.937	4111
254.000	2374
254.062	5272
254.125	9472
254.188	8808
254.251	7680
254.314	3025
254.376	5315
254.439	6732
254.502	5517
254.565	5044
254.628	9443
254.690	5607
254.753	2942
254.816	3190
254.878	2396
254.941	5790
255.004	5679
255.067	2531
255.129	2010
255.192	2450
255.255	329
255.317	1991
255.380	1258
255.443	925
255.505	1271
255.568	-16
255.631	1292
255.693	1613
255.756	1237
255.819	1820
255.881	1174
255.944	1929
256.006	927
256.069	1242
256.132	686
256.194	1535
256.257	5973
256.319	4314
256.382	3165
256.444	3175
256.507	2866
256.569	1775
256.632	2770
256.694	3453
256.757	12592
256.819	37250
256.882	15134
256.944	6064
257.007	4865
257.069	4070
257.132	2967
257.194	3696
257.257	2603
257.319	1896
257.381	2661
257.444	9762
257.506	40017
257.569	45536
257.631	17411
257.693	8460
257.756	5120
257.818	4034
257.880	1814
257.943	3108
258.005	1933
258.067	1501
258.130	2871
258.192	3452
258.254	4153
258.317	3230
258.379	2541
258.441	4362
258.503	6323
258.566	7111
258.628	11651
258.690	1959
258.753	2677
258.815	3423
258.877	1703
258.939	1985
259.001	2183
259.064	1487
259.126	1338
259.188	3179
259.250	2758
259.312	1952
259.375	5201
259.437	3623
259.499	1325
259.561	2119
259.623	2414
259.685	1861
259.747	2157
259.809	7177
259.872	14861
259.934	23308
259.996	22659
260.058	6756
260.120	2014
260.182	1678
260.244	1790
260.306	1272
260.368	2070
260.430	810
260.492	3537
260.554	7812
260.616	4155
260.678	8874
260.740	13744
260.802	3375
260.864	2293
260.926	838
260.988	3309
261.050	1750
261.112	6056
261.174	17909
261.236	13510
261.298	3497
261.359	5400
261.421	8625
261.483	2166
261.545	2859
261.607	776
261.669	2056
261.731	3172
261.793	8342
261.854	2563
261.916	2662
261.978	2371
262.040	2365
262.102	2050
262.164	2310
262.225	2237
262.287	1390
262.349	3632
262.411	3727
262.472	2126
262.534	2692
262.596	8752
262.658	2851
262.719	291
262.781	2725
262.843	7037
262.904	4025
262.966	2903
263.028	3552
263.090	17945
263.151	51070
263.213	16889
263.275	8372
263.336	3095
263.398	2700
263.459	898
263.521	1511
263.583	4210
263.644	2820
263.706	1940
263.767	720
263.829	1726
263.891	70
263.952	1021
264.014	763
264.075	2235
264.137	8531
264.198	3758
264.260	514
264.321	1560
264.383	3795
264.444	13186
264.506	4407
264.567	1987
264.629	3941
264.690	9993
264.752	4073
264.813	1892
264.875	986
264.936	2268
264.998	1722
265.059	1905
265.120	2346
265.182	2834
265.243	20590
265.305	23237
265.366	5507
265.427	3275
265.489	2048
265.550	-591
265.611	1375
265.673	1841
265.734	1009
265.795	1360
265.857	627
265.918	1370
265.979	5525
266.040	32544
266.102	28030
266.163	7521
266.224	5521
266.286	2055
266.347	1872
266.408	2037
266.469	2138
266.530	874
266.592	1311
266.653	3175
266.714	4267
266.775	1831
266.836	795
266.898	-90
266.959	2094
267.020	1873
267.081	2088
267.142	1587
267.203	752
267.264	49
267.326	1735
267.387	837
267.448	418
267.509	452
267.570	1103
267.631	963
267.692	-503
267.753	1324
267.814	-217
267.875	2566
267.936	5350
267.997	3133
268.058	1285
268.119	1158
268.180	672
268.241	447
268.302	927
268.363	852
268.424	1028
268.485	905
268.546	-77
268.607	-105
268.668	452
268.729	385
268.790	1529
268.851	281
268.912	2664
268.972	3813
269.033	1675
269.094	935
269.155	1318
269.216	727
269.277	426
269.338	1296
269.398	1225
269.459	264
269.520	1787
269.581	1590
269.642	2117
269.702	1078
269.763	1169
269.824	1354
269.885	1063
269.945	2193
270.006	1367
270.067	-48
270.128	532
270.188	15
270.249	259
270.310	324
270.370	1532
270.431	981
270.492	721
270.553	908
270.613	1261
270.674	5232
270.734	2072
270.795	1442
270.856	1475
270.916	1207
270.977	877
271.038	1227
271.098	2073
271.159	1115
271.219	1775
271.280	1066
271.340	1303
271.401	463
271.462	3189
271.522	2444
271.583	839
271.643	1158
271.704	795
271.764	1800
271.825	3587
271.885	12270
271.946	17586
272.006	6169
272.066	7510
272.127	12985
272.187	6331
272.248	3341
272.308	2061
272.369	8722
272.429	5096
272.489	3988
272.550	3328
272.610	3875
272.671	3200
272.731	2608
272.791	4927
272.852	2213
272.912	2354
272.972	1263
273.033	925
273.093	1871
273.153	3405
273.214	2485
273.274	1982
273.334	8016
273.394	15226
273.455	5627
273.515	5538
273.575	12813
273.635	5648
273.696	6115
273.756	12605
273.816	4935
273.876	3246
273.936	6279
273.997	14514
274.057	3740
274.117	2462
274.177	3629
274.237	15768
274.297	14814
274.358	10342
274.418	10509
274.478	8130
274.538	3600
274.598	1253
274.658	10475
274.718	13801
274.778	4875
274.838	2370
274.898	5073
274.958	18803
275.018	14261
275.078	8478
275.138	2869
275.198	1545
275.258	1320
275.318	2069
275.378	3604
275.438	4001
275.498	2945
275.558	8162
275.618	17876
275.678	10097
275.738	6243
275.798	4980
275.858	3018
275.918	1010
275.978	1211
276.038	1743
276.098	1052
276.157	2895
276.217	8792
276.277	3580
276.337	2125
276.397	1199
276.457	2226
276.517	926
276.576	1726
276.636	566
276.696	2133
276.756	4897
276.815	4224
276.875	1598
276.935	1943
276.995	1376
277.055	1491
277.114	1440
277.174	1525
277.234	7179
277.293	2957
277.353	621
277.413	1832
277.472	1528
277.532	1863
277.592	2712
277.651	8876
277.711	19165
277.771	5730
277.830	18741
277.890	15797
277.950	9822
278.009	34001
278.069	12355
278.128	11324
278.188	18177
278.248	7040
278.307	18136
278.367	12761
278.426	3979
278.486	1643
278.545	2146
278.605	1711
278.664	1392
278.724	1371
278.783	5749
278.843	14816
278.902	4050
278.962	2668
279.021	2646
279.081	5038
279.140	4427
279.199	3600
279.259	3860
279.318	3858
279.378	5770
279.437	8752
279.496	27072
279.556	119617
279.615	98132
279.675	23764
279.734	11585
279.793	15437
279.853	20999
279.912	8320
279.971	5303
280.031	4829
280.090	8096
280.149	12792
280.208	14147
280.268	82181
280.327	87890
280.386	18262
280.445	10651
280.505	9132
280.564	4684
280.623	4065
280.682	5234
280.742	7824
280.801	2802
280.860	2189
280.919	1528
280.978	1684
281.037	1534
281.097	1787
281.156	1821
281.215	1599
281.274	2260
281.333	9050
281.392	7782
281.451	1595
281.510	1154
281.569	719
281.628	1740
281.688	1407
281.747	1248
281.806	912
281.865	1222
281.924	1050
281.983	858
282.042	456
282.101	763
282.160	1225
282.219	1272
282.278	904
282.337	3729
282.396	2901
282.454	1873
282.513	1223
282.572	6513
282.631	4367
282.690	773
282.749	-167
282.808	1808
282.867	1009
282.926	927
282.985	1565
283.043	1047
283.102	1284
283.161	455
283.220	3658
283.279	9794
283.338	2758
283.396	1427
283.455	1717
283.514	1860
283.573	3121
283.631	2170
283.690	1947
283.749	1289
283.808	3206
283.866	4048
283.925	1704
283.984	1610
284.043	2330
284.101	1879
284.160	1178
284.219	3892
284.277	2183
284.336	3174
284.395	10149
284.453	8898
284.512	4037
284.570	4040
284.629	3899
284.688	4129
284.746	4097
284.805	4646
284.863	6498
284.922	7411
284.981	10119
285.039	13466
285.098	22120
285.156	51977
285.215	92831
285.273	87410
285.332	59080
285.390	31237
285.449	18080
285.507	12430
285.566	8744
285.624	7028
285.683	5519
285.741	3519
285.799	4081
285.858	2881
285.916	2325
285.975	2930
286.033	2169
286.091	1753
286.150	2409
286.208	2334
286.267	2413
286.325	1964
286.383	3509
286.442	2422
286.500	2351
286.558	1656
286.616	1485
286.675	1468
286.733	752
286.791	948
286.850	1463
286.908	2744
286.966	3789
287.024	1373
287.083	1267
287.141	884
287.199	1514
287.257	2531
287.315	1840
287.374	1286
287.432	3655
287.490	3349
287.548	1558
287.606	1251
287.664	1961
287.723	3129
287.781	3789
287.839	2883
287.897	2995
287.955	3737
288.013	7130
288.071	14159
288.129	57423
288.187	162528
288.245	77159
288.303	23816
288.361	12189
288.419	8155
288.477	6329
288.535	4638
288.593	3524
288.651	3000
288.709	1896
288.767	2347
288.825	1570
288.883	910
288.941	678
288.999	1215
289.057	1202
289.115	684
289.173	1270
289.231	1128
289.289	1497
289.346	1510
289.404	1850
289.462	1480
289.520	2874
289.578	1685
289.636	803
289.694	422
289.751	1059
289.809	1163
289.867	569
289.925	1251
289.983	1416
290.040	875
290.098	590
290.156	566
290.214	1315
290.271	11
290.329	914
290.387	564
290.444	729
290.502	470
290.560	933
290.617	448
290.675	1050
290.733	1297
290.790	1534
290.848	441
290.906	1167
290.963	1440
291.021	1440
291.078	1734
291.136	1201
291.194	4930
291.251	11073
291.309	3352
291.366	779
291.424	908
291.481	1002
291.539	129
291.596	996
291.654	-47
291.711	1230
291.769	1052
291.826	1551
291.884	1625
291.941	296
291.999	224
292.056	444
292.114	1537
292.171	722
292.228	1622
292.286	1795
292.343	2411
292.401	2959
292.458	2258
292.515	1479
292.573	2169
292.630	1617
292.687	1771
292.745	662
292.802	2536
292.859	7456
292.917	10849
292.974	5659
293.031	1804
293.089	778
293.146	1135
293.203	1060
293.260	403
293.318	713
293.375	3475
293.432	1458
293.489	1552
293.546	1318
293.604	2493
293.661	5761
293.718	14779
293.775	7924
293.832	3764
293.889	3023
293.947	2662
294.004	1713
294.061	1913
294.118	4379
294.175	11095
294.232	18671
294.289	7118
294.346	2421
294.403	3022
294.460	2020
294.517	1413
294.574	1954
294.631	1449
294.688	2277
294.745	4079
294.802	17971
294.859	25283
294.916	9061
294.973	4169
295.030	2769
295.087	2467
295.144	1758
295.201	2672
295.258	1241
295.315	1740
295.372	5403
295.429	12980
295.486	5570
295.542	3295
295.599	10938
295.656	20773
295.713	11282
295.770	12726
295.827	5714
295.883	2591
295.940	2312
295.997	4097
296.054	3982
296.111	1482
296.167	1786
296.224	1278
296.281	1842
296.338	918
296.394	775
296.451	1845
296.508	5976
296.564	11688
296.621	7157
296.678	11981
296.734	19276
296.791	7924
296.848	4298
296.904	3991
296.961	7809
297.018	13758
297.074	11449
297.131	4219
297.187	3088
297.244	3505
297.301	11301
297.357	24002
297.414	8487
297.470	3666
297.527	2190
297.583	2352
297.640	2573
297.696	1423
297.753	1254
297.809	1947
297.866	238
297.922	1907
297.979	740
298.035	1239
298.092	2969
298.148	7537
298.204	7721
298.261	3146
298.317	6152
298.374	17364
298.430	9922
298.486	4588
298.543	2780
298.599	3466
298.656	3180
298.712	6265
298.768	18702
298.824	16633
298.881	4159
298.937	2845
298.993	2018
299.050	2008
299.106	1809
299.162	2105
299.218	2271
299.275	1489
299.331	1068
299.387	3353
299.443	14284
299.500	20047
299.556	10705
299.612	4481
299.668	3736
299.724	7446
299.780	10504
299.837	3952
299.893	4626
299.949	15065
300.005	19328
300.061	14579
300.117	25366
300.173	11525
300.229	4749
300.285	4753
300.341	6266
300.397	3065
300.453	2099
300.510	1308
300.566	2641
300.622	3612
300.678	15171
300.734	25461
300.790	16396
300.845	15833
300.901	12015
300.957	19437
301.013	11371
301.069	4346
301.125	2906
301.181	3305
301.237	2320
301.293	1411
301.349	2343
301.405	1803
301.461	1582
301.516	3079
301.572	2553
301.628	3090
301.684	2784
301.740	5164
301.796	8928
301.851	6229
301.907	8479
301.963	8700
302.019	13144
302.074	37412
302.130	36852
302.186	17619
302.242	6864
302.297	5109
302.353	4423
302.409	8362
302.464	8222
302.520	5527
302.576	13066
302.631	16417
302.687	9849
302.743	3970
302.798	2168
302.854	2424
302.910	2885
302.965	2601
303.021	5356
303.076	4635
303.132	5021
303.187	6456
303.243	3781
303.299	2495
303.354	2784
303.410	2635
303.465	1840
303.521	1615
303.576	1516
303.632	1942
303.687	4725
303.743	12226
303.798	11284
303.853	4515
303.909	2854
303.964	2668
304.020	3955
304.075	4741
304.130	4843
304.186	8087
304.241	8460
304.297	7688
304.352	4088
304.358	3952
304.407	2856
304.449	2433
304.463	2292
304.518	1873
304.539	2241
304.573	2828
304.629	3135
304.630	3137
304.684	3411
304.720	6870
304.739	8572
304.794	13582
304.811	11894
304.850	7820
304.902	3686
304.905	3428
304.960	2944
304.992	3260
305.015	3444
305.071	3584
305.083	3188
305.126	1810
305.173	1726
305.181	1714
305.236	1377
305.264	1229
305.292	1084
305.347	2535
305.354	2557
305.402	2769
305.445	2996
305.457	3029
305.512	3974
305.535	3793
305.567	3604
305.622	3129
305.626	3290
305.678	6795
305.716	13411
305.733	15758
305.788	16696
305.807	14413
305.843	10666
305.897	12753
305.898	12764
305.953	13348
305.988	9337
306.008	7192
306.063	4372
306.078	3967
306.118	3175
306.168	2589
306.173	2525
306.228	1784
306.259	1792
306.283	1841
306.338	1457
306.349	1547
306.393	2091
306.440	3691
306.448	3938
306.503	3716
306.530	3715
306.558	4527
306.613	9913
306.620	10570
306.668	13601
306.711	14557
306.723	14430
306.778	10320
306.801	8290
306.833	6115
306.888	3238
306.892	3159
306.943	2660
306.982	2207
306.997	2023
307.052	1890
307.072	1862
307.107	2301
307.162	3382
307.163	3417
307.217	6813
307.253	8008
307.272	8247
307.327	9485
307.343	8485
307.381	6078
307.434	4580
307.436	4691
307.491	10905
307.524	16100
307.546	17138
307.600	14214
307.614	12201
307.655	7320
307.704	4827
307.710	4778
307.765	6204
307.795	7881
307.819	9795
307.874	17327
307.885	17481
307.929	13795
307.975	9521
307.984	9533
308.038	12511
308.065	15519
308.093	26346
308.148	55668
308.156	62583
308.202	98183
308.246	119214
308.257	115999
308.312	64069
308.336	42847
308.366	30731
308.421	18277
308.426	17340
308.475	10989
308.517	8009
308.530	7406
308.585	6151
308.607	5928
308.639	6331
308.694	7527
308.697	7686
308.748	14894
308.787	22423
308.803	22426
308.857	16815
308.877	14022
308.912	11334
308.967	9825
308.967	9828
309.021	12721
309.058	15559
309.076	19351
309.130	33632
309.148	39761
309.185	76085
309.238	139426
309.239	139812
309.293	148847
309.328	137848
309.348	119642
309.402	56586
309.418	40961
309.457	28336
309.508	17264
309.511	16880
309.566	14262
309.598	13760
309.620	14924
309.674	20121
309.688	21634
309.729	20379
309.778	15628
309.783	15225
309.837	10584
309.868	8583
309.892	9241
309.946	11742
309.959	12862
310.001	16305
310.049	19091
310.055	18532
310.109	11520
310.139	7522
310.163	6090
310.218	4120
310.229	3810
310.272	3380
310.319	3258
310.326	3209
310.381	2996
310.409	2701
310.435	2594
310.489	2792
310.499	2812
310.543	2868
310.589	3037
310.598	3011
310.652	2881
310.679	2750
310.706	2605
310.760	2184
310.769	2149
310.814	1790
310.859	1373
310.868	1413
310.923	1711
310.948	1911
310.977	2046
311.031	2283
311.038	2331
311.085	2579
311.128	2526
311.139	2399
311.193	2000
311.218	1811
311.247	1891
311.301	1916
311.308	1924
311.356	1894
311.398	1977
311.410	1931
311.464	1652
311.488	1474
311.518	1386
311.572	1407
311.578	1407
311.626	2223
311.668	2939
311.680	2996
311.734	3285
311.758	3386
311.788	3430
311.842	3550
311.847	3557
311.896	4009
311.937	4476
311.950	4372
312.004	3895
312.027	3667
312.058	3188
312.112	2373
312.117	2296
312.165	2553
312.207	2780
312.297	3168
312.386	2237
312.476	1595
312.566	3718
312.656	2029
312.745	1837
312.835	2668
312.925	2634
313.015	2215
313.104	3085
313.194	1648
313.284	2211
313.374	2745
313.463	2739
313.553	1864
313.643	1569
313.732	2297
313.822	2324
313.912	2373
314.001	3331
314.091	2899
314.180	3576
314.270	3330
314.360	3654
314.449	2872
314.539	1748
314.628	2229
314.718	2638
314.808	3223
314.897	2535
314.987	2541
315.076	2123
315.166	4013
315.255	3880
315.345	3397
315.434	3985
315.524	2930
315.613	4376
315.703	6173
315.792	16588
315.881	66269
315.971	21304
316.060	7986
316.150	11597
316.239	11454
316.328	4481
316.418	2993
316.507	2374
316.597	4006
316.686	3296
316.775	5578
316.865	12646
316.954	2818
317.043	3524
317.133	1625
317.222	2175
317.311	2399
317.400	1310
317.490	3783
317.579	4301
317.668	4895
317.757	8416
317.847	30630
317.936	114435
318.025	32075
318.114	19806
318.203	8775
318.293	5537
318.382	7313
318.471	7100
318.560	11268
318.649	26595
318.738	5123
318.828	2946
318.917	3587
319.006	4790
319.095	13918
319.184	32553
319.273	13810
319.362	4921
319.451	2453
319.540	2326
319.629	4154
319.718	7331
319.807	4142
319.896	10408
319.985	38650
320.074	10642
320.163	3281
320.252	7122
320.341	6198
320.430	3635
320.519	4340
320.608	2584
320.697	2560
320.786	2260
320.875	3899
320.964	3897
321.053	5621
321.142	7024
321.230	7127
321.319	6367
321.408	13739
321.497	7870
321.586	6350
321.675	10888
321.764	8895
321.852	6192
321.941	8046
322.030	4926
322.119	6302
322.207	15268
322.296	16245
322.385	8500
322.474	8845
322.562	15854
322.651	9728
322.740	7048
322.829	9982
322.917	14699
323.006	6282
323.095	5307
323.183	5257
323.272	7320
323.361	15498
323.449	56639
323.538	16448
323.626	37407
323.715	21564
323.804	9820
323.892	32529
323.981	13921
324.069	5191
324.158	19178
324.246	16016
324.335	3292
324.424	4344
324.512	2611
324.601	2899
324.689	3603
324.778	7679
324.866	10681
324.954	2979
325.043	2927
325.131	6363
325.220	13798
325.308	14472
325.397	9178
325.485	4785
325.574	2263
325.662	1544
325.750	1896
325.839	2123
325.927	1513
326.015	1698
326.104	5397
326.192	7632
326.280	2475
326.369	1919
326.457	2727
326.545	3686
326.634	1313
326.722	1139
326.810	2006
326.898	2051
326.987	2468
327.075	3227
327.163	6343
327.251	3372
327.340	3443
327.428	3818
327.516	2511
327.604	1631
327.692	1867
327.781	3253
327.869	5641
327.957	2605
328.045	2142
328.133	1846
328.221	3443
328.309	1969
328.397	1913
328.485	2212
328.574	3126
328.662	8253
328.750	6090
328.838	3583
328.926	2309
329.014	822
329.102	2816
329.190	7191
329.278	3150
329.366	1058
329.454	1131
329.542	1307
329.630	1843
329.718	1769
329.806	1314
329.893	2137
329.981	1463
330.069	1146
330.157	2632
330.245	4276
330.333	2605
330.421	1404
330.509	2967
330.597	8395
330.684	5864
330.772	2864
330.860	5312
330.948	5843
331.036	2255
331.123	1293
331.211	1720
331.299	1449
331.387	5284
331.475	7876
331.562	2581
331.650	961
331.738	1743
331.825	3715
331.913	400
332.001	511
332.089	2713
332.176	6780
332.264	17571
332.352	11105
332.439	2553
332.527	1277
332.614	2420
332.702	3432
332.790	1955
332.877	7258
332.965	15515
333.052	3254
333.140	3367
333.228	8165
333.315	2357
333.403	1919
333.490	10480
333.578	6882
333.665	8255
333.753	3863
333.840	1959
333.928	3057
334.015	9688
334.103	16227
334.190	49048
334.278	11573
334.365	6593
334.452	5867
334.540	2963
334.627	4122
334.715	6156
334.802	13153
334.889	74007
334.977	72860
335.064	10979
335.151	4583
335.239	3627
335.326	5725
335.413	23889
335.501	28722
335.588	3676
335.675	3116
335.762	4635
335.850	7605
335.937	6739
336.024	20191
336.111	76937
336.199	33226
336.286	7526
336.373	4210
336.460	2870
336.547	1692
336.635	2703
336.722	2579
336.809	3129
336.896	3573
336.983	11746
337.070	30163
337.157	46781
337.245	43471
337.332	30210
337.419	3720
337.506	2345
337.593	2454
337.680	10425
337.767	26892
337.854	7541
337.941	7537
338.028	11662
338.115	3356
338.202	5347
338.289	11418
338.376	42062
338.463	11345
338.550	17123
338.637	16956
338.724	7065
338.811	11675
338.898	2955
338.984	1601
339.071	2196
339.158	2546
339.245	5019
339.332	3786
339.419	7566
339.506	6879
339.593	831
339.679	1426
339.766	1535
339.853	1879
339.940	2706
340.027	1528
340.113	1698
340.200	1681
340.287	2294
340.374	1169
340.460	3009
340.547	863
340.634	2784
340.720	8991
340.807	5023
340.894	1331
340.980	2317
341.067	1294
341.154	1520
341.240	1779
341.327	4028
341.414	1403
341.500	813
341.587	1943
341.674	1834
341.760	3061
341.847	3436
341.933	1278
342.020	189
342.106	734
342.193	1698
342.279	2346
342.366	1402
342.452	2254
342.539	1247
342.625	3377
342.712	8316
342.798	4102
342.885	1822
342.971	318
343.058	1033
343.144	1323
343.230	1294
343.317	1608
343.403	1114
343.490	930
343.576	1647
343.662	1003
343.749	1771
343.835	2695
343.921	3334
344.008	25007
344.094	53508
344.180	10512
344.267	3736
344.353	13545
344.439	14801
344.525	4972
344.612	4066
344.698	2828
344.784	1829
344.870	1151
344.957	931
345.043	2282
345.129	1558
345.215	3028
345.301	585
345.387	1379
345.474	965
345.560	988
345.646	2115
345.732	1493
345.818	1623
345.904	1213
345.990	993
346.076	2003
346.162	5123
346.249	2452
346.335	1117
346.421	2101
346.507	6575
346.593	18668
346.679	4499
346.765	1920
346.851	1607
346.937	1362
347.023	1801
347.108	2020
347.194	1601
347.280	1230
347.366	2153
347.452	8058
347.538	25748
347.624	17301
347.710	13753
347.796	2841
347.882	1450
347.967	1489
348.053	2328
348.139	1374
348.225	766
348.311	795
348.397	1325
348.482	1618
348.568	2042
348.654	760
348.740	4325
348.825	3730
348.911	3343
348.997	12182
349.083	23749
349.168	3720
349.254	1891
349.340	1406
349.425	1368
349.511	1095
349.597	1765
349.682	3966
349.768	11679
349.854	5051
349.939	2115
350.025	2133
350.110	1707
350.196	654
350.282	829
350.367	1979
350.453	3255
350.538	2974
350.624	1979
350.709	1825
350.795	715
350.880	484
350.966	2347
351.051	3490
351.137	3529
351.222	1930
351.308	3856
351.393	9365
351.479	2239
351.564	697
351.649	938
351.735	1365
351.820	981
351.906	1507
351.991	1634
352.076	6476
352.162	8264
352.247	2345
352.332	2167
352.418	1674
352.503	2726
352.588	13823
352.673	9335
352.759	2842
352.844	1122
352.929	1096
353.014	1769
353.100	1884
353.185	2208
353.270	2685
353.355	3827
353.441	2424
353.526	2161
353.611	2895
353.696	2440
353.781	2294
353.866	537
353.952	1954
354.037	3235
354.122	6742
354.207	5799
354.292	2331
354.377	1493
354.462	887
354.547	1885
354.632	2037
354.717	2675
354.802	1502
354.887	731
354.972	901
355.057	684
355.142	1063
355.227	2389
355.312	1233
355.397	3758
355.482	9317
355.567	4764
355.652	3978
355.737	4574
355.822	14391
355.907	10923
355.991	2628
356.076	1013
356.161	2013
356.246	829
356.331	1107
356.416	3970
356.501	29287
356.585	28520
356.670	2930
356.755	3430
356.840	3169
356.924	17894
357.009	68609
357.094	22532
357.179	3482
357.263	2803
357.348	4181
357.433	3407
357.517	3007
357.602	2725
357.687	1838
357.771	3643
357.856	9669
357.941	7168
358.025	15559
358.110	71017
358.195	28799
358.279	3967
358.364	2839
358.448	9181
358.533	23579
358.617	16153
358.702	17434
358.787	5980
358.871	3688
358.956	2461
359.040	1111
359.125	1290
359.209	1610
359.294	5055
359.378	7933
359.462	3322
359.547	2300
359.631	1614
359.716	229
359.800	1164
359.885	3039
359.969	706
360.053	1738
360.138	2004
360.222	1937
360.306	3672
360.391	2481
360.475	5150
360.559	10302
360.644	9155
360.728	5820
360.812	15679
360.896	45064
360.981	15188
361.065	6812
361.149	2698
361.233	1698
361.318	1272
361.402	2442
361.486	2511
361.570	864
361.654	2230
361.739	5148
361.823	27327
361.907	44711
361.991	7549
362.075	2800
362.159	5802
362.243	6518
362.327	10663
362.411	19353
362.495	7174
362.580	2621
362.664	2393
362.748	1622
362.832	3206
362.916	6880
363.000	29292
363.084	64869
363.168	60542
363.252	12565
363.336	4465
363.420	7105
363.503	31518
363.587	34642
363.671	5571
363.755	3026
363.839	5265
363.923	2690
364.007	4789
364.091	6362
364.175	13641
364.258	56854
364.342	46404
364.426	70637
364.510	34466
364.594	11489
364.677	10649
364.761	38828
364.845	26408
364.929	6906
365.013	4946
365.096	4804
365.180	5680
365.264	14844
365.347	53527
365.431	19926
365.515	2846
365.598	1219
365.682	3347
365.766	3810
365.849	4093
365.933	1494
366.017	4581
366.100	2266
366.184	972
366.267	2303
366.351	1910
366.435	1084
366.518	626
366.602	1015
366.685	1533
366.769	1172
366.852	2976
366.936	5191
367.019	2552
367.103	2909
367.186	6273
367.270	1905
367.353	478
367.436	1247
367.520	1485
367.603	2787
367.687	1376
367.770	2968
367.853	3083
367.937	9646
368.020	15574
368.104	2529
368.187	3348
368.270	3997
368.353	3979
368.437	8722
368.520	26679
368.603	11597
368.687	9511
368.770	18715
368.853	3978
368.936	4768
369.020	5674
369.103	1146
369.186	1019
369.269	977
369.352	2952
369.436	4244
369.519	2643
369.602	512
369.685	2978
369.768	663
369.851	1800
369.934	613
370.018	1474
370.101	2234
370.184	4024
370.267	2765
370.350	4056
370.433	6391
370.516	20627
370.599	38635
370.682	13061
370.765	10180
370.848	12787
370.931	25629
371.014	11015
371.097	992
371.180	2158
371.263	1184
371.346	-104
371.429	1671
371.511	1052
371.594	1823
371.677	4404
371.760	5928
371.843	3979
371.926	21219
372.009	50487
372.091	15194
372.174	10340
372.257	25648
372.340	9296
372.423	7204
372.505	9602
372.588	3550
372.671	7568
372.754	23695
372.836	12383
372.919	13038
373.002	25743
373.085	5694
373.167	4388
373.250	9456
373.332	22946
373.415	36144
373.498	79621
373.580	29755
373.663	59172
373.746	70594
373.828	11795
373.911	5090
373.993	6503
374.076	26924
374.159	24034
374.241	7523
374.324	19772
374.406	13075
374.489	21040
374.571	58822
374.654	21569
374.736	10953
374.819	36262
374.901	55438
374.983	58322
375.066	9044
375.148	4854
375.231	23533
375.313	41939
375.395	12400
375.478	3486
375.560	2878
375.643	2750
375.725	11505
375.807	51601
375.890	45156
375.972	20882
376.054	11215
376.136	21592
376.219	8646
376.301	14445
376.383	39123
376.465	14134
376.548	6534
376.630	9838
376.712	32084
376.794	14373
376.877	1889
376.959	896
377.041	2752
377.123	5131
377.205	5373
377.287	1271
377.369	1484
377.452	744
377.534	1464
377.616	1093
377.698	451
377.780	311
377.862	1207
377.944	1868
378.026	1337
378.108	2056
378.190	1038
378.272	824
378.354	870
378.436	979
378.518	2283
378.600	8999
378.682	6740
378.764	11982
378.846	10230
378.928	2852
379.010	2956
379.091	2839
379.173	1130
379.255	625
379.337	1650
379.419	6229
379.501	19794
379.583	7571
379.664	1479
379.746	3761
379.828	12089
379.910	16299
379.991	14679
380.073	1769
380.155	1389
380.237	1289
380.318	976
380.400	1235
380.482	2886
380.564	3841
380.645	2676
380.727	2464
380.809	3037
380.890	1409
380.972	555
381.053	1397
381.135	2430
381.217	3813
381.298	13358
381.380	6397
381.461	5829
381.543	33061
381.624	40719
381.706	6886
381.787	3525
381.869	3738
381.951	16211
382.032	60810
382.113	35446
382.195	5204
382.276	4894
382.358	9593
382.439	26686
382.521	34608
382.602	56139
382.684	22983
382.765	37078
382.846	41944
382.928	62814
383.009	32272
383.090	21162
383.172	93151
383.253	146265
383.334	45269
383.416	45429
383.497	23369
383.578	9491
383.659	17659
383.741	79118
383.822	227463
383.903	107819
383.984	30271
384.066	51055
384.147	29179
384.228	6861
384.309	5182
384.390	3877
384.471	3063
384.553	3957
384.634	4095
384.715	4554
384.796	2868
384.877	3433
384.958	12801
385.039	13818
385.120	5331
385.201	3901
385.282	3864
385.363	4645
385.444	3848
385.525	6568
385.606	22974
385.687	18751
385.768	5823
385.849	5541
385.930	26000
386.011	45171
386.092	10937
386.173	3167
386.254	3356
386.335	4020
386.416	3148
386.496	8622
386.577	13429
386.658	5775
386.739	3073
386.820	4853
386.901	3402
386.981	3831
387.062	2776
387.143	3811
387.224	13797
387.304	14145
387.385	6533
387.466	3854
387.547	5929
387.627	4396
387.708	7841
387.789	25817
387.869	29958
387.950	9502
388.031	2719
388.111	1640
388.192	7769
388.273	10777
388.353	5933
388.434	3008
388.514	5241
388.595	27081
388.676	32103
388.756	12949
388.837	11761
388.917	7524
388.998	1842
389.078	2870
389.159	2390
389.239	1118
389.320	4034
389.400	998
389.480	6071
389.561	14213
389.641	8030
389.722	2788
389.802	3914
389.883	6643
389.963	19241
390.043	13353
390.124	4621
390.204	5682
390.284	14466
390.365	9349
390.445	19673
390.525	54811
390.605	45834
390.686	8852
390.766	3859
390.846	2522
390.927	1112
391.007	1393
391.087	2872
391.167	2359
391.247	1375
391.328	5322
391.408	6342
391.488	4130
391.568	1447
391.648	3130
391.728	3437
391.808	4032
391.888	3788
391.969	8360
392.049	12629
392.129	7895
392.209	8667
392.289	18930
392.369	11259
392.449	12258
392.529	8606
392.609	7021
392.689	9306
392.769	21005
392.849	19514
392.929	19284
393.009	36398
393.089	35403
393.169	51609
393.248	177286
393.328	582293
393.408	609620
393.488	177841
393.568	49612
393.648	24070
393.728	13930
393.807	10589
393.887	9870
393.967	8305
394.047	8238
394.127	7838
394.206	13582
394.286	51620
394.366	212895
394.446	221470
394.525	47360
394.605	11953
394.685	9391
394.764	17713
394.844	30610
394.924	21519
395.003	6229
395.083	4818
395.163	4263
395.242	3819
395.322	4866
395.402	2499
395.481	6496
395.561	13079
395.640	33507
395.720	32139
395.799	41528
395.879	31020
395.958	19720
396.038	76020
396.117	279650
396.197	296124
396.276	82347
396.356	25482
396.435	19870
396.515	16461
396.594	18870
396.673	44344
396.753	182709
396.832	532234
396.912	369139
396.991	76038
397.070	23423
397.150	11886
397.229	10316
397.308	14195
397.388	23701
397.467	12119
397.546	5808
397.625	1847
397.705	4966
397.784	3880
397.863	2907
397.942	2570
398.022	3188
398.101	11368
398.180	31321
398.259	15034
398.338	4579
398.417	1750
398.497	1857
398.576	2622
398.655	292
398.734	1675
398.813	2498
398.892	11217
398.971	34687
399.050	15738
399.129	1450
399.208	1841
399.287	1660
399.366	938
399.445	1756
399.524	1176
399.603	-85
399.682	2728
399.761	9091
399.840	37011
399.919	27882
399.998	3826
400.077	-496
400.156	103
400.235	3034
400.313	1149
400.392	833
400.471	6880
400.550	10813
400.629	1923
400.708	1731
400.786	1902
400.865	5936
400.944	5914
401.023	3809
401.102	20
401.180	1576
401.259	1180
401.338	1162
401.416	1726
401.495	558
401.574	1920
401.652	41
401.731	1459
401.810	750
401.888	409
401.967	235
402.046	717
402.124	1759
402.203	704
402.281	1663
402.360	2150
402.438	8216
402.517	3253
402.596	998
402.674	1619
402.753	884
402.831	1544
402.910	1537
402.988	2311
403.066	9271
403.145	5842
403.223	4537
403.302	6626
403.380	5568
403.459	5805
403.537	2525
403.615	1272
403.694	9
403.772	1087
403.850	125
403.929	737
404.007	-59
404.085	1723
404.164	619
404.242	856
404.320	6933
404.398	18171
404.477	18782
404.555	45678
404.633	40145
404.711	14717
404.789	7624
404.868	2127
404.946	303
405.024	519
405.102	-241
405.180	-436
405.258	-384
405.336	786
405.415	441
405.493	2854
405.571	1794
405.649	-484
405.727	-1039
405.805	1848
405.883	779
405.961	2071
406.039	1995
406.117	220
406.195	1497
406.273	7741
406.351	33071
406.429	19647
406.507	2575
406.585	206
406.663	129
406.740	679
406.818	643
406.896	481
406.974	1354
407.052	1275
407.130	18164
407.208	25270
407.285	5029
407.363	483
407.441	454
407.519	642
407.596	1618
407.674	9978
407.752	43110
407.830	34863
407.907	6633
407.985	666
408.063	482
408.141	634
408.218	2437
408.296	501
408.373	227
408.451	1162
408.529	98
408.606	-16
408.684	330
408.762	178
408.839	-56
408.917	182
408.994	581
409.072	-757
409.149	403
409.227	2739
409.304	2910
409.382	3786
409.459	4029
409.537	6155
409.614	3744
409.692	3282
409.769	2482
409.846	5399
409.924	8878
410.001	3175
410.079	2718
410.156	3063
410.233	1542
410.311	943
410.388	509
410.465	1356
410.543	301
410.620	776
410.697	4
410.775	409
410.852	-22
410.929	1836
411.006	2066
411.083	413
411.161	2349
411.238	2439
411.315	1629
411.392	577
411.469	1288
411.547	805
411.624	-1507
411.701	41
411.778	918
411.855	1439
411.932	-436
412.009	-155
412.086	1035
412.163	654
412.240	555
412.317	1669
412.394	891
412.471	756
412.548	-491
412.625	366
412.702	514
412.779	1409
412.856	884
412.933	-327
413.010	283
413.087	1558
413.164	5232
413.241	8548
413.318	1513
413.395	1963
413.471	1178
413.548	538
413.625	238
413.702	-337
413.779	159
413.855	-220
413.932	-1033
414.009	-1244
414.086	-498
414.162	405
414.239	1553
414.316	5349
414.393	12683
414.469	2994
414.546	-439
414.623	-21
414.699	37
414.776	142
414.853	-678
414.929	-149
415.006	-224
415.082	927
415.159	245
415.236	-165
415.312	358
415.389	931
415.465	534
415.542	412
415.618	-731
415.695	787
415.771	-523
415.848	148
415.924	266
416.000	-189
416.077	793
416.153	-1173
416.230	-517
416.306	96
416.383	-802
416.459	-21
416.535	-494
416.612	-352
416.688	-113
416.764	-499
416.841	-657
416.917	113
416.993	164
417.069	182
417.146	132
417.222	754
417.298	269
417.374	-357
417.451	78
417.527	495
417.603	-212
417.679	132
417.755	364
417.831	-1245
417.908	-515
417.984	-259
418.060	-1362
418.136	782
418.212	1135
418.288	130
418.364	525
418.440	-841
418.516	686
418.592	1388
418.668	1840
418.744	2015
418.820	2288
418.896	32
418.972	-896
419.048	-505
419.124	1175
419.200	-54
419.276	132
419.352	-326
419.428	-600
419.504	-917
419.579	28
419.655	-321
419.731	636
419.807	2649
419.883	3687
419.959	2430
420.034	412
420.110	1576
420.186	7541
420.262	6037
420.337	842
420.413	415
420.489	389
420.565	1080
420.640	-356
420.716	359
420.792	-476
420.867	1156
420.943	514
421.019	1065
421.094	-299
421.170	1177
421.245	185
421.321	957
421.397	1000
421.472	8227
421.548	25015
421.623	14456
421.699	3204
421.774	2297
421.850	1974
421.925	4165
422.001	4309
422.076	4378
422.152	5349
422.227	8252
422.302	11676
422.378	18658
422.453	32821
422.529	80470
422.604	192078
422.679	263439
422.755	188148
422.830	81445
422.905	34953
422.981	19908
423.056	12242
423.131	9268
423.207	7225
423.282	4674
423.357	6102
423.432	4730
423.508	3945
423.583	5201
423.658	3925
423.733	2726
423.808	2841
423.883	3175
423.959	2575
424.034	2453
424.109	2708
424.184	1000
424.259	-5
424.334	670
424.409	183
424.484	1089
424.559	1001
424.634	852
424.709	1030
424.784	671
424.859	-102
424.934	-14
425.009	5219
425.084	8361
425.159	3354
425.234	457
425.309	112
425.384	1929
425.459	3143
425.534	1314
425.609	-622
425.683	-580
425.758	-528
425.833	-27
425.908	1063
425.983	2262
426.058	8530
426.132	2950
426.207	58
426.282	2409
426.357	812
426.431	-34
426.506	537
426.581	316
426.655	337
426.730	265
426.805	-793
426.879	398
426.954	76
427.029	981
427.103	9755
427.178	25360
427.253	10766
427.327	845
427.402	939
427.476	5269
427.551	1410
427.625	576
427.700	136
427.774	-419
427.849	683
427.923	-419
427.998	-293
428.072	56
428.147	3761
428.221	19190
428.296	65556
428.370	32376
428.444	3054
428.519	1913
428.593	5262
428.667	4308
428.742	5750
428.816	9430
428.890	39114
428.965	62610
429.039	17046
429.113	6935
429.188	1404
429.262	233
429.336	1800
429.410	3819
429.485	3312
429.559	4803
429.633	3593
429.707	1033
429.781	6389
429.855	40289
429.930	59353
430.004	24439
430.078	31853
430.152	35077
430.226	85207
430.300	83100
430.374	11796
430.448	3412
430.522	9737
430.596	29832
430.670	22629
430.744	58453
430.818	72123
430.892	12559
430.966	1116
431.040	513
431.114	-820
431.188	-83
431.262	457
431.336	-265
431.410	2503
431.484	6680
431.557	4113
431.631	170
431.705	1073
431.779	13358
431.853	59679
431.927	39473
432.000	3754
432.074	507
432.148	570
432.222	332
432.295	-14
432.369	-210
432.443	76
432.516	10294
432.590	28330
432.664	10500
432.737	-788
432.811	-491
432.885	197
432.958	253
433.032	-1001
433.106	-1023
433.179	-715
433.253	-973
433.326	-802
433.400	-1481
433.473	-204
433.547	-1510
433.620	25
433.694	252
433.767	-482
433.841	426
433.914	-694
433.988	-182
434.061	-1109
434.134	-516
434.208	-775
434.281	-1230
434.355	-1205
434.428	-285
434.501	-630
434.575	313
434.648	-399
434.721	-736
434.795	-525
434.868	-1214
434.941	216
435.014	-1094
435.088	-754
435.161	480
435.234	677
435.307	914
435.381	775
435.454	1149
435.527	2433
435.600	3036
435.673	1610
435.746	1260
435.819	-44
435.892	-307
435.966	-150
436.039	-378
436.112	-177
436.185	-810
436.258	-223
436.331	-1080
436.404	-85
436.477	-1055
436.550	-1173
436.623	-271
436.696	-589
436.769	-526
436.842	78
436.915	-758
436.987	-160
437.060	-88
437.133	-922
437.206	-655
437.279	-60
437.352	-779
437.425	-1215
437.498	-3
437.570	501
437.643	-354
437.716	-647
437.789	-698
437.861	170
437.934	2023
438.007	314
438.080	-832
438.152	-516
438.225	1070
438.298	15913
438.370	44253
438.443	16182
438.516	1859
438.588	-571
438.661	-702
438.734	-1133
438.806	-473
438.879	387
438.951	7
439.024	623
439.096	-847
439.169	-955
439.241	-739
439.314	-1247
439.386	249
439.459	1249
439.531	1966
439.604	129
439.676	-6
439.749	-1118
439.821	-478
439.893	-862
439.966	-613
440.038	25
440.110	-10
440.183	-747
440.255	-986
440.327	5
440.400	5510
440.472	23494
440.544	15214
440.617	979
440.689	1240
440.761	955
440.833	1726
440.905	821
440.978	-350
441.050	-1465
441.122	653
441.194	-1163
441.266	347
441.338	-1325
441.411	531
441.483	5095
441.555	8581
441.627	1538
441.699	816
441.771	1985
441.843	9
441.915	-180
441.987	167
442.059	479
442.131	431
442.203	1116
442.275	1976
442.347	2440
442.419	4875
442.491	33810
442.563	81617
442.635	34966
442.706	10828
442.778	6312
442.850	650
442.922	1067
442.994	770
443.066	937
443.137	1768
443.209	2082
443.281	3529
443.353	8269
443.425	40855
443.496	143005
443.568	138708
443.640	51965
443.711	9981
443.783	2922
443.855	1545
443.926	566
443.998	461
444.070	869
444.141	387
444.213	374
444.285	1128
444.356	356
444.428	1602
444.499	502
444.571	-730
444.642	-42
444.714	331
444.785	1591
444.857	2122
444.928	4988
445.000	4359
445.071	3645
445.143	4913
445.214	4119
445.285	7014
445.357	23593
445.428	91268
445.500	196362
445.571	126919
445.642	73553
445.714	25521
445.785	13574
445.856	3963
445.928	2402
445.999	1222
446.070	1145
446.141	802
446.213	887
446.284	1151
446.355	1458
446.426	916
446.497	-202
446.569	742
446.640	614
446.711	1143
446.782	-655
446.853	-435
446.924	471
446.995	-315
447.066	673
447.138	1482
447.209	-288
447.280	-1319
447.351	-614
447.422	-1330
447.493	290
447.564	110
447.635	-213
447.706	-758
447.777	-1048
447.847	-966
447.918	-959
447.989	289
448.060	648
448.131	3280
448.202	1751
448.273	315
448.344	-224
448.414	-215
448.485	-885
448.556	-200
448.627	-1407
448.698	-79
448.768	-1738
448.839	-614
448.910	545
448.981	668
449.051	-208
449.122	-662
449.193	212
449.263	-290
449.334	-811
449.405	-23
449.475	432
449.546	993
449.616	1455
449.687	1627
449.758	-131
449.828	-691
449.899	-1045
449.969	-536
450.040	-773
450.110	118
450.181	519
450.251	-342
450.322	-663
450.392	29
450.463	-319
450.533	-444
450.604	-779
450.674	-241
450.744	249
450.815	-500
450.885	-246
450.955	-253
451.026	43
451.096	-416
451.166	-91
451.237	1699
451.307	5899
451.377	2204
451.447	-329
451.518	-665
451.588	-883
451.658	113
451.728	772
451.799	6031
451.869	6912
451.939	990
452.009	-368
452.079	-323
452.149	-69
452.219	910
452.289	7376
452.360	6015
452.430	128
452.500	124
452.570	756
452.640	2860
452.710	10861
452.780	14248
452.850	6924
452.920	3887
452.990	1977
453.060	958
453.129	-624
453.199	1850
453.269	9662
453.339	20082
453.409	30550
453.479	31248
453.549	44834
453.619	45845
453.688	17590
453.758	2464
453.828	-20
453.898	516
453.968	-39
454.037	-296
454.087	-298
454.107	-322
454.168	-565
454.177	-625
454.247	664
454.249	652
454.316	-297
454.330	-59
454.386	657
454.411	1773
454.456	3350
454.492	4651
454.525	5772
454.574	2942
454.595	1737
454.655	76
454.665	-199
454.734	1114
454.736	1202
454.804	2676
454.817	3811
454.873	7465
454.898	8049
454.943	8893
454.979	6304
455.013	4156
455.060	2217
455.082	1512
455.141	2743
455.152	2906
455.221	6766
455.222	6951
455.291	13250
455.303	13378
455.360	13482
455.384	18031
455.430	24190
455.465	18572
455.499	13655
455.546	10297
455.569	8490
455.627	5310
455.638	4812
455.707	1071
455.708	1093
455.777	965
455.789	1106
455.846	1521
455.869	1484
455.916	1368
455.950	1240
455.985	1074
456.031	852
456.054	705
456.112	1498
456.124	1661
456.193	1230
456.193	1204
456.262	1101
456.274	1399
456.332	2533
456.355	2469
456.401	1919
456.436	1424
456.470	1032
456.516	1058
456.540	1085
456.597	830
456.609	767
456.678	2178
456.678	2161
456.747	1161
456.759	1176
456.817	1212
456.840	1254
456.886	1458
456.920	1566
456.955	1619
457.001	1835
457.024	1912
457.082	2076
457.093	2088
457.162	3195
457.163	3228
457.232	3549
457.243	3346
457.301	2303
457.324	2126
457.370	1828
457.405	1898
457.439	2185
457.485	2266
457.508	2239
457.566	2849
457.577	3097
457.646	5075
457.647	5120
457.715	9365
457.727	10395
457.784	17465
457.808	21944
457.853	26099
457.889	30023
457.922	29048
457.969	21008
457.991	22386
458.050	27177
458.060	28289
458.129	46684
458.130	47258
458.198	41016
458.211	37000
458.267	21519
458.292	14936
458.336	11360
458.372	10840
458.405	14845
458.453	22097
458.474	27940
458.533	48965
458.543	50361
458.611	72656
458.614	73172
458.680	41879
458.694	32424
458.749	16882
458.775	12120
458.818	7439
458.855	5983
458.887	5276
458.936	4586
458.955	4311
459.016	3980
459.024	3973
459.093	4667
459.097	4670
459.162	4060
459.177	4092
459.230	4639
459.257	4773
459.299	4754
459.338	4891
459.368	4849
459.418	5042
459.437	5034
459.499	4676
459.505	4645
459.574	4158
459.579	4167
459.643	4068
459.659	3930
459.711	3871
459.740	4058
459.780	4018
459.820	4357
459.849	4795
459.900	5056
459.917	5103
459.981	5536
459.986	5514
460.054	5252
460.061	5259
460.123	5303
460.141	5231
460.191	5965
460.222	6639
460.260	6878
460.302	6990
460.328	6898
460.382	6453
460.397	6488
460.462	6943
460.465	7196
460.534	13644
460.543	14498
460.602	37788
460.623	46418
460.671	70694
460.703	92257
460.739	80345
460.783	60392
460.808	50667
460.864	13862
460.876	11240
460.944	6312
460.945	6256
461.013	5847
461.024	5760
461.081	5279
461.104	5170
461.150	5306
461.184	5581
461.218	5506
461.264	4927
461.286	4831
461.345	5216
461.355	5276
461.423	5493
461.425	5496
461.491	5250
461.505	5276
461.559	9054
461.585	10798
461.628	14955
461.665	19143
461.696	20485
461.745	23293
461.764	20392
461.825	7990
461.832	7857
461.901	6659
461.905	6651
461.969	5646
461.985	5586
462.037	6134
462.065	6258
462.105	6433
462.145	6582
462.173	8390
462.225	11721
462.241	12482
462.305	16456
462.310	16085
462.378	10046
462.385	9155
462.446	7051
462.465	6650
462.514	6297
462.545	6272
462.582	6404
462.625	6342
462.650	5985
462.705	5524
462.718	5728
462.785	6762
462.786	6794
462.854	7775
462.865	8055
462.922	9751
462.945	10548
462.990	8411
463.025	6239
463.058	6130
463.104	6037
463.126	5924
463.184	5950
463.194	6000
463.262	5803
463.264	5814
463.330	6546
463.344	6677
463.398	6962
463.424	6949
463.466	6672
463.504	6561
463.533	6878
463.583	7304
463.601	7516
463.663	8306
463.669	8399
463.737	9286
463.743	9387
463.805	13457
463.823	14571
463.873	20401
463.903	24069
463.940	24240
463.982	24764
464.008	20556
464.062	10346
464.076	9903
464.142	7443
464.144	7418
464.211	6811
464.221	6772
464.279	7216
464.301	7318
464.347	7951
464.381	8413
464.414	8735
464.461	9223
464.482	9531
464.540	10306
464.550	10086
464.617	8207
464.620	8141
464.685	9644
464.699	9890
464.753	12189
464.779	13432
464.820	15052
464.859	16459
464.888	15388
464.938	13519
464.956	13890
465.018	15054
465.023	14934
465.091	12881
465.098	12673
465.158	12242
465.177	12061
465.226	11833
465.257	11671
465.293	11721
465.336	11790
465.361	12292
465.416	13148
465.428	13897
465.495	18071
465.496	18152
465.563	25915
465.575	27273
465.631	32244
465.654	34431
465.698	23155
465.734	13200
465.765	12721
465.813	11903
465.833	11488
465.893	10741
465.900	10811
465.968	11189
465.972	11184
466.035	11101
466.052	11098
466.102	10999
466.131	10866
466.170	11374
466.210	11877
466.237	12002
466.290	12229
466.304	12217
466.369	11920
466.372	11930
466.439	11673
466.449	11589
466.506	11856
466.528	11954
466.573	15690
466.607	18432
466.641	25282
466.687	34780
466.708	37761
466.766	45908
466.775	42561
466.842	16622
466.845	15358
466.909	13056
466.925	12513
466.977	12931
467.004	13167
467.044	13867
467.083	14508
467.111	16169
467.163	19178
467.178	19748
467.242	21967
467.245	21915
467.312	19905
467.321	19598
467.379	18210
467.400	17653
467.446	19215
467.480	20280
467.559	18431
467.638	16894
467.717	16848
467.796	17031
467.875	17253
467.955	17498
468.034	26612
468.113	45092
468.192	63891
468.271	24144
468.350	23103
468.429	26237
468.508	27583
468.588	21111
468.667	18248
468.746	17181
468.825	17151
468.904	15515
468.983	16702
469.062	21998
469.141	25720
469.220	14405
469.299	15329
469.378	17707
469.456	20938
469.535	19474
469.614	19107
469.693	17332
469.772	21925
469.851	25439
469.930	19119
470.009	17086
470.088	16011
470.166	17274
470.245	20067
470.324	21440
470.403	18029
470.482	15922
470.560	16714
470.639	14543
470.718	16989
470.797	15041
470.875	16253
470.954	19609
471.033	21709
471.111	13719
471.190	14171
471.269	13291
471.347	13868
471.426	13818
471.505	17821
471.583	19004
471.662	17319
471.740	16249
471.819	15372
471.898	15071
471.976	15653
472.055	15283
472.133	17065
472.212	20403
472.290	19608
472.369	15126
472.447	14751
472.526	13245
472.604	14438
472.683	14336
472.761	13856
472.839	14338
472.918	14068
472.996	14398
473.075	15941
473.153	16057
473.231	13778
473.310	14832
473.388	14515
473.466	14616
473.545	15416
473.623	17256
473.701	16242
473.780	15389
473.858	13862
473.936	15322
474.014	14493
474.093	15605
474.171	20504
474.249	22935
474.327	17216
474.405	13235
474.484	13295
474.562	12662
474.640	12494
474.718	13020
474.796	13467
474.874	12309
474.952	11138
475.030	12665
475.108	12166
475.187	12620
475.265	12982
475.343	14751
475.421	15108
475.499	12617
475.577	14342
475.655	16714
475.733	25330
475.811	38967
475.889	36484
475.966	25102
476.044	12763
476.122	13283
476.200	14470
476.278	14004
476.356	12543
476.434	13129
476.512	14265
476.590	15171
476.667	14854
476.745	11752
476.823	13459
476.901	13134
476.979	13025
477.056	12513
477.134	13724
477.212	13043
477.290	12561
477.367	11418
477.445	11889
477.523	11423
477.601	11210
477.678	12084
477.756	13998
477.834	14533
477.911	12726
477.989	11871
478.066	12032
478.144	12693
478.222	12547
478.299	13962
478.377	14123
478.454	12011
478.532	11692
478.609	10272
478.687	12423
478.764	10598
478.842	11192
478.919	11396
478.997	11648
479.074	11412
479.152	12808
479.229	15228
479.307	11298
479.384	10919
479.461	11081
479.539	10789
479.616	12848
479.694	11367
479.771	12383
479.848	12305
479.926	14008
480.003	15792
480.080	11084
480.157	10270
480.235	9596
480.312	10643
480.389	11452
480.467	16264
480.544	19032
480.621	12513
480.698	11622
480.775	13640
480.853	12908
480.930	10820
481.007	12502
481.084	15093
481.161	21131
481.238	15519
481.315	11091
481.392	11678
481.470	12218
481.547	11307
481.624	10841
481.701	11187
481.778	11959
481.855	12752
481.932	15342
482.009	24009
482.086	17528
482.163	12174
482.240	13313
482.317	15319
482.393	14162
482.470	12328
482.547	12457
482.624	11234
482.701	11900
482.778	11721
482.855	11169
482.932	10211
483.009	10578
483.085	12871
483.162	16425
483.239	15588
483.316	12237
483.393	12159
483.469	11540
483.546	13733
483.623	12709
483.699	10770
483.776	11788
483.853	13046
483.930	16786
484.006	34175
484.083	58460
484.160	40445
484.236	62288
484.313	46934
484.389	35614
484.466	32568
484.543	31923
484.619	33543
484.696	35063
484.772	33602
484.849	33782
484.925	28982
485.002	29786
485.078	30172
485.155	29798
485.231	26828
485.308	27346
485.384	27926
485.461	31691
485.537	42383
485.614	46994
485.690	26575
485.766	25854
485.843	26339
485.919	27533
485.995	28324
486.072	23711
486.148	24618
486.224	24325
486.301	24035
486.377	26459
486.453	26387
486.530	28721
486.606	36891
486.682	39452
486.758	41508
486.835	43746
486.911	36934
486.987	50108
487.063	44696
487.139	45553
487.215	41029
487.292	32030
487.368	29934
487.444	33015
487.520	38761
487.596	46262
487.672	74998
487.748	191834
487.824	279563
487.900	92753
487.976	38284
488.052	30795
488.128	32304
488.204	28280
488.280	25538
488.356	28285
488.432	44925
488.508	60307
488.584	27158
488.660	22518
488.736	21892
488.812	21665
488.888	26355
488.964	29218
489.039	37095
489.115	49364
489.191	35157
489.267	22764
489.343	22573
489.418	20293
489.494	20251
489.570	18577
489.646	21506
489.722	20336
489.797	20649
489.873	27368
489.949	47171
490.024	39759
490.100	19489
490.176	19345
490.251	19745
490.327	21459
490.403	17151
490.478	18405
490.554	16455
490.629	17816
490.705	16104
490.781	18869
490.856	16391
490.932	18949
491.007	17035
491.083	19226
491.158	16821
491.234	21794
491.309	36675
491.385	35777
491.460	17712
491.536	18418
491.611	15297
491.686	15910
491.762	18227
491.837	24670
491.913	36548
491.988	45038
492.063	51432
492.139	25370
492.214	20632
492.289	14707
492.365	13461
492.440	16840
492.515	13887
492.590	16437
492.666	13354
492.741	18377
492.816	23208
492.891	15741
492.967	13989
493.042	13548
493.117	14058
493.192	15017
493.267	24076
493.342	64014
493.418	84935
493.493	19201
493.568	12726
493.643	12889
493.718	15394
493.793	18350
493.868	18398
493.943	12773
494.018	12627
494.093	12480
494.168	12124
494.243	11926
494.318	11188
494.393	12120
494.468	11047
494.543	10839
494.618	12138
494.693	11964
494.768	11863
494.842	12618
494.917	10858
494.992	11836
495.067	11178
495.142	10127
495.217	11508
495.292	10958
495.366	12343
495.441	13918
495.516	15593
495.591	18409
495.665	39355
495.740	78746
495.815	35513
495.890	14449
495.964	11582
496.039	16246
496.114	15145
496.188	20337
496.263	17264
496.338	12579
496.412	14446
496.487	16330
496.561	14064
496.636	13945
496.710	13784
496.785	15627
496.860	16820
496.934	12394
497.009	12888
497.083	13734
497.158	13029
497.232	14178
497.307	16997
497.381	14319
497.455	15468
497.530	20574
497.604	15886
497.679	14563
497.753	21590
497.827	23709
497.902	19096
497.976	25348
498.050	70089
498.125	259324
498.199	248817
498.273	27343
498.348	16908
498.422	16153
498.496	15587
498.570	15446
498.645	13557
498.719	14710
498.793	17747
498.867	26352
498.941	37961
499.016	110348
499.090	285800
499.164	91763
499.238	14403
499.312	13275
499.386	15108
499.460	16373
499.534	14635
499.609	17174
499.683	24118
499.757	23122
499.831	51565
499.905	190932
499.979	168568
500.053	28492
500.127	24442
500.201	17200
500.275	14016
500.349	14339
500.422	15611
500.496	19813
500.570	34475
500.644	101765
500.718	193344
500.792	41618
500.866	14815
500.940	18977
501.013	16061
501.087	15072
501.161	21010
501.235	26906
501.309	64579
501.382	176187
501.456	140807
501.530	32428
501.603	58236
501.677	22315
501.751	11970
501.825	15282
501.898	27572
501.972	70575
502.046	41119
502.119	15155
502.193	31716
502.266	73932
502.340	35709
502.413	35821
502.487	63364
502.561	35681
502.634	13457
502.708	11535
502.781	9659
502.855	9761
502.928	8453
503.002	10209
503.075	9127
503.149	10215
503.222	10269
503.295	10834
503.369	13124
503.442	18480
503.516	53687
503.589	126799
503.662	78439
503.736	28275
503.809	62691
503.882	51951
503.956	81660
504.029	82473
504.102	100728
504.175	136718
504.249	48938
504.322	24225
504.395	17220
504.468	12150
504.542	11372
504.615	9014
504.688	9536
504.761	7626
504.834	11390
504.907	9969
504.980	12305
505.053	9253
505.127	8795
505.200	14203
505.273	12051
505.346	10536
505.419	7868
505.492	9042
505.565	7193
505.638	8228
505.711	7393
505.784	7962
505.857	7387
505.930	9889
506.003	7138
506.076	9210
506.149	9619
506.221	11670
506.294	12568
506.367	28080
506.440	93316
506.513	45871
506.586	12303
506.659	8105
506.731	7576
506.804	8362
506.877	9852
506.950	9581
507.022	7721
507.095	9021
507.168	11127
507.241	8346
507.313	6465
507.386	6685
507.459	8463
507.531	7294
507.604	6650
507.677	8245
507.749	5462
507.822	9248
507.894	16758
507.967	21629
508.040	13762
508.112	13341
508.185	12245
508.257	10201
508.330	13865
508.402	11295
508.475	11279
508.547	12899
508.620	10841
508.692	16211
508.765	12132
508.837	9253
508.909	10296
508.982	10374
509.054	11195
509.127	8673
509.199	9717
509.271	9126
509.344	9288
509.416	9378
509.488	10239
509.560	9697
509.633	9454
509.705	10905
509.777	10832
509.849	12081
509.922	10920
509.994	11208
510.066	11024
510.138	12534
510.210	24476
510.283	20834
510.355	16869
510.427	15262
510.499	13747
510.571	13218
510.643	12388
510.715	16039
510.787	13285
510.859	14039
510.931	13957
511.003	15577
511.076	14521
511.148	12779
511.219	13112
511.291	19008
511.363	19549
511.435	11915
511.507	10983
511.579	12770
511.651	12263
511.723	11170
511.795	10338
511.867	10662
511.939	13427
512.010	21528
512.082	17559
512.154	10007
512.226	10896
512.298	17980
512.369	22361
512.441	18043
512.513	16022
512.585	12294
512.656	15048
512.728	14568
512.800	12663
512.871	12781
512.943	13324
513.015	11239
513.086	11823
513.158	13101
513.230	11128
513.301	13505
513.373	14502
513.444	12179
513.516	11049
513.588	11128
513.659	11651
513.731	12938
513.802	10236
513.874	16577
513.945	20532
514.016	13181
514.088	11160
514.159	11083
514.231	14367
514.302	19876
514.374	16505
514.445	15327
514.516	25126
514.588	18528
514.659	13378
514.730	21763
514.802	16447
514.873	10958
514.944	13601
515.016	12161
515.087	12844
515.158	16678
515.229	21392
515.301	11215
515.372	11592
515.443	10654
515.514	11730
515.585	10849
515.656	11135
515.728	11809
515.799	9846
515.870	12468
515.941	12910
516.012	12104
516.083	16550
516.154	15141
516.225	16833
516.296	16663
516.367	14527
516.438	15002
516.509	18268
516.580	24292
516.651	60450
516.722	182605
516.793	76637
516.864	23583
516.935	23150
517.006	24314
517.077	30991
517.148	63873
517.219	229159
517.289	335817
517.360	119805
517.431	40785
517.502	16529
517.573	17010
517.643	16820
517.714	19213
517.785	18735
517.856	18825
517.926	22804
517.997	22551
518.068	25155
518.138	31397
518.209	45988
518.280	157941
518.350	523319
518.421	190369
518.492	31533
518.562	27189
518.633	30800
518.703	35649
518.774	71343
518.845	173940
518.915	153254
518.986	45360
519.056	27240
519.127	30013
519.197	42559
519.268	100182
519.338	64209
519.408	20839
519.479	17619
519.549	15548
519.620	14324
519.690	11681
519.760	11641
519.831	11208
519.901	11482
519.971	11703
520.042	12108
520.112	13062
520.182	12979
520.253	13950
520.323	11836
520.393	14504
520.463	19225
520.534	12879
520.604	25524
520.674	14949
520.744	15069
520.814	26630
520.885	24944
520.955	36716
521.025	119251
521.095	43487
521.165	13427
521.235	11692
521.305	11061
521.375	10720
521.445	11659
521.515	10618
521.585	13062
521.655	10432
521.725	11748
521.795	13072
521.865	8816
521.935	16045
522.005	13431
522.075	10401
522.145	12124
522.215	13048
522.285	15402
522.355	19234
522.424	32663
522.494	26451
522.564	14837
522.634	18535
522.704	40249
522.774	17873
522.843	10458
522.913	10501
522.983	11059
523.053	9879
523.122	10490
523.192	10877
523.262	22388
523.331	21022
523.401	11120
523.471	9621
523.540	9567
523.610	8063
523.680	9433
523.749	8737
523.819	11873
523.888	11494
523.958	8757
524.027	9061
524.097	9917
524.166	8568
524.236	8182
524.305	11106
524.375	7563
524.444	7444
524.514	11256
524.583	9785
524.653	10815
524.722	13394
524.791	9105
524.861	10364
524.930	9491
524.999	8961
525.069	10773
525.138	10843
525.207	11886
525.277	11606
525.346	10554
525.415	11667
525.484	10904
525.554	13210
525.623	14313
525.692	16133
525.761	16301
525.830	19137
525.900	22085
525.969	35038
526.038	59614
526.107	124030
526.176	340309
526.245	250134
526.314	76576
526.383	178107
526.452	226771
526.522	367344
526.591	317251
526.660	56254
526.729	34701
526.797	39663
526.867	68805
526.935	234335
527.004	625982
527.073	344504
527.142	37744
527.211	19487
527.280	16529
527.349	14090
527.418	9406
527.487	11503
527.555	8571
527.624	8369
527.693	8249
527.762	9374
527.831	7284
527.899	9188
527.968	7803
528.037	7584
528.106	9454
528.174	12033
528.243	11277
528.312	15292
528.380	14281
528.449	8218
528.518	8549
528.586	6679
528.655	9145
528.723	8593
528.792	7031
528.861	8578
528.929	6969
528.998	9458
529.066	10997
529.135	14527
529.203	14256
529.272	19265
529.340	22735
529.409	22771
529.477	19627
529.545	20372
529.614	23628
529.682	26216
529.751	27659
529.819	31236
529.887	31336
529.956	27703
530.024	27467
530.092	23634
530.161	25045
530.229	27366
530.297	27048
530.365	26669
530.434	28724
530.502	28135
530.570	25965
530.638	23002
530.707	21962
530.775	22354
530.843	21706
530.911	26303
530.979	24156
531.047	26921
531.115	27429
531.183	24131
531.252	23603
531.320	22324
531.388	22188
531.456	26408
531.524	24999
531.592	28356
531.660	31260
531.728	27433
531.796	25970
531.864	27132
531.932	26928
532.000	26559
532.067	28572
532.135	29548
532.203	32263
532.271	33591
532.339	35834
532.407	41887
532.475	35028
532.542	31513
532.610	30720
532.678	34187
532.746	58622
532.814	94607
532.881	43413
532.949	31031
533.017	29181
533.084	27492
533.152	26400
533.220	27752
533.287	27680
533.355	28764
533.423	29141
533.490	28591
533.558	27648
533.625	27398
533.693	27110
533.761	27043
533.828	26000
533.896	25916
533.963	32801
534.031	34117
534.098	36857
534.166	30047
534.233	27353
534.300	28405
534.368	27906
534.435	27137
534.503	26592
534.570	27763
534.637	28643
534.705	30911
534.772	33108
534.840	49698
534.907	166767
534.974	183489
535.041	33112
535.109	25773
535.176	20981
535.243	22969
535.310	21816
535.378	21520
535.445	20494
535.512	19693
535.579	18953
535.646	18168
535.714	19958
535.781	23070
535.848	21987
535.915	23904
535.982	24471
536.049	22797
536.116	21894
536.183	19015
536.250	18343
536.317	17381
536.384	18970
536.451	19841
536.518	20532
536.585	17486
536.652	20874
536.719	21481
536.786	17603
536.853	17243
536.920	20849
536.987	22861
537.053	20833
537.120	48256
537.187	39255
537.254	16843
537.321	16659
537.388	17432
537.454	14017
537.521	14100
537.588	14082
537.654	16682
537.721	17150
537.788	16805
537.855	15335
537.921	16402
537.988	15263
538.055	15052
538.121	13781
538.188	14391
538.254	14775
538.321	18421
538.388	17070
538.454	14924
538.521	14836
538.587	14225
538.654	13714
538.720	13224
538.787	13659
538.853	14169
538.920	15676
538.986	14025
539.053	13060
539.119	14255
539.185	12644
539.252	15217
539.318	15837
539.385	18324
539.451	15284
539.517	15883
539.583	16149
539.650	21792
539.716	35345
539.782	16716
539.849	13005
539.915	13935
539.981	12973
540.047	14063
540.114	12892
540.180	13742
540.246	12728
540.312	15063
540.378	17572
540.444	19854
540.510	20469
540.576	37001
540.643	18055
540.709	12015
540.775	13328
540.841	13578
540.907	15733
540.973	20272
541.039	16625
541.105	15902
541.171	14314
541.237	12437
541.303	14261
541.369	14958
541.435	14535
541.500	17904
541.566	13111
541.632	11621
541.698	12183
541.764	13313
541.830	11458
541.896	10976
541.961	12554
542.027	11323
542.093	12483
542.159	13908
542.224	12445
542.290	16385
542.356	16278
542.421	18884
542.487	14405
542.553	11983
542.618	14402
542.684	12548
542.750	12403
542.815	13224
542.881	16412
542.947	33949
543.012	25517
543.078	11722
543.143	10575
543.209	12582
543.274	11621
543.340	14011
543.405	18055
543.471	22561
543.536	13169
543.602	12810
543.667	11032
543.732	12822
543.798	11166
543.863	13463
543.928	11864
543.994	12049
544.059	12114
544.124	12571
544.190	12612
544.255	12780
544.320	13766
544.386	12472
544.451	15141
544.516	15362
544.581	14396
544.646	25473
544.712	31933
544.777	15614
544.842	14937
544.907	15196
544.972	14504
545.037	14443
545.102	15941
545.168	14733
545.233	14888
545.298	17347
545.363	16732
545.428	17589
545.493	21487
545.558	29161
545.623	19139
545.688	15382
545.753	16139
545.818	15148
545.883	16655
545.947	16650
546.012	17978
546.077	18634
546.142	19171
546.207	18092
546.272	19528
546.337	20661
546.401	19660
546.466	21102
546.531	20519
546.596	21843
546.661	21973
546.725	23424
546.790	23427
546.855	26315
546.919	26102
546.984	28997
547.049	30654
547.113	35861
547.178	35832
547.243	43147
547.307	47807
547.372	53441
547.436	52892
547.501	53965
547.565	56861
547.630	53240
547.695	51604
547.759	54722
547.823	53190
547.888	52670
547.952	53408
548.017	57511
548.081	61825
548.146	62041
548.210	60582
548.274	62432
548.339	59532
548.403	55778
548.468	51997
548.532	53065
548.596	51865
548.660	54313
548.725	58338
548.789	62705
548.853	63509
548.917	58746
548.982	59802
549.046	55116
549.110	47415
549.174	48329
549.238	56950
549.303	60652
549.367	61730
549.431	58287
549.495	54607
549.559	56449
549.623	65011
549.687	70175
549.751	71181
549.815	83240
549.879	81755
549.943	79361
550.007	82491
550.071	81088
550.135	75361
550.199	70314
550.263	69998
550.327	66638
550.391	72455
550.455	77953
550.519	79225
550.582	83967
550.646	96368
550.710	96113
550.774	93469
550.838	94693
550.901	96511
550.965	103781
551.029	106780
551.093	115172
551.156	126488
551.220	153057
551.284	163656
551.347	124528
551.411	124039
551.475	123179
551.538	103096
551.602	95011
551.666	90446
551.729	85341
551.793	83773
551.856	83693
551.920	81051
551.983	83106
552.047	81037
552.110	81454
552.174	82058
552.237	83295
552.301	78224
552.364	75428
552.428	72975
552.491	76293
552.554	76207
552.618	76465
552.681	77826
552.745	76412
552.808	82894
552.871	90691
552.934	82680
552.998	76108
553.061	75769
553.124	73287
553.187	72548
553.251	76485
553.314	77006
553.377	79135
553.440	88994
553.503	124605
553.567	147128
553.630	88238
553.693	81802
553.756	82518
553.819	81170
553.882	79623
553.945	80207
554.008	80422
554.071	80157
554.134	81061
554.197	75997
554.260	74445
554.323	76118
554.386	77196
554.449	78732
554.512	79937
554.575	75330
554.638	77298
554.701	74689
554.764	74967
554.827	70011
554.889	69599
554.952	65875
555.015	65428
555.078	65809
555.141	66930
555.203	65638
555.266	65523
555.329	63117
555.391	60880
555.454	61122
555.517	59830
555.580	57365
555.642	56058
555.705	55321
555.768	54583
555.830	52201
555.893	51043
555.955	49040
556.018	48678
556.080	49390
556.143	50457
556.206	48595
556.268	47494
556.330	46760
556.393	45113
556.455	45494
556.518	48165
556.580	47318
556.643	41436
556.705	40667
556.767	38742
556.830	39709
556.892	38723
556.955	39629
557.017	37956
557.079	36445
557.142	35752
557.204	35347
557.266	40328
557.328	36051
557.391	32173
557.453	32093
557.515	32091
557.577	32757
557.639	32614
557.701	32037
557.764	31682
557.826	31676
557.888	33951
557.950	33817
558.012	38378
558.074	50566
558.136	102684
558.198	220585
558.260	77412
558.322	36147
558.384	37169
558.446	39170
558.508	42403
558.570	49117
558.632	59281
558.694	80969
558.756	127756
558.818	354569
558.880	759286
558.942	262144
559.003	231151
559.065	106402
559.127	47669
559.189	45766
559.251	54212
559.312	80659
559.374	184818
559.436	541261
559.498	248897
559.559	51865
559.621	46044
559.683	56337
559.744	95490
559.806	281558
559.868	380034
559.929	76362
559.991	52145
560.052	81734
560.114	214607
560.176	129776
560.237	126737
560.299	188782
560.360	42534
560.422	22412
560.483	20013
560.545	19115
560.606	18974
560.667	18250
560.729	17162
560.790	16905
560.852	16874
560.913	16511
560.974	16229
561.036	15644
561.097	16885
561.158	16418
561.220	16397
561.281	15608
561.342	15845
561.403	16502
561.465	16811
561.526	22187
561.587	25423
561.648	14779
561.709	14368
561.771	14615
561.832	13465
561.893	13829
561.954	13806
562.015	12571
562.076	14143
562.137	13427
562.198	14600
562.259	14945
562.320	13458
562.381	13652
562.442	15438
562.503	13967
562.564	13377
562.625	13961
562.686	12591
562.747	13131
562.808	13151
562.869	13830
562.930	14411
562.991	14118
563.051	13615
563.112	14142
563.173	12688
563.234	12675
563.294	12879
563.355	12132
563.416	12406
563.477	11985
563.537	13295
563.598	12870
563.659	12395
563.720	11804
563.780	13219
563.841	12697
563.901	13283
563.962	12591
564.023	12320
564.083	11920
564.144	12244
564.204	11973
564.265	13342
564.325	13823
564.386	20827
564.446	18235
564.507	11950
564.567	11806
564.628	11915
564.688	10756
564.749	12193
564.809	12672
564.869	13073
564.930	11850
564.990	12226
565.050	11115
565.111	11141
565.171	10178
565.231	11235
565.292	11652
565.352	11147
565.412	11323
565.472	11207
565.532	11443
565.593	12098
565.653	10555
565.713	10744
565.773	11371
565.833	12255
565.893	13519
565.953	11144
566.013	10678
566.074	11199
566.134	13407
566.194	16867
566.254	17343
566.314	13630
566.374	11122
566.434	11667
566.494	11024
566.554	11146
566.614	10939
566.673	11269
566.733	11212
566.793	11533
566.853	11202
566.913	11163
566.973	11040
567.033	11765
567.092	12159
567.152	11958
567.212	10581
567.272	11849
567.331	12085
567.391	11990
567.451	13135
567.511	15745
567.570	15788
567.630	11897
567.690	12017
567.749	11860
567.809	10744
567.868	11966
567.928	11190
567.988	13163
568.047	11374
568.107	11546
568.166	11507
568.226	12623
568.285	13419
568.345	13489
568.404	12826
568.464	11932
568.523	11552
568.582	11384
568.642	12247
568.701	12459
568.761	13200
568.820	14648
568.879	15130
568.939	16044
568.998	14296
569.057	11276
569.116	11765
569.176	11587
569.235	10768
569.294	10023
569.353	10450
569.413	11466
569.472	10370
569.531	11243
569.590	9823
569.649	9980
569.708	9025
569.767	11633
569.827	11215
569.886	10408
569.945	10775
570.004	10949
570.063	10034
570.122	11067
570.181	10825
570.240	11642
570.299	11624
570.358	11456
570.417	11081
570.475	11041
570.534	11228
570.593	11068
570.652	10551
570.711	11250
570.770	10957
570.829	11769
570.887	11179
570.946	12260
571.005	10786
571.064	10962
571.122	10753
571.181	11713
571.240	10828
571.299	10262
571.357	11078
571.416	11394
571.475	12704
571.533	12602
571.592	11337
571.650	12095
571.709	11069
571.768	12011
571.826	11700
571.885	10599
571.943	10904
572.002	10240
572.060	10591
572.119	9894
572.177	10159
572.236	10269
572.294	9027
572.352	10177
572.411	10771
572.469	9429
572.528	9232
572.586	10257
572.644	9345
572.703	11184
572.761	10642
572.819	9966
572.877	9957
572.936	8965
572.994	9017
573.052	9486
573.110	9167
573.169	9160
573.227	9223
573.285	8510
573.343	8782
573.401	9242
573.459	10803
573.517	9658
573.576	10115
573.634	10772
573.692	9226
573.750	9996
573.808	8891
573.866	9646
573.924	11178
573.982	10550
574.040	9827
574.098	8497
574.155	9245
574.213	9255
574.271	9355
574.329	9423
574.387	8958
574.445	8395
574.503	8275
574.560	8573
574.618	7918
574.676	8291
574.734	8645
574.792	8110
574.849	8675
574.907	7329
574.965	7714
575.022	8233
575.080	7469
575.138	8004
575.195	7582
575.253	7701
575.311	7661
575.368	8187
575.426	8045
575.483	8940
575.541	7678
575.598	8358
575.656	8123
575.713	7716
575.771	8428
575.828	7687
575.886	6929
575.943	8624
576.001	8988
576.058	7802
576.115	8270
576.173	8520
576.230	9936
576.287	9830
576.345	8828
576.402	9268
576.459	8055
576.517	8034
576.574	8719
576.631	9469
576.688	7978
576.746	7633
576.803	8099
576.860	7151
576.917	8907
576.974	8420
577.031	8202
577.089	8222
577.146	7159
577.203	7244
577.260	7575
577.317	8509
577.374	9108
577.431	8528
577.488	7634
577.545	7634
577.602	8344
577.659	8612
577.716	8387
577.773	9854
577.830	7257
577.886	8220
577.943	8488
578.000	8128
578.057	8248
578.114	8899
578.171	11318
578.227	13171
578.284	12281
578.341	10761
578.398	9527
578.454	9200
578.511	9237
578.568	10268
578.625	8418
578.681	8917
578.738	7525
578.794	8252
578.851	7352
578.908	7450
578.964	8249
579.021	8394
579.077	7945
579.134	8327
579.190	7532
579.247	8371
579.303	7248
579.360	7449
579.416	8008
579.473	7643
579.529	7472
579.586	7699
579.642	8436
579.698	8319
579.755	8516
579.811	9603
579.867	8904
579.924	9210
579.980	9963
580.036	11380
580.093	13307
580.149	19187
580.205	20725
580.261	15292
580.317	12755
580.374	12446
580.430	11688
580.486	11424
580.542	8049
580.598	9981
580.619	9665
580.654	9131
580.692	9484
580.710	9680
580.765	9832
580.767	9849
580.823	10069
580.838	9876
580.879	9391
580.911	9451
580.935	9530
580.984	9231
580.991	9201
581.047	9832
581.057	9973
581.103	10682
581.130	11159
581.159	11664
581.203	11916
581.215	11996
581.270	11148
581.276	11072
581.326	10491
581.349	10611
581.382	10778
581.422	10287
581.438	10104
581.494	10025
581.494	10016
581.550	10025
581.567	10063
581.606	10136
581.640	9997
581.661	9946
581.713	10193
581.717	10220
581.773	10523
581.786	10535
581.829	10574
581.859	10657
581.885	10756
581.932	10459
581.940	10408
581.996	10569
582.004	10606
582.052	10860
582.077	10065
582.107	9220
582.150	10915
582.163	11416
582.219	10185
582.223	10282
582.274	11501
582.296	11118
582.330	10499
582.368	10986
582.386	11302
582.441	10869
582.441	10871
582.497	11364
582.514	11318
582.552	11326
582.587	11974
582.608	12306
582.659	11581
582.663	11542
582.719	12274
582.732	12287
582.774	12280
582.805	12270
582.830	12304
582.877	12942
582.885	13037
582.941	12909
582.950	13276
582.996	15300
583.023	16161
583.052	17175
583.095	18072
583.107	18268
583.162	18343
583.168	18341
583.218	18302
583.240	17183
583.273	15338
583.313	14324
583.328	14069
583.384	12750
583.385	12731
583.439	11901
583.458	11689
583.494	11394
583.531	11116
583.549	10987
583.603	11365
583.605	11373
583.660	11011
583.676	11061
583.715	11247
583.748	11063
583.770	10937
583.820	10933
583.825	10939
583.881	11132
583.893	11167
583.936	11081
583.965	10439
583.991	10012
584.038	11162
584.046	11327
584.101	11145
584.110	11018
584.156	10501
584.183	10651
584.211	10759
584.255	10903
584.266	10969
584.321	11608
584.328	11622
584.376	11569
584.400	11442
584.431	11263
584.472	11020
584.486	10877
584.541	11257
584.545	11309
584.596	12366
584.617	12155
584.651	11997
584.689	12753
584.706	12838
584.761	12254
584.762	12254
584.816	11932
584.834	12299
584.871	13091
584.906	13006
584.926	12912
584.978	12913
584.980	12913
585.035	14384
585.051	14449
585.090	14481
585.123	15312
585.145	15866
585.195	16450
585.200	16532
585.254	17714
585.267	18119
585.309	19685
585.340	21384
585.364	22448
585.412	24426
585.419	24694
585.473	28285
585.484	29625
585.528	36753
585.556	44776
585.583	57320
585.628	89044
585.637	99660
585.692	201157
585.700	219705
585.747	297752
585.772	247165
585.801	151461
585.845	55579
585.856	41691
585.910	23907
585.917	22363
585.965	18960
585.989	17730
586.019	16853
586.061	15783
586.074	15398
586.128	15088
586.133	14987
586.183	14186
586.205	14384
586.237	14493
586.277	13457
586.292	13119
586.346	14132
586.349	14105
586.401	13125
586.421	12895
586.455	12669
586.493	13675
586.509	14470
586.564	16125
586.565	16246
586.618	21760
586.637	22023
586.672	19964
586.709	16580
586.727	15336
586.781	16084
586.781	16071
586.835	12691
586.853	12273
586.889	11878
586.925	10892
586.944	10499
586.996	11253
586.998	11269
587.052	11347
587.068	11361
587.106	11141
587.140	10849
587.161	10749
587.212	11238
587.215	11252
587.269	11257
587.284	11397
587.323	11417
587.356	10769
587.377	10665
587.427	11669
587.431	11664
587.485	11216
587.499	10999
587.539	11279
587.571	11640
587.593	11616
587.643	12874
587.648	13002
587.702	13023
587.715	13096
587.755	12755
587.786	12597
587.810	12549
587.858	12429
587.864	12479
587.917	13571
587.930	13807
587.971	14674
588.001	15204
588.025	15035
588.073	14706
588.079	14794
588.133	15610
588.145	15962
588.187	16816
588.217	17139
588.241	17478
588.288	18685
588.295	18888
588.348	20304
588.360	20715
588.402	22679
588.431	24438
588.456	25429
588.503	27004
588.510	27346
588.564	31061
588.575	32027
588.617	36485
588.646	39960
588.671	42908
588.718	51274
588.725	53314
588.778	72356
588.789	78137
588.832	125654
588.861	165109
588.886	235373
588.932	392201
588.939	409094
588.993	513575
589.004	512653
589.047	297260
589.075	166399
589.100	117491
589.147	58278
589.154	55727
589.207	44071
589.218	42297
589.261	41852
589.290	42563
589.314	45064
589.361	52568
589.368	55099
589.421	80625
589.433	87689
589.475	157128
589.504	215193
589.528	288811
589.576	438789
589.582	428155
589.635	242218
589.647	204231
589.689	100319
589.718	43545
589.742	36053
589.790	25391
589.795	24928
589.849	22398
589.861	22041
589.902	22282
589.932	21807
589.955	19909
590.004	16036
590.009	15857
590.062	14799
590.075	14585
590.115	14146
590.146	13757
590.168	13545
590.218	13340
590.222	13272
590.275	12552
590.289	12445
590.328	13501
590.360	14261
590.381	13973
590.431	13231
590.435	13211
590.488	13108
590.503	13230
590.541	13325
590.574	13132
590.594	12942
590.645	12750
590.647	12756
590.700	13478
590.716	13650
590.753	13609
590.787	13524
590.806	13207
590.859	12778
590.859	12758
590.912	12581
590.930	12636
590.965	12977
591.001	13369
591.018	13478
591.071	13685
591.072	13702
591.124	12866
591.143	12708
591.177	13219
591.214	13544
591.230	13492
591.283	13712
591.285	13731
591.336	14010
591.356	14200
591.389	13971
591.427	13574
591.442	13428
591.495	13160
591.498	13152
591.547	13014
591.569	13035
591.600	13268
591.640	13520
591.653	13512
591.706	13637
591.711	13665
591.759	13673
591.782	13764
591.811	14303
591.853	15093
591.864	14991
591.917	14557
591.924	14511
591.969	14382
591.995	14361
592.022	14286
592.066	14257
592.075	14405
592.127	15453
592.137	15692
592.180	16578
592.208	17118
592.233	16651
592.279	15809
592.285	15713
592.338	15161
592.350	15058
592.390	14503
592.421	14142
592.443	14348
592.491	14903
592.495	14855
592.548	14603
592.562	14568
592.600	14336
592.633	14199
592.653	14039
592.704	13651
592.705	13743
592.775	14501
592.846	15990
592.916	16052
592.987	15095
593.058	16013
593.128	14988
593.199	16270
593.270	16017
593.341	15162
593.411	15615
593.482	16245
593.553	16704
593.623	16508
593.694	17812
593.764	17188
593.835	16717
593.906	17734
593.976	17723
594.047	18723
594.117	19992
594.188	20716
594.258	18998
594.329	19123
594.399	19341
594.470	19210
594.540	19352
594.611	20271
594.681	20886
594.751	20399
594.822	21920
594.892	22922
594.963	23229
595.033	23592
595.103	23238
595.174	24981
595.244	27963
595.314	29842
595.384	24677
595.455	25918
595.525	26517
595.595	27002
595.665	27880
595.736	26543
595.806	28081
595.876	27435
595.946	26517
596.016	27876
596.087	28757
596.157	30062
596.227	29930
596.297	30885
596.367	32577
596.437	35766
596.507	37680
596.577	39556
596.647	35964
596.717	36586
596.787	38459
596.857	37542
596.927	38542
596.997	36965
597.067	38569
597.137	40913
597.207	39454
597.277	39402
597.347	39361
597.417	37691
597.487	38050
597.557	38791
597.626	39668
597.696	40477
597.766	41634
597.836	43126
597.906	37635
597.975	35984
598.045	35679
598.115	37569
598.185	39662
598.254	44082
598.324	48411
598.394	47872
598.464	47608
598.533	46418
598.603	44147
598.672	44253
598.742	44715
598.812	45403
598.881	46242
598.951	46547
599.020	47472
599.090	48250
599.159	50865
599.229	47949
599.299	46471
599.368	47602
599.437	49128
599.507	45632
599.576	44623
599.646	45272
599.715	46376
599.785	44857
599.854	44752
599.924	45518
599.993	44312
600.062	45295
600.132	46025
600.201	48709
600.270	54073
600.340	56452
600.409	55229
600.478	56536
600.547	58057
600.617	55018
600.686	47478
600.755	45131
600.824	44419
600.894	43643
600.963	44001
601.032	45393
601.101	45147
601.170	44610
601.239	43502
601.308	43984
601.378	45090
601.447	46362
601.516	46985
601.585	48253
601.654	48665
601.723	49377
601.792	51856
601.861	52905
601.930	56570
601.999	56101
602.068	55995
602.137	56377
602.206	56730
602.275	57680
602.343	58761
602.412	59031
602.481	59462
602.550	60436
602.619	59856
602.688	61001
602.756	61817
602.825	61073
602.894	61782
602.963	62620
603.032	63695
603.100	64051
603.169	63817
603.238	65520
603.307	63521
603.375	63456
603.444	65937
603.513	62529
603.581	64022
603.650	66273
603.719	59641
603.787	57149
603.856	58646
603.924	59201
603.993	61374
604.061	63407
604.130	66355
604.198	67339
604.267	67233
604.335	69087
604.404	69421
604.472	71133
604.541	71658
604.609	74025
604.678	75201
604.746	75359
604.815	79596
604.883	77145
604.951	76063
605.020	77104
605.088	74730
605.156	72174
605.225	72754
605.293	72259
605.361	72469
605.429	72408
605.498	74719
605.566	74837
605.634	78914
605.702	78711
605.771	81138
605.839	82058
605.907	79798
605.975	79272
606.043	75597
606.111	73598
606.180	78490
606.248	74735
606.316	72781
606.384	75788
606.452	68750
606.520	62124
606.588	62107
606.656	64171
606.724	63062
606.792	59439
606.860	53499
606.928	48252
606.996	46256
607.064	46258
607.132	47106
607.200	50558
607.267	50445
607.335	51992
607.403	54389
607.471	52006
607.539	51045
607.607	51240
607.674	44326
607.742	44546
607.810	45659
607.878	44972
607.946	45511
608.013	46851
608.081	48625
608.149	48885
608.216	49140
608.284	52064
608.352	50974
608.419	51388
608.487	52131
608.555	49517
608.622	50064
608.690	52530
608.757	57479
608.825	59512
608.893	57023
608.960	54447
609.028	53379
609.095	54831
609.163	52746
609.230	46111
609.298	42949
609.365	44122
609.432	48089
609.500	51796
609.567	59325
609.635	68184
609.702	72069
609.769	68809
609.837	55533
609.904	47766
609.971	48989
610.039	57779
610.106	77280
610.173	155099
610.241	370302
610.308	245472
610.375	94193
610.442	56736
610.509	49489
610.577	49846
610.644	49237
610.711	50190
610.778	51152
610.845	54262
610.912	57312
610.980	59465
611.047	62987
611.114	59755
611.181	56151
611.248	55464
611.315	59043
611.382	59587
611.449	61870
611.516	64572
611.583	63376
611.650	63150
611.717	65207
611.784	65568
611.851	69780
611.918	76220
611.984	91695
612.051	136083
612.118	287987
612.185	711065
612.252	478440
612.319	117029
612.386	87104
612.452	79155
612.519	74691
612.586	72777
612.653	72436
612.719	75329
612.786	71628
612.853	67364
612.919	63324
612.986	65203
613.053	61541
613.120	56894
613.186	55907
613.253	57504
613.319	55960
613.386	57047
613.453	56817
613.519	58891
613.586	57011
613.652	60566
613.719	58749
613.785	59228
613.852	57791
613.918	58023
613.985	60204
614.051	66763
614.118	80005
614.184	76922
614.250	59285
614.317	59668
614.383	57695
614.449	60007
614.516	58125
614.582	59120
614.648	58246
614.715	58259
614.781	55568
614.847	57012
614.914	56903
614.980	55105
615.046	55688
615.112	56563
615.179	56800
615.245	57831
615.311	56327
615.377	57994
615.443	58066
615.509	58788
615.575	62020
615.642	61172
615.708	63140
615.774	66599
615.840	71631
615.906	80240
615.972	101709
616.038	157753
616.104	347439
616.170	837328
616.236	752468
616.302	176456
616.368	120140
616.434	85373
616.500	76962
616.565	85674
616.631	107989
616.697	87547
616.763	89864
616.829	134816
616.895	248059
616.961	241215
617.026	100548
617.092	67096
617.158	61544
617.224	58783
617.289	55385
617.355	52582
617.421	50252
617.487	52376
617.552	48973
617.618	49171
617.684	48047
617.749	49787
617.815	47464
617.880	45895
617.946	45342
618.012	46624
618.077	47628
618.143	45685
618.208	46960
618.274	49435
618.339	49378
618.405	41467
618.470	42344
618.536	41909
618.601	41523
618.667	39053
618.732	36561
618.798	36920
618.863	36747
618.928	36191
618.994	36417
619.059	36407
619.124	38951
619.190	36528
619.255	35573
619.320	36414
619.386	36311
619.451	34846
619.516	35697
619.581	35857
619.647	35380
619.712	36025
619.777	34501
619.842	35575
619.907	36061
619.972	36673
620.038	36028
620.103	34971
620.168	34042
620.233	36007
620.298	35800
620.363	36282
620.428	37609
620.493	37872
620.558	38418
620.623	39177
620.688	38536
620.753	37853
620.818	38575
620.883	38589
620.948	38611
621.013	38768
621.078	37376
621.143	37478
621.207	41122
621.272	38521
621.337	37248
621.402	38898
621.467	40295
621.532	39748
621.596	37901
621.661	36783
621.726	36043
621.791	35388
621.855	37036
621.920	37106
621.985	38174
622.049	38868
622.114	39678
622.179	38389
622.243	39246
622.308	40067
622.373	42184
622.437	40761
622.502	38927
622.566	38519
622.631	36946
622.695	39749
622.760	39384
622.824	38670
622.889	37624
622.953	38264
623.018	42877
623.082	43810
623.147	40845
623.211	38703
623.276	40511
623.340	37621
623.404	37758
623.469	37268
623.533	37420
623.597	36641
623.662	36390
623.726	33135
623.790	32909
623.854	31445
623.919	32894
623.983	32197
624.047	33845
624.111	33254
624.176	33961
624.240	34154
624.304	36169
624.368	33868
624.432	34163
624.496	33908
624.560	35905
624.625	36624
624.689	37009
624.753	37016
624.817	36351
624.881	34293
624.945	32073
625.009	30297
625.073	32120
625.137	30911
625.201	35270
625.265	35385
625.329	32561
625.393	31732
625.456	32820
625.520	34634
625.584	34372
625.648	37033
625.712	41795
625.776	55409
625.839	58949
625.903	36169
625.967	26933
626.031	34791
626.095	45801
626.158	32719
626.222	25191
626.286	24204
626.349	21783
626.413	21220
626.477	22023
626.540	21986
626.604	20139
626.668	21825
626.731	19898
626.795	21426
626.858	19837
626.922	19785
626.986	20988
627.049	18987
627.113	21027
627.176	21035
627.240	20182
627.303	19754
627.366	19466
627.430	19608
627.493	19854
627.557	18778
627.620	20698
627.684	20225
627.747	20094
627.810	16607
627.874	18411
627.937	16335
628.000	19163
628.064	17966
628.127	13924
628.190	15597
628.253	15108
628.317	14659
628.380	13754
628.443	12760
628.506	14000
628.569	13107
628.632	11879
628.696	12209
628.759	12409
628.822	12008
628.885	11200
628.948	11672
629.011	10264
629.074	11769
629.137	10428
629.200	10181
629.263	11664
629.326	9155
629.389	10600
629.452	11137
629.515	10773
629.578	9672
629.641	11620
629.704	10001
629.767	10573
629.830	10146
629.892	10617
629.955	9537
630.018	10929
630.081	9165
630.144	11346
630.207	8305
630.269	11249
630.332	10155
630.395	10058
630.458	9585
630.520	8264
630.583	9211
630.646	8641
630.708	9241
630.771	9119
630.834	10965
630.896	9526
630.959	10048
631.021	8339
631.084	8992
631.146	10581
631.209	10248
631.272	8736
631.334	9836
631.397	9403
631.459	8742
631.522	10851
631.584	10806
631.646	12054
631.709	11925
631.771	12629
631.834	11768
631.896	10659
631.958	10061
632.021	9816
632.083	7975
632.145	9514
632.208	8508
632.270	9535
632.332	8161
632.395	8112
632.457	9874
632.519	8113
632.581	9433
632.643	8148
632.706	9355
632.768	7619
632.830	8732
632.892	8727
632.954	9105
633.016	9300
633.078	7978
633.141	8633
633.203	8696
633.265	8984
633.327	8914
633.389	7976
633.451	8792
633.513	8901
633.575	10232
633.637	8440
633.698	9743
633.760	9676
633.822	9467
633.884	10022
633.946	9939
634.008	9862
634.070	10896
634.132	13004
634.193	12048
634.255	14452
634.317	13862
634.379	14394
634.441	11953
634.502	11832
634.564	10970
634.626	10036
634.687	10833
634.749	8398
634.811	8712
634.873	7773
634.934	8742
634.996	9320
635.057	7546
635.119	7652
635.181	9655
635.242	10249
635.304	7689
635.365	10819
635.427	8752
635.488	9753
635.550	8428
635.611	8748
635.673	7406
635.734	10550
635.796	9533
635.857	11572
635.918	11230
635.980	13239
636.041	12749
636.102	14580
636.164	14614
636.225	15646
636.286	10792
636.348	11488
636.409	9375
636.470	8644
636.531	8421
636.593	7415
636.654	8795
636.715	8344
636.776	7207
636.838	7540
636.899	7361
636.960	7076
637.021	6745
637.082	7462
637.143	7683
637.204	6660
637.265	6736
637.326	6414
637.387	6991
637.448	5080
637.509	6593
637.570	5807
637.631	7512
637.692	5604
637.753	5781
637.814	7064
637.875	6255
637.936	7364
637.997	5751
638.058	6535
638.119	7002
638.179	5873
638.240	5633
638.301	6423
638.362	5995
638.423	5171
638.483	7055
638.544	5027
638.605	6904
638.666	5461
638.726	6691
638.787	7008
638.848	6643
638.908	5402
638.969	6212
639.030	5189
639.090	4532
639.151	5254
639.211	5827
639.272	7755
639.332	8661
639.393	6654
639.453	5778
639.514	6134
639.574	6384
639.635	5103
639.695	5890
639.756	4836
639.816	5298
639.877	5458
639.937	7871
639.997	7806
640.058	5274
640.118	4634
640.178	6008
640.239	5223
640.299	4974
640.359	5612
640.420	6268
640.480	6320
640.540	6666
640.600	7281
640.661	6241
640.721	6035
640.781	8577
640.841	6237
640.901	6458
640.961	6427
641.021	6040
641.082	5094
641.142	5711
641.202	6562
641.262	3851
641.322	5858
641.382	4636
641.442	5753
641.502	4522
641.562	6319
641.622	4738
641.682	5762
641.742	6455
641.802	5624
641.861	5178
641.921	4865
641.981	5309
642.041	5995
642.101	5600
642.161	3932
642.221	4105
642.280	4642
642.340	5365
642.400	3408
642.460	6062
642.519	4032
642.579	4701
642.639	5695
642.698	3210
642.758	7090
642.818	5760
642.877	4453
642.937	5205
642.997	5726
643.056	5794
643.116	4334
643.175	6164
643.235	5406
643.294	6017
643.354	6161
643.414	6823
643.473	8003
643.532	10840
643.592	15252
643.651	26517
643.711	49577
643.770	96564
643.830	235051
643.889	527193
643.948	136729
644.008	21980
644.067	12591
644.126	8355
644.186	7593
644.245	7573
644.304	5210
644.363	7167
644.423	4873
644.482	6442
644.541	6628
644.600	4401
644.659	8431
644.719	9285
644.778	15348
644.837	27295
644.896	58623
644.955	140990
645.014	50079
645.073	10586
645.132	6608
645.191	6554
645.250	5267
645.309	7213
645.368	7526
645.427	10196
645.486	14305
645.545	27616
645.604	8999
645.663	5938
645.722	5040
645.781	6850
645.840	7913
645.898	9590
645.957	15291
646.016	23529
646.075	46795
646.134	91704
646.192	244168
646.251	390956
646.310	60656
646.369	13673
646.427	11192
646.486	7723
646.545	7063
646.603	5373
646.662	6290
646.721	5023
646.779	4670
646.838	4408
646.896	7491
646.955	9279
647.014	16040
647.072	30543
647.131	88433
647.189	45208
647.248	6807
647.306	5372
647.365	4787
647.423	2685
647.481	4867
647.540	2357
647.598	3538
647.657	3133
647.715	4132
647.773	2405
647.832	4342
647.890	2247
647.948	2575
648.007	3634
648.065	1813
648.123	2700
648.181	4778
648.240	4071
648.298	3082
648.356	3000
648.414	3438
648.472	3492
648.531	3566
648.589	3357
648.647	2601
648.705	2502
648.763	2785
648.821	3492
648.879	2671
648.937	4734
648.995	5117
649.053	6321
649.111	11117
649.169	21251
649.227	36350
649.285	76652
649.343	229838
649.401	120017
649.459	16486
649.516	10252
649.574	6684
649.632	13202
649.690	16749
649.748	9866
649.806	12164
649.863	23845
649.921	61147
649.979	43342
650.037	6730
650.094	2001
650.152	3859
650.210	3387
650.268	2871
650.325	3234
650.383	4107
650.440	1576
650.498	2741
650.556	2471
650.613	1545
650.671	2561
650.728	2708
650.786	2600
650.843	3221
650.901	798
650.958	3117
651.016	2120
651.073	2060
651.131	1704
651.188	1163
651.246	1982
651.303	883
651.360	2996
651.418	1359
651.475	1841
651.532	1132
651.590	2119
651.647	1124
651.704	1057
651.762	1247
651.819	1742
651.876	1155
651.933	1348
651.990	2263
652.048	383
652.105	1104
652.162	1466
652.219	1077
652.276	2153
652.333	2590
652.390	173
652.448	857
652.505	1416
652.562	1619
652.619	1247
652.676	2079
652.733	3134
652.790	728
652.847	320
652.904	1111
652.961	651
653.017	598
653.074	1730
653.131	1434
653.188	441
653.245	1601
653.302	1754
653.359	924
653.415	941
653.472	948
653.529	1807
653.586	442
653.642	1022
653.699	1558
653.756	628
653.813	394
653.869	1998
653.926	169
653.983	1283
654.039	1813
654.096	1441
654.152	1693
654.209	17
654.266	1752
654.322	629
654.379	1749
654.435	2225
654.492	1441
654.548	2322
654.605	2611
654.661	2414
654.717	1312
654.774	1825
654.830	1449
654.887	1088
654.943	1315
655.000	1458
655.056	2352
655.112	1380
655.168	309
655.225	1109
655.281	1933
655.337	1364
655.394	3048
655.450	2616
655.506	1905
655.562	3002
655.618	3396
655.675	49
655.731	1564
655.787	1073
655.843	3190
655.899	973
655.955	1950
656.011	2274
656.067	1677
656.123	2676
656.179	3452
656.235	4539
656.291	1968
656.347	3595
656.403	2679
656.459	1607
656.515	2353
656.571	1653
656.627	1337
656.683	1305
656.739	2573
656.795	796
656.850	1530
656.906	1150
656.962	1758
657.018	813
657.074	1397
657.129	2479
657.185	2397
657.241	7818
657.297	3982
657.352	2222
657.408	-130
657.464	1574
657.519	1128
657.575	-273
657.630	1174
657.686	623
657.742	490
657.797	840
657.853	1290
657.908	1470
657.964	336
658.019	1155
658.075	1141
658.130	1253
658.186	-328
658.241	1333
658.297	395
658.352	899
658.407	1466
658.463	315
658.518	779
658.573	165
658.629	430
658.684	764
658.739	1500
658.795	357
658.850	866
658.905	-239
658.960	1041
659.016	246
659.071	293
659.126	514
659.181	564
659.236	2463
659.291	1663
659.346	1337
659.401	983
659.457	1396
659.512	1408
659.567	1927
659.622	1603
659.677	1320
659.732	686
659.787	549
659.842	581
659.897	1263
659.952	1709
660.007	1017
660.061	1116
660.116	-83
660.171	330
660.226	1168
660.281	958
660.336	3
660.391	1578
660.445	368
660.500	1595
660.555	799
660.610	476
660.664	651
660.719	721
660.774	1164
660.828	807
660.883	1298
660.938	867
660.992	-166
661.047	827
661.101	117
661.156	1044
661.211	714
661.265	505
661.320	680
661.374	1081
661.429	460
661.483	999
661.538	57
661.592	1666
661.647	492
661.701	1398
661.755	203
661.810	792
661.864	38
661.919	606
661.973	866
662.027	-30
662.081	-55
662.136	291
662.190	1453
662.244	637
662.299	-22
662.353	796
662.407	-221
662.461	116
662.515	-344
662.569	265
662.624	1365
662.678	377
662.732	-70
662.786	686
662.840	401
662.894	865
662.948	613
663.002	720
663.056	1118
663.110	279
663.164	-34
663.218	460
663.272	561
663.326	1429
663.380	959
663.434	640
663.488	-377
663.542	1021
663.595	1280
663.649	146
663.703	720
663.757	596
663.811	-151
663.864	61
663.918	469
663.972	927
664.026	-46
664.079	-561
664.133	1559
664.187	835
664.240	5
664.294	556
664.348	944
664.401	-126
664.455	240
664.508	287
664.562	791
664.615	309
664.669	-136
664.722	862
664.776	146
664.829	731
664.883	805
664.936	404
664.990	3
665.043	1091
665.097	311
665.150	1772
665.203	-225
665.257	818
665.310	474
665.363	307
665.417	756
665.470	721
665.523	-195
665.576	435
665.630	958
665.683	1155
665.736	587
665.789	705
665.842	757
665.895	313
665.949	869
666.002	401
666.055	411
666.108	548
666.161	630
666.214	1052
666.267	1313
666.320	1253
666.373	1008
666.426	1417
666.479	0
666.532	748
666.585	1004
666.638	865
666.691	1206
666.744	1499
666.796	141
666.849	1204
666.902	542
666.955	85
667.008	-392
667.060	462
667.113	70
667.166	862
667.219	856
667.271	579
667.324	541
667.377	1137
667.430	797
667.482	683
667.535	138
667.587	1020
667.640	39
667.693	564
667.745	1053
667.798	1623
667.850	556
667.903	259
667.955	348
668.008	1070
668.060	1089
668.113	594
668.165	948
668.218	536
668.270	199
668.322	756
668.375	1030
668.427	1011
668.479	221
668.532	-109
668.584	250
668.636	776
668.689	1117
668.741	-191
668.793	512
668.845	504
668.898	275
668.950	784
669.002	1106
669.054	166
669.106	-277
669.158	640
669.211	-264
669.263	774
669.315	450
669.367	2019
669.419	787
669.471	1404
669.523	1288
669.575	3146
669.627	1407
669.679	727
669.731	1025
669.783	1403
669.835	2140
669.886	739
669.938	1198
669.990	533
670.042	616
670.094	1578
670.146	876
670.197	1979
670.249	2803
670.301	2800
670.353	3752
670.404	7129
670.456	10888
670.508	16691
670.560	28835
670.611	48748
670.663	85915
670.715	202569
670.766	334749
670.818	124233
670.869	20829
670.921	9690
670.972	6607
671.024	4428
671.075	3645
671.127	2711
671.178	1983
671.230	2758
671.281	1817
671.333	2323
671.384	1371
671.436	2166
671.487	3035
671.538	4452
671.590	7466
671.641	11993
671.692	21658
671.744	42112
671.795	29182
671.846	8858
671.897	3919
671.949	3542
672.000	1502
672.051	1735
672.102	1154
672.153	527
672.204	1231
672.256	700
672.307	1297
672.358	783
672.409	1126
672.460	484
672.511	147
672.562	1141
672.613	110
672.664	841
672.715	612
672.766	-70
672.817	102
672.868	458
672.919	379
672.970	140
673.021	1099
673.071	140
673.122	342
673.173	226
673.224	146
673.275	269
673.326	690
673.376	-146
673.427	-570
673.478	174
673.528	1184
673.579	813
673.630	736
673.680	937
673.731	-4
673.782	-22
673.832	-183
673.883	408
673.934	175
673.984	724
674.035	479
674.085	1038
674.136	-237
674.186	453
674.237	498
674.287	935
674.338	1264
674.388	617
674.438	896
674.489	60
674.539	1213
674.589	706
674.640	698
674.690	1205
674.740	-104
674.791	243
674.841	557
674.891	368
674.942	916
674.992	72
675.042	-33
675.092	-347
675.142	-177
675.193	-163
675.243	27
675.293	146
675.343	-272
675.393	-786
675.443	389
675.493	99
675.543	-45
675.593	340
675.643	88
675.693	200
675.743	440
675.793	174
675.843	-282
675.893	859
675.943	616
675.993	464
676.043	91
676.093	-83
676.142	-69
676.192	-37
676.242	-281
676.292	-380
676.341	454
676.391	227
676.441	-203
676.491	-61
676.540	-405
676.590	385
676.640	9
676.689	539
676.739	-227
676.789	-387
676.838	194
676.888	272
676.937	-444
676.987	-367
677.037	-676
677.086	-274
677.136	-10
677.185	-577
677.235	-357
677.284	-250
677.333	-582
677.383	-467
677.432	-395
677.482	-260
677.531	227
677.580	-183
677.630	-292
677.679	-294
677.728	-372
677.778	-52
677.827	-174
677.876	286
677.925	-105
677.975	265
678.024	47
678.073	255
678.122	-498
678.171	94
678.220	-493
678.269	195
678.319	53
678.368	96
678.417	411
678.466	-274
678.515	307
678.564	-448
678.613	110
678.662	-286
678.711	-20
678.760	-541
678.809	297
678.857	382
678.906	194
678.955	-474
679.004	317
679.053	-49
679.102	-141
679.151	-482
679.199	-275
679.248	9
679.297	-1200
679.346	-161
679.394	-389
679.443	-25
679.492	-272
679.540	-739
679.589	-215
679.638	817
679.686	-78
679.735	-35
679.784	-554
679.832	319
679.881	-101
679.929	-478
679.978	-401
680.026	-403
680.075	-361
680.123	-441
680.172	-25
680.220	-1007
680.268	-310
680.317	-402
680.365	-452
680.414	-120
680.462	-1132
680.510	595
680.559	-719
680.607	-506
680.655	34
680.703	-195
680.752	-61
680.800	-590
680.848	-1141
680.896	393
680.945	752
680.993	-136
681.041	-570
681.089	-754
681.137	-661
681.185	-1076
681.233	-872
681.258	-344
681.281	128
681.329	83
681.377	-462
681.380	-410
681.425	23
681.473	342
681.502	-1
681.521	-297
681.569	312
681.617	-113
681.624	-61
681.665	77
681.713	221
681.745	186
681.761	127
681.809	-289
681.857	696
681.867	587
681.904	104
681.952	58
681.989	360
682.000	417
682.048	499
682.096	24
682.111	312
682.143	841
682.191	561
682.233	1783
682.239	1940
682.286	405
682.334	774
682.354	888
682.382	979
682.430	1742
682.476	733
682.477	688
682.525	1251
682.572	828
682.598	1006
682.620	1117
682.667	765
682.715	1050
682.720	1086
682.763	1172
682.810	1445
682.841	1503
682.857	1515
682.905	1339
682.952	1976
682.963	1834
683.000	1165
683.047	1325
683.085	2355
683.095	2627
683.142	1843
683.190	1650
683.206	1499
683.237	1133
683.284	1495
683.328	2399
683.332	2455
683.379	2235
683.426	1498
683.449	1907
683.473	2290
683.521	2304
683.568	2672
683.571	2665
683.615	2316
683.662	2429
683.693	2608
683.709	2655
683.757	2549
683.804	2706
683.814	2640
683.851	2410
683.898	2329
683.936	2703
683.945	2761
683.992	2516
684.039	2695
684.057	2618
684.086	2476
684.133	2848
684.179	3052
684.180	3044
684.227	3528
684.274	3608
684.300	3232
684.321	2874
684.368	2611
684.415	3198
684.422	3226
684.462	3325
684.509	3401
684.543	3942
684.556	4094
684.603	3615
684.649	3495
684.665	3620
684.696	3883
684.743	3062
684.786	3448
684.790	3474
684.837	3460
684.883	4248
684.908	4172
684.930	4031
684.977	4108
685.023	4347
685.029	4343
685.070	4102
685.117	3951
685.150	4166
685.164	4288
685.210	4069
685.257	4536
685.272	4683
685.303	4890
685.350	4391
685.393	4394
685.396	4383
685.443	4599
685.490	4875
685.514	4697
685.536	4569
685.583	4778
685.629	4740
685.636	4803
685.675	4972
685.722	4873
685.757	4859
685.768	4884
685.815	4136
685.861	4952
685.878	4772
685.908	4468
685.954	4887
686.000	5441
686.000	5443
686.047	5762
686.093	6251
686.121	6136
686.139	5914
686.185	5838
686.232	5296
686.242	5205
686.278	5063
686.324	5922
686.363	5722
686.370	5670
686.416	5733
686.463	5978
686.484	5772
686.509	5606
686.555	6161
686.601	5945
686.606	6005
686.647	6345
686.693	5870
686.727	5686
686.739	5620
686.785	5834
686.831	5762
686.848	5925
686.877	6208
686.923	5736
686.969	5674
686.969	5673
687.015	5616
687.061	5986
687.090	5989
687.107	5975
687.153	6633
687.199	6563
687.211	6567
687.245	6509
687.291	6295
687.332	6700
687.336	6751
687.382	6593
687.428	6164
687.453	6334
687.474	6398
687.520	6578
687.565	6450
687.574	6463
687.611	6965
687.657	7255
687.695	8130
687.702	8342
687.748	9201
687.794	9970
687.816	10196
687.839	9612
687.885	8602
687.931	7539
687.937	7472
687.976	7547
688.022	7011
688.058	7175
688.067	7292
688.113	7313
688.158	7263
688.179	7134
688.204	7077
688.249	7515
688.295	7851
688.300	7878
688.340	7888
688.386	8065
688.421	7683
688.431	7597
688.477	7621
688.522	7486
688.542	7873
688.567	8510
688.613	8155
688.658	8093
688.663	8161
688.703	8483
688.749	8292
688.784	8478
688.794	8504
688.839	8181
688.884	7644
688.905	7536
688.930	7606
688.975	7821
689.020	8005
689.026	8043
689.065	8395
689.110	8343
689.146	8314
689.155	8338
689.201	8866
689.246	9094
689.267	9234
689.291	9221
689.336	8807
689.381	8832
689.388	8817
689.426	8933
689.471	8878
689.509	8921
689.516	8911
689.561	8790
689.606	8298
689.630	8291
689.651	8383
689.696	8345
689.741	8486
689.750	8551
689.785	8860
689.830	8392
689.871	8460
689.875	8468
689.920	8261
689.965	8266
689.992	8286
690.010	8470
690.054	8381
690.099	8955
690.112	9024
690.144	9049
690.189	9028
690.233	9091
690.233	9106
690.278	9204
690.323	8884
690.354	8942
690.367	9012
690.412	9196
690.457	9614
690.474	9698
690.501	9986
690.546	10539
690.590	10670
690.595	10689
690.635	11152
690.680	11463
690.716	11918
690.724	12237
690.769	13683
690.813	15914
690.836	16453
690.857	18113
690.902	21900
690.946	26473
690.957	27344
690.991	37401
691.035	51958
691.077	65605
691.080	65633
691.124	61498
691.168	58220
691.198	55998
691.213	51732
691.257	39099
691.301	26225
691.318	21249
691.346	19679
691.390	17069
691.434	14422
691.439	14102
691.478	13336
691.522	12381
691.559	11724
691.567	11726
691.611	11640
691.655	10973
691.680	10844
691.699	10969
691.743	11325
691.787	11200
691.800	11355
691.831	11598
691.875	11350
691.919	11132
691.921	11099
691.964	11007
692.008	11607
692.041	11501
692.052	11443
692.096	11231
692.139	11130
692.162	10949
692.183	10892
692.227	11030
692.271	10861
692.282	10815
692.315	10978
692.359	11396
692.402	11800
692.403	11823
692.447	11261
692.490	10968
692.523	10643
692.534	10704
692.578	10963
692.622	11048
692.643	11213
692.666	11375
692.709	11418
692.753	11202
692.763	11206
692.797	11309
692.840	11576
692.884	11417
692.884	11443
692.928	11557
692.971	11794
693.004	11612
693.015	11573
693.059	12049
693.102	12008
693.124	11929
693.146	12116
693.189	12733
693.233	13427
693.245	13527
693.276	13888
693.320	14718
693.363	14889
693.365	14878
693.407	16634
693.450	18423
693.485	19713
693.493	20365
693.537	23685
693.580	26690
693.605	28464
693.624	32778
693.667	42640
693.710	53311
693.725	56890
693.753	77017
693.797	108456
693.840	140307
693.845	143776
693.883	136920
693.926	128090
693.966	120690
693.970	118121
694.013	88658
694.056	59429
694.086	39016
694.099	37143
694.142	31089
694.185	24621
694.206	21695
694.229	20830
694.272	19038
694.315	17227
694.326	16669
694.358	16104
694.401	15495
694.444	14979
694.446	14902
694.487	14451
694.530	14048
694.566	13774
694.573	13753
694.616	13251
694.659	12836
694.686	12556
694.702	12504
694.745	12118
694.787	12120
694.806	11942
694.830	12055
694.873	12282
694.916	12426
694.926	12460
694.959	12470
695.002	12447
695.044	12140
695.046	12111
695.087	12549
695.130	12740
695.166	12891
695.172	12906
695.215	12680
695.258	12537
695.286	12499
695.301	12686
695.343	13075
695.386	13481
695.406	13595
695.428	13679
695.471	13608
695.514	13834
695.526	13837
695.556	14065
695.599	14338
695.641	14563
695.646	14569
695.684	14324
695.726	13838
695.766	13372
695.769	13403
695.811	13384
695.854	13377
695.886	13194
695.896	13214
695.938	13266
695.981	13408
696.005	13396
696.023	13574
696.065	14001
696.108	14364
696.125	14487
696.150	14693
696.192	14907
696.235	15279
696.245	15293
696.277	15374
696.319	15388
696.361	15715
696.365	15670
696.404	16003
696.446	16492
696.485	16942
696.488	16960
696.530	16521
696.572	16040
696.604	15653
696.614	15592
696.656	15191
696.698	14735
696.724	14443
696.740	14574
696.783	14763
696.825	15038
696.844	15132
696.867	15345
696.909	15445
696.951	15799
696.964	15846
696.992	15795
697.034	15498
697.076	15299
697.083	15248
697.118	15447
697.160	15426
697.202	15484
697.203	15443
697.244	15068
697.286	14591
697.323	14176
697.327	14243
697.369	14399
697.411	14616
697.442	14769
697.453	14876
697.494	15064
697.536	15272
697.562	15401
697.578	15485
697.620	15512
697.661	15606
697.682	15564
697.703	15747
697.744	16119
697.786	16472
697.801	16539
697.828	16543
697.869	16479
697.911	16439
697.921	16383
697.952	16042
697.994	15545
698.035	15028
698.040	14922
698.077	15019
698.118	15075
698.160	15168
698.160	15126
698.201	15607
698.243	16076
698.279	16433
698.284	16502
698.325	16720
698.367	16938
698.399	17039
698.408	17021
698.449	16734
698.491	16459
698.518	16213
698.532	16250
698.573	16237
698.614	16212
698.638	16156
698.656	16268
698.697	16414
698.738	16562
698.757	16588
698.779	16792
698.820	17090
698.862	17387
698.877	17452
698.903	17648
698.944	17874
698.985	18102
698.996	18117
699.026	17916
699.067	17570
699.116	17111
699.235	17822
699.354	16423
699.474	16373
699.593	16666
699.713	16918
699.832	16724
699.951	17006
700.070	16276
700.190	15903
700.309	16537
700.428	16233
700.547	14971
700.667	15577
700.786	16283
700.905	15137
701.024	14510
701.143	15251
701.262	14813
701.381	15534
701.500	15122
701.619	15561
701.738	14772
701.857	15075
701.976	14672
702.095	14802
702.214	15592
702.333	14421
702.452	15177
702.571	15382
702.690	15388
702.809	14591
702.928	13581
703.047	14031
703.165	14678
703.284	14166
703.403	14596
703.522	13958
703.640	14263
703.759	15014
703.878	15586
703.997	14388
704.115	13587
704.234	14126
704.353	13820
704.471	13627
704.590	13221
704.708	12390
704.827	12449
704.946	13001
705.064	12773
705.183	13294
705.301	15769
705.420	17696
705.538	15859
705.656	15233
705.775	14473
705.893	23473
706.012	28673
706.130	15266
706.249	15065
706.367	14426
706.485	14874
706.604	14399
706.722	15169
706.840	17214
706.958	23728
707.077	17960
707.195	14425
707.313	13818
707.431	13608
707.549	12854
707.668	12259
707.786	13391
707.904	12670
708.022	13761
708.140	13259
708.258	12412
708.376	13621
708.494	11774
708.612	13408
708.730	17377
708.848	16816
708.966	15365
709.084	14642
709.202	13976
709.320	15429
709.438	13608
709.556	15041
709.674	14019
709.791	13983
709.909	14202
710.027	14344
710.145	13917
710.263	13789
710.380	13391
710.498	13776
710.616	13828
710.733	12994
710.851	12774
710.969	13176
711.086	13509
711.204	13782
711.322	12734
711.439	12868
711.557	12607
711.674	12271
711.792	13206
711.909	13674
712.027	14322
712.144	12277
712.262	12590
712.379	13893
712.497	16369
712.614	16745
712.732	15746
712.849	14275
712.966	14649
713.084	16057
713.201	15709
713.318	14029
713.436	15060
713.553	15540
713.670	15099
713.787	16276
713.905	15680
714.022	14677
714.139	15903
714.256	18335
714.373	24076
714.490	35493
714.608	85443
714.725	354001
714.842	397808
714.959	38191
715.076	19040
715.193	16357
715.310	15003
715.427	13980
715.544	13322
715.661	13363
715.778	12950
715.895	13192
716.011	13401
716.128	13809
716.245	12526
716.362	12990
716.479	12260
716.596	13022
716.713	12467
716.829	12753
716.946	12127
717.063	12088
717.180	11744
717.296	11565
717.413	11247
717.530	11026
717.646	10749
717.763	10907
717.880	10126
717.996	10470
718.113	10545
718.229	10864
718.346	11100
718.462	10210
718.579	10220
718.695	13123
718.812	12444
718.928	13035
719.045	10847
719.161	9766
719.277	10607
719.394	11397
719.510	11131
719.626	10755
719.743	14193
719.859	18356
719.975	30859
720.092	113312
720.208	282468
720.324	39676
720.440	14096
720.557	12921
720.673	13726
720.789	15714
720.905	27186
721.021	14669
721.137	10344
721.253	10487
721.369	10382
721.486	10467
721.602	12388
721.718	10116
721.834	9738
721.950	9596
722.066	8537
722.181	8640
722.297	9344
722.413	9247
722.529	9000
722.645	8643
722.761	8642
722.877	8917
722.993	8976
723.108	11407
723.224	9590
723.340	9326
723.456	8309
723.571	9571
723.687	9072
723.803	8225
723.918	7619
724.034	7629
724.150	8751
724.265	8274
724.381	12383
724.497	15126
724.612	7801
724.728	7982
724.843	8164
724.959	9284
725.074	12710
725.190	14649
725.305	8249
725.421	7905
725.536	7129
725.651	7965
725.767	7093
725.882	7650
725.997	7120
726.113	7721
726.228	7308
726.343	6922
726.459	7682
726.574	7585
726.689	6900
726.804	7735
726.920	7378
727.035	6957
727.150	6989
727.265	7015
727.380	7304
727.495	8089
727.610	6328
727.725	7827
727.841	7685
727.956	13353
728.071	11810
728.186	6996
728.301	6646
728.416	7481
728.531	6103
728.645	6998
728.760	7406
728.875	7040
728.990	6969
729.105	6525
729.220	6096
729.335	6537
729.449	6055
729.564	6649
729.679	6654
729.794	6949
729.908	7007
730.023	6856
730.138	7361
730.253	6379
730.367	6490
730.482	6671
730.596	6237
730.711	7027
730.826	9141
730.940	8663
731.055	7155
731.169	6032
731.284	6759
731.398	7717
731.513	7775
731.627	7177
731.742	8158
731.856	9858
731.970	9026
732.085	11001
732.199	13981
732.313	23364
732.428	55706
732.542	168076
732.656	105352
732.771	20942
732.885	11698
732.999	10768
733.113	10564
733.227	9581
733.342	9978
733.456	9188
733.570	9262
733.684	8991
733.798	8598
733.912	10236
734.026	8093
734.140	9124
734.254	8553
734.368	10783
734.482	12649
734.596	8517
734.710	8013
734.824	8752
734.938	8389
735.052	7783
735.166	8298
735.280	8310
735.393	8924
735.507	8222
735.621	8652
735.735	10619
735.849	8618
735.962	7936
736.076	7759
736.190	8217
736.303	8620
736.417	11024
736.531	7656
736.644	7988
736.758	6383
736.872	7334
736.985	7995
737.099	7652
737.212	7116
737.326	7403
737.439	7920
737.553	6930
737.666	7728
737.780	6799
737.893	6299
738.007	6206
738.120	7492
738.233	7135
738.347	7350
738.460	6424
738.573	7356
738.687	6861
738.800	7092
738.913	7427
739.026	6503
739.140	6680
739.253	6681
739.366	6576
739.479	6363
739.592	7057
739.705	6264
739.818	7468
739.932	6254
740.045	6562
740.158	6741
740.271	6533
740.384	7077
740.497	6284
740.610	7483
740.723	6796
740.836	7926
740.949	6268
741.062	7221
741.174	7243
741.287	6202
741.400	6861
741.513	5222
741.626	7580
741.739	6334
741.851	5669
741.964	6345
742.077	6644
742.189	5950
742.302	8415
742.415	7345
742.527	6566
742.640	6103
742.753	6203
742.865	6059
742.978	6719
743.090	6410
743.203	5573
743.316	5766
743.428	5923
743.541	6059
743.653	6347
743.766	5552
743.878	6352
743.990	6025
744.103	8086
744.215	8457
744.327	5703
744.440	6003
744.552	7414
744.664	5575
744.777	5610
744.889	5429
745.001	5906
745.113	5360
745.226	5526
745.338	6117
745.450	6008
745.562	5399
745.674	6184
745.786	5797
745.898	6087
746.010	5176
746.122	5719
746.234	6301
746.347	6053
746.459	5368
746.570	5224
746.682	7719
746.794	9742
746.906	5329
747.018	6153
747.130	5394
747.242	6127
747.354	5361
747.466	6043
747.577	5122
747.689	6093
747.801	6069
747.913	4828
748.024	5545
748.136	6347
748.248	5133
748.359	5512
748.471	5790
748.583	5110
748.694	5798
748.806	7043
748.918	6099
749.029	5951
749.141	5546
749.252	5360
749.364	5807
749.475	6184
749.587	6258
749.698	5428
749.809	6062
749.921	5261
750.032	5611
750.144	5228
750.255	5252
750.366	5202
750.478	5420
750.589	4858
750.700	4465
750.811	6349
750.923	5837
751.034	6335
751.145	7156
751.256	6257
751.367	5597
751.479	6401
751.590	5043
751.701	5049
751.812	5468
751.923	5562
752.034	5570
752.145	6089
752.256	5046
752.367	5003
752.478	5451
752.589	5802
752.700	5559
752.811	5403
752.922	4674
753.032	5392
753.143	5353
753.254	5871
753.365	6087
753.476	5174
753.586	5645
753.697	5068
753.808	5704
753.919	5445
754.029	5260
754.140	5974
754.251	5933
754.361	5455
754.472	5631
754.582	4925
754.693	5342
754.804	5587
754.914	5692
755.025	4904
755.135	5678
755.246	6164
755.356	5364
755.466	5897
755.577	5900
755.687	6863
755.798	5491
755.908	6011
756.018	6266
756.129	6869
756.239	6308
756.349	6582
756.460	6392
756.570	7552
756.680	6328
756.790	5455
756.900	6687
757.011	6672
757.121	6011
757.231	6410
757.341	6891
757.451	6422
757.561	6565
757.671	7304
757.781	6908
757.891	7225
758.001	6608
758.111	7301
758.221	6870
758.331	7679
758.441	6643
758.551	7436
758.661	7931
758.771	8198
758.880	7403
758.990	8098
759.100	8496
759.210	8141
759.320	8149
759.429	8154
759.539	8148
759.649	8897
759.758	9523
759.868	9453
759.978	9925
760.087	10225
760.197	10434
760.307	10372
760.416	9648
760.526	10199
760.635	10929
760.745	10869
760.854	11048
760.964	11086
761.073	11728
761.182	11715
761.292	11591
761.401	11527
761.511	11694
761.620	12792
761.729	13213
761.839	12098
761.948	12425
762.057	13612
762.166	13105
762.276	12973
762.385	14782
762.494	14836
762.603	14463
762.712	15489
762.822	16783
762.931	16827
763.040	15455
763.149	17233
763.258	17821
763.367	18949
763.476	20129
763.585	20879
763.694	21435
763.803	22987
763.912	25109
764.021	26231
764.130	28244
764.238	29620
764.347	31525
764.456	34233
764.565	36687
764.674	38976
764.783	42634
764.891	46845
765.000	54044
765.109	59669
765.217	68479
765.326	78366
765.435	92394
765.543	110430
765.652	135076
765.761	168494
765.869	216934
765.978	281404
766.086	375234
766.195	494380
766.303	600766
766.412	539974
766.520	466557
766.629	546519
766.737	479558
766.846	369411
766.954	279459
767.062	215283
767.171	167037
767.279	132454
767.387	107598
767.496	91051
767.604	77378
767.712	67496
767.820	61533
767.928	55915
768.037	50494
768.145	48758
768.253	47214
768.361	45094
768.469	44910
768.577	46708
768.685	47206
768.793	50988
768.901	55469
769.009	63279
769.117	75746
769.225	96248
769.333	127852
769.441	177667
769.549	267194
769.657	408601
769.765	553689
769.873	468154
769.981	477902
770.088	406864
770.196	281658
770.304	195675
770.412	144388
770.519	111695
770.627	89585
770.735	73392
770.842	62958
770.950	54924
771.058	47916
771.165	43064
771.273	37577
771.380	35159
771.488	32132
771.595	30213
771.703	27699
771.810	26427
771.918	24968
772.025	24411
772.133	22436
772.240	21258
772.348	20999
772.455	20421
772.562	18896
772.670	18539
772.777	17162
772.884	17993
772.991	15742
773.099	16088
773.206	14151
773.313	15381
773.420	14724
773.528	13590
773.635	13007
773.742	13981
773.849	12870
773.956	12760
774.063	12628
774.170	12411
774.277	11879
774.384	11068
774.491	11325
774.598	11706
774.705	11058
774.812	10325
774.919	11130
775.026	10830
775.133	10175
775.239	10087
775.346	9351
775.453	9682
775.560	8936
775.667	9905
775.773	8332
775.880	9783
775.987	9190
776.093	9249
776.200	9456
776.307	8363
776.413	8323
776.520	8477
776.627	7957
776.733	7126
776.840	7618
776.946	9105
777.053	10736
777.159	15744
777.266	9922
777.372	14538
777.478	11704
777.585	9021
777.691	7387
777.798	7179
777.904	6943
778.010	7794
778.117	8306
778.223	6681
778.329	6955
778.435	5619
778.542	7001
778.648	6593
778.754	6154
778.860	6097
778.966	5836
779.072	7071
779.178	6457
779.284	6644
779.391	5908
779.497	6630
779.603	9237
779.708	10872
779.815	21624
779.920	70213
780.026	146327
780.132	31175
780.238	9208
780.344	7333
780.450	7423
780.556	6594
780.661	5315
780.767	5949
780.873	4820
780.979	5970
781.085	5171
781.190	5862
781.296	5593
781.402	4495
781.507	4634
781.613	4886
781.719	4659
781.824	5591
781.930	5971
782.035	4574
782.141	4806
782.246	5266
782.352	4533
782.457	5507
782.563	4495
782.668	4084
782.773	4138
782.879	3416
782.984	4984
783.090	5552
783.195	4412
783.300	5079
783.405	4874
783.511	3530
783.616	4463
783.721	4864
783.826	4788
783.932	4259
784.037	3698
784.142	4001
784.247	3881
784.352	3491
784.457	3225
784.562	3437
784.667	4035
784.772	3523
784.877	3597
784.982	3825
785.087	3615
785.192	4411
785.297	3312
785.402	4486
785.507	3804
785.611	3011
785.716	3858
785.821	3808
785.926	2976
786.031	3872
786.135	3760
786.240	3914
786.345	2790
786.450	4155
786.554	3388
786.659	2347
786.763	3496
786.868	3596
786.973	4420
787.077	3458
787.182	3306
787.286	3464
787.391	3528
787.495	2866
787.600	2705
787.704	2859
787.809	3883
787.913	4299
788.017	3402
788.122	3950
788.226	3295
788.330	2476
788.435	2490
788.539	3472
788.643	3012
788.747	2795
788.852	3288
788.956	2965
789.060	3323
789.164	2600
789.268	2281
789.372	3634
789.476	3418
789.580	2976
789.684	2718
789.788	2942
789.892	2481
789.996	3721
790.100	2825
790.204	2410
790.308	2485
790.412	2399
790.516	3220
790.620	3118
790.724	4292
790.828	2961
790.931	2104
791.035	4121
791.139	2434
791.242	2231
791.346	2790
791.450	2770
791.554	2446
791.657	2105
791.761	2616
791.864	2789
791.968	2560
792.072	2604
792.175	2679
792.279	1675
792.382	2419
792.486	2653
792.589	1960
792.693	3382
792.796	1630
792.899	2703
793.003	3315
793.106	1605
793.209	1948
793.313	2885
793.416	1267
793.519	3499
793.623	2717
793.726	3414
793.829	3313
793.932	2765
794.035	1652
794.138	3031
794.242	2539
794.345	3824
794.448	5220
794.551	10919
794.654	38729
794.757	91464
794.860	19633
794.963	5893
795.066	2585
795.169	3461
795.272	2601
795.375	2969
795.477	1963
795.580	2240
795.683	1050
795.786	1999
795.889	2098
795.991	3069
796.094	2954
796.197	1150
796.300	2396
796.402	2522
796.505	1678
796.608	2158
796.710	3453
796.813	2562
796.915	2895
797.018	2048
797.120	2446
797.223	1374
797.326	3113
797.428	1374
797.530	1794
797.633	2066
797.735	2864
797.838	2395
797.940	2727
798.042	1780
798.145	1244
798.247	1813
798.349	1281
798.452	2334
798.554	1447
798.656	1360
798.758	2980
798.860	1818
798.962	1475
799.065	1086
799.167	925
799.269	2547
799.371	2318
799.473	2081
799.575	1495
799.677	2178
799.779	3392
799.881	815
799.983	3054
800.085	1975
800.187	1955
800.289	1128
800.390	1449
800.492	2104
800.594	3111
800.696	824
800.798	1398
800.899	1717
801.001	1772
801.103	1217
801.205	1833
801.306	1828
801.408	973
801.509	2200
801.611	1896
801.713	1714
801.814	1222
801.916	1018
802.017	1703
802.119	1072
802.220	1718
802.322	89
802.423	3300
802.525	926
802.626	2022
802.727	1869
802.829	2133
802.930	-1037
803.031	2930
803.133	1228
803.234	1488
803.335	1955
803.436	1096
803.538	1360
803.639	432
803.740	1901
803.841	934
803.942	2625
804.043	1176
804.144	624
804.245	1071
804.346	796
804.447	726
804.548	1392
804.649	2154
804.750	776
804.851	457
804.952	1027
805.053	1429
805.154	1213
805.255	1791
805.355	1225
805.456	547
805.557	1285
805.658	810
805.758	2110
805.859	419
805.960	1007
806.061	738
806.161	1209
806.262	1411
806.362	964
806.463	1056
806.564	1784
806.664	2186
806.765	581
806.865	1018
806.966	1100
807.066	1585
807.166	1737
807.267	1095
807.367	1040
807.468	1324
807.568	58
807.668	2130
807.769	1732
807.869	1195
807.969	1623
808.069	1148
808.170	1477
808.270	746
808.370	1518
808.470	1344
808.570	138
808.670	1073
808.770	1061
808.870	1142
808.970	1481
809.070	790
809.170	508
809.271	1714
809.370	1263
809.470	821
809.570	875
809.670	339
809.770	1063
809.870	2162
809.970	1536
810.070	719
810.169	973
810.269	98
810.369	1874
810.469	507
810.568	508
810.668	613
810.768	310
810.867	897
810.967	-145
811.066	732
811.166	580
811.265	2609
811.365	186
811.464	1041
811.564	1197
811.663	1125
811.763	319
811.862	1140
811.962	1396
812.061	555
812.160	655
812.260	962
812.359	1411
812.458	978
812.557	4057
812.657	5898
812.756	3130
812.855	277
812.954	541
813.053	1623
813.153	1174
813.252	-468
813.351	635
813.450	672
813.549	626
813.648	899
813.747	556
813.846	1433
813.945	834
814.044	101
814.143	1417
814.242	1332
814.341	1045
814.439	892
814.538	1482
814.637	1451
814.736	617
814.835	1319
814.933	638
815.032	786
815.131	535
815.229	1855
815.328	3409
815.427	2549
815.525	3362
815.624	1910
815.722	1650
815.821	2244
815.919	2370
816.018	1625
816.116	2391
816.215	1885
816.313	2876
816.412	2880
816.510	2944
816.609	4537
816.707	2668
816.805	2910
816.904	2635
817.002	2701
817.100	3699
817.198	3337
817.296	2284
817.395	2825
817.493	3437
817.591	2172
817.689	2881
817.787	2747
817.885	3167
817.983	3266
818.081	5456
818.179	10115
818.277	25933
818.375	25719
818.473	7775
818.571	4123
818.669	4289
818.767	4431
818.865	3206
818.963	2334
819.061	3408
819.158	4211
819.256	10181
819.354	20032
819.452	50029
819.549	35930
819.647	9834
819.745	4634
819.842	3776
819.940	3094
820.038	2497
820.135	2369
820.233	4087
820.330	1940
820.428	2561
820.525	3283
820.623	1854
820.720	2284
820.818	2008
820.915	2006
821.012	2851
821.110	-183
821.207	2709
821.304	1095
821.402	3241
821.499	3364
821.596	3634
821.693	2923
821.791	2596
821.888	2059
821.985	2692
822.082	2674
822.179	3847
822.276	2805
822.373	2647
822.470	1589
822.567	2190
822.664	1412
822.761	3282
822.858	1771
822.955	2849
823.052	1364
823.149	1781
823.246	2071
823.343	1165
823.440	1960
823.536	1634
823.633	1753
823.730	1003
823.827	1878
823.923	2476
824.020	2547
824.117	1819
824.213	2626
824.310	2122
824.407	1947
824.503	1771
824.600	1646
824.696	1125
824.793	2551
824.889	1243
824.986	1467
825.082	1193
825.179	1010
825.275	1384
825.371	1866
825.468	1911
825.564	315
825.660	1955
825.757	1522
825.853	1203
825.949	678
826.045	1563
826.142	1392
826.238	2061
826.334	1998
826.430	603
826.526	1584
826.622	1267
826.718	2340
826.814	1232
826.910	2412
827.006	59
827.102	470
827.198	1862
827.294	1455
827.390	2005
827.486	1595
827.582	45
827.678	531
827.774	1773
827.869	-263
827.965	1690
828.061	-91
828.157	1411
828.252	707
828.348	1417
828.444	1307
828.539	571
828.635	1267
828.731	1801
828.826	1
828.922	1960
829.017	1187
829.113	1585
829.208	632
829.304	570
829.399	2654
829.495	749
829.590	1151
829.685	914
829.781	1988
829.876	1866
829.971	1388
830.066	747
830.162	1016
830.257	1240
830.352	969
830.447	1524
830.543	734
830.638	-534
830.733	1488
830.828	1136
830.923	1508
831.018	1105
831.113	1468
831.208	-268
831.303	978
831.398	335
831.493	375
831.588	1477
831.683	683
831.778	182
831.873	1143
831.967	1441
832.062	-78
832.157	325
832.252	1406
832.346	114
832.441	576
832.536	938
832.631	2022
832.725	909
832.820	284
832.914	536
833.009	750
833.104	1001
833.198	1084
833.293	914
833.387	811
833.482	467
833.576	73
833.670	1231
833.765	960
833.859	1291
833.954	1048
834.048	720
834.142	1382
834.237	58
834.331	1371
834.425	1246
834.519	117
834.613	1050
834.708	136
834.802	1009
834.896	626
834.990	1230
835.084	1021
835.178	867
835.272	1216
835.366	120
835.460	1528
835.554	357
835.648	35
835.742	246
835.836	319
835.930	68
836.024	683
836.117	1374
836.211	271
836.305	760
836.399	777
836.493	-42
836.586	1409
836.680	-737
836.774	-390
836.867	1126
836.961	-576
837.055	484
837.148	90
837.242	515
837.335	70
837.429	927
837.522	805
837.616	1219
837.709	441
837.803	654
837.896	1598
837.989	929
838.083	1023
838.176	1771
838.269	1133
838.363	957
838.456	537
838.549	1589
838.642	877
838.735	1410
838.829	1388
838.922	321
839.015	609
839.108	-166
839.201	788
839.294	685
839.387	534
839.480	-213
839.573	564
839.666	591
839.759	744
839.852	813
839.945	547
840.038	-40
840.131	-21
840.223	265
840.316	566
840.409	1548
840.502	-46
840.594	1112
840.687	-900
840.780	709
840.873	299
840.965	366
841.058	1111
841.150	1896
841.243	691
841.336	974
841.428	-476
841.521	659
841.613	-425
841.706	1163
841.798	377
841.890	835
841.983	-452
842.075	774
842.167	-40
842.260	542
842.352	1790
842.444	731
842.537	2065
842.629	3120
842.721	-218
842.813	829
842.905	-331
842.997	912
843.090	34
843.182	839
843.274	1333
843.366	4073
843.458	6944
843.550	5154
843.642	273
843.734	1127
843.826	748
843.918	790
844.009	649
844.101	313
844.193	-405
844.285	714
844.377	1374
844.469	965
844.560	2043
844.652	560
844.744	715
844.835	54
844.927	713
845.019	1196
845.110	415
845.202	1100
845.293	3
845.385	-405
845.476	485
845.568	657
845.659	114
845.751	573
845.842	14
845.934	571
846.025	-110
846.116	279
846.208	87
846.299	145
846.390	507
846.482	196
846.573	993
846.664	38
846.755	-636
846.846	1039
846.937	-795
847.029	183
847.120	433
847.211	297
847.302	967
847.393	-678
847.484	1099
847.575	-718
847.666	-449
847.757	274
847.847	391
847.938	1679
848.029	-139
848.120	-129
848.211	418
848.302	-325
848.392	-254
848.483	867
848.574	-374
848.664	595
848.755	534
848.846	328
848.936	-267
849.027	759
849.118	1056
849.208	-30
849.299	1292
849.389	1589
849.480	4610
849.570	9017
849.661	17787
849.751	30783
849.841	11665
849.932	1468
850.022	719
850.112	1526
850.203	339
850.293	-46
850.383	-201
850.474	115
850.564	-407
850.654	229
850.744	-147
850.834	-142
850.924	-28
851.014	67
851.104	-96
851.194	-3
851.284	-349
851.374	195
851.464	-136
851.554	473
851.644	214
851.734	1091
851.824	1230
851.914	1527
852.004	2906
852.094	2729
852.183	773
852.273	813
852.363	221
852.452	-110
852.542	555
852.632	-260
852.721	260
852.811	-65
852.901	855
852.990	706
853.080	-136
853.169	67
853.259	692
853.348	265
853.438	1359
853.527	1580
853.617	1959
853.706	5833
853.795	10311
853.885	25539
853.974	48569
854.063	87827
854.152	138488
854.242	55949
854.331	10180
854.420	3317
854.509	1984
854.598	2183
854.687	1562
854.777	1034
854.866	365
854.955	1346
855.044	31
855.133	-200
855.222	312
855.311	625
855.400	-350
855.488	-362
855.577	-588
855.666	82
855.755	1255
855.844	1314
855.933	448
856.021	624
856.110	619
856.199	-264
856.288	-367
856.376	835
856.465	-401
856.554	-135
856.642	-437
856.731	250
856.819	218
856.908	-142
856.996	167
857.085	5
857.173	78
857.262	230
857.350	366
857.438	26
857.527	-313
857.615	-294
857.703	229
857.792	-450
857.880	-374
857.968	-289
858.056	-457
858.145	416
858.233	-827
858.321	50
858.409	-311
858.497	-248
858.585	-854
858.673	125
858.761	-763
858.849	405
858.937	31
859.025	-143
859.113	-148
859.201	-1161
859.289	355
859.377	-224
859.465	37
859.552	-744
859.640	-361
859.728	-289
859.816	138
859.903	196
859.991	-547
860.079	90
860.166	-940
860.254	455
860.342	-69
860.429	-159
860.517	-266
860.604	154
860.692	87
860.779	497
860.867	-212
860.954	-142
861.042	-129
861.129	-320
861.216	-78
861.304	-1058
861.391	-72
861.478	-85
861.565	289
861.653	426
861.740	-402
861.827	-377
861.914	-388
862.001	-562
862.089	44
862.176	-174
862.263	-81
862.350	-43
862.437	-65
862.524	-349
862.611	-294
862.698	-9
862.785	674
862.871	-133
862.958	166
863.045	-428
863.132	-218
863.219	-333
863.306	-1700
863.392	119
863.479	-215
863.566	-452
863.652	213
863.739	-470
863.826	734
863.912	428
863.999	-5
864.086	580
864.172	-101
864.259	475
864.345	175
864.432	652
864.518	-749
864.604	622
864.691	-123
864.777	729
864.863	1127
864.950	1856
865.036	1161
865.122	2549
865.209	2754
865.295	2953
865.381	2600
865.467	2534
865.553	3390
865.639	4163
865.726	7094
865.812	13581
865.898	25533
865.984	37706
866.070	70743
866.156	79760
866.242	23307
866.328	5757
866.414	2286
866.499	3283
866.585	2233
866.671	1854
866.757	2643
866.843	1927
866.928	1600
867.014	1374
867.100	1852
867.186	2292
867.271	1665
867.357	2118
867.442	1809
867.528	2099
867.614	2118
867.699	1133
867.785	2532
867.870	2184
867.956	2294
868.041	2037
868.127	2115
868.212	2342
868.297	1604
868.383	2052
868.468	2510
868.553	2852
868.639	2110
868.724	2150
868.809	2130
868.894	1827
868.979	223
869.065	1550
869.150	597
869.235	1692
869.320	491
869.405	558
869.490	1006
869.575	676
869.660	541
869.745	764
869.830	857
869.915	785
870.000	1109
870.085	1374
870.169	563
870.254	1981
870.339	-300
870.424	566
870.509	884
870.593	1656
870.678	1184
870.763	1431
870.847	575
870.932	1054
871.016	1678
871.101	1219
871.186	211
871.270	881
871.355	910
871.439	919
871.523	1369
871.608	1742
871.692	365
871.777	1172
871.861	1477
871.945	625
872.030	1106
872.114	944
872.198	310
872.282	741
872.367	563
872.451	458
872.535	816
872.619	791
872.703	587
872.787	472
872.871	619
872.955	1078
873.039	-77
873.123	341
873.207	1159
873.291	-358
873.375	464
873.459	874
873.543	556
873.627	273
873.711	605
873.794	922
873.878	72
873.962	-131
874.045	443
874.129	833
874.137	844
874.213	947
874.245	1094
874.296	1333
874.352	669
874.380	341
874.460	471
874.464	477
874.547	-118
874.568	289
874.631	1470
874.676	1122
874.714	843
874.784	1436
874.798	1549
874.881	1462
874.892	1346
874.965	626
874.999	475
875.048	193
875.107	586
875.131	763
875.215	99
875.215	100
875.298	386
875.323	559
875.381	1000
875.430	658
875.465	442
875.538	578
875.548	578
875.631	-172
875.646	-246
875.714	-601
875.753	-225
875.798	327
875.861	491
875.881	503
875.964	302
875.968	281
876.047	-54
876.076	260
876.130	780
876.183	563
876.213	502
876.291	650
876.296	653
876.379	447
876.398	506
876.462	709
876.506	159
876.545	-342
876.613	94
876.628	224
876.711	661
876.721	769
876.794	1422
876.828	1140
876.877	757
876.935	872
876.960	922
877.043	777
877.043	779
877.125	1236
877.150	1287
877.208	1487
877.258	1055
877.291	716
877.365	884
877.374	901
877.456	100
877.472	120
877.539	350
877.579	750
877.622	1082
877.687	973
877.704	959
877.787	788
877.794	778
877.869	691
877.901	817
877.952	1018
878.008	954
878.034	868
878.115	462
878.117	462
878.199	166
878.222	495
878.282	1076
878.329	1036
878.364	1180
878.437	1517
878.447	1511
878.529	417
878.544	373
878.611	270
878.651	284
878.694	381
878.758	850
878.776	1028
878.858	1147
878.865	1157
878.941	644
878.972	493
879.023	542
879.078	153
879.105	44
879.185	466
879.187	467
879.269	749
879.292	699
879.351	661
879.399	91
879.433	-211
879.506	786
879.516	890
879.598	12
879.613	37
879.680	369
879.720	727
879.762	1040
879.827	919
879.844	874
879.926	807
879.933	817
880.007	837
880.040	514
880.089	146
880.147	721
880.171	960
880.253	1252
880.254	1250
880.335	904
880.360	1188
880.417	2354
880.467	2852
880.499	3230
880.574	4308
880.580	4235
880.662	2395
880.680	1839
880.744	516
880.787	380
880.825	462
880.893	549
880.907	593
880.989	376
881.000	408
881.070	540
881.106	429
881.152	316
881.213	590
881.233	605
881.315	28
881.319	21
881.396	474
881.426	404
881.478	-83
881.532	10
881.559	240
881.639	430
881.641	427
881.722	440
881.745	366
881.803	373
881.852	644
881.885	741
881.958	368
881.966	362
882.047	587
882.064	647
882.129	453
882.171	347
882.210	379
882.277	308
882.291	337
882.372	435
882.383	501
882.454	995
882.489	1034
882.535	807
882.596	553
882.616	643
882.697	1372
882.702	1362
882.778	427
882.808	328
882.859	298
882.914	73
882.940	63
883.020	185
883.021	192
883.102	753
883.127	914
883.183	899
883.233	692
883.264	688
883.339	829
883.345	800
883.426	-290
883.445	-232
883.507	436
883.551	621
883.587	676
883.657	726
883.668	800
883.749	1088
883.763	1115
883.830	902
883.869	845
883.910	468
883.975	178
883.991	258
884.072	384
884.081	434
884.152	1151
884.187	1184
884.233	1067
884.292	1191
884.314	1047
884.394	130
884.398	112
884.475	393
884.504	395
884.555	324
884.610	114
884.636	175
884.716	648
884.716	657
884.797	1554
884.821	1727
884.877	976
884.927	195
884.958	224
885.033	798
885.038	799
885.118	534
885.139	440
885.199	287
885.244	166
885.279	322
885.350	958
885.359	1022
885.439	1129
885.456	1147
885.520	351
885.561	-112
885.600	130
885.667	726
885.680	785
885.760	928
885.773	933
885.840	583
885.878	409
885.920	410
885.984	639
886.000	715
886.080	780
886.089	773
886.160	824
886.195	959
886.240	978
886.300	804
886.320	785
886.400	950
886.406	951
886.480	1063
886.511	1075
886.560	1158
886.616	1267
886.640	1113
886.720	625
886.722	609
886.800	325
886.827	224
886.879	741
886.932	1355
886.959	1559
887.038	1949
887.039	1948
887.119	1354
887.143	1156
887.198	756
887.248	519
887.278	570
887.354	510
887.358	535
887.437	984
887.459	1114
887.517	835
887.564	676
887.596	701
887.669	520
887.676	535
887.755	807
887.774	855
887.835	412
887.880	172
887.914	404
887.985	702
887.994	707
888.073	798
888.090	832
888.153	1116
888.195	1184
888.232	831
888.300	266
888.311	337
888.391	812
888.405	915
888.470	750
888.510	557
888.549	730
888.615	1095
888.628	1037
888.708	604
888.720	538
888.787	552
888.825	536
888.866	399
888.930	239
888.945	312
889.024	658
889.035	697
889.103	790
889.140	865
889.182	1052
889.245	1271
889.261	1175
889.340	739
889.349	685
889.419	645
889.454	620
889.498	905
889.559	1309
889.577	1294
889.656	1216
889.664	1207
889.735	1547
889.768	1702
889.814	1207
889.873	543
889.978	-37
890.083	1334
890.187	1318
890.292	1087
890.397	1291
890.501	1216
890.606	-148
890.710	1134
890.815	670
890.919	1192
891.024	705
891.128	573
891.233	875
891.337	1153
891.442	502
891.546	294
891.650	421
891.755	839
891.859	1927
891.963	1760
892.068	956
892.172	1144
892.276	-173
892.380	490
892.484	358
892.589	1486
892.693	792
892.797	690
892.901	-334
893.005	683
893.109	729
893.213	1944
893.317	416
893.421	595
893.525	482
893.629	-386
893.733	468
893.837	-23
893.941	71
894.045	1351
894.148	-108
894.252	1257
894.356	1444
894.460	2071
894.564	762
894.667	662
894.771	345
894.875	621
894.978	-149
895.082	986
895.186	1151
895.289	629
895.393	514
895.496	1382
895.600	244
895.703	446
895.807	1023
895.910	956
896.014	74
896.117	-77
896.221	300
896.324	291
896.427	-80
896.531	940
896.634	-348
896.737	507
896.840	616
896.944	576
897.047	237
897.150	729
897.253	1004
897.356	431
897.460	-551
897.563	18
897.666	363
897.769	-41
897.872	-226
897.975	-114
898.078	-70
898.181	-236
898.284	47
898.387	722
898.490	435
898.593	277
898.695	376
898.798	402
898.901	434
899.004	979
899.107	97
899.209	726
899.312	19
899.415	685
899.518	-465
899.620	-164
899.723	905
899.826	820
899.928	785
900.031	888
900.133	179
900.236	-195
900.338	-88
900.441	392
900.543	444
900.646	1432
900.748	-122
900.851	418
900.953	67
901.055	-305
901.158	360
901.260	59
901.362	302
901.465	374
901.567	189
901.669	736
901.771	-778
901.873	233
901.976	-309
902.078	767
902.180	-472
902.282	-185
902.384	-294
902.486	762
902.588	273
902.690	835
902.792	152
902.894	584
902.996	213
903.098	1034
903.200	-330
903.302	805
903.404	-35
903.505	774
903.607	-154
903.709	1022
903.811	-201
903.913	14
904.014	103
904.116	530
904.218	42
904.319	363
904.421	1218
904.523	1586
904.624	1038
904.726	530
904.827	329
904.929	1107
905.030	1123
905.132	197
905.233	399
905.335	402
905.436	121
905.537	146
905.639	-452
905.740	842
905.841	688
905.943	1445
906.044	1136
906.145	678
906.247	174
906.348	-79
906.449	-135
906.550	848
906.651	769
906.752	742
906.854	454
906.955	-256
907.056	-26
907.157	1033
907.258	156
907.359	122
907.460	-17
907.561	383
907.662	-249
907.762	921
907.863	-235
907.964	407
908.065	225
908.166	-351
908.267	185
908.367	-180
908.468	-122
908.569	203
908.670	478
908.770	416
908.871	717
908.971	1375
909.072	293
909.173	29
909.273	-521
909.374	491
909.474	437
909.575	478
909.675	153
909.776	1573
909.876	-354
909.977	514
910.077	239
910.177	230
910.278	103
910.378	722
910.478	-315
910.579	109
910.679	30
910.779	1096
910.879	553
910.980	552
911.080	-47
911.180	365
911.280	470
911.380	294
911.480	1035
911.580	806
911.680	359
911.780	295
911.880	99
911.980	-2
912.080	-35
912.180	499
912.280	-113
912.380	582
912.480	284
912.580	593
912.679	-326
912.779	1406
912.879	-399
912.979	423
913.078	-1129
913.178	-12
913.278	-558
913.377	194
913.477	49
913.577	1523
913.676	609
913.776	818
913.875	466
913.975	594
914.074	720
914.174	147
914.273	-743
914.373	304
914.472	56
914.572	301
914.671	-516
914.770	632
914.870	15
914.969	142
915.068	-87
915.167	871
915.267	362
915.366	-121
915.465	208
915.564	655
915.663	-148
915.763	-87
915.862	746
915.961	103
916.060	-38
916.159	-117
916.258	-17
916.357	933
916.456	844
916.555	790
916.654	36
916.752	426
916.851	131
916.950	736
917.049	165
917.148	126
917.247	268
917.345	-28
917.444	-279
917.543	-270
917.642	-170
917.740	-213
917.839	1024
917.937	1111
918.036	640
918.135	-159
918.233	206
918.332	-413
918.430	141
918.529	1155
918.627	312
918.726	813
918.824	576
918.923	556
919.021	508
919.119	348
919.218	182
919.316	427
919.414	111
919.512	1233
919.611	-92
919.709	838
919.807	1069
919.905	1144
920.003	803
920.102	445
920.200	790
920.298	797
920.396	936
920.494	931
920.592	-203
920.690	841
920.788	590
920.886	314
920.984	292
921.082	726
921.180	1258
921.277	1210
921.375	1043
921.473	1511
921.571	974
921.669	1785
921.766	348
921.864	2329
921.962	171
922.060	1110
922.157	1286
922.255	1578
922.352	1017
922.450	2780
922.548	1644
922.645	2115
922.743	1343
922.840	4047
922.938	3886
923.035	3893
923.133	3484
923.230	4010
923.327	4413
923.425	5770
923.522	4768
923.619	3859
923.717	3967
923.814	3520
923.911	3204
924.008	3761
924.106	4439
924.203	3800
924.300	3232
924.397	3581
924.494	3786
924.591	4226
924.688	3697
924.786	4736
924.883	4120
924.979	4683
925.077	4034
925.173	3018
925.270	3620
925.367	2736
925.464	4159
925.561	4442
925.658	4425
925.755	4314
925.852	4906
925.948	4842
926.045	4408
926.142	4216
926.239	5014
926.335	5104
926.432	4584
926.529	6280
926.625	5361
926.722	4016
926.818	2967
926.915	4054
927.011	3857
927.108	3866
927.204	2905
927.301	3742
927.397	2782
927.494	3886
927.590	2162
927.687	3294
927.783	3300
927.879	3519
927.976	2797
928.072	2855
928.168	2791
928.264	3570
928.361	2143
928.457	3292
928.553	3009
928.649	2798
928.745	2820
928.841	3128
928.937	2374
929.033	3523
929.129	3364
929.225	2993
929.321	2870
929.417	2467
929.513	3339
929.609	2653
929.705	2351
929.801	2626
929.897	1897
929.993	3133
930.089	3010
930.184	2745
930.280	1793
930.376	3599
930.471	1847
930.567	2275
930.663	2724
930.758	1769
930.854	2319
930.950	2347
931.045	2021
931.141	2767
931.236	2629
931.332	3175
931.427	1054
931.523	2907
931.618	2633
931.714	1639
931.809	2067
931.905	3367
932.000	1337
932.095	1264
932.191	2479
932.286	3196
932.381	1893
932.476	1425
932.572	2091
932.667	1482
932.762	1936
932.857	3116
932.952	3001
933.047	2713
933.142	1267
933.237	1682
933.332	1891
933.427	2930
933.522	1528
933.617	2134
933.712	2317
933.807	2557
933.902	2323
933.997	3014
934.092	1539
934.187	2227
934.282	2647
934.376	1919
934.471	2820
934.566	2504
934.661	1982
934.755	2657
934.850	2030
934.945	2273
935.039	720
935.134	1737
935.228	1452
935.323	2473
935.417	1311
935.512	1519
935.606	513
935.701	961
935.795	1778
935.890	1743
935.984	1792
936.079	1399
936.173	2057
936.267	1878
936.362	672
936.456	2324
936.550	2186
936.644	2175
936.738	1934
936.833	683
936.927	279
937.021	1877
937.115	2020
937.209	1383
937.303	2370
937.397	827
937.491	1795
937.585	2455
937.679	1427
937.773	1694
937.867	770
937.961	872
938.055	1758
938.149	2893
938.243	787
938.337	912
938.430	1198
938.524	2183
938.618	3771
938.712	3269
938.805	1099
938.899	1407
938.993	2451
939.086	2725
939.180	2958
939.274	4798
939.367	2164
939.461	1955
939.554	1025
939.648	951
939.741	899
939.835	1187
939.928	2656
940.022	1871
940.115	931
940.208	1415
940.302	1642
940.395	2542
940.488	448
940.582	1876
940.675	758
940.768	1511
940.861	1895
940.954	1964
941.048	227
941.141	1028
941.234	1418
941.327	1611
941.420	1426
941.513	1959
941.606	376
941.699	1195
941.792	1879
941.885	830
941.978	1438
942.071	1114
942.164	917
942.257	751
942.349	1172
942.442	1525
942.535	508
942.628	634
942.721	-27
942.813	1345
942.906	712
942.999	1910
943.091	1103
943.184	1953
943.277	-143
943.369	1202
943.462	175
943.554	501
943.647	246
943.739	1091
943.832	1729
943.924	-250
944.017	-458
944.109	795
944.201	686
944.294	1161
944.386	643
944.478	588
944.571	574
944.663	520
944.755	971
944.847	1441
944.940	135
945.032	923
945.124	451
945.216	771
945.308	806
945.400	1177
945.492	889
945.584	934
945.676	1483
945.768	1692
945.860	1457
945.952	2062
946.044	1828
946.136	664
946.228	123
946.320	-171
946.412	527
946.503	1098
946.595	1642
946.687	-201
946.779	514
946.870	-89
946.962	178
947.054	402
947.145	1167
947.237	670
947.329	466
947.420	440
947.512	809
947.603	332
947.695	149
947.786	-473
947.878	506
947.969	1453
948.061	-171
948.152	423
948.243	354
948.335	557
948.426	-462
948.517	731
948.609	784
948.700	596
948.791	155
948.882	285
948.973	-190
949.065	318
949.156	809
949.247	-636
949.338	-31
949.429	-63
949.520	14
949.611	278
949.702	1286
949.793	978
949.884	673
949.975	74
950.066	503
950.157	-89
950.247	90
950.338	-198
950.429	-298
950.520	1311
950.611	280
950.701	106
950.792	595
950.883	1565
950.973	1059
951.064	963
951.155	711
951.245	366
951.336	766
951.427	416
951.517	1779
951.608	887
951.698	-528
951.788	144
951.879	-342
951.969	8
952.060	-136
952.150	658
952.240	-41
952.331	929
952.421	1204
952.511	217
952.602	403
952.692	204
952.782	319
952.872	395
952.962	264
953.052	54
953.143	-57
953.233	795
953.323	1016
953.413	-291
953.503	1186
953.593	967
953.683	-161
953.773	175
953.863	-140
953.953	-64
954.042	945
954.132	386
954.222	492
954.312	623
954.402	509
954.492	412
954.581	1279
954.671	554
954.761	159
954.850	1646
954.940	699
955.030	-45
955.119	-101
955.209	557
955.298	-165
955.388	518
955.477	964
955.567	75
955.656	331
955.746	821
955.835	374
955.925	-1
956.014	307
956.103	650
956.193	369
956.282	1642
956.371	1296
956.461	568
956.550	-743
956.639	541
956.728	502
956.817	1479
956.906	-82
956.995	1708
957.085	-314
957.174	438
957.263	393
957.352	493
957.441	562
957.530	1468
957.619	292
957.708	495
957.796	152
957.885	492
957.974	-29
958.063	1284
958.152	-413
958.241	1117
958.329	61
958.418	1001
958.507	-80
958.596	1429
958.684	47
958.773	1036
958.861	602
958.950	1152
959.039	184
959.127	1348
959.216	898
959.304	769
959.393	1177
959.481	1551
959.570	1246
959.658	1305
959.746	1203
959.835	2078
959.923	1551
960.011	814
960.100	664
960.188	1188
960.276	368
960.365	812
960.453	-160
960.541	890
960.629	351
960.717	1114
960.805	-324
960.893	543
960.981	-529
961.069	1522
961.158	423
961.245	1491
961.333	872
961.421	751
961.509	142
961.597	1174
961.685	49
961.773	376
961.861	721
961.949	835
962.036	-611
962.124	275
962.212	-127
962.299	686
962.387	-719
962.475	742
962.562	-180
962.650	328
962.738	475
962.825	428
962.913	-128
963.000	478
963.088	665
963.175	288
963.263	597
963.350	138
963.438	670
963.525	186
963.612	893
963.700	1576
963.787	6428
963.874	3492
963.962	190
964.049	538
964.136	-263
964.223	-217
964.310	-427
964.398	1065
964.485	205
964.572	947
964.659	1254
964.746	146
964.833	1
964.920	-177
965.007	556
965.094	362
965.181	-246
965.268	833
965.355	709
965.441	103
965.528	-6
965.615	876
965.702	-309
965.789	279
965.875	-223
965.962	796
966.049	332
966.136	403
966.222	-58
966.309	1194
966.395	67
966.482	928
966.569	-324
966.655	643
966.742	227
966.828	345
966.915	307
967.001	1437
967.087	-62
967.174	151
967.260	718
967.347	1331
967.433	2424
967.519	4067
967.605	1189
967.692	825
967.778	452
967.864	441
967.950	426
968.036	-410
968.123	-511
968.209	300
968.295	-385
968.381	1268
968.467	401
968.553	-156
968.639	646
968.725	203
968.811	1557
968.897	1038
968.983	-186
969.069	328
969.154	654
969.240	1085
969.326	-116
969.412	-331
969.497	-467
969.583	-695
969.669	838
969.755	296
969.840	402
969.926	506
970.012	1125
970.097	2676
970.183	1130
970.268	1087
970.354	1184
970.439	1497
970.525	2967
970.610	1028
970.696	990
970.781	632
970.866	130
970.952	435
971.037	-413
971.122	-225
971.208	171
971.293	-289
971.378	-1169
971.463	-37
971.549	-174
971.634	367
971.719	268
971.804	-12
971.889	1066
971.974	-314
972.059	-709
972.144	452
972.229	-305
972.314	203
972.399	217
972.484	390
972.569	454
972.654	109
972.739	1813
972.824	1651
972.908	-192
972.993	545
973.078	-97
973.163	-168
973.247	1039
973.332	-878
973.417	1828
973.501	-550
973.586	12
973.671	640
973.755	274
973.840	-26
973.924	794
974.009	1078
974.093	440
974.178	1302
974.262	694
974.346	925
974.431	208
974.515	1330
974.600	-34
974.684	-85
974.768	-926
974.852	1266
974.937	-703
975.021	1094
975.105	343
975.189	13
975.273	105
975.358	617
975.442	411
975.526	1048
975.610	-1007
975.694	-664
975.778	1297
975.862	0
975.946	-1627
976.030	1490
976.114	-1103
976.198	833
976.281	637
976.365	1182
976.449	-198
976.533	-143
976.617	-547
976.700	600
976.784	5
976.868	222
976.951	-462
977.035	886
977.119	214
977.202	536
977.286	1345
977.369	111
977.453	1127
977.536	445
977.620	430
977.703	1097
977.787	-1080
977.870	1025
977.953	248
978.037	-226
978.120	1352
978.203	547
978.287	1194
978.370	1132
978.453	52
978.536	628
978.620	883
978.703	559
978.786	345
978.869	45
978.952	-1009
979.035	1138
979.118	78
979.201	-117
979.284	114
979.367	260
979.450	470
979.533	-66
979.616	-138
979.699	-311
979.782	96
979.865	-486
979.948	12
980.030	277
980.113	261
980.196	-704
980.279	-104
980.361	10
980.444	-74
980.526	373
980.609	402
980.692	1256
980.774	773
980.857	-493
980.939	1362
981.022	640
981.104	-975
981.187	120
981.269	420
981.352	528
981.434	-529
981.516	-417
981.599	1009
981.681	970
981.763	80
981.846	499
981.928	134
982.010	414
982.092	-396
982.174	685
982.256	-533
982.339	333
982.421	945
982.503	758
982.585	-401
982.667	565
982.749	321
982.831	673
982.913	-555
982.995	926
983.077	-895
983.158	1481
983.240	-544
983.322	583
983.404	1820
983.486	887
983.568	738
983.649	500
983.731	451
983.813	644
983.894	1404
983.976	763
984.058	232
984.139	1471
984.221	-499
984.302	1459
984.384	1089
984.465	706
984.547	404
984.628	294
984.710	583
984.791	461
984.872	333
984.954	444
985.035	93
985.116	516
985.198	584
985.279	1189
985.360	314
985.441	-174
985.522	967
985.604	586
985.685	-531
985.766	1718
985.847	1771
985.928	-369
986.009	-421
986.090	507
986.171	489
986.252	885
986.333	342
986.414	341
986.495	-226
986.576	737
986.656	-404
986.737	779
986.818	377
986.899	493
986.980	-355
987.060	1352
987.141	817
987.222	1126
987.302	175
987.383	2072
987.464	250
987.544	1077
987.625	714
987.705	1536
987.786	1188
987.866	1482
987.947	583
988.027	458
988.108	1214
988.188	1866
988.268	192
988.349	347
988.429	454
988.509	861
988.589	-67
988.670	-1039
988.750	1129
988.830	467
988.910	775
988.990	475
989.070	480
989.151	915
989.231	-377
989.311	652
989.391	827
989.471	22
989.551	238
989.631	-228
989.711	658
989.791	-76
989.870	131
989.950	1125
990.030	-479
990.110	749
990.190	-187
990.269	23
990.349	-27
990.429	815
990.509	395
990.588	96
990.668	759
990.747	360
990.827	78
990.907	954
990.986	305
991.066	508
991.145	-155
991.225	1207
991.304	577
991.383	487
991.463	-721
991.542	798
991.622	-378
991.701	243
991.780	-246
991.859	-364
991.939	-217
992.018	4
992.097	-285
992.176	474
992.256	-571
992.335	-691
992.414	937
992.493	-53
992.572	-837
992.651	1315
992.730	-82
992.809	822
992.888	-652
992.967	394
993.046	240
993.125	362
993.203	-831
993.282	157
993.361	-346
993.440	174
993.519	-745
993.597	190
993.676	-771
993.755	784
993.834	78
993.912	-741
993.991	720
994.069	-896
994.148	210
994.226	-738
994.305	-259
994.384	-1486
994.462	274
994.540	-545
994.619	-714
994.697	1098
994.776	-643
994.854	856
994.932	-868
995.011	-557
995.089	-659
995.167	-205
995.245	29
995.324	-772
995.402	262
995.480	-319
995.558	-941
995.636	-270
995.714	-1049
995.792	992
995.870	-474
995.948	10
996.026	-138
996.104	-1040
996.182	53
996.260	-798
996.338	-513
996.416	-150
996.494	-1097
996.572	1070
996.649	-267
996.727	-522
996.805	-172
996.883	323
996.960	-521
997.038	157
997.116	62
997.193	630
997.271	-410
997.348	-1408
997.426	-207
997.504	-487
997.581	-175
997.658	19
997.736	-1619
997.813	-504
997.891	-120
997.968	-662
998.046	-710
998.123	133
998.200	-450
998.277	-971
998.355	-192
998.432	-1359
998.509	-29
998.586	-8
998.663	260
998.741	-83
998.818	-830
998.895	-653
998.972	-54
999.049	-124
999.126	-896
999.203	275
999.280	-782
999.357	-784
999.434	-857
999.511	-301
999.587	-170
999.664	-737
999.741	79
999.818	205
999.895	-923
999.971	-433
1000.048	-990
1000.125	-217
1000.202	-1381
1000.278	-968
1000.355	0
1000.431	-952
1000.508	-1411
1000.584	-95
1000.661	-886
1000.738	-1418
1000.814	-752
1000.890	77
1000.967	-733
1001.043	-526
1001.120	-1857
1001.196	207
1001.272	-1387
1001.349	-496
1001.425	263
1001.501	-1053
1001.577	-1177
1001.654	-686
1001.730	-774
1001.806	46
1001.882	-1597
1001.958	-180
1002.034	-700
1002.110	-477
1002.186	-1588
1002.262	-1159
1002.338	-1303
1002.414	-869
1002.490	-238
1002.566	-359
1002.642	-1124
1002.718	-276
1002.794	-1119
1002.870	-1644
1002.945	-1220
1003.021	-1173
1003.097	-461
1003.173	-774
1003.248	-1190
1003.324	-741
1003.400	-730
1003.475	-1027
1003.551	-1232
1003.626	-334
1003.702	-695
1003.777	-1268
1003.853	-1269
1003.928	-1211
1004.004	-1413
1004.079	-565
1004.155	-280
1004.230	-1532
1004.305	-384
1004.381	-1106
1004.456	-1307
1004.531	28
1004.607	-1487
1004.682	-1318
1004.757	-682
1004.832	-1048
1004.907	-1772
1004.982	60
1005.057	-841
1005.133	-1091
1005.208	-690
1005.283	-1394
1005.358	-589
1005.433	-918
1005.508	-1238
1005.583	-1262
1005.657	-844
1005.732	-680
1005.807	-1654
1005.882	-749
1005.957	-1016
1006.032	-528
1006.106	-1074
1006.181	-326
1006.256	-848
1006.331	-1569
1006.405	-1095
1006.480	-109
1006.554	-1137
1006.629	-574
1006.704	-1320
1006.778	-713
1006.853	-1255
1006.927	-339
1007.002	-1099
1007.076	-824
1007.150	-1421
1007.225	-107
1007.299	-179
1007.373	-1008
1007.448	-1239
1007.522	-241
1007.596	-1205
1007.671	-1394
1007.745	-760
1007.819	-2194
1007.893	-955
1007.967	-445
1008.041	-1776
1008.115	-871
1008.190	-829
1008.264	215
1008.338	-2058
1008.412	-1552
1008.486	-1514
1008.560	-129
1008.633	-1383
1008.707	-475
1008.781	-991
1008.855	-1360
1008.929	-1014
1009.003	-557
1009.076	-707
1009.150	-522
1009.224	-1036
1009.298	-1381
1009.371	-1252
1009.445	-27
1009.519	-1492
1009.592	-1439
1009.666	-709
1009.739	-72
1009.813	-1911
1009.886	-379
1009.960	-1830
1010.033	-649
1010.107	-672
1010.180	-1577
1010.253	-1970
1010.327	-1267
1010.400	-1205
1010.473	-139
1010.547	90
1010.620	-1246
1010.693	-988
1010.766	-1320
1010.840	-494
1010.913	-816
1010.986	-1571
1011.059	-145
1011.132	-666
1011.205	-187
1011.278	-471
1011.351	-552
1011.424	-537
1011.497	-472
1011.570	-1465
1011.643	-852
1011.716	-1216
1011.789	-1179
1011.862	-1314
1011.934	-185
1012.007	-2359
1012.080	-1131
1012.153	-316
1012.225	-353
1012.298	-1708
1012.371	-894
1012.443	-1225
1012.516	-1370
1012.588	-1186
1012.661	-817
1012.733	-983
1012.806	-112
1012.879	-1669
1012.951	-1252
1013.023	-1495
1013.096	-261
1013.168	-1632
1013.241	305
1013.313	-1307
1013.385	-1174
1013.458	-1349
1013.530	-685
1013.602	-2351
1013.674	-823
1013.746	-1612
1013.819	-2258
1013.891	-788
1013.963	-1484
1014.035	-1175
1014.107	-572
1014.179	-789
1014.251	-1090
1014.323	-1492
1014.395	-1314
1014.467	-1017
1014.539	-823
1014.611	-1246
1014.683	-136
1014.754	-1019
1014.826	-1104
1014.898	-1969
1014.970	-1344
1015.042	-1075
1015.113	-1334
1015.185	-970
1015.257	-1542
1015.328	-1078
1015.400	-799
1015.471	-972
1015.543	-1404
1015.615	-1216
1015.686	-1628
1015.757	-1736
1015.829	-937
1015.901	-1545
1015.972	-1893
1016.043	-2018
1016.115	-1287
1016.186	-781
1016.257	-1759
1016.328	-701
1016.400	-854
1016.471	-1550
1016.542	-673
1016.613	-2196
1016.685	-1223
1016.756	-359
1016.827	-721
1016.898	-2119
1016.969	-515
1017.040	-829
1017.111	-1416
1017.182	-1754
1017.253	-800
1017.324	-1959
1017.395	-1927
1017.466	-892
1017.537	-1483
1017.608	-1022
1017.678	-718
1017.749	-1947
1017.820	-1469
1017.891	-1507
1017.961	-1055
1018.032	-1400
1018.103	-1138
1018.173	-1325
1018.244	-2453
1018.315	-2175
1018.385	-757
1018.456	-1735
1018.526	-1598
1018.597	-2235
1018.667	-1135
1018.738	-1710
1018.808	-1805
1018.878	-1870
1018.949	-1469
1019.019	-1053
1019.089	-848
1019.160	-1666
1019.230	-978
1019.300	-1127
1019.371	-2047
1019.441	-982
1019.511	-290
1019.581	-1236
1019.651	-1023
1019.721	-1679
1019.791	-1599
1019.861	-1208
1019.931	-1038
1020.001	-2179
1020.071	-925
1020.141	-1365
1020.211	-1784
1020.281	-1775
1020.351	-1542
1020.421	-1450
1020.491	-1669
1020.560	-2193
1020.630	-1020
1020.700	-1380
1020.770	-1743
1020.839	-1058
1020.909	-1333
1020.979	-1753
1021.048	-1691
1021.118	-1638
1021.187	-1341
1021.257	-1918
1021.326	-1329
1021.396	-1622
1021.465	-1447
1021.535	-1913
1021.604	-2399
1021.674	-1530
1021.743	-2237
1021.812	-1843
1021.882	-1395
1021.951	-1899
1022.020	-886
1022.089	-1180
1022.159	-1734
1022.228	-2146
1022.297	-1588
1022.366	-1575
1022.435	-1153
1022.504	-2001
1022.573	-1379
1022.642	-1426
1022.711	-1440
1022.781	-1696
1022.849	-1503
1022.918	-1874
1022.987	-885
1023.056	-1749
1023.125	-1655
1023.194	-1512
1023.263	-1822
1023.331	-1755
1023.400	-1507
1023.469	-2285
1023.538	-497
1023.606	-1728
1023.675	-1587
1023.744	-1969
1023.812	-1624
1023.881	-1124
1023.949	-1469
1024.018	-1686
1024.086	-2116
1024.155	-1968
1024.223	-1537
1024.292	-1996
1024.360	-1293
1024.429	-1841
1024.497	-2529
1024.565	-1569
1024.634	-1823
1024.702	-1432
1024.770	-1537
1024.838	-1553
1024.907	-897
1024.975	-2024
1025.043	-1064
1025.111	-1814
1025.179	-1760
1025.247	-2585
1025.315	-1456
1025.383	-2324
1025.451	-1782
1025.519	-2303
1025.587	-1618
1025.655	-2180
1025.723	-1239
1025.791	-1645
1025.859	-2075
1025.927	-997
1025.995	-1103
1026.062	-1583
1026.130	-1524
1026.198	-2252
1026.266	-1854
1026.333	-1139
1026.401	-1179
1026.469	-2122
1026.536	-1917
1026.604	-2096
1026.671	-2406
1026.739	-2322
1026.806	-1380
1026.874	-1977
1026.941	-1557
1027.009	-2020
1027.076	-2640
1027.144	-1505
1027.211	-1840
1027.278	-1764
1027.345	-2197
1027.413	-1883
1027.480	-756
1027.547	-2009
1027.614	-2069
1027.682	-1326
1027.749	-1529
1027.816	-2286
1027.883	-941
1027.950	-1243
1028.017	-2074
1028.084	-1582
1028.151	-1890
1028.218	-2880
1028.285	-1610
1028.352	-2554
1028.419	-1717
1028.486	-2159
1028.553	-1471
1028.619	-2227
1028.686	-874
1028.753	-2487
1028.820	-1140
1028.886	-2680
1028.953	-1108
1029.020	-1691
1029.086	-2462
1029.153	-1771
1029.220	-1464
1029.286	-1358
1029.353	-1523
1029.419	-2493
1029.486	-2344
1029.552	-1886
1029.619	-1929
1029.685	-2943
1029.751	-2796
1029.818	-1509
1029.884	-2075
1029.951	-1382
1030.017	-1597
1030.083	-1769
1030.149	-1857
1030.216	-2263
1030.282	-1431
1030.348	-1981
1030.414	-1291
1030.480	-2158
1030.546	-1940
1030.612	-1500
1030.678	-1955
1030.744	-1995
1030.810	-1278
1030.876	-2050
1030.942	-1180
1031.008	-3350
1031.074	-2324
1031.140	-2418
1031.206	-1592
1031.272	-2329
1031.337	-1750
1031.403	-931
1031.469	-2090
1031.534	-2139
1031.600	-1469
1031.666	-2343
1031.731	-2256
1031.797	-2909
1031.863	-1494
1031.928	-2730
1031.994	-1893
1032.059	-1466
1032.125	-1855
1032.190	-1904
1032.256	-2094
1032.321	-2588
1032.386	-1619
1032.452	-1889
1032.517	-2428
1032.582	-2533
1032.647	-2368
1032.713	-1632
1032.778	-972
1032.843	-2514
1032.908	-1735
1032.974	-2112
1033.039	-1684
1033.104	-1454
1033.169	-2839
1033.234	-2481
1033.299	-759
1033.364	-1041
1033.429	-1134
1033.494	-1299
1033.559	-1645
1033.624	-1868
1033.688	-1724
1033.753	-1912
1033.818	-2065
1033.883	-2234
1033.948	-1450
1034.013	-1603
1034.077	-551
1034.142	-1315
1034.207	-439
1034.271	-435
1034.336	765
1034.400	-71
1034.465	-388
1034.530	-1468
1034.594	-1553
1034.658	-1952
1034.723	-2473
1034.787	-2365
1034.852	-1621
1034.916	-2093
1034.981	-2374
1035.045	-1449
1035.109	-1705
1035.173	-1300
1035.238	-1671
1035.302	-1437
1035.366	-1928
1035.430	-2393
1035.495	-855
1035.559	-1056
1035.623	-1258
1035.687	-1923
1035.751	-1644
1035.815	-1451
1035.879	-1591
1035.943	-1316
1036.007	-1580
1036.071	-2011
1036.135	-1503
1036.198	-2289
1036.262	-1425
1036.326	-737
1036.390	-2067
1036.454	-1757
1036.517	-1116
1036.581	-1103
1036.645	-900
1036.709	-1199
1036.772	-1670
1036.836	-1089
1036.900	-1004
1036.963	-2545
1037.026	-1917
1037.090	-2049
1037.154	-1830
1037.217	-1464
1037.280	-1490
1037.344	-2123
1037.407	-1855
1037.471	-1955
1037.534	-1553
1037.597	-2062
1037.661	-1846
1037.724	-1409
1037.787	-1522
1037.850	-1313
1037.913	-1803
1037.977	-1627
1038.040	-2033
1038.103	-1884
1038.166	-1845
1038.229	-1340
1038.292	-1737
1038.355	-1932
1038.418	-1952
1038.481	-2064
1038.544	-1443
1038.607	-1366
1038.670	-1527
1038.732	-1650
1038.795	-2063
1038.858	-1252
1038.921	-1566
1038.984	-2018
1039.046	-1529
1039.109	-2649
1039.172	-1376
1039.234	-1704
1039.297	-2194
1039.360	-1378
1039.422	-846
1039.485	-1482
1039.547	-1836
1039.610	-2070
1039.672	-1555
1039.734	-1986
1039.797	-1696
1039.859	-2224
1039.922	-1689
1039.984	-2547
1040.046	-1805
1040.109	-2030
1040.171	-1629
1040.233	-2234
1040.295	-2270
1040.358	-1932
1040.420	-1581
1040.482	-1718
1040.544	-2580
1040.606	-1780
1040.668	-1425
1040.730	-1409
1040.792	-2350
1040.854	-2015
1040.916	-1822
1040.978	-1929
1041.040	-847
1041.102	-1993
1041.164	-2126
1041.225	-1070
1041.287	-1955
1041.349	-2484
1041.411	-2237
1041.472	-2472
1041.534	-1810
1041.596	-2442
1041.657	-2140
1041.719	-2426
1041.781	-2281
1041.842	-2409
1041.904	-1212
1041.965	-1520
1042.027	-1261
1042.088	-2182
1042.150	-1570
1042.211	-1869
1042.272	-971
1042.334	-2398
1042.395	-2012
1042.456	-1406
1042.518	-1625
1042.579	-1368
1042.640	-1498
1042.701	-1733
1042.763	-1905
1042.824	-2390
1042.885	-2216
1042.946	-1584
1043.007	-716
1043.068	-2287
1043.129	-1567
1043.190	-1926
1043.251	-1074
1043.312	-1870
1043.373	-1464
1043.434	-2689
1043.495	-1876
1043.556	-1943
1043.616	-1809
1043.677	-2553
1043.738	-1857
1043.799	-1842
1043.859	-1735
1043.920	-1719
1043.981	-1592
1044.041	-2369
1044.102	-2009
1044.162	-1465
1044.223	-2117
1044.284	-1982
1044.344	-1178
1044.405	-2106
1044.465	-2053
1044.525	-2741
1044.586	-2019
1044.646	-1996
1044.707	-1602
1044.767	-1810
1044.827	-2230
1044.887	-1886
1044.948	-1366
1045.008	-1884
1045.068	-2448
1045.128	-652
1045.188	-1930
1045.249	-743
1045.309	-1254
1045.369	-1313
1045.429	-1246
1045.489	-1708
1045.549	-1504
1045.609	-2408
1045.669	-1287
1045.729	-2644
1045.789	-1731
1045.848	-1360
1045.908	-1171
1045.968	-1476
1046.028	-2065
1046.088	-1598
1046.147	-1748
1046.207	-1237
1046.267	-2288
1046.326	-749
1046.386	-1630
1046.446	-681
1046.505	-986
1046.565	-1978
1046.624	-418
1046.684	-942
1046.743	-475
1046.803	-1535
1046.862	-579
1046.922	0
