'Start Wavelength	183.907
'End Wavelength	1046.922
'Gate Delay	5.000
'Gate Width (ms)	1.050
'Laser Output Level	0.000
'X Position	0.000
'Y Position	0.000
'Z Position	0.000
'Grid Point Number	1.000
'Shot Number	100.000
183.907	11.000
183.977	4.000
184.047	161
184.116	779
184.186	653
184.256	663
184.325	601
184.395	-971
184.465	186
184.534	340
184.604	56
184.674	-204
184.743	556
184.813	519
184.883	342
184.952	-373
185.022	78
185.092	155
185.161	-33
185.231	379
185.301	-143
185.370	320
185.440	-734
185.509	-319
185.579	-491
185.649	546
185.718	645
185.788	560
185.857	-78
185.927	-478
185.996	-133
186.066	-627
186.136	-555
186.205	-954
186.275	4
186.344	-105
186.414	78
186.483	-21
186.553	293
186.622	649
186.692	-136
186.761	-281
186.831	252
186.900	-743
186.970	229
187.039	-628
187.109	173
187.178	-264
187.248	-112
187.317	-311
187.387	-432
187.456	25
187.526	853
187.595	123
187.664	-491
187.734	45
187.803	-251
187.873	102
187.942	-456
188.012	181
188.081	-58
188.150	25
188.220	-227
188.289	270
188.358	381
188.428	441
188.497	-216
188.567	-558
188.636	-542
188.705	-353
188.775	-130
188.844	-510
188.913	-94
188.983	15
189.052	354
189.121	35
189.191	-346
189.260	748
189.329	256
189.399	-797
189.468	583
189.537	-930
189.606	128
189.676	-487
189.745	-244
189.814	-244
189.883	100
189.953	-32
190.022	124
190.091	859
190.161	-143
190.230	-291
190.299	350
190.368	-290
190.437	-311
190.507	-265
190.576	258
190.645	-145
190.714	583
190.783	-438
190.853	529
190.922	-655
190.991	367
191.060	136
191.129	-659
191.198	532
191.268	288
191.337	-1110
191.406	251
191.475	216
191.544	-656
191.613	573
191.682	-73
191.752	-569
191.821	341
191.890	-265
191.959	780
192.028	-517
192.097	-42
192.166	-964
192.235	-288
192.304	-662
192.373	-164
192.442	750
192.511	-357
192.580	255
192.650	288
192.719	183
192.788	216
192.857	365
192.926	-183
192.995	-370
193.064	528
193.133	-40
193.202	-423
193.271	-77
193.340	308
193.409	-236
193.478	969
193.547	322
193.615	485
193.684	726
193.753	215
193.822	630
193.891	742
193.960	-142
194.029	509
194.098	313
194.167	-640
194.236	636
194.305	409
194.374	499
194.443	46
194.512	510
194.580	805
194.649	-45
194.718	173
194.787	221
194.856	-794
194.925	167
194.994	-334
195.062	-42
195.131	333
195.200	-167
195.269	489
195.338	-65
195.407	-414
195.475	-607
195.544	447
195.613	-791
195.682	1174
195.751	1177
195.819	64
195.888	835
195.957	442
196.026	291
196.094	550
196.163	243
196.232	71
196.301	-126
196.369	-345
196.438	-424
196.507	-267
196.576	50
196.644	90
196.713	25
196.782	-105
196.850	266
196.919	121
196.988	806
197.056	-234
197.125	87
197.194	409
197.262	14
197.331	99
197.400	-175
197.468	271
197.537	-43
197.606	537
197.674	1125
197.743	224
197.812	-678
197.880	476
197.949	-97
198.017	325
198.086	173
198.155	-494
198.223	-382
198.292	241
198.360	592
198.429	62
198.497	-493
198.566	30
198.635	912
198.703	3
198.772	-76
198.840	380
198.909	174
198.977	-731
199.046	-28
199.114	706
199.183	588
199.251	-277
199.320	-805
199.388	211
199.457	-575
199.525	325
199.594	-149
199.662	-197
199.731	-513
199.799	668
199.867	-506
199.936	-60
200.004	-498
200.073	946
200.141	-78
200.210	436
200.278	502
200.346	198
200.415	627
200.483	549
200.552	180
200.620	-98
200.688	-29
200.757	153
200.825	-47
200.893	-289
200.962	900
201.030	384
201.098	-358
201.167	128
201.235	-496
201.303	175
201.372	379
201.440	89
201.508	-30
201.577	-96
201.645	472
201.713	524
201.781	-458
201.850	-188
201.918	-7
201.986	135
202.055	360
202.123	17
202.191	968
202.259	-139
202.327	-453
202.396	-420
202.464	351
202.532	-25
202.600	491
202.669	-380
202.737	14
202.805	7
202.873	-37
202.941	457
203.009	-193
203.078	-469
203.146	757
203.214	-272
203.282	-784
203.350	240
203.418	-515
203.487	973
203.555	-400
203.623	528
203.691	-283
203.759	-321
203.827	590
203.895	1208
203.963	598
204.031	-434
204.099	729
204.168	-237
204.236	637
204.304	110
204.372	531
204.440	199
204.508	-112
204.576	-626
204.644	366
204.712	115
204.780	-477
204.848	881
204.916	-533
204.984	37
205.052	268
205.120	29
205.188	500
205.256	469
205.324	-236
205.392	-233
205.460	993
205.528	38
205.596	-235
205.664	205
205.732	-283
205.799	773
205.867	1104
205.935	-84
206.003	680
206.071	-273
206.139	-399
206.207	581
206.275	531
206.343	89
206.411	424
206.478	188
206.546	679
206.614	564
206.682	-247
206.750	321
206.818	373
206.885	489
206.953	-898
207.021	486
207.089	166
207.157	498
207.225	469
207.292	-202
207.360	1075
207.428	561
207.496	-177
207.563	621
207.631	107
207.699	-175
207.767	622
207.834	-288
207.902	609
207.970	481
208.038	-60
208.105	2
208.173	27
208.241	158
208.309	653
208.376	622
208.444	47
208.512	287
208.579	-65
208.647	348
208.715	915
208.782	2
208.850	-139
208.918	-14
208.985	89
209.053	418
209.120	378
209.188	-102
209.256	25
209.323	-517
209.391	222
209.459	629
209.526	238
209.594	37
209.661	-692
209.729	636
209.796	95
209.864	13
209.932	-941
209.999	564
210.067	699
210.134	211
210.202	-34
210.269	675
210.337	799
210.404	353
210.472	563
210.539	255
210.607	314
210.674	-291
210.742	961
210.809	199
210.877	110
210.944	252
211.012	377
211.079	1359
211.146	185
211.214	376
211.281	-686
211.349	669
211.416	269
211.484	195
211.551	-46
211.618	504
211.686	352
211.753	122
211.821	220
211.888	125
211.955	356
212.023	1012
212.090	103
212.157	72
212.225	178
212.292	1271
212.359	1799
212.427	3337
212.494	1702
212.561	459
212.629	367
212.696	563
212.763	-35
212.831	-230
212.898	1375
212.965	797
213.032	613
213.100	839
213.167	487
213.234	902
213.301	358
213.369	395
213.436	522
213.503	-22
213.570	720
213.638	26
213.705	-256
213.772	-264
213.839	241
213.906	847
213.973	65
214.041	-120
214.108	724
214.175	-347
214.242	-430
214.309	385
214.376	604
214.444	564
214.511	443
214.578	22
214.645	770
214.712	-45
214.779	-5
214.846	266
214.913	600
214.980	398
215.048	887
215.115	1946
215.182	256
215.249	834
215.316	157
215.383	943
215.450	389
215.517	777
215.584	1183
215.651	472
215.718	-404
215.785	903
215.852	-93
215.919	972
215.986	410
216.053	-144
216.120	246
216.187	38
216.254	567
216.321	330
216.388	-299
216.455	555
216.522	635
216.589	736
216.656	698
216.722	821
216.789	867
216.856	999
216.923	843
216.990	298
217.057	524
217.124	883
217.191	131
217.258	1422
217.324	2435
217.391	1510
217.458	1469
217.525	1017
217.592	368
217.659	-358
217.725	1669
217.792	-308
217.859	759
217.926	-22
217.993	547
218.059	879
218.126	629
218.193	8
218.260	-233
218.327	-77
218.393	410
218.460	421
218.527	-137
218.594	-116
218.660	-107
218.727	580
218.794	-142
218.860	591
218.927	239
218.994	-424
219.061	148
219.127	233
219.194	140
219.261	810
219.327	459
219.394	631
219.461	-553
219.527	454
219.594	241
219.661	863
219.727	-352
219.794	234
219.860	292
219.927	770
219.994	744
220.060	1482
220.127	720
220.193	713
220.260	134
220.326	1416
220.393	1535
220.460	2998
220.526	1015
220.593	440
220.659	1758
220.726	916
220.792	2608
220.859	2327
220.925	2569
220.992	5617
221.058	3732
221.125	3276
221.191	2006
221.258	433
221.324	1073
221.391	596
221.457	-346
221.524	234
221.590	238
221.657	1833
221.723	1694
221.789	1606
221.856	1678
221.922	620
221.989	571
222.055	371
222.121	-1012
222.188	773
222.254	460
222.321	745
222.387	585
222.453	775
222.520	151
222.586	-351
222.652	293
222.719	53
222.785	-165
222.851	586
222.918	329
222.984	1071
223.050	-122
223.116	-1365
223.183	752
223.249	-470
223.315	-93
223.382	-288
223.448	251
223.514	609
223.580	200
223.647	262
223.713	-231
223.779	93
223.845	500
223.911	-109
223.978	-474
224.044	692
224.110	-438
224.176	380
224.242	-206
224.309	-235
224.375	1334
224.441	394
224.507	-628
224.573	224
224.639	-101
224.705	236
224.772	0
224.838	88
224.904	1085
224.970	22
225.036	-292
225.102	-941
225.168	570
225.234	189
225.300	192
225.366	758
225.432	173
225.499	1444
225.565	983
225.631	370
225.697	406
225.763	885
225.829	760
225.895	156
225.961	877
226.027	34
226.093	75
226.159	1024
226.225	2056
226.291	3267
226.357	5993
226.423	2692
226.489	1020
226.554	1292
226.620	970
226.686	995
226.752	1231
226.818	3458
226.884	7192
226.950	7320
227.016	2827
227.082	1939
227.148	1124
227.214	1334
227.279	898
227.345	426
227.411	272
227.477	892
227.543	2575
227.609	2531
227.674	2114
227.740	458
227.806	137
227.872	720
227.938	793
228.003	1167
228.069	710
228.135	-561
228.201	359
228.267	686
228.332	-105
228.398	-501
228.464	611
228.530	257
228.595	938
228.661	237
228.727	-147
228.792	1252
228.858	510
228.924	-536
228.990	1757
229.055	-1019
229.121	-72
229.187	-17
229.252	-68
229.318	-442
229.384	607
229.449	476
229.515	-1592
229.581	-672
229.646	1302
229.712	352
229.777	500
229.843	444
229.909	689
229.974	970
230.040	803
230.105	6
230.171	-822
230.236	216
230.302	1787
230.368	611
230.433	-541
230.499	791
230.564	854
230.630	98
230.695	483
230.761	1002
230.826	-1180
230.892	1564
230.957	-314
231.023	-79
231.088	-274
231.154	702
231.219	-362
231.284	246
231.350	1
231.415	360
231.481	1257
231.546	-149
231.612	64
231.677	11
231.742	-1043
231.808	759
231.873	-513
231.939	-494
232.004	643
232.069	1875
232.135	-616
232.200	-276
232.265	-70
232.331	-233
232.396	56
232.461	-265
232.527	76
232.592	-170
232.657	273
232.723	448
232.788	85
232.853	494
232.918	-709
232.984	-300
233.049	-334
233.114	-410
233.179	674
233.245	1769
233.310	558
233.375	-705
233.440	430
233.506	-388
233.571	-554
233.636	335
233.701	-91
233.766	335
233.832	1040
233.897	115
233.962	-1607
234.027	588
234.092	-170
234.157	842
234.222	235
234.288	919
234.353	1231
234.418	1511
234.483	238
234.548	1217
234.613	160
234.678	261
234.743	-424
234.808	1935
234.873	-189
234.938	770
235.004	-217
235.069	411
235.134	31
235.199	663
235.264	549
235.329	-544
235.394	164
235.459	588
235.524	-499
235.589	-101
235.654	-667
235.719	-427
235.784	1397
235.849	-124
235.913	319
235.978	996
236.043	289
236.108	39
236.173	-215
236.238	785
236.303	366
236.368	82
236.433	824
236.498	460
236.563	779
236.627	2248
236.692	8618
236.757	5939
236.822	2913
236.887	539
236.952	987
237.017	85
237.081	1659
237.146	868
237.211	4242
237.276	9235
237.341	14234
237.405	5945
237.470	2221
237.535	1056
237.600	1257
237.664	634
237.729	575
237.794	371
237.859	2835
237.923	646
237.988	329
238.053	778
238.118	302
238.182	2188
238.247	3599
238.312	245
238.376	192
238.441	-1030
238.506	1544
238.570	-853
238.635	461
238.700	584
238.764	-186
238.829	797
238.893	-82
238.958	956
239.023	348
239.087	173
239.152	511
239.216	380
239.281	507
239.346	33
239.410	-584
239.475	239
239.539	2506
239.604	195
239.668	743
239.733	675
239.797	1598
239.862	3967
239.926	2277
239.991	621
240.055	359
240.120	228
240.184	443
240.249	-182
240.313	-582
240.378	514
240.442	1081
240.507	1645
240.571	13
240.635	392
240.700	852
240.764	168
240.829	-298
240.893	-990
240.957	651
241.022	893
241.086	974
241.151	-105
241.215	-627
241.279	1208
241.344	84
241.408	1157
241.472	-44
241.537	909
241.601	436
241.665	-251
241.730	350
241.794	1477
241.858	63
241.922	217
241.987	-193
242.051	-65
242.115	-841
242.179	575
242.244	-856
242.308	1260
242.372	455
242.436	165
242.501	696
242.565	-422
242.629	-186
242.693	638
242.757	-455
242.822	196
242.886	102
242.950	105
243.014	-365
243.078	761
243.142	277
243.206	-233
243.271	652
243.335	-573
243.399	830
243.463	2736
243.527	12152
243.591	3236
243.655	1309
243.719	-107
243.783	950
243.847	709
243.911	1152
243.975	561
244.040	-57
244.104	1682
244.168	233
244.232	380
244.296	-300
244.360	1146
244.424	75
244.488	937
244.552	1196
244.615	-870
244.679	183
244.743	48
244.807	-635
244.871	226
244.935	861
244.999	-1116
245.063	-231
245.127	1059
245.191	690
245.255	438
245.319	233
245.383	-1337
245.446	634
245.510	-140
245.574	832
245.638	1285
245.702	-978
245.766	1107
245.829	427
245.893	-505
245.957	-334
246.021	1081
246.085	-732
246.149	616
246.212	1205
246.276	2087
246.340	215
246.404	663
246.467	1271
246.531	-1002
246.595	1190
246.659	1405
246.722	-496
246.786	555
246.850	276
246.913	601
246.977	-231
247.041	517
247.104	408
247.168	711
247.232	552
247.295	3417
247.359	775
247.423	620
247.486	217
247.550	1494
247.614	-284
247.677	489
247.741	-377
247.804	422
247.868	-22
247.932	121
247.995	3377
248.059	794
248.122	-608
248.186	1691
248.249	181
248.313	4597
248.376	4994
248.440	3715
248.503	-77
248.567	2568
248.630	795
248.694	1545
248.757	2370
248.821	6232
248.884	4194
248.948	2007
249.011	4352
249.075	5620
249.138	6025
249.202	1708
249.265	437
249.328	1986
249.392	361
249.455	1006
249.519	55
249.582	1680
249.645	2499
249.709	1421
249.772	859
249.835	954
249.899	630
249.962	1556
250.025	618
250.089	1934
250.152	3250
250.215	1533
250.279	-141
250.342	1783
250.405	1042
250.468	54
250.532	732
250.595	2526
250.658	8293
250.721	17995
250.785	4687
250.848	3785
250.911	479
250.974	1425
251.038	1873
251.101	4754
251.164	1427
251.227	1521
251.290	2059
251.354	3621
251.417	14020
251.480	15794
251.543	7600
251.606	28441
251.669	20947
251.732	6703
251.795	4617
251.859	6497
251.922	16493
251.985	10186
252.048	3507
252.111	2465
252.174	989
252.237	3094
252.300	7940
252.363	7834
252.426	22834
252.489	7665
252.552	3386
252.615	1882
252.678	2893
252.741	5128
252.804	7431
252.867	22131
252.930	10875
252.993	4193
253.056	3113
253.119	1353
253.182	896
253.245	2812
253.308	2150
253.371	855
253.434	1198
253.497	1634
253.559	3397
253.622	1857
253.685	1303
253.748	1725
253.811	336
253.874	573
253.937	622
254.000	1058
254.062	926
254.125	3410
254.188	2673
254.251	1962
254.314	145
254.376	1534
254.439	1528
254.502	1460
254.565	533
254.628	3417
254.690	1151
254.753	469
254.816	226
254.878	-64
254.941	1736
255.004	1919
255.067	731
255.129	222
255.192	197
255.255	-666
255.317	547
255.380	848
255.443	19
255.505	-72
255.568	-695
255.631	-26
255.693	37
255.756	-861
255.819	850
255.881	-953
255.944	-93
256.006	-363
256.069	-759
256.132	156
256.194	183
256.257	587
256.319	529
256.382	-49
256.444	923
256.507	500
256.569	-570
256.632	547
256.694	-91
256.757	5103
256.819	15305
256.882	5045
256.944	1663
257.007	1527
257.069	621
257.132	490
257.194	1210
257.257	468
257.319	-104
257.381	-19
257.444	3132
257.506	16297
257.569	17914
257.631	5354
257.693	2117
257.756	1444
257.818	498
257.880	1179
257.943	1073
258.005	-622
258.067	-297
258.130	625
258.192	-80
258.254	180
258.317	106
258.379	610
258.441	846
258.503	1677
258.566	861
258.628	3549
258.690	-418
258.753	277
258.815	738
258.877	-109
258.939	241
259.001	598
259.064	240
259.126	-652
259.188	330
259.250	582
259.312	-13
259.375	754
259.437	366
259.499	634
259.561	352
259.623	657
259.685	-375
259.747	294
259.809	1016
259.872	3283
259.934	5481
259.996	6225
260.058	861
260.120	442
260.182	-229
260.244	-145
260.306	-408
260.368	102
260.430	-69
260.492	1113
260.554	1770
260.616	-210
260.678	2215
260.740	3550
260.802	272
260.864	189
260.926	-1116
260.988	317
261.050	87
261.112	1376
261.174	4371
261.236	3060
261.298	-341
261.359	821
261.421	2084
261.483	-601
261.545	316
261.607	-334
261.669	134
261.731	1033
261.793	1902
261.854	-329
261.916	360
261.978	329
262.040	-166
262.102	576
262.164	514
262.225	-176
262.287	-56
262.349	349
262.411	690
262.472	420
262.534	-896
262.596	1457
262.658	583
262.719	-590
262.781	856
262.843	-4
262.904	1119
262.966	198
263.028	-9
263.090	4851
263.151	13984
263.213	4671
263.275	751
263.336	409
263.398	1003
263.459	-1006
263.521	-275
263.583	1196
263.644	498
263.706	-127
263.767	-1278
263.829	354
263.891	-573
263.952	-443
264.014	-673
264.075	700
264.137	1801
264.198	1559
264.260	-745
264.321	-734
264.383	235
264.444	3482
264.506	434
264.567	180
264.629	1114
264.690	1611
264.752	1084
264.813	-215
264.875	-620
264.936	461
264.998	28
265.059	-44
265.120	194
265.182	220
265.243	7482
265.305	7877
265.366	1211
265.427	-165
265.489	236
265.550	-1038
265.611	-557
265.673	297
265.734	-600
265.795	305
265.857	-332
265.918	-329
265.979	1328
266.040	12681
266.102	10678
266.163	2831
266.224	169
266.286	457
266.347	-995
266.408	58
266.469	159
266.530	-662
266.592	-612
266.653	975
266.714	103
266.775	-545
266.836	115
266.898	-923
266.959	300
267.020	433
267.081	634
267.142	48
267.203	-73
267.264	-429
267.326	491
267.387	-473
267.448	-225
267.509	-1
267.570	168
267.631	-445
267.692	-590
267.753	-285
267.814	-1394
267.875	227
267.936	528
267.997	-224
268.058	-295
268.119	-929
268.180	-1166
268.241	-574
268.302	-677
268.363	-496
268.424	-95
268.485	-214
268.546	-1418
268.607	345
268.668	-691
268.729	-674
268.790	-728
268.851	-488
268.912	-267
268.972	808
269.033	-711
269.094	-645
269.155	-763
269.216	-1377
269.277	-593
269.338	-1108
269.398	-236
269.459	-389
269.520	-660
269.581	-537
269.642	106
269.702	-356
269.763	-65
269.824	-513
269.885	-642
269.945	746
270.006	-153
270.067	-922
270.128	-587
270.188	-135
270.249	-1141
270.310	-952
270.370	-527
270.431	-440
270.492	-697
270.553	-376
270.613	-172
270.674	1071
270.734	137
270.795	164
270.856	-482
270.916	-463
270.977	-1169
271.038	32
271.098	-808
271.159	-485
271.219	-430
271.280	1
271.340	-630
271.401	-624
271.462	55
271.522	-794
271.583	-531
271.643	-95
271.704	-66
271.764	-241
271.825	351
271.885	4119
271.946	7276
272.006	1138
272.066	1791
272.127	5530
272.187	2009
272.248	616
272.308	-335
272.369	4548
272.429	1821
272.489	608
272.550	-48
272.610	669
272.671	-199
272.731	188
272.791	132
272.852	-566
272.912	-127
272.972	-276
273.033	-248
273.093	166
273.153	604
273.214	-75
273.274	-507
273.334	2447
273.394	5256
273.455	1006
273.515	1249
273.575	3625
273.635	1189
273.696	1301
273.756	5443
273.816	1675
273.876	224
273.936	382
273.997	3105
274.057	-160
274.117	73
274.177	-145
274.237	5375
274.297	5740
274.358	1370
274.418	3387
274.478	2390
274.538	85
274.598	-825
274.658	1745
274.718	2645
274.778	49
274.838	-762
274.898	1201
274.958	3155
275.018	4560
275.078	2406
275.138	746
275.198	-205
275.258	-419
275.318	-238
275.378	434
275.438	837
275.498	-414
275.558	1781
275.618	4691
275.678	2697
275.738	1530
275.798	1024
275.858	229
275.918	-602
275.978	-243
276.038	448
276.098	-634
276.157	-27
276.217	2034
276.277	794
276.337	-36
276.397	-735
276.457	499
276.517	-271
276.576	-165
276.636	-330
276.696	-3
276.756	690
276.815	438
276.875	55
276.935	-132
276.995	623
277.055	-77
277.114	53
277.174	322
277.234	1956
277.293	37
277.353	-159
277.413	254
277.472	-1102
277.532	-680
277.592	436
277.651	2095
277.711	6315
277.771	1671
277.830	6185
277.890	5756
277.950	2675
278.009	15374
278.069	5513
278.128	4182
278.188	6368
278.248	1856
278.307	5909
278.367	4558
278.426	925
278.486	189
278.545	-767
278.605	360
278.664	-453
278.724	-86
278.783	1263
278.843	6501
278.902	1218
278.962	411
279.021	-91
279.081	1099
279.140	652
279.199	403
279.259	-144
279.318	813
279.378	545
279.437	2727
279.496	9808
279.556	39271
279.615	35539
279.675	7366
279.734	2487
279.793	3476
279.853	6613
279.912	2545
279.971	868
280.031	1025
280.090	2075
280.149	5756
280.208	3456
280.268	26124
280.327	33440
280.386	5527
280.445	2801
280.505	2134
280.564	983
280.623	737
280.682	1738
280.742	1841
280.801	-61
280.860	128
280.919	-698
280.978	282
281.037	-518
281.097	-467
281.156	-535
281.215	300
281.274	-258
281.333	3366
281.392	2528
281.451	460
281.510	-159
281.569	-1023
281.628	-360
281.688	-219
281.747	115
281.806	36
281.865	34
281.924	-152
281.983	-752
282.042	-466
282.101	-476
282.160	-114
282.219	-451
282.278	-387
282.337	456
282.396	269
282.454	211
282.513	-704
282.572	1907
282.631	827
282.690	-238
282.749	-508
282.808	13
282.867	-445
282.926	264
282.985	116
283.043	-1446
283.102	-638
283.161	-837
283.220	817
283.279	2440
283.338	-224
283.396	-780
283.455	-356
283.514	-609
283.573	749
283.631	420
283.690	422
283.749	108
283.808	-788
283.866	988
283.925	-898
283.984	10
284.043	521
284.101	-450
284.160	-785
284.219	828
284.277	-183
284.336	343
284.395	2612
284.453	3025
284.512	781
284.570	688
284.629	1037
284.688	-145
284.746	618
284.805	1529
284.863	1189
284.922	2006
284.981	3165
285.039	4729
285.098	8054
285.156	21034
285.215	57364
285.273	62028
285.332	28011
285.390	12772
285.449	6367
285.507	4073
285.566	2821
285.624	1790
285.683	1662
285.741	1246
285.799	614
285.858	608
285.916	254
285.975	628
286.033	-138
286.091	508
286.150	-604
286.208	558
286.267	500
286.325	92
286.383	192
286.442	-657
286.500	623
286.558	-128
286.616	-21
286.675	110
286.733	281
286.791	-100
286.850	-511
286.908	-785
286.966	1117
287.024	-351
287.083	-306
287.141	-1068
287.199	368
287.257	-276
287.315	120
287.374	-108
287.432	602
287.490	864
287.548	-396
287.606	-484
287.664	162
287.723	325
287.781	439
287.839	-26
287.897	194
287.955	631
288.013	1945
288.071	4271
288.129	21969
288.187	81978
288.245	37855
288.303	9382
288.361	4433
288.419	2293
288.477	1401
288.535	1152
288.593	1088
288.651	-114
288.709	716
288.767	-228
288.825	-202
288.883	-88
288.941	-182
288.999	-827
289.057	-133
289.115	-952
289.173	-1035
289.231	-454
289.289	-465
289.346	-697
289.404	128
289.462	-675
289.520	-38
289.578	-785
289.636	203
289.694	-1128
289.751	-977
289.809	-819
289.867	-637
289.925	835
289.983	-456
290.040	-412
290.098	140
290.156	-788
290.214	280
290.271	-823
290.329	-121
290.387	-718
290.444	-1154
290.502	-737
290.560	-49
290.617	-790
290.675	-270
290.733	-732
290.790	-265
290.848	-453
290.906	-742
290.963	-810
291.021	-314
291.078	-192
291.136	249
291.194	1498
291.251	4625
291.309	905
291.366	-49
291.424	-634
291.481	-918
291.539	-983
291.596	-707
291.654	-358
291.711	-331
291.769	-508
291.826	-51
291.884	-492
291.941	-881
291.999	-1449
292.056	-683
292.114	-675
292.171	-1400
292.228	-347
292.286	-821
292.343	64
292.401	553
292.458	-644
292.515	-673
292.573	-294
292.630	-275
292.687	-639
292.745	-757
292.802	-516
292.859	711
292.917	3186
292.974	1586
293.031	105
293.089	-487
293.146	-789
293.203	569
293.260	-812
293.318	-425
293.375	664
293.432	-379
293.489	-416
293.546	-686
293.604	-650
293.661	2438
293.718	8169
293.775	3895
293.832	1121
293.889	727
293.947	4
294.004	33
294.061	273
294.118	600
294.175	3497
294.232	7502
294.289	2046
294.346	319
294.403	207
294.460	70
294.517	-275
294.574	-460
294.631	295
294.688	-423
294.745	561
294.802	9750
294.859	12461
294.916	3454
294.973	209
295.030	369
295.087	185
295.144	-382
295.201	-173
295.258	64
295.315	-2
295.372	1938
295.429	7242
295.486	2635
295.542	864
295.599	4254
295.656	7923
295.713	5212
295.770	5790
295.827	1831
295.883	813
295.940	504
295.997	501
296.054	781
296.111	596
296.167	653
296.224	-1083
296.281	458
296.338	-193
296.394	191
296.451	-502
296.508	2369
296.564	4170
296.621	3491
296.678	7054
296.734	12853
296.791	4738
296.848	1294
296.904	984
296.961	2672
297.018	6834
297.074	6234
297.131	1609
297.187	712
297.244	892
297.301	6726
297.357	15920
297.414	6256
297.470	2000
297.527	400
297.583	-246
297.640	438
297.696	-276
297.753	-892
297.809	-183
297.866	-129
297.922	483
297.979	-305
298.035	-147
298.092	290
298.148	2605
298.204	4288
298.261	1024
298.317	2822
298.374	10987
298.430	7284
298.486	1360
298.543	995
298.599	-252
298.656	514
298.712	1216
298.768	7398
298.824	7560
298.881	1486
298.937	800
298.993	-30
299.050	-91
299.106	-93
299.162	-175
299.218	2
299.275	-154
299.331	437
299.387	834
299.443	8895
299.500	12896
299.556	6087
299.612	1879
299.668	1242
299.724	3520
299.780	5362
299.837	804
299.893	1342
299.949	6275
300.005	9786
300.061	7446
300.117	16298
300.173	7860
300.229	2236
300.285	1535
300.341	2413
300.397	519
300.453	723
300.510	-19
300.566	498
300.622	656
300.678	8431
300.734	13327
300.790	9481
300.845	9512
300.901	6994
300.957	9487
301.013	6355
301.069	1864
301.125	624
301.181	117
301.237	206
301.293	26
301.349	-247
301.405	-796
301.461	404
301.516	115
301.572	193
301.628	-147
301.684	288
301.740	1102
301.796	3915
301.851	2419
301.907	3484
301.963	4565
302.019	7625
302.074	25117
302.130	29409
302.186	13268
302.242	4517
302.297	2666
302.353	2055
302.409	3970
302.464	3420
302.520	2330
302.576	7468
302.631	9430
302.687	5078
302.743	1652
302.798	243
302.854	767
302.910	1151
302.965	893
303.021	1018
303.076	1493
303.132	1126
303.187	2488
303.243	762
303.299	867
303.354	-178
303.410	405
303.465	646
303.521	-723
303.576	309
303.632	885
303.687	1452
303.743	7563
303.798	8246
303.853	2734
303.909	1860
303.964	522
304.020	1033
304.075	1491
304.130	1921
304.186	2578
304.241	4177
304.297	1792
304.352	1455
304.358	1434
304.407	1265
304.449	928
304.463	817
304.518	330
304.539	351
304.573	367
304.629	-186
304.630	-151
304.684	1477
304.720	4019
304.739	5267
304.794	10799
304.811	9402
304.850	6063
304.902	2195
304.905	1944
304.960	413
304.992	569
305.015	701
305.071	1270
305.083	1121
305.126	549
305.173	456
305.181	454
305.236	465
305.264	495
305.292	457
305.347	665
305.354	604
305.402	386
305.445	1224
305.457	1424
305.512	997
305.535	1114
305.567	1328
305.622	837
305.626	897
305.678	2528
305.716	6928
305.733	8479
305.788	10348
305.807	9064
305.843	6867
305.897	8931
305.898	8954
305.953	9895
305.988	6899
306.008	5207
306.063	2091
306.078	1982
306.118	1944
306.168	966
306.173	876
306.228	929
306.259	802
306.283	724
306.338	939
306.349	858
306.393	536
306.440	1260
306.448	1402
306.503	1885
306.530	1839
306.558	2130
306.613	4353
306.620	4645
306.668	6350
306.711	8035
306.723	8130
306.778	6784
306.801	5156
306.833	3391
306.888	1567
306.892	1546
306.943	1753
306.982	1264
306.997	1056
307.052	926
307.072	1163
307.107	1788
307.162	2234
307.163	2240
307.217	3300
307.253	4096
307.272	4216
307.327	4468
307.343	3993
307.381	3069
307.434	2575
307.436	2636
307.491	5240
307.524	7680
307.546	8357
307.600	8031
307.614	7302
307.655	4805
307.704	2667
307.710	2630
307.765	3343
307.795	4307
307.819	5212
307.874	9057
307.885	9173
307.929	8138
307.975	6462
307.984	6587
308.038	8767
308.065	10780
308.093	18557
308.148	38042
308.156	43150
308.202	68615
308.246	85658
308.257	84262
308.312	48434
308.336	33324
308.366	23295
308.421	12632
308.426	11847
308.475	7956
308.517	6277
308.530	5844
308.585	4561
308.607	4245
308.639	4486
308.694	5027
308.697	5092
308.748	8259
308.787	11858
308.803	11994
308.857	10256
308.877	8888
308.912	7532
308.967	6692
308.967	6688
309.021	9555
309.058	12038
309.076	14917
309.130	24931
309.148	29062
309.185	52056
309.238	94662
309.239	95012
309.293	109618
309.328	101779
309.348	88914
309.402	45821
309.418	35055
309.457	23715
309.508	13243
309.511	12957
309.566	11240
309.598	10690
309.620	11703
309.674	15855
309.688	17011
309.729	16164
309.778	12678
309.783	12315
309.837	8631
309.868	6306
309.892	6787
309.946	9445
309.959	10241
310.001	12545
310.049	14599
310.055	14198
310.109	9666
310.139	6705
310.163	5365
310.218	3164
310.229	2810
310.272	3096
310.319	3374
310.326	3268
310.381	2747
310.409	2253
310.435	2349
310.489	2888
310.499	2955
310.543	2798
310.589	2646
310.598	2676
310.652	2978
310.679	3103
310.706	2874
310.760	2009
310.769	1893
310.814	2208
310.859	2624
310.868	2633
310.923	2635
310.948	2586
310.977	2777
311.031	3055
311.038	3113
311.085	2254
311.128	1293
311.139	1483
311.193	2432
311.218	2843
311.247	2517
311.301	1977
311.308	1900
311.356	2135
311.398	2333
311.410	2272
311.464	1937
311.488	1761
311.518	1960
311.572	2362
311.578	2403
311.626	2376
311.668	2306
311.680	2493
311.734	3274
311.758	3644
311.788	3200
311.842	2295
311.847	2199
311.896	3571
311.937	4783
311.950	4703
312.004	4253
312.027	4058
312.058	3661
312.112	2922
312.117	2844
312.165	2636
312.207	2451
312.297	4038
312.386	2620
312.476	3695
312.566	3653
312.656	3186
312.745	2904
312.835	3590
312.925	2423
313.015	3057
313.104	3012
313.194	3018
313.284	2836
313.374	3059
313.463	3134
313.553	3407
313.643	2155
313.732	3183
313.822	2066
313.912	3892
314.001	3578
314.091	4154
314.180	3478
314.270	4091
314.360	3871
314.449	3687
314.539	2655
314.628	2653
314.718	3167
314.808	4490
314.897	3005
314.987	4648
315.076	3370
315.166	4334
315.255	4657
315.345	4368
315.434	3214
315.524	4048
315.613	2750
315.703	5134
315.792	7903
315.881	22436
315.971	6785
316.060	5833
316.150	7090
316.239	7662
316.328	3017
316.418	3452
316.507	3384
316.597	3513
316.686	3672
316.775	4848
316.865	7980
316.954	3908
317.043	2740
317.133	3502
317.222	1779
317.311	3147
317.400	1238
317.490	4224
317.579	2518
317.668	3365
317.757	3747
317.847	11285
317.936	34701
318.025	12277
318.114	7250
318.203	5616
318.293	5434
318.382	9107
318.471	7110
318.560	10665
318.649	22956
318.738	5395
318.828	3599
318.917	3761
319.006	4362
319.095	9107
319.184	26501
319.273	12364
319.362	5294
319.451	2696
319.540	2505
319.629	4684
319.718	5675
319.807	4656
319.896	8394
319.985	33515
320.074	10133
320.163	4344
320.252	4039
320.341	5200
320.430	4482
320.519	3982
320.608	2923
320.697	3640
320.786	2780
320.875	4314
320.964	4153
321.053	5693
321.142	6734
321.230	7597
321.319	7073
321.408	12946
321.497	6943
321.586	6499
321.675	7123
321.764	7728
321.852	5306
321.941	7617
322.030	4593
322.119	7085
322.207	12030
322.296	12780
322.385	8176
322.474	8466
322.562	15307
322.651	10793
322.740	5848
322.829	8124
322.917	9789
323.006	5660
323.095	4956
323.183	4507
323.272	5464
323.361	10187
323.449	29098
323.538	10435
323.626	19343
323.715	12340
323.804	6051
323.892	17679
323.981	8799
324.069	4892
324.158	9869
324.246	10406
324.335	3023
324.424	5531
324.512	2895
324.601	2832
324.689	4394
324.778	6850
324.866	5606
324.954	3179
325.043	2530
325.131	4581
325.220	8114
325.308	8636
325.397	5643
325.485	4742
325.574	2124
325.662	1863
325.750	2370
325.839	3013
325.927	2363
326.015	3416
326.104	3302
326.192	4454
326.280	1577
326.369	2847
326.457	2825
326.545	4632
326.634	2095
326.722	2236
326.810	1974
326.898	2422
326.987	3392
327.075	3904
327.163	4811
327.251	2987
327.340	2808
327.428	5483
327.516	3076
327.604	2957
327.692	2518
327.781	3098
327.869	3324
327.957	3707
328.045	2245
328.133	2356
328.221	2613
328.309	2694
328.397	2353
328.485	3292
328.574	3778
328.662	8182
328.750	5358
328.838	2606
328.926	2100
329.014	2627
329.102	2873
329.190	7108
329.278	3572
329.366	2861
329.454	1273
329.542	2820
329.630	1609
329.718	2091
329.806	1791
329.893	2050
329.981	1963
330.069	1645
330.157	3080
330.245	8630
330.333	4557
330.421	2358
330.509	2456
330.597	7702
330.684	4938
330.772	3621
330.860	4348
330.948	6242
331.036	3517
331.123	1913
331.211	2101
331.299	2865
331.387	5309
331.475	9059
331.562	2640
331.650	2485
331.738	2255
331.825	3148
331.913	1412
332.001	2105
332.089	2430
332.176	4916
332.264	8190
332.352	6747
332.439	3374
332.527	2772
332.614	1352
332.702	3366
332.790	1562
332.877	5279
332.965	8930
333.052	3084
333.140	2725
333.228	7013
333.315	2086
333.403	2445
333.490	6251
333.578	5359
333.665	7296
333.753	4477
333.840	2417
333.928	3493
334.015	6264
334.103	11071
334.190	35781
334.278	10932
334.365	7476
334.452	7869
334.540	4699
334.627	5011
334.715	6126
334.802	10204
334.889	37814
334.977	44079
335.064	11950
335.151	6608
335.239	4216
335.326	5987
335.413	18854
335.501	25920
335.588	4625
335.675	4627
335.762	5286
335.850	8038
335.937	8001
336.024	17541
336.111	52792
336.199	32603
336.286	9501
336.373	5583
336.460	3241
336.547	3276
336.635	3539
336.722	3146
336.809	3047
336.896	4178
336.983	9768
337.070	25209
337.157	37107
337.245	24450
337.332	15684
337.419	3761
337.506	3148
337.593	3700
337.680	8544
337.767	27236
337.854	7090
337.941	8000
338.028	7304
338.115	3457
338.202	3994
338.289	6564
338.376	20186
338.463	8258
338.550	15160
338.637	17472
338.724	4947
338.811	7934
338.898	2262
338.984	2893
339.071	2699
339.158	2983
339.245	4897
339.332	4899
339.419	5560
339.506	5517
339.593	1169
339.679	2877
339.766	1486
339.853	2189
339.940	3074
340.027	2442
340.113	2740
340.200	2445
340.287	2247
340.374	2665
340.460	2644
340.547	1723
340.634	2743
340.720	7839
340.807	4436
340.894	3163
340.980	2091
341.067	2272
341.154	2620
341.240	2365
341.327	3555
341.414	3075
341.500	1812
341.587	2688
341.674	2073
341.760	3517
341.847	3001
341.933	2879
342.020	1127
342.106	2680
342.193	2119
342.279	2704
342.366	2551
342.452	4357
342.539	1872
342.625	3570
342.712	7725
342.798	4521
342.885	1880
342.971	1463
343.058	1659
343.144	2159
343.230	1735
343.317	2224
343.403	1239
343.490	2212
343.576	1370
343.662	2762
343.749	1473
343.835	2459
343.921	2856
344.008	17752
344.094	38994
344.180	8906
344.267	3125
344.353	11223
344.439	12052
344.525	4862
344.612	4860
344.698	6610
344.784	3536
344.870	2579
344.957	1280
345.043	3260
345.129	1554
345.215	3802
345.301	1560
345.387	1798
345.474	422
345.560	1208
345.646	1943
345.732	2308
345.818	1394
345.904	2208
345.990	1607
346.076	1961
346.162	3417
346.249	2406
346.335	1442
346.421	2370
346.507	5043
346.593	16763
346.679	2738
346.765	3232
346.851	3172
346.937	1509
347.023	2403
347.108	1901
347.194	900
347.280	2141
347.366	1942
347.452	7859
347.538	20215
347.624	15837
347.710	11276
347.796	3132
347.882	1437
347.967	2134
348.053	2413
348.139	2492
348.225	1379
348.311	1266
348.397	1813
348.482	2410
348.568	1656
348.654	2696
348.740	5999
348.825	5348
348.911	3837
348.997	8930
349.083	18417
349.168	4069
349.254	1903
349.340	2628
349.425	1496
349.511	2492
349.597	2113
349.682	4064
349.768	10798
349.854	5971
349.939	1729
350.025	2294
350.110	1769
350.196	1774
350.282	75
350.367	2414
350.453	2106
350.538	3120
350.624	979
350.709	2243
350.795	1687
350.880	804
350.966	1279
351.051	2807
351.137	1431
351.222	2168
351.308	3215
351.393	7694
351.479	2629
351.564	1635
351.649	1154
351.735	1779
351.820	837
351.906	2203
351.991	1448
352.076	6202
352.162	8459
352.247	2968
352.332	1684
352.418	2986
352.503	2975
352.588	13380
352.673	8525
352.759	2412
352.844	946
352.929	2529
353.014	2041
353.100	2810
353.185	2028
353.270	2928
353.355	3413
353.441	1951
353.526	948
353.611	3479
353.696	2966
353.781	3156
353.866	729
353.952	2846
354.037	2190
354.122	5823
354.207	4652
354.292	2982
354.377	1217
354.462	2095
354.547	783
354.632	2570
354.717	1984
354.802	2837
354.887	755
354.972	1165
355.057	1489
355.142	1422
355.227	1823
355.312	2112
355.397	3102
355.482	7543
355.567	2993
355.652	4457
355.737	4662
355.822	12343
355.907	8952
355.991	3425
356.076	1430
356.161	2079
356.246	1074
356.331	2050
356.416	2831
356.501	22052
356.585	20905
356.670	3263
356.755	3497
356.840	3150
356.924	11870
357.009	45588
357.094	17046
357.179	3982
357.263	2914
357.348	3585
357.433	2871
357.517	3032
357.602	2931
357.687	2729
357.771	3573
357.856	10854
357.941	6381
358.025	11402
358.110	46359
358.195	21325
358.279	3036
358.364	2711
358.448	7593
358.533	20887
358.617	13793
358.702	15466
358.787	5959
358.871	3420
358.956	2500
359.040	1945
359.125	1376
359.209	2596
359.294	5535
359.378	9569
359.462	3090
359.547	3175
359.631	1643
359.716	1886
359.800	1956
359.885	3574
359.969	811
360.053	2715
360.138	1726
360.222	2205
360.306	2334
360.391	3362
360.475	5128
360.559	10268
360.644	7478
360.728	5530
360.812	11198
360.896	32135
360.981	12332
361.065	6901
361.149	3174
361.233	2774
361.318	886
361.402	3529
361.486	2628
361.570	2731
361.654	2457
361.739	5134
361.823	18415
361.907	32374
361.991	5626
362.075	3995
362.159	5597
362.243	8373
362.327	14633
362.411	26805
362.495	9754
362.580	4987
362.664	3792
362.748	4032
362.832	6096
362.916	11276
363.000	37497
363.084	76697
363.168	52293
363.252	13150
363.336	5390
363.420	7068
363.503	25880
363.587	32773
363.671	5012
363.755	3186
363.839	5156
363.923	3543
364.007	5145
364.091	7112
364.175	12132
364.258	51803
364.342	54249
364.426	97817
364.510	52927
364.594	15495
364.677	10207
364.761	28535
364.845	20615
364.929	6638
365.013	4445
365.096	4234
365.180	4815
365.264	11758
365.347	41908
365.431	18770
365.515	3554
365.598	2697
365.682	2831
365.766	4424
365.849	4815
365.933	2507
366.017	3867
366.100	3307
366.184	1473
366.267	3786
366.351	1804
366.435	1709
366.518	820
366.602	1775
366.685	2204
366.769	2510
366.852	3560
366.936	5400
367.019	3451
367.103	2710
367.186	7158
367.270	2594
367.353	1142
367.436	3166
367.520	1739
367.603	3199
367.687	1826
367.770	4787
367.853	3375
367.937	9199
368.020	14138
368.104	4040
368.187	3359
368.270	4367
368.353	3732
368.437	5852
368.520	14101
368.603	7395
368.687	7705
368.770	17029
368.853	4155
368.936	5965
369.020	5542
369.103	2154
369.186	1168
369.269	1711
369.352	2793
369.436	3742
369.519	3120
369.602	1231
369.685	2520
369.768	1598
369.851	1787
369.934	1916
370.018	1452
370.101	3144
370.184	4326
370.267	4198
370.350	3228
370.433	5928
370.516	15233
370.599	25389
370.682	5516
370.765	9233
370.848	10683
370.931	20752
371.014	9629
371.097	1978
371.180	2227
371.263	1917
371.346	889
371.429	2195
371.511	950
371.594	3007
371.677	4580
371.760	7167
371.843	4276
371.926	18164
372.009	39082
372.091	14463
372.174	7880
372.257	22273
372.340	9119
372.423	7224
372.505	9920
372.588	4283
372.671	6606
372.754	19949
372.836	10648
372.919	12058
373.002	24755
373.085	6667
373.167	4791
373.250	8659
373.332	19561
373.415	26979
373.498	52947
373.580	21022
373.663	32811
373.746	41117
373.828	7705
373.911	5280
373.993	4572
374.076	22614
374.159	22004
374.241	6781
374.324	16311
374.406	12221
374.489	15736
374.571	44800
374.654	18297
374.736	9383
374.819	26898
374.901	40084
374.983	41155
375.066	8089
375.148	4532
375.231	18671
375.313	38460
375.395	12982
375.478	3718
375.560	3471
375.643	2607
375.725	8928
375.807	34583
375.890	30350
375.972	11652
376.054	7266
376.136	11443
376.219	5436
376.301	10193
376.383	29482
376.465	11422
376.548	4692
376.630	7738
376.712	24496
376.794	11800
376.877	2654
376.959	858
377.041	3377
377.123	5079
377.205	6471
377.287	1265
377.369	2566
377.452	1139
377.534	2185
377.616	1158
377.698	1566
377.780	1170
377.862	2372
377.944	1611
378.026	1285
378.108	1799
378.190	2364
378.272	2798
378.354	1800
378.436	1316
378.518	2391
378.600	8212
378.682	7287
378.764	10942
378.846	10456
378.928	3109
379.010	3500
379.091	2046
379.173	2590
379.255	870
379.337	1637
379.419	4886
379.501	17262
379.583	7091
379.664	2771
379.746	3427
379.828	12180
379.910	14311
379.991	14414
380.073	2591
380.155	2804
380.237	1276
380.318	1986
380.400	452
380.482	3208
380.564	3501
380.645	4141
380.727	3088
380.809	3699
380.890	1478
380.972	2020
381.053	1866
381.135	2622
381.217	3824
381.298	12333
381.380	6192
381.461	6288
381.543	22705
381.624	31144
381.706	5578
381.787	3956
381.869	3779
381.951	11454
382.032	40686
382.113	26696
382.195	4364
382.276	5175
382.358	6767
382.439	22340
382.521	26002
382.602	40497
382.684	18087
382.765	29599
382.846	34013
382.928	52305
383.009	28882
383.090	19252
383.172	72204
383.253	117035
383.334	38266
383.416	36831
383.497	19248
383.578	9192
383.659	15199
383.741	62269
383.822	170150
383.903	86378
383.984	25034
384.066	42136
384.147	23665
384.228	6969
384.309	5349
384.390	4811
384.471	3511
384.553	3680
384.634	4186
384.715	4667
384.796	2997
384.877	3690
384.958	10863
385.039	13150
385.120	4728
385.201	4076
385.282	3381
385.363	5887
385.444	3282
385.525	6022
385.606	18978
385.687	17278
385.768	4589
385.849	5001
385.930	19667
386.011	35000
386.092	9145
386.173	4185
386.254	3510
386.335	4190
386.416	2473
386.496	8373
386.577	12655
386.658	6773
386.739	3184
386.820	6088
386.901	3298
386.981	4436
387.062	2293
387.143	4340
387.224	13174
387.304	13558
387.385	6829
387.466	4919
387.547	6865
387.627	6252
387.708	7321
387.789	23320
387.869	27668
387.950	10303
388.031	2940
388.111	2464
388.192	7140
388.273	10078
388.353	5225
388.434	3233
388.514	4439
388.595	22118
388.676	27101
388.756	12027
388.837	9801
388.917	7365
388.998	1286
389.078	3264
389.159	2559
389.239	1458
389.320	3923
389.400	2120
389.480	5752
389.561	13894
389.641	8384
389.722	3583
389.802	2960
389.883	6869
389.963	17347
390.043	12025
390.124	3841
390.204	5616
390.284	13067
390.365	8544
390.445	14736
390.525	38055
390.605	30135
390.686	9387
390.766	4127
390.846	4100
390.927	1014
391.007	1265
391.087	3855
391.167	3326
391.247	1618
391.328	4276
391.408	5860
391.488	5454
391.568	1676
391.648	2492
391.728	3736
391.808	4032
391.888	3276
391.969	8842
392.049	13348
392.129	8428
392.209	8288
392.289	18945
392.369	10867
392.449	13258
392.529	7646
392.609	7128
392.689	8193
392.769	18793
392.849	18237
392.929	17853
393.009	32017
393.089	30800
393.169	40860
393.248	119031
393.328	359348
393.408	386109
393.488	131526
393.568	41959
393.648	21180
393.728	13351
393.807	9028
393.887	9831
393.967	7332
394.047	8562
394.127	7777
394.206	14419
394.286	45819
394.366	171778
394.446	184633
394.525	49036
394.605	13395
394.685	10175
394.764	17434
394.844	28986
394.924	23111
395.003	7441
395.083	5278
395.163	5556
395.242	3695
395.322	5646
395.402	2971
395.481	6414
395.561	11369
395.640	33538
395.720	35743
395.799	39261
395.879	30010
395.958	21086
396.038	66093
396.117	224096
396.197	239684
396.276	84062
396.356	28531
396.435	20633
396.515	16214
396.594	18054
396.673	35176
396.753	120300
396.832	330316
396.912	247254
396.991	61592
397.070	21953
397.150	11513
397.229	11148
397.308	18309
397.388	33944
397.467	16287
397.546	6237
397.625	3182
397.705	5136
397.784	4048
397.863	3747
397.942	2612
398.022	3092
398.101	8325
398.180	28132
398.259	13592
398.338	4772
398.417	2271
398.497	2733
398.576	3414
398.655	2477
398.734	3036
398.813	2866
398.892	8637
398.971	31187
399.050	14800
399.129	1982
399.208	1823
399.287	2931
399.366	1192
399.445	1672
399.524	1775
399.603	1464
399.682	2478
399.761	7507
399.840	30478
399.919	26349
399.998	3522
400.077	1420
400.156	483
400.235	4360
400.313	1044
400.392	1627
400.471	5945
400.550	10285
400.629	1976
400.708	1902
400.786	1468
400.865	6292
400.944	6330
401.023	5490
401.102	612
401.180	1598
401.259	802
401.338	2093
401.416	1712
401.495	1397
401.574	2256
401.652	930
401.731	2137
401.810	1465
401.888	544
401.967	77
402.046	1354
402.124	2537
402.203	613
402.281	2250
402.360	2249
402.438	8126
402.517	4149
402.596	2737
402.674	1566
402.753	1461
402.831	1470
402.910	2411
402.988	3390
403.066	12872
403.145	8192
403.223	4764
403.302	9605
403.380	8859
403.459	7220
403.537	3992
403.615	1128
403.694	209
403.772	1997
403.850	1532
403.929	882
404.007	1097
404.085	2678
404.164	2082
404.242	1439
404.320	8857
404.398	27398
404.477	26735
404.555	35355
404.633	33288
404.711	21531
404.789	14063
404.868	2405
404.946	1275
405.024	1407
405.102	1498
405.180	284
405.258	346
405.336	1561
405.415	814
405.493	2169
405.571	2733
405.649	75
405.727	295
405.805	1864
405.883	2719
405.961	1454
406.039	2886
406.117	-118
406.195	3097
406.273	5010
406.351	26925
406.429	16442
406.507	3401
406.585	811
406.663	1327
406.740	858
406.818	1376
406.896	627
406.974	2380
407.052	219
407.130	14779
407.208	19715
407.285	4675
407.363	835
407.441	1617
407.519	557
407.596	1953
407.674	8113
407.752	38271
407.830	33003
407.907	6900
407.985	808
408.063	1448
408.141	-203
408.218	2546
408.296	816
408.373	954
408.451	997
408.529	1798
408.606	830
408.684	1139
408.762	1129
408.839	649
408.917	823
408.994	1549
409.072	932
409.149	2133
409.227	3452
409.304	5903
409.382	5314
409.459	6755
409.537	8546
409.614	7862
409.692	5109
409.769	4812
409.846	8457
409.924	12113
410.001	6104
410.079	5022
410.156	3753
410.233	3091
410.311	1732
410.388	2083
410.465	1655
410.543	1836
410.620	2406
410.697	2131
410.775	1761
410.852	747
410.929	2401
411.006	4032
411.083	1707
411.161	2944
411.238	3513
411.315	2339
411.392	874
411.469	3495
411.547	1511
411.624	1047
411.701	742
411.778	1446
411.855	1292
411.932	882
412.009	708
412.086	1469
412.163	1532
412.240	1709
412.317	1629
412.394	2051
412.471	1549
412.548	1058
412.625	360
412.702	1774
412.779	2572
412.856	2374
412.933	391
413.010	1935
413.087	1172
413.164	4587
413.241	7590
413.318	2200
413.395	1015
413.471	800
413.548	1299
413.625	1277
413.702	-394
413.779	1518
413.855	422
413.932	354
414.009	-372
414.086	1156
414.162	240
414.239	1980
414.316	4493
414.393	11854
414.469	3586
414.546	807
414.623	589
414.699	792
414.776	594
414.853	735
414.929	-53
415.006	829
415.082	212
415.159	1135
415.236	441
415.312	977
415.389	1098
415.465	662
415.542	655
415.618	583
415.695	994
415.771	187
415.848	654
415.924	1821
416.000	711
416.077	2037
416.153	-768
416.230	675
416.306	-293
416.383	1173
416.459	859
416.535	401
416.612	-489
416.688	972
416.764	-569
416.841	147
416.917	-412
416.993	792
417.069	735
417.146	1974
417.222	1870
417.298	1148
417.374	-2
417.451	913
417.527	197
417.603	64
417.679	236
417.755	1150
417.831	-693
417.908	657
417.984	-192
418.060	-246
418.136	1268
418.212	1609
418.288	426
418.364	1830
418.440	-300
418.516	1185
418.592	1692
418.668	3132
418.744	2698
418.820	3499
418.896	1094
418.972	448
419.048	-268
419.124	2332
419.200	167
419.276	1859
419.352	-913
419.428	616
419.504	245
419.579	1304
419.655	52
419.731	918
419.807	2265
419.883	2890
419.959	2400
420.034	2193
420.110	1747
420.186	7286
420.262	6200
420.337	1979
420.413	1987
420.489	1928
420.565	2602
420.640	1473
420.716	2133
420.792	969
420.867	2659
420.943	952
421.019	2011
421.094	2772
421.170	2466
421.245	2316
421.321	2108
421.397	4024
421.472	9051
421.548	25329
421.623	16778
421.699	5807
421.774	4917
421.850	5717
421.925	7977
422.001	7775
422.076	9709
422.152	11599
422.227	15747
422.302	23063
422.378	32615
422.453	59484
422.529	117980
422.604	221288
422.679	247282
422.755	219680
422.830	134404
422.905	66970
422.981	37882
423.056	26229
423.131	18251
423.207	14754
423.282	10536
423.357	11127
423.432	8136
423.508	8064
423.583	6626
423.658	6859
423.733	4568
423.808	4503
423.883	5000
423.959	4737
424.034	5036
424.109	5018
424.184	2745
424.259	2930
424.334	2014
424.409	2213
424.484	1774
424.559	2427
424.634	1212
424.709	2522
424.784	2047
424.859	2149
424.934	1779
425.009	5635
425.084	9026
425.159	4393
425.234	2025
425.309	1802
425.384	3802
425.459	5138
425.534	2059
425.609	1868
425.683	913
425.758	1631
425.833	862
425.908	1687
425.983	2706
426.058	8731
426.132	3794
426.207	1928
426.282	2681
426.357	1893
426.431	452
426.506	1334
426.581	1053
426.655	1449
426.730	419
426.805	775
426.879	1082
426.954	1445
427.029	1313
427.103	9244
427.178	22277
427.253	11205
427.327	1527
427.402	2803
427.476	5994
427.551	3745
427.625	1011
427.700	1946
427.774	735
427.849	2393
427.923	124
427.998	776
428.072	788
428.147	4692
428.221	19000
428.296	66604
428.370	38277
428.444	5209
428.519	2431
428.593	6163
428.667	5776
428.742	6535
428.816	8920
428.890	41231
428.965	67993
429.039	19987
429.113	8077
429.188	4247
429.262	1474
429.336	2225
429.410	4220
429.485	4579
429.559	5158
429.633	5014
429.707	1827
429.781	7269
429.855	42492
429.930	65679
430.004	24765
430.078	30422
430.152	35817
430.226	84573
430.300	86929
430.374	16951
430.448	4993
430.522	9728
430.596	28330
430.670	22356
430.744	55524
430.818	73935
430.892	14249
430.966	2177
431.040	1573
431.114	56
431.188	621
431.262	1461
431.336	-114
431.410	3652
431.484	6430
431.557	4765
431.631	488
431.705	3445
431.779	13026
431.853	61523
431.927	45241
432.000	4993
432.074	1396
432.148	1736
432.222	425
432.295	730
432.369	-18
432.443	1260
432.516	8711
432.590	24360
432.664	9560
432.737	1040
432.811	-968
432.885	219
432.958	766
433.032	308
433.106	-1165
433.179	1048
433.253	262
433.326	310
433.400	-269
433.473	74
433.547	-850
433.620	550
433.694	339
433.767	1608
433.841	-516
433.914	195
433.988	-116
434.061	948
434.134	-301
434.208	301
434.281	138
434.355	540
434.428	440
434.501	672
434.575	492
434.648	1113
434.721	-722
434.795	891
434.868	24
434.941	620
435.014	361
435.088	575
435.161	214
435.234	1714
435.307	1663
435.381	1881
435.454	2440
435.527	4899
435.600	4836
435.673	3897
435.746	2296
435.819	1508
435.892	1182
435.966	812
436.039	629
436.112	1375
436.185	618
436.258	280
436.331	-342
436.404	486
436.477	-81
436.550	787
436.623	-206
436.696	456
436.769	112
436.842	1036
436.915	178
436.987	890
437.060	342
437.133	543
437.206	167
437.279	748
437.352	201
437.425	-19
437.498	75
437.570	1923
437.643	463
437.716	698
437.789	244
437.861	1268
437.934	3181
438.007	1393
438.080	-209
438.152	914
438.225	2154
438.298	11982
438.370	35835
438.443	16299
438.516	2998
438.588	1119
438.661	-780
438.734	716
438.806	483
438.879	1523
438.951	868
439.024	1993
439.096	143
439.169	679
439.241	-840
439.314	638
439.386	361
439.459	1428
439.531	1615
439.604	1078
439.676	317
439.749	1558
439.821	-365
439.893	932
439.966	-319
440.038	572
440.110	350
440.183	637
440.255	-233
440.327	1065
440.400	5240
440.472	21044
440.544	14636
440.617	1755
440.689	1370
440.761	1980
440.833	2503
440.905	1944
440.978	-232
441.050	897
441.122	731
441.194	450
441.266	15
441.338	0
441.411	1379
441.483	5732
441.555	8343
441.627	2638
441.699	1736
441.771	2897
441.843	195
441.915	1122
441.987	15
442.059	696
442.131	1397
442.203	2528
442.275	2176
442.347	3683
442.419	7164
442.491	40669
442.563	100922
442.635	46837
442.706	12141
442.778	8199
442.850	2164
442.922	2266
442.994	1885
443.066	3424
443.137	1877
443.209	2972
443.281	4306
443.353	11213
443.425	46201
443.496	158131
443.568	174492
443.640	71220
443.711	13035
443.783	5476
443.855	2962
443.926	2311
443.998	1444
444.070	3170
444.141	1671
444.213	1922
444.285	1836
444.356	2586
444.428	1797
444.499	1616
444.571	584
444.642	2123
444.714	1063
444.785	1984
444.857	2736
444.928	6507
445.000	4349
445.071	4978
445.143	5219
445.214	5974
445.285	9374
445.357	28321
445.428	96854
445.500	214271
445.571	158180
445.642	99861
445.714	33878
445.785	16817
445.856	5196
445.928	3440
445.999	2681
446.070	1979
446.141	2050
446.213	2973
446.284	871
446.355	2175
446.426	955
446.497	1507
446.569	1103
446.640	1997
446.711	1340
446.782	1982
446.853	936
446.924	1977
446.995	562
447.066	1796
447.138	1549
447.209	1842
447.280	-857
447.351	122
447.422	-97
447.493	999
447.564	974
447.635	1698
447.706	50
447.777	1055
447.847	-326
447.918	416
447.989	462
448.060	1787
448.131	3134
448.202	3435
448.273	1885
448.344	790
448.414	-53
448.485	864
448.556	40
448.627	123
448.698	1014
448.768	237
448.839	57
448.910	1214
448.981	1235
449.051	1137
449.122	-154
449.193	504
449.263	-641
449.334	336
449.405	260
449.475	1877
449.546	1237
449.616	2324
449.687	1326
449.758	1380
449.828	370
449.899	439
449.969	-514
450.040	134
450.110	-66
450.181	1431
450.251	-258
450.322	1232
450.392	-348
450.463	403
450.533	310
450.604	1139
450.674	-186
450.744	970
450.815	512
450.885	1367
450.955	284
451.026	845
451.096	-49
451.166	1891
451.237	2231
451.307	7372
451.377	3444
451.447	414
451.518	-246
451.588	295
451.658	645
451.728	1928
451.799	6282
451.869	8907
451.939	1431
452.009	1012
452.079	-42
452.149	1596
452.219	1797
452.289	8781
452.360	5953
452.430	2500
452.500	1116
452.570	2588
452.640	4234
452.710	14234
452.780	18626
452.850	10252
452.920	5357
452.990	3114
453.060	1626
453.129	1424
453.199	2253
453.269	8901
453.339	20540
453.409	32227
453.479	29121
453.549	44977
453.619	46679
453.688	19850
453.758	2711
453.828	2024
453.898	889
453.968	1596
454.037	91
454.087	1331
454.107	1833
454.168	889
454.177	748
454.247	1447
454.249	1412
454.316	197
454.330	414
454.386	1250
454.411	2246
454.456	3768
454.492	5225
454.525	6566
454.574	3623
454.595	2315
454.655	1087
454.665	913
454.734	1827
454.736	1879
454.804	3120
454.817	3954
454.873	7101
454.898	7804
454.943	8938
454.979	5903
455.013	3249
455.060	1949
455.082	1425
455.141	1626
455.152	1678
455.221	6438
455.222	6543
455.291	11584
455.303	11762
455.360	12093
455.384	16461
455.430	22806
455.465	17760
455.499	13452
455.546	9304
455.569	7281
455.627	5812
455.638	5616
455.707	1162
455.708	1169
455.777	1382
455.789	1349
455.846	1065
455.869	1267
455.916	1717
455.950	1415
455.985	1023
456.031	1168
456.054	1246
456.112	1147
456.124	1174
456.193	1187
456.193	1174
456.262	1485
456.274	1568
456.332	2110
456.355	1945
456.401	1410
456.436	1454
456.470	1529
456.516	1088
456.540	848
456.597	550
456.609	509
456.678	997
456.678	991
456.747	1312
456.759	1098
456.817	215
456.840	473
456.886	772
456.920	1072
456.955	1485
457.001	1569
457.024	1575
457.082	1693
457.093	1760
457.162	2250
457.163	2266
457.232	2126
457.243	2092
457.301	1971
457.324	1487
457.370	689
457.405	1377
457.439	2072
457.485	1578
457.508	1406
457.566	2203
457.577	2376
457.646	2886
457.647	2904
457.715	5335
457.727	6030
457.784	10984
457.808	15029
457.853	19785
457.889	23823
457.922	25454
457.969	17574
457.991	16602
458.050	16676
458.060	16942
458.129	32152
458.130	32606
458.198	37705
458.211	34036
458.267	20207
458.292	14238
458.336	7856
458.372	7354
458.405	9163
458.453	13125
458.474	16360
458.533	31011
458.543	32226
458.611	54968
458.614	55265
458.680	40583
458.694	32783
458.749	14382
458.775	10425
458.818	5425
458.855	4231
458.887	3503
458.936	3251
458.955	3040
459.016	1890
459.024	1869
459.093	3233
459.097	3220
459.162	1893
459.177	1961
459.230	2729
459.257	2671
459.299	2357
459.338	2611
459.368	2953
459.418	3218
459.437	3052
459.499	2719
459.505	2755
459.574	2415
459.579	2411
459.643	1779
459.659	1619
459.711	2086
459.740	2607
459.780	2560
459.820	2195
459.849	2347
459.900	2946
459.917	2997
459.981	2807
459.986	2769
460.054	2250
460.061	2225
460.123	2149
460.141	2246
460.191	3113
460.222	3449
460.260	3402
460.302	3799
460.328	4133
460.382	4099
460.397	4080
460.462	4115
460.465	4247
460.534	7600
460.543	8068
460.602	22527
460.623	28346
460.671	45169
460.703	63248
460.739	60447
460.783	49019
460.808	43559
460.864	12765
460.876	9343
460.944	2875
460.945	2814
461.013	3394
461.024	3353
461.081	2463
461.104	2489
461.150	2822
461.184	2791
461.218	2664
461.264	2462
461.286	2358
461.345	2004
461.355	2032
461.423	2941
461.425	2939
461.491	2854
461.505	3070
461.559	4601
461.585	4984
461.628	7282
461.665	10049
461.696	10599
461.745	12055
461.764	11076
461.825	5290
461.832	5120
461.901	2982
461.905	2955
461.969	3132
461.985	3121
462.037	3087
462.065	3123
462.105	3141
462.145	3023
462.173	3634
462.225	5278
462.241	5989
462.305	8922
462.310	8660
462.378	4740
462.385	4147
462.446	3459
462.465	3283
462.514	2741
462.545	2615
462.582	2685
462.625	2934
462.650	2744
462.705	1981
462.718	1970
462.785	2432
462.786	2449
462.854	3047
462.865	3186
462.922	4722
462.945	5344
462.990	4231
463.025	3051
463.058	2899
463.104	2994
463.126	2894
463.184	2644
463.194	2732
463.262	2683
463.264	2718
463.330	2861
463.344	2729
463.398	3364
463.424	3725
463.466	2996
463.504	2442
463.533	2861
463.583	3615
463.601	3523
463.663	2821
463.669	2923
463.737	4397
463.743	4489
463.805	5882
463.823	6510
463.873	9668
463.903	11474
463.940	11322
463.982	11605
464.008	9938
464.062	5020
464.076	4616
464.142	2666
464.144	2663
464.211	2842
464.221	2940
464.279	3158
464.301	3148
464.347	3160
464.381	3314
464.414	3504
464.461	3635
464.482	3742
464.540	4245
464.550	4137
464.617	2763
464.620	2727
464.685	3923
464.699	4155
464.753	4441
464.779	4687
464.820	5640
464.859	6433
464.888	6043
464.938	5417
464.956	5868
465.018	7042
465.023	6895
465.091	5200
465.098	5018
465.158	5167
465.177	5227
465.226	4929
465.257	4651
465.293	5219
465.336	5894
465.361	5753
465.416	5369
465.428	5664
465.495	7446
465.496	7481
465.563	11198
465.575	11907
465.631	14720
465.654	15965
465.698	11156
465.734	6548
465.765	5820
465.813	4698
465.833	4506
465.893	4530
465.900	4591
465.968	4866
465.972	4889
466.035	4302
466.052	4092
466.102	4560
466.131	4907
466.170	4655
466.210	4289
466.237	4539
466.290	5141
466.304	5035
466.369	4309
466.372	4342
466.439	5332
466.449	5439
466.506	4598
466.528	4328
466.573	6928
466.607	8845
466.641	11536
466.687	15274
466.708	16701
466.766	20734
466.775	19187
466.842	7230
466.845	6649
466.909	5535
466.925	5331
466.977	5229
467.004	5179
467.044	5810
467.083	6459
467.111	6658
467.163	6988
467.178	7251
467.242	8338
467.245	8281
467.312	6914
467.321	6729
467.379	7324
467.400	7525
467.446	8057
467.480	8425
467.559	8666
467.638	6013
467.717	6502
467.796	6132
467.875	7982
467.955	6826
468.034	10880
468.113	20562
468.192	29333
468.271	10304
468.350	9810
468.429	11223
468.508	12968
468.588	8962
468.667	8561
468.746	7524
468.825	8083
468.904	6577
468.983	7908
469.062	9427
469.141	11551
469.220	5807
469.299	6453
469.378	6693
469.456	8388
469.535	7462
469.614	7616
469.693	7204
469.772	8753
469.851	10484
469.930	8370
470.009	6598
470.088	7091
470.166	7372
470.245	9859
470.324	9714
470.403	8441
470.482	6742
470.560	6590
470.639	6158
470.718	6759
470.797	5758
470.875	6793
470.954	8721
471.033	9393
471.111	5656
471.190	6640
471.269	5403
471.347	5392
471.426	5486
471.505	7392
471.583	6926
471.662	6669
471.740	5691
471.819	7070
471.898	5716
471.976	5994
472.055	5175
472.133	6702
472.212	9233
472.290	8107
472.369	5219
472.447	5788
472.526	4288
472.604	6464
472.683	5388
472.761	5238
472.839	4641
472.918	6112
472.996	5010
473.075	6637
473.153	5540
473.231	6268
473.310	6174
473.388	6132
473.466	5771
473.545	6389
473.623	7571
473.701	6890
473.780	6059
473.858	5383
473.936	7555
474.014	5895
474.093	6101
474.171	9782
474.249	11341
474.327	7610
474.405	5356
474.484	6023
474.562	4443
474.640	4611
474.718	5562
474.796	5725
474.874	4600
474.952	4223
475.030	4507
475.108	5089
475.187	4507
475.265	5410
475.343	5465
475.421	7442
475.499	5512
475.577	5271
475.655	7603
475.733	11961
475.811	17908
475.889	16424
475.966	10948
476.044	5854
476.122	4880
476.200	5795
476.278	5089
476.356	6144
476.434	5057
476.512	5743
476.590	5715
476.667	6980
476.745	4996
476.823	6126
476.901	4954
476.979	5614
477.056	5106
477.134	5968
477.212	5112
477.290	5273
477.367	4701
477.445	5332
477.523	3549
477.601	4942
477.678	4201
477.756	5895
477.834	6166
477.911	5500
477.989	4807
478.066	4781
478.144	4902
478.222	5599
478.299	5367
478.377	5938
478.454	4563
478.532	4580
478.609	3324
478.687	5377
478.764	4440
478.842	5595
478.919	4510
478.997	4870
479.074	4199
479.152	5253
479.229	5402
479.307	5460
479.384	4845
479.461	5155
479.539	4198
479.616	5536
479.694	4512
479.771	4540
479.848	4638
479.926	6103
480.003	6290
480.080	4429
480.157	4136
480.235	4826
480.312	4228
480.389	5547
480.467	6392
480.544	8658
480.621	5299
480.698	5891
480.775	5646
480.853	6190
480.930	4148
481.007	5606
481.084	6870
481.161	9304
481.238	7512
481.315	4504
481.392	3499
481.470	5105
481.547	3840
481.624	4322
481.701	4434
481.778	4634
481.855	5309
481.932	7609
482.009	9441
482.086	7702
482.163	5072
482.240	6125
482.317	6982
482.393	6522
482.470	5478
482.547	5454
482.624	4417
482.701	5967
482.778	4160
482.855	5089
482.932	3940
483.009	4643
483.085	5365
483.162	7708
483.239	7898
483.316	5484
483.393	5501
483.469	5049
483.546	5399
483.623	6414
483.699	3603
483.776	5342
483.853	4321
483.930	6721
484.006	15498
484.083	26203
484.160	16849
484.236	25803
484.313	18577
484.389	14568
484.466	13932
484.543	13397
484.619	14491
484.696	16836
484.772	14396
484.849	15223
484.925	11459
485.002	12610
485.078	12923
485.155	11930
485.231	10681
485.308	11830
485.384	11994
485.461	13268
485.537	17551
485.614	21745
485.690	10820
485.766	10687
485.843	11364
485.919	12770
485.995	12238
486.072	10060
486.148	9985
486.224	10471
486.301	11367
486.377	11965
486.453	10001
486.530	12879
486.606	15641
486.682	17471
486.758	17294
486.835	19530
486.911	15597
486.987	23294
487.063	19590
487.139	20434
487.215	18457
487.292	15052
487.368	13082
487.444	14605
487.520	17783
487.596	21295
487.672	37769
487.748	101805
487.824	149459
487.900	45788
487.976	16691
488.052	14569
488.128	12866
488.204	11653
488.280	11688
488.356	13279
488.432	21237
488.508	28484
488.584	11520
488.660	9841
488.736	9368
488.812	10452
488.888	10985
488.964	13411
489.039	18018
489.115	24647
489.191	16107
489.267	10396
489.343	9140
489.418	9335
489.494	7724
489.570	7988
489.646	9648
489.722	8993
489.797	8010
489.873	12589
489.949	21803
490.024	19476
490.100	7654
490.176	8485
490.251	7987
490.327	9225
490.403	7014
490.478	7535
490.554	6796
490.629	7954
490.705	6856
490.781	8171
490.856	6208
490.932	8425
491.007	7479
491.083	8493
491.158	7084
491.234	9525
491.309	16413
491.385	16204
491.460	6524
491.536	8478
491.611	5874
491.686	7315
491.762	7521
491.837	12871
491.913	17211
491.988	23464
492.063	24757
492.139	13157
492.214	8639
492.289	6593
492.365	5335
492.440	6708
492.515	6008
492.590	6924
492.666	5636
492.741	8086
492.816	10747
492.891	6357
492.967	6836
493.042	5843
493.117	4887
493.192	7970
493.267	12554
493.342	42096
493.418	54225
493.493	9016
493.568	5674
493.643	5596
493.718	5870
493.793	8179
493.868	7211
493.943	6571
494.018	5766
494.093	5014
494.168	5241
494.243	5062
494.318	5060
494.393	5209
494.468	3893
494.543	4630
494.618	5022
494.693	5677
494.768	4448
494.842	6045
494.917	4675
494.992	5478
495.067	3837
495.142	5199
495.217	3800
495.292	5206
495.366	5072
495.441	6574
495.516	6095
495.591	8672
495.665	19547
495.740	40362
495.815	15080
495.890	6347
495.964	3922
496.039	8173
496.114	6467
496.188	8945
496.263	7621
496.338	6045
496.412	5644
496.487	7634
496.561	5686
496.636	6417
496.710	5510
496.785	5807
496.860	6444
496.934	5842
497.009	4847
497.083	6737
497.158	5433
497.232	5899
497.307	7177
497.381	6242
497.455	6504
497.530	9887
497.604	5754
497.679	7084
497.753	10182
497.827	12004
497.902	8298
497.976	13789
498.050	36577
498.125	145186
498.199	129521
498.273	13264
498.348	7574
498.422	7800
498.496	6423
498.570	7299
498.645	6520
498.719	6186
498.793	9021
498.867	13095
498.941	17890
499.016	59566
499.090	153131
499.164	44101
499.238	6352
499.312	6021
499.386	6397
499.460	7059
499.534	6000
499.609	9444
499.683	10665
499.757	11409
499.831	26004
499.905	99750
499.979	84036
500.053	12696
500.127	11785
500.201	7738
500.275	6142
500.349	6778
500.422	6980
500.496	9206
500.570	17386
500.644	50632
500.718	94988
500.792	18972
500.866	6786
500.940	8355
501.013	7100
501.087	7320
501.161	8783
501.235	12062
501.309	31082
501.382	85092
501.456	66124
501.530	14984
501.603	25351
501.677	11073
501.751	4367
501.825	8009
501.898	11802
501.972	34012
502.046	18312
502.119	5575
502.193	14056
502.266	34607
502.340	15768
502.413	17109
502.487	30314
502.561	15418
502.634	5828
502.708	6629
502.781	3392
502.855	5219
502.928	2892
503.002	5108
503.075	3922
503.149	4633
503.222	4055
503.295	5458
503.369	6399
503.442	8797
503.516	25737
503.589	59248
503.662	36159
503.736	12820
503.809	29412
503.882	24356
503.956	37597
504.029	39356
504.102	52369
504.175	75255
504.249	25331
504.322	11366
504.395	7760
504.468	5922
504.542	3909
504.615	3795
504.688	4285
504.761	3006
504.834	5517
504.907	5187
504.980	5584
505.053	4615
505.127	2447
505.200	7256
505.273	6196
505.346	4134
505.419	3520
505.492	4058
505.565	2239
505.638	2921
505.711	3261
505.784	2909
505.857	2619
505.930	4460
506.003	1875
506.076	5066
506.149	4029
506.221	4324
506.294	5905
506.367	13444
506.440	43928
506.513	20535
506.586	5774
506.659	3007
506.731	2706
506.804	3925
506.877	3161
506.950	4724
507.022	2526
507.095	3559
507.168	4405
507.241	4144
507.313	2463
507.386	2571
507.459	4716
507.531	3184
507.604	1982
507.677	3348
507.749	1127
507.822	5152
507.894	6943
507.967	11020
508.040	5862
508.112	6351
508.185	4438
508.257	4068
508.330	7015
508.402	4264
508.475	4934
508.547	5697
508.620	4553
508.692	7703
508.765	4945
508.837	4167
508.909	3918
508.982	4681
509.054	4624
509.127	4618
509.199	2877
509.271	4015
509.344	2603
509.416	4529
509.488	3997
509.560	3742
509.633	3970
509.705	5083
509.777	4176
509.849	6051
509.922	3782
509.994	4013
510.066	5106
510.138	3915
510.210	10917
510.283	8812
510.355	6554
510.427	6389
510.499	5251
510.571	6305
510.643	5201
510.715	8385
510.787	5404
510.859	6958
510.931	5911
511.003	6367
511.076	6772
511.148	5232
511.219	4617
511.291	8405
511.363	8052
511.435	5436
511.507	4543
511.579	5964
511.651	6047
511.723	4982
511.795	3572
511.867	5203
511.939	5287
512.010	9847
512.082	7275
512.154	4094
512.226	4300
512.298	8349
512.369	8789
512.441	8558
512.513	6980
512.585	5272
512.656	6200
512.728	5606
512.800	4964
512.871	6640
512.943	6290
513.015	4166
513.086	4988
513.158	6081
513.230	4719
513.301	6032
513.373	7310
513.444	5405
513.516	4785
513.588	4528
513.659	5286
513.731	5796
513.802	2633
513.874	8479
513.945	9025
514.016	5165
514.088	4891
514.159	4998
514.231	5686
514.302	8921
514.374	7234
514.445	6307
514.516	12550
514.588	8169
514.659	6356
514.730	9862
514.802	7661
514.873	3501
514.944	7149
515.016	5695
515.087	5229
515.158	7473
515.229	9469
515.301	4780
515.372	5717
515.443	4228
515.514	4133
515.585	3589
515.656	4926
515.728	5358
515.799	3925
515.870	5875
515.941	4984
516.012	4526
516.083	7915
516.154	6808
516.225	7985
516.296	7947
516.367	5940
516.438	7028
516.509	7907
516.580	12979
516.651	34398
516.722	105541
516.793	37918
516.864	11032
516.935	11710
517.006	13392
517.077	16541
517.148	37191
517.219	142336
517.289	193502
517.360	56040
517.431	19656
517.502	6874
517.573	9008
517.643	7540
517.714	8487
517.785	8599
517.856	9407
517.926	10758
517.997	11924
518.068	11044
518.138	17838
518.209	25436
518.280	99315
518.350	339097
518.421	98475
518.492	15733
518.562	12505
518.633	14383
518.703	17168
518.774	36506
518.845	96126
518.915	85409
518.986	22775
519.056	13618
519.127	13867
519.197	19490
519.268	45004
519.338	28715
519.408	9246
519.479	7817
519.549	7116
519.620	6695
519.690	5481
519.760	5400
519.831	4890
519.901	4425
519.971	4512
520.042	4054
520.112	4637
520.182	6168
520.253	6340
520.323	4149
520.393	6292
520.463	8395
520.534	4726
520.604	12594
520.674	7569
520.744	5817
520.814	11731
520.885	10792
520.955	17853
521.025	56357
521.095	19522
521.165	6119
521.235	5685
521.305	4010
521.375	4554
521.445	4128
521.515	4663
521.585	5444
521.655	4547
521.725	5478
521.795	6029
521.865	2836
521.935	8425
522.005	5681
522.075	3640
522.145	4656
522.215	4587
522.285	6109
522.355	8986
522.424	14447
522.494	11441
522.564	6520
522.634	9671
522.704	18922
522.774	7705
522.843	4710
522.913	4760
522.983	3819
523.053	4256
523.122	3902
523.192	5008
523.262	10329
523.331	8746
523.401	4649
523.471	4222
523.540	4706
523.610	3441
523.680	2827
523.749	4557
523.819	5491
523.888	5021
523.958	2994
524.027	4589
524.097	4138
524.166	3119
524.236	2547
524.305	5482
524.375	3083
524.444	3319
524.514	5176
524.583	4469
524.653	3824
524.722	5758
524.791	2915
524.861	5239
524.930	2321
524.999	4194
525.069	4890
525.138	3673
525.207	5015
525.277	5454
525.346	4032
525.415	4437
525.484	4973
525.554	4977
525.623	6281
525.692	8292
525.761	8104
525.830	9235
525.900	11122
525.969	17481
526.038	30638
526.107	66795
526.176	190083
526.245	140299
526.314	42322
526.383	97634
526.452	127091
526.522	214308
526.591	181397
526.660	31049
526.729	18089
526.797	22857
526.867	35159
526.935	131205
527.004	383993
527.073	204636
527.142	20934
527.211	9670
527.280	7575
527.349	7135
527.418	4492
527.487	5948
527.555	2497
527.624	4140
527.693	2400
527.762	4946
527.831	2239
527.899	3570
527.968	3264
528.037	1855
528.106	3877
528.174	5199
528.243	4903
528.312	6073
528.380	6974
528.449	3187
528.518	3852
528.586	2186
528.655	3577
528.723	3174
528.792	3095
528.861	2824
528.929	1954
528.998	4118
529.066	3080
529.135	6183
529.203	4606
529.272	6198
529.340	8991
529.409	9195
529.477	5918
529.545	7939
529.614	9649
529.682	8952
529.751	8726
529.819	13397
529.887	10785
529.956	10659
530.024	9539
530.092	8725
530.161	9666
530.229	9519
530.297	10607
530.365	10656
530.434	10364
530.502	10334
530.570	9148
530.638	6830
530.707	7672
530.775	9517
530.843	7412
530.911	8478
530.979	7996
531.047	8869
531.115	9480
531.183	9443
531.252	8541
531.320	8917
531.388	6747
531.456	10892
531.524	8134
531.592	11437
531.660	12075
531.728	9713
531.796	8726
531.864	9669
531.932	9457
532.000	9568
532.067	10554
532.135	11711
532.203	12262
532.271	11884
532.339	13976
532.407	18119
532.475	12081
532.542	11940
532.610	11526
532.678	12518
532.746	24810
532.814	44634
532.881	17228
532.949	13092
533.017	11041
533.084	10395
533.152	9463
533.220	10996
533.287	9157
533.355	11595
533.423	10384
533.490	10465
533.558	10615
533.625	10053
533.693	9178
533.761	10561
533.828	10077
533.896	9722
533.963	12955
534.031	13689
534.098	14935
534.166	12268
534.233	9914
534.300	12983
534.368	10902
534.435	10591
534.503	10891
534.570	11984
534.637	11001
534.705	13010
534.772	14494
534.840	23909
534.907	89958
534.974	102431
535.041	15488
535.109	11590
535.176	8785
535.243	10105
535.310	8754
535.378	7505
535.445	7758
535.512	8191
535.579	7897
535.646	7738
535.714	8009
535.781	9503
535.848	8990
535.915	10228
535.982	9324
536.049	9863
536.116	8268
536.183	8396
536.250	6784
536.317	7295
536.384	6922
536.451	8662
536.518	8855
536.585	6061
536.652	8982
536.719	9080
536.786	6458
536.853	7471
536.920	8653
536.987	9604
537.053	8386
537.120	22601
537.187	18690
537.254	7225
537.321	5904
537.388	7046
537.454	5203
537.521	6752
537.588	5912
537.654	7101
537.721	6517
537.788	7744
537.855	6326
537.921	7015
537.988	5682
538.055	6598
538.121	4350
538.188	6054
538.254	6605
538.321	8922
538.388	6307
538.454	5889
538.521	6631
538.587	7179
538.654	6002
538.720	6116
538.787	6181
538.853	6515
538.920	6418
538.986	6167
539.053	5420
539.119	6479
539.185	5825
539.252	7097
539.318	6637
539.385	8205
539.451	5754
539.517	8261
539.583	7231
539.650	9781
539.716	15487
539.782	7959
539.849	4821
539.915	6711
539.981	4917
540.047	5849
540.114	5255
540.180	7568
540.246	4926
540.312	6344
540.378	7972
540.444	9813
540.510	9093
540.576	17394
540.643	7948
540.709	5366
540.775	5578
540.841	5833
540.907	6749
540.973	8645
541.039	7976
541.105	7510
541.171	5706
541.237	5819
541.303	7596
541.369	8357
541.435	6612
541.500	8217
541.566	5338
541.632	5682
541.698	5103
541.764	7070
541.830	5212
541.896	5152
541.961	4965
542.027	5311
542.093	5191
542.159	6664
542.224	4318
542.290	8050
542.356	7653
542.421	9336
542.487	6431
542.553	5290
542.618	5443
542.684	6088
542.750	5158
542.815	7158
542.881	7213
542.947	15878
543.012	11379
543.078	5757
543.143	4410
543.209	6519
543.274	5026
543.340	6470
543.405	7779
543.471	9492
543.536	6381
543.602	6734
543.667	4207
543.732	7532
543.798	3613
543.863	6717
543.928	5467
543.994	5724
544.059	5377
544.124	6090
544.190	4934
544.255	6504
544.320	5917
544.386	5711
544.451	6951
544.516	7497
544.581	6442
544.646	12811
544.712	15937
544.777	8469
544.842	6848
544.907	7181
544.972	6491
545.037	7834
545.102	8471
545.168	6660
545.233	7839
545.298	8705
545.363	7949
545.428	9572
545.493	10856
545.558	14864
545.623	9476
545.688	8814
545.753	7573
545.818	7682
545.883	8111
545.947	8267
546.012	8685
546.077	8999
546.142	9638
546.207	8384
546.272	10083
546.337	9961
546.401	10770
546.466	11031
546.531	9534
546.596	11932
546.661	11493
546.725	11991
546.790	12339
546.855	13650
546.919	12163
546.984	16194
547.049	15946
547.113	19473
547.178	18553
547.243	22141
547.307	25255
547.372	28221
547.436	28301
547.501	29081
547.565	30797
547.630	29604
547.695	27172
547.759	29370
547.823	27332
547.888	28545
547.952	28833
548.017	30903
548.081	33336
548.146	34180
548.210	32621
548.274	33764
548.339	32162
548.403	30550
548.468	28550
548.532	27763
548.596	27895
548.660	29168
548.725	32850
548.789	35459
548.853	34906
548.917	33329
548.982	32530
549.046	30642
549.110	26563
549.174	27574
549.238	30148
549.303	33724
549.367	34569
549.431	33434
549.495	30455
549.559	31440
549.623	35202
549.687	40025
549.751	39962
549.815	45410
549.879	45932
549.943	43714
550.007	46171
550.071	47553
550.135	41711
550.199	39987
550.263	39890
550.327	39600
550.391	41105
550.455	43803
550.519	44288
550.582	48407
550.646	53822
550.710	55880
550.774	53613
550.838	53615
550.901	54667
550.965	60474
551.029	60972
551.093	68595
551.156	74242
551.220	87897
551.284	97187
551.347	72367
551.411	70771
551.475	67446
551.538	60723
551.602	57557
551.666	53229
551.729	49596
551.793	50342
551.856	49142
551.920	47338
551.983	49741
552.047	46619
552.110	47797
552.174	47782
552.237	49368
552.301	47441
552.364	45200
552.428	43415
552.491	45759
552.554	47136
552.618	45670
552.681	46718
552.745	45772
552.808	49910
552.871	54304
552.934	48832
552.998	47657
553.061	45107
553.124	44918
553.187	43629
553.251	45006
553.314	47450
553.377	47136
553.440	53689
553.503	73718
553.567	86707
553.630	53610
553.693	50214
553.756	50849
553.819	49521
553.882	48477
553.945	48738
554.008	49730
554.071	48997
554.134	50905
554.197	47534
554.260	47883
554.323	48100
554.386	48628
554.449	49833
554.512	50763
554.575	47452
554.638	47148
554.701	46846
554.764	48204
554.827	44537
554.889	43625
554.952	40825
555.015	40660
555.078	40872
555.141	42105
555.203	41385
555.266	42012
555.329	40897
555.391	38754
555.454	38524
555.517	38150
555.580	37322
555.642	35991
555.705	33679
555.768	35383
555.830	32916
555.893	32038
555.955	31628
556.018	30774
556.080	30475
556.143	32343
556.206	31663
556.268	31014
556.330	30403
556.393	29386
556.455	28399
556.518	30463
556.580	28655
556.643	26497
556.705	25542
556.767	25052
556.830	24900
556.892	24774
556.955	25348
557.017	24086
557.079	23753
557.142	23522
557.204	23137
557.266	26270
557.328	22499
557.391	19973
557.453	20191
557.515	20390
557.577	20905
557.639	21762
557.701	19926
557.764	20480
557.826	21463
557.888	23117
557.950	22789
558.012	27043
558.074	33677
558.136	68308
558.198	145975
558.260	53389
558.322	23810
558.384	26387
558.446	27407
558.508	30557
558.570	34381
558.632	41860
558.694	56643
558.756	92383
558.818	255707
558.880	539112
558.942	177848
559.003	155544
559.065	71926
559.127	32944
559.189	32337
559.251	37984
559.312	56859
559.374	132631
559.436	380116
559.498	171894
559.559	35172
559.621	32417
559.683	39910
559.744	67389
559.806	193080
559.868	265466
559.929	52520
559.991	36756
560.052	55472
560.114	147147
560.176	91489
560.237	86532
560.299	128069
560.360	30056
560.422	14206
560.483	13021
560.545	12475
560.606	12381
560.667	10597
560.729	10757
560.790	10594
560.852	11388
560.913	9417
560.974	10830
561.036	10050
561.097	10310
561.158	10293
561.220	10319
561.281	9035
561.342	10837
561.403	11196
561.465	10834
561.526	14837
561.587	15871
561.648	8898
561.709	9370
561.771	8666
561.832	8523
561.893	8231
561.954	9598
562.015	9048
562.076	9389
562.137	8003
562.198	9088
562.259	9060
562.320	8709
562.381	8738
562.442	9822
562.503	9295
562.564	8862
562.625	7567
562.686	8229
562.747	7657
562.808	9356
562.869	8448
562.930	10318
562.991	9016
563.051	9442
563.112	7929
563.173	8368
563.234	6869
563.294	9145
563.355	7067
563.416	9073
563.477	8249
563.537	8859
563.598	8733
563.659	7827
563.720	8654
563.780	9573
563.841	7950
563.901	9445
563.962	8141
564.023	8249
564.083	7615
564.144	8510
564.204	8053
564.265	8680
564.325	9084
564.386	13037
564.446	10927
564.507	7877
564.567	7641
564.628	7677
564.688	7181
564.749	8099
564.809	7536
564.869	9949
564.930	7524
564.990	8793
565.050	6765
565.111	7785
565.171	7389
565.231	8364
565.292	8674
565.352	7210
565.412	7886
565.472	8118
565.532	7040
565.593	7498
565.653	6978
565.713	7835
565.773	8327
565.833	8800
565.893	9340
565.953	8225
566.013	7516
566.074	8095
566.134	8657
566.194	11805
566.254	10967
566.314	9434
566.374	7456
566.434	7308
566.494	7824
566.554	8246
566.614	8097
566.673	9006
566.733	8136
566.793	9261
566.853	8872
566.913	8123
566.973	7060
567.033	8952
567.092	7601
567.152	8803
567.212	9143
567.272	8151
567.331	7658
567.391	8938
567.451	8746
567.511	11322
567.570	10278
567.630	8640
567.690	7957
567.749	9474
567.809	7706
567.868	9353
567.928	7893
567.988	9253
568.047	8696
568.107	8201
568.166	8362
568.226	9970
568.285	10369
568.345	10191
568.404	9258
568.464	9248
568.523	8189
568.582	9809
568.642	8813
568.701	10182
568.761	10169
568.820	12897
568.879	12096
568.939	12993
568.998	10699
569.057	10027
569.116	9084
569.176	8921
569.235	6921
569.294	9244
569.353	8289
569.413	8235
569.472	7627
569.531	7961
569.590	7730
569.649	8118
569.708	7532
569.767	9216
569.827	8718
569.886	8706
569.945	7091
570.004	8684
570.063	7926
570.122	8539
570.181	8132
570.240	9143
570.299	8600
570.358	9368
570.417	8419
570.475	9023
570.534	9140
570.593	9229
570.652	8162
570.711	8915
570.770	8437
570.829	9113
570.887	8941
570.946	9740
571.005	8115
571.064	9471
571.122	9444
571.181	9049
571.240	8703
571.299	8983
571.357	8966
571.416	9325
571.475	8232
571.533	10584
571.592	8349
571.650	9491
571.709	8148
571.768	9514
571.826	9750
571.885	9827
571.943	8329
572.002	8292
572.060	7728
572.119	8430
572.177	7854
572.236	8332
572.294	7920
572.352	9557
572.411	8120
572.469	7835
572.528	7446
572.586	8462
572.644	8659
572.703	10037
572.761	8677
572.819	8423
572.877	8924
572.936	8414
572.994	8294
573.052	8812
573.110	7073
573.169	8952
573.227	7121
573.285	8489
573.343	7773
573.401	8000
573.459	7950
573.517	8877
573.576	7972
573.634	8778
573.692	8582
573.750	8624
573.808	8763
573.866	9509
573.924	7810
573.982	9338
574.040	8549
574.098	8157
574.155	7953
574.213	7980
574.271	7741
574.329	8823
574.387	6849
574.445	7875
574.503	7053
574.560	7769
574.618	7039
574.676	7550
574.734	6991
574.792	8885
574.849	6930
574.907	6697
574.965	6573
575.022	6389
575.080	7195
575.138	7890
575.195	6410
575.253	7442
575.311	7594
575.368	7504
575.426	6089
575.483	7616
575.541	7642
575.598	6687
575.656	6559
575.713	6627
575.771	6972
575.828	8129
575.886	6530
575.943	7008
576.001	6980
576.058	7639
576.115	7926
576.173	8473
576.230	7840
576.287	8974
576.345	7534
576.402	8038
576.459	7115
576.517	8598
576.574	7740
576.631	8557
576.688	6757
576.746	7875
576.803	7318
576.860	7879
576.917	7043
576.974	7150
577.031	6695
577.089	7097
577.146	7637
577.203	7731
577.260	7057
577.317	7058
577.374	8078
577.431	8284
577.488	6863
577.545	8301
577.602	7885
577.659	8213
577.716	7839
577.773	8955
577.830	7262
577.886	8559
577.943	7365
578.000	8484
578.057	8307
578.114	10103
578.171	10836
578.227	12173
578.284	13264
578.341	10821
578.398	9917
578.454	9765
578.511	8838
578.568	10362
578.625	8423
578.681	7588
578.738	7989
578.794	8300
578.851	7143
578.908	8513
578.964	6896
579.021	8593
579.077	7853
579.134	7863
579.190	8076
579.247	8731
579.303	7278
579.360	7099
579.416	7448
579.473	8193
579.529	6629
579.586	7966
579.642	8486
579.698	8642
579.755	8749
579.811	9638
579.867	9156
579.924	9301
579.980	10425
580.036	12344
580.093	13761
580.149	18755
580.205	21258
580.261	17937
580.317	13396
580.374	13494
580.430	12375
580.486	12287
580.542	10041
580.598	9908
580.619	9912
580.654	9903
580.692	9922
580.710	9915
580.765	9938
580.767	9921
580.823	10201
580.838	10250
580.879	10353
580.911	10449
580.935	10471
580.984	10118
580.991	10057
581.047	12089
581.057	12104
581.103	12085
581.130	12662
581.159	13237
581.203	13326
581.215	13286
581.270	13066
581.276	13027
581.326	12523
581.349	12782
581.382	13026
581.422	12404
581.438	12168
581.494	13219
581.494	13227
581.550	11683
581.567	12566
581.606	14416
581.640	13250
581.661	12487
581.713	14286
581.717	14416
581.773	13232
581.786	13544
581.829	14426
581.859	14177
581.885	13970
581.932	14558
581.940	14626
581.996	14305
582.004	14536
582.052	15662
582.077	15244
582.107	14706
582.150	16377
582.163	16888
582.219	17166
582.223	17216
582.274	17467
582.296	17361
582.330	17141
582.368	18360
582.386	18888
582.441	18731
582.441	18712
582.497	19029
582.514	18977
582.552	19187
582.587	20474
582.608	21003
582.659	20173
582.663	20102
582.719	21910
582.732	21847
582.774	21767
582.805	22343
582.830	22852
582.877	23827
582.885	24115
582.941	27530
582.950	28076
582.996	31260
583.023	33438
583.052	35414
583.095	37236
583.107	37520
583.162	38467
583.168	38606
583.218	38329
583.240	37754
583.273	36316
583.313	33164
583.328	32312
583.384	31652
583.385	31574
583.439	28988
583.458	28795
583.494	29018
583.531	27956
583.549	27360
583.603	27937
583.605	27967
583.660	27524
583.676	27700
583.715	28368
583.748	28196
583.770	28197
583.820	28680
583.825	28722
583.881	28632
583.893	28670
583.936	28979
583.965	29016
583.991	29041
584.038	30294
584.046	30598
584.101	30271
584.110	30488
584.156	31886
584.183	32327
584.211	32550
584.255	32675
584.266	32890
584.321	33712
584.328	33850
584.376	34899
584.400	35176
584.431	35655
584.472	36305
584.486	36767
584.541	37324
584.545	37437
584.596	39247
584.617	39105
584.651	39337
584.689	40794
584.706	41625
584.761	42678
584.762	42632
584.816	44143
584.834	44199
584.871	44016
584.906	44230
584.926	44585
584.978	44962
584.980	45057
585.035	47188
585.051	47337
585.090	48175
585.123	49132
585.145	49779
585.195	50251
585.200	50468
585.254	53645
585.267	54337
585.309	57674
585.340	60371
585.364	63006
585.412	67036
585.419	67746
585.473	74756
585.484	76875
585.528	92605
585.556	105931
585.583	134943
585.628	194816
585.637	221209
585.692	415904
585.700	449311
585.747	573743
585.772	547211
585.801	382064
585.845	166945
585.856	144535
585.910	88830
585.917	82742
585.965	73894
585.989	70439
586.019	69043
586.061	66426
586.074	65856
586.128	63919
586.133	63610
586.183	62046
586.205	61148
586.237	60480
586.277	59198
586.292	59098
586.346	58711
586.349	58489
586.401	56743
586.421	56393
586.455	56895
586.493	56957
586.509	58139
586.564	61341
586.565	61328
586.618	72297
586.637	74357
586.672	70350
586.709	64866
586.727	63861
586.781	63382
586.781	63543
586.835	58170
586.853	57050
586.889	55979
586.925	54138
586.944	53915
586.996	54233
586.998	54425
587.052	54504
587.068	54518
587.106	55176
587.140	55113
587.161	55159
587.212	54955
587.215	55193
587.269	56157
587.284	56636
587.323	57947
587.356	58088
587.377	58555
587.427	59464
587.431	59741
587.485	59989
587.499	60244
587.539	61866
587.571	61927
587.593	62701
587.643	64872
587.648	65279
587.702	67109
587.715	67462
587.755	68158
587.786	67767
587.810	68240
587.858	68758
587.864	69223
587.917	71905
587.930	72265
587.971	74335
588.001	75242
588.025	75848
588.073	76856
588.079	77457
588.133	78773
588.145	79447
588.187	83607
588.217	85289
588.241	87783
588.288	92125
588.295	93265
588.348	100114
588.360	101413
588.402	108346
588.431	112153
588.456	116737
588.503	126154
588.510	128401
588.564	142893
588.575	145672
588.617	162302
588.646	173538
588.671	190060
588.718	222570
588.725	233721
588.778	319846
588.789	338353
588.832	529746
588.861	665471
588.886	875747
588.932	1292580
588.939	1319822
588.993	1468653
589.004	1470800
589.047	1066723
589.075	798678
589.100	630547
589.147	342862
589.154	332670
589.207	252370
589.218	235709
589.261	224992
589.290	217441
589.314	226644
589.361	245292
589.368	258297
589.421	363524
589.433	386574
589.475	642968
589.504	828606
589.528	1010204
589.576	1363691
589.582	1334106
589.635	935444
589.647	846123
589.689	511654
589.718	288513
589.742	247796
589.790	168715
589.795	166927
589.849	145050
589.861	139860
589.902	135709
589.932	130892
589.955	124729
590.004	110301
590.009	110135
590.062	104234
590.075	102297
590.115	101055
590.146	99567
590.168	99325
590.218	97512
590.222	97899
590.275	97572
590.289	97116
590.328	98207
590.360	98123
590.381	98214
590.431	97331
590.435	97758
590.488	97700
590.503	97404
590.541	98442
590.574	98342
590.594	99310
590.645	100666
590.647	101129
590.700	101380
590.716	101189
590.753	103027
590.787	103671
590.806	104837
590.859	106416
590.859	106888
590.912	107023
590.930	106617
590.965	108186
591.001	108627
591.018	108943
591.071	108485
591.072	107999
591.124	108875
591.143	108534
591.177	109586
591.214	109651
591.230	111253
591.283	115008
591.285	114640
591.336	114105
591.356	113172
591.389	113187
591.427	112042
591.442	112526
591.495	112633
591.498	112117
591.547	112395
591.569	111880
591.600	113035
591.640	113244
591.653	114357
591.706	116981
591.711	116720
591.759	119750
591.782	120572
591.811	124016
591.853	127568
591.864	127864
591.917	126372
591.924	125570
591.969	126843
591.995	126711
592.022	127697
592.066	127684
592.075	129139
592.127	134556
592.137	134926
592.180	139083
592.208	140743
592.233	140361
592.279	137742
592.285	138543
592.338	139876
592.350	139526
592.390	139618
592.421	138557
592.443	140211
592.491	141724
592.495	142534
592.548	144482
592.562	144337
592.600	145554
592.633	145337
592.653	145777
592.704	144317
592.705	145208
592.775	147920
592.846	150264
592.916	152312
592.987	155172
593.058	154278
593.128	155784
593.199	156385
593.270	157634
593.341	158282
593.411	162297
593.482	167170
593.553	170583
593.623	169390
593.694	176029
593.764	178872
593.835	177198
593.906	179799
593.976	181845
594.047	187227
594.117	197027
594.188	199548
594.258	196384
594.329	195202
594.399	199405
594.470	203849
594.540	209725
594.611	212129
594.681	211997
594.751	213944
594.822	220917
594.892	228407
594.963	234563
595.033	239091
595.103	245270
595.174	246262
595.244	262030
595.314	276092
595.384	263065
595.455	269019
595.525	276666
595.595	285154
595.665	286099
595.736	281748
595.806	286080
595.876	290460
595.946	290450
596.016	300632
596.087	313936
596.157	311817
596.227	314717
596.297	329070
596.367	347327
596.437	365987
596.507	369334
596.577	377783
596.647	376306
596.717	390242
596.787	395316
596.857	396271
596.927	399378
596.997	403852
597.067	410127
597.137	418918
597.207	419961
597.277	423893
597.347	410737
597.417	404482
597.487	403893
597.557	415789
597.626	425039
597.696	433720
597.766	437244
597.836	426861
597.906	405833
597.975	397613
598.045	404381
598.115	416387
598.185	443034
598.254	480731
598.324	517260
598.394	526834
598.464	515267
598.533	514653
598.603	490865
598.672	481847
598.742	494934
598.812	500687
598.881	509350
598.951	510854
599.020	522155
599.090	535411
599.159	547636
599.229	537316
599.299	531098
599.368	548191
599.437	549994
599.507	525918
599.576	520907
599.646	520773
599.715	522794
599.785	522091
599.854	520048
599.924	522959
599.993	526315
600.062	536924
600.132	549400
600.201	570289
600.270	630440
600.340	659193
600.409	657354
600.478	663977
600.547	680495
600.617	655458
600.686	590075
600.755	569776
600.824	565920
600.894	569956
600.963	576717
601.032	587743
601.101	591819
601.170	589896
601.239	593335
601.308	598461
601.378	612390
601.447	623396
601.516	635859
601.585	648379
601.654	668184
601.723	677045
601.792	695497
601.861	715608
601.930	752294
601.999	775488
602.068	766813
602.137	776123
602.206	783929
602.275	788244
602.343	796519
602.412	800618
602.481	811926
602.550	813712
602.619	826254
602.688	820996
602.756	845581
602.825	832235
602.894	859877
602.963	848086
603.032	864885
603.100	869660
603.169	845907
603.238	885235
603.307	841295
603.375	849351
603.444	891800
603.513	825050
603.581	849692
603.650	899110
603.719	765466
603.787	731602
603.856	747167
603.924	762240
603.993	778177
604.061	803058
604.130	824285
604.198	843483
604.267	849684
604.335	868896
604.404	868576
604.472	895238
604.541	895533
604.609	923790
604.678	948858
604.746	957265
604.815	997796
604.883	970697
604.951	946642
605.020	969050
605.088	915216
605.156	872755
605.225	872121
605.293	866511
605.361	876280
605.429	866707
605.498	888610
605.566	879672
605.634	919088
605.702	917683
605.771	933061
605.839	955820
605.907	892130
605.975	923387
606.043	886472
606.111	855389
606.180	930683
606.248	855271
606.316	835715
606.384	907578
606.452	753570
606.520	646567
606.588	652604
606.656	660738
606.724	650658
606.792	617778
606.860	566040
606.928	522541
606.996	504648
607.064	495139
607.132	508800
607.200	530808
607.267	552952
607.335	561195
607.403	575376
607.471	560929
607.539	540441
607.607	546526
607.674	488991
607.742	484646
607.810	481711
607.878	480374
607.946	486390
608.013	507475
608.081	513971
608.149	515633
608.216	531834
608.284	547983
608.352	543963
608.419	542300
608.487	531307
608.555	512008
608.622	527134
608.690	546933
608.757	591608
608.825	603912
608.893	591705
608.960	560992
609.028	542521
609.095	546849
609.163	541229
609.230	489424
609.298	444530
609.365	466702
609.432	499671
609.500	535929
609.567	611816
609.635	694084
609.702	731846
609.769	705251
609.837	561515
609.904	479877
609.971	483665
610.039	511310
610.106	580667
610.173	860189
610.241	1579683
610.308	1273023
610.375	711495
610.442	544729
610.509	502656
610.577	497323
610.644	507466
610.711	518898
610.778	533948
610.845	553742
610.912	587200
610.980	611400
611.047	620749
611.114	604972
611.181	582378
611.248	577438
611.315	605772
611.382	622038
611.449	643389
611.516	650786
611.583	640549
611.650	644293
611.717	649046
611.784	656705
611.851	672453
611.918	687063
611.984	744898
612.051	884201
612.118	1289038
612.185	2284953
612.252	1855446
612.319	923823
612.386	812953
612.452	761223
612.519	727386
612.586	725503
612.653	730773
612.719	755240
612.786	731547
612.853	685439
612.919	673080
612.986	678819
613.053	652722
613.120	613063
613.186	592507
613.253	590445
613.319	595573
613.386	602040
613.453	607696
613.519	616687
613.586	604924
613.652	615052
613.719	606102
613.785	613694
613.852	621175
613.918	618244
613.985	618882
614.051	654241
614.118	669713
614.184	650845
614.250	615853
614.317	632117
614.383	619663
614.449	633831
614.516	627098
614.582	634916
614.648	625833
614.715	618104
614.781	608185
614.847	606730
614.914	611072
614.980	592601
615.046	591603
615.112	607999
615.179	611174
615.245	618221
615.311	612394
615.377	614103
615.443	625433
615.509	626697
615.575	638350
615.642	631936
615.708	648011
615.774	666781
615.840	691963
615.906	702457
615.972	760778
616.038	929362
616.104	1443003
616.170	2459807
616.236	2350098
616.302	1135736
616.368	922797
616.434	769787
616.500	716736
616.565	735588
616.631	835514
616.697	771357
616.763	761116
616.829	922190
616.895	1342689
616.961	1372918
617.026	842996
617.092	676802
617.158	652973
617.224	644024
617.289	602536
617.355	581135
617.421	581566
617.487	579342
617.552	557157
617.618	552020
617.684	552219
617.749	554398
617.815	537445
617.880	527286
617.946	525327
618.012	537234
618.077	551030
618.143	528486
618.208	533281
618.274	566373
618.339	577557
618.405	493727
618.470	490893
618.536	492500
618.601	489222
618.667	464285
618.732	443297
618.798	435845
618.863	437447
618.928	430099
618.994	435285
619.059	430439
619.124	440110
619.190	433764
619.255	432462
619.320	432632
619.386	438730
619.451	435242
619.516	424517
619.581	429986
619.647	444154
619.712	444954
619.777	429434
619.842	430203
619.907	437787
619.972	443040
620.038	443440
620.103	432943
620.168	433428
620.233	439506
620.298	440539
620.363	444241
620.428	454491
620.493	466071
620.558	467280
620.623	472562
620.688	474044
620.753	468745
620.818	481497
620.883	484631
620.948	484134
621.013	477763
621.078	473283
621.143	479864
621.207	484131
621.272	476174
621.337	469038
621.402	468187
621.467	470580
621.532	472305
621.596	471485
621.661	456765
621.726	454611
621.791	458314
621.855	460532
621.920	457863
621.985	461148
622.049	472398
622.114	472488
622.179	478358
622.243	484530
622.308	498650
622.373	508952
622.437	505543
622.502	485051
622.566	479043
622.631	479275
622.695	485788
622.760	484237
622.824	480631
622.889	484045
622.953	483190
623.018	508015
623.082	514464
623.147	505221
623.211	494176
623.276	493246
623.340	477811
623.404	468653
623.469	469199
623.533	477422
623.597	465611
623.662	461233
623.726	438873
623.790	419631
623.854	411670
623.919	416642
623.983	417244
624.047	417725
624.111	423914
624.176	431359
624.240	435805
624.304	446082
624.368	429284
624.432	426927
624.496	432194
624.560	449290
624.625	458268
624.689	451239
624.753	468809
624.817	448080
624.881	439316
624.945	408292
625.009	395867
625.073	399527
625.137	410442
625.201	423341
625.265	422724
625.329	407958
625.393	409414
625.456	404974
625.520	414891
625.584	424038
625.648	435669
625.712	454649
625.776	499030
625.839	492857
625.903	383623
625.967	346157
626.031	373802
626.095	445194
626.158	391588
626.222	322471
626.286	299380
626.349	295682
626.413	280310
626.477	276864
626.540	274989
626.604	275513
626.668	270954
626.731	269369
626.795	271992
626.858	266077
626.922	261610
626.986	256879
627.049	257298
627.113	266885
627.176	262493
627.240	253431
627.303	250317
627.366	245248
627.430	249822
627.493	248582
627.557	246478
627.620	249804
627.684	250091
627.747	252051
627.810	234868
627.874	216007
627.937	210724
628.000	218140
628.064	213997
628.127	192577
628.190	187388
628.253	185800
628.317	180842
628.380	174354
628.443	171220
628.506	170954
628.569	160967
628.632	156030
628.696	155095
628.759	155696
628.822	149786
628.885	147070
628.948	146015
629.011	142949
629.074	139880
629.137	137606
629.200	135709
629.263	135289
629.326	130514
629.389	131711
629.452	131355
629.515	130068
629.578	127979
629.641	129098
629.704	129046
629.767	129105
629.830	124907
629.892	121777
629.955	119542
630.018	124733
630.081	122162
630.144	121978
630.207	117569
630.269	121842
630.332	118660
630.395	117110
630.458	113051
630.520	110372
630.583	110701
630.646	112352
630.708	111691
630.771	113921
630.834	117231
630.896	115241
630.959	114021
631.021	111510
631.084	112651
631.146	114219
631.209	115882
631.272	110342
631.334	112242
631.397	113261
631.459	111206
631.522	112877
631.584	113679
631.646	116719
631.709	116925
631.771	120050
631.834	114768
631.896	113231
631.958	107940
632.021	109918
632.083	107510
632.145	108161
632.208	107556
632.270	106557
632.332	105699
632.395	104828
632.457	107029
632.519	106237
632.581	105307
632.643	104096
632.706	104762
632.768	102440
632.830	104177
632.892	107512
632.954	106755
633.016	110128
633.078	105745
633.141	105726
633.203	105800
633.265	103717
633.327	101619
633.389	103615
633.451	105316
633.513	106100
633.575	108273
633.637	104796
633.698	105999
633.760	108105
633.822	110107
633.884	110583
633.946	109812
634.008	112054
634.070	111338
634.132	116342
634.193	117338
634.255	119743
634.317	119846
634.379	122420
634.441	114662
634.502	112060
634.564	105025
634.626	102309
634.687	99836
634.749	98766
634.811	99372
634.873	96788
634.934	96053
634.996	99367
635.057	98046
635.119	98783
635.181	100716
635.242	99101
635.304	96890
635.365	102090
635.427	99522
635.488	99757
635.550	97595
635.611	97842
635.673	95701
635.734	101697
635.796	102114
635.857	106829
635.918	107540
635.980	112562
636.041	115711
636.102	118570
636.164	116908
636.225	115319
636.286	107352
636.348	103946
636.409	97991
636.470	96869
636.531	96746
636.593	97162
636.654	96384
636.715	92935
636.776	91866
636.838	91396
636.899	91380
636.960	91093
637.021	89847
637.082	89051
637.143	88941
637.204	87125
637.265	86362
637.326	88627
637.387	89467
637.448	89143
637.509	88997
637.570	88553
637.631	88143
637.692	85149
637.753	82989
637.814	85804
637.875	85373
637.936	85872
637.997	85482
638.058	86428
638.119	86473
638.179	87045
638.240	84510
638.301	85648
638.362	83310
638.423	84358
638.483	82599
638.544	80399
638.605	83000
638.666	82895
638.726	82789
638.787	82762
638.848	82213
638.908	80987
638.969	79339
639.030	79475
639.090	78021
639.151	79116
639.211	80183
639.272	82000
639.332	86265
639.393	82644
639.453	79442
639.514	81998
639.574	77805
639.635	75954
639.695	75674
639.756	75663
639.816	74106
639.877	75814
639.937	77927
639.997	81083
640.058	75437
640.118	73545
640.178	74955
640.239	75231
640.299	74002
640.359	74469
640.420	76635
640.480	78380
640.540	81617
640.600	82086
640.661	80952
640.721	81646
640.781	88135
640.841	89590
640.901	76384
640.961	75451
641.021	75871
641.082	78001
641.142	77283
641.202	74517
641.262	71557
641.322	73726
641.382	71620
641.442	72585
641.502	70145
641.562	73079
641.622	72744
641.682	75039
641.742	77087
641.802	75539
641.861	71579
641.921	70728
641.981	69787
642.041	67862
642.101	68624
642.161	66491
642.221	66703
642.280	66765
642.340	66104
642.400	67268
642.460	69051
642.519	70771
642.579	69657
642.639	70174
642.698	67492
642.758	72377
642.818	71054
642.877	69774
642.937	70156
642.997	70489
643.056	72537
643.116	69290
643.175	70641
643.235	69986
643.294	71313
643.354	72874
643.414	74695
643.473	78459
643.532	84024
643.592	95878
643.651	121176
643.711	177228
643.770	300973
643.830	643292
643.889	1220228
643.948	434126
644.008	126672
644.067	93527
644.126	79307
644.186	73933
644.245	70094
644.304	66466
644.363	68416
644.423	64833
644.482	65469
644.541	68486
644.600	66628
644.659	75102
644.719	82626
644.778	101835
644.837	143969
644.896	248068
644.955	540070
645.014	226495
645.073	87776
645.132	73069
645.191	70041
645.250	69152
645.309	69657
645.368	72774
645.427	81600
645.486	108076
645.545	165538
645.604	81250
645.663	64296
645.722	65382
645.781	67580
645.840	68617
645.898	74536
645.957	87916
646.016	110099
646.075	168366
646.134	288578
646.192	666273
646.251	979376
646.310	236533
646.369	98105
646.427	85674
646.486	73637
646.545	67081
646.603	62465
646.662	62038
646.721	58153
646.779	58626
646.838	59177
646.896	64619
646.955	73305
647.014	98525
647.072	152625
647.131	370486
647.189	210775
647.248	65275
647.306	58657
647.365	57081
647.423	51863
647.481	54133
647.540	51009
647.598	52546
647.657	51419
647.715	50861
647.773	49669
647.832	50149
647.890	48414
647.948	48130
648.007	48493
648.065	45632
648.123	45066
648.181	47605
648.240	49064
648.298	47975
648.356	45667
648.414	46896
648.472	45207
648.531	44419
648.589	43554
648.647	43717
648.705	43037
648.763	43551
648.821	44079
648.879	43884
648.937	45449
648.995	47715
649.053	51986
649.111	65167
649.169	87732
649.227	140730
649.285	258607
649.343	681225
649.401	377793
649.459	85511
649.516	61673
649.574	55168
649.632	65079
649.690	73691
649.748	62721
649.806	78247
649.863	123505
649.921	265465
649.979	199555
650.037	52010
650.094	39849
650.152	40086
650.210	38475
650.268	39731
650.325	40639
650.383	46321
650.440	36646
650.498	36153
650.556	34515
650.613	33260
650.671	34574
650.728	35043
650.786	35287
650.843	39186
650.901	34733
650.958	32945
651.016	31524
651.073	32165
651.131	31603
651.188	31219
651.246	31099
651.303	30412
651.360	29877
651.418	30682
651.475	29406
651.532	29487
651.590	29344
651.647	28921
651.704	29758
651.762	28745
651.819	28993
651.876	28769
651.933	28258
651.990	29715
652.048	26786
652.105	28401
652.162	27705
652.219	26587
652.276	28039
652.333	28207
652.390	25209
652.448	26630
652.505	26859
652.562	27428
652.619	27949
652.676	32690
652.733	33437
652.790	25919
652.847	24175
652.904	26418
652.961	23768
653.017	24972
653.074	25957
653.131	25328
653.188	23410
653.245	25763
653.302	24660
653.359	24894
653.415	24579
653.472	23836
653.529	25445
653.586	22823
653.642	23765
653.699	24564
653.756	23611
653.813	23984
653.869	24594
653.926	24600
653.983	23086
654.039	24119
654.096	24230
654.152	25920
654.209	22862
654.266	24190
654.322	22690
654.379	24897
654.435	24575
654.492	24631
654.548	27029
654.605	29057
654.661	26873
654.717	25065
654.774	23960
654.830	23915
654.887	23934
654.943	25726
655.000	28479
655.056	26514
655.112	23821
655.168	24478
655.225	23709
655.281	25100
655.337	25951
655.394	29251
655.450	26300
655.506	25777
655.562	28871
655.618	28466
655.675	22188
655.731	24210
655.787	23481
655.843	23215
655.899	22313
655.955	24173
656.011	23358
656.067	22501
656.123	24230
656.179	24049
656.235	24157
656.291	22809
656.347	23562
656.403	23084
656.459	22398
656.515	23542
656.571	24472
656.627	24385
656.683	23275
656.739	24095
656.795	23107
656.850	23243
656.906	23746
656.962	24322
657.018	22996
657.074	25604
657.129	29302
657.185	37697
657.241	65642
657.297	45889
657.352	25108
657.408	23974
657.464	24215
657.519	22978
657.575	20964
657.630	22454
657.686	22790
657.742	22663
657.797	23141
657.853	22566
657.908	23602
657.964	20856
658.019	22055
658.075	22807
658.130	22162
658.186	21240
658.241	21942
658.297	21241
658.352	21431
658.407	22236
658.463	20341
658.518	21498
658.573	21544
658.629	20901
658.684	20081
658.739	21687
658.795	21433
658.850	21512
658.905	20287
658.960	21564
659.016	20932
659.071	21857
659.126	21608
659.181	21372
659.236	22054
659.291	23702
659.346	22163
659.401	23148
659.457	24014
659.512	26336
659.567	22620
659.622	21505
659.677	20651
659.732	21048
659.787	20869
659.842	21661
659.897	22960
659.952	22280
660.007	21091
660.061	21434
660.116	20065
660.171	21484
660.226	20745
660.281	21953
660.336	19823
660.391	21717
660.445	19900
660.500	20753
660.555	20764
660.610	21009
660.664	20463
660.719	20348
660.774	20457
660.828	21106
660.883	19662
660.938	20945
660.992	19641
661.047	20499
661.101	19999
661.156	19712
661.211	18665
661.265	19797
661.320	19890
661.374	21048
661.429	19462
661.483	20757
661.538	19664
661.592	21091
661.647	21262
661.701	24887
661.755	20992
661.810	20250
661.864	19663
661.919	19279
661.973	21155
662.027	20480
662.081	18877
662.136	20193
662.190	19584
662.244	21108
662.299	19859
662.353	19546
662.407	19031
662.461	20511
662.515	19821
662.569	19556
662.624	19596
662.678	19252
662.732	18913
662.786	19540
662.840	19858
662.894	20334
662.948	18622
663.002	19399
663.056	18791
663.110	18380
663.164	18558
663.218	19712
663.272	19141
663.326	19731
663.380	18467
663.434	19354
663.488	18709
663.542	18913
663.595	19028
663.649	19057
663.703	18888
663.757	19488
663.811	18284
663.864	17916
663.918	18250
663.972	18663
664.026	18269
664.079	18208
664.133	20263
664.187	18980
664.240	18396
664.294	18379
664.348	19586
664.401	19264
664.455	16828
664.508	18536
664.562	18486
664.615	17714
664.669	16869
664.722	18159
664.776	17611
664.829	18635
664.883	17680
664.936	18273
664.990	18430
665.043	20111
665.097	18543
665.150	20872
665.203	18228
665.257	18463
665.310	18547
665.363	19688
665.417	18743
665.470	19181
665.523	19133
665.576	19579
665.630	18642
665.683	19731
665.736	18601
665.789	19601
665.842	17584
665.895	18602
665.949	18520
666.002	19195
666.055	17942
666.108	19703
666.161	18930
666.214	19134
666.267	19303
666.320	18915
666.373	18720
666.426	19669
666.479	18744
666.532	20555
666.585	19473
666.638	20829
666.691	19150
666.744	20447
666.796	19420
666.849	19683
666.902	20379
666.955	19830
667.008	18104
667.060	18840
667.113	18692
667.166	19888
667.219	19291
667.271	19232
667.324	19378
667.377	18603
667.430	19349
667.482	21208
667.535	19793
667.587	19885
667.640	18346
667.693	19892
667.745	19949
667.798	22016
667.850	18362
667.903	19273
667.955	18124
668.008	19376
668.060	20309
668.113	20773
668.165	19694
668.218	20742
668.270	19357
668.322	20201
668.375	19366
668.427	19763
668.479	17635
668.532	19753
668.584	18546
668.636	18739
668.689	18845
668.741	18259
668.793	18299
668.845	19170
668.898	19127
668.950	19023
669.002	18917
669.054	19201
669.106	18409
669.158	19229
669.211	18481
669.263	19106
669.315	20281
669.367	20284
669.419	19191
669.471	21460
669.523	20295
669.575	23131
669.627	20245
669.679	19642
669.731	18998
669.783	19733
669.835	19405
669.886	20556
669.938	19909
669.990	19934
670.042	18793
670.094	19213
670.146	20170
670.197	22151
670.249	24183
670.301	26563
670.353	32011
670.404	39280
670.456	50769
670.508	73270
670.560	112086
670.611	186224
670.663	318530
670.715	653775
670.766	875400
670.818	391668
670.869	107220
670.921	58939
670.972	42770
671.024	34867
671.075	29269
671.127	25026
671.178	23672
671.230	24039
671.281	21883
671.333	22741
671.384	22657
671.436	24484
671.487	28277
671.538	32264
671.590	42455
671.641	61548
671.692	95727
671.744	169140
671.795	130659
671.846	55478
671.897	33461
671.949	26415
672.000	22132
672.051	20482
672.102	20069
672.153	18998
672.204	18419
672.256	19021
672.307	17396
672.358	18203
672.409	17250
672.460	16770
672.511	15789
672.562	17042
672.613	15673
672.664	14884
672.715	16318
672.766	15688
672.817	15368
672.868	15154
672.919	14470
672.970	14536
673.021	14976
673.071	14223
673.122	14589
673.173	15056
673.224	15323
673.275	14655
673.326	14044
673.376	14857
673.427	13987
673.478	14509
673.528	14868
673.579	14861
673.630	13911
673.680	15379
673.731	13954
673.782	14162
673.832	14819
673.883	14916
673.934	13445
673.984	14533
674.035	14837
674.085	14189
674.136	14109
674.186	14874
674.237	14630
674.287	17611
674.338	15433
674.388	15105
674.438	13411
674.489	15219
674.539	14163
674.589	14636
674.640	15072
674.690	14613
674.740	14399
674.791	14482
674.841	15202
674.891	13976
674.942	13257
674.992	13415
675.042	12278
675.092	12395
675.142	12108
675.193	11925
675.243	12997
675.293	13756
675.343	12628
675.393	13169
675.443	13786
675.493	13246
675.543	12493
675.593	14095
675.643	13179
675.693	13978
675.743	12852
675.793	13683
675.843	11966
675.893	13253
675.943	12258
675.993	12682
676.043	12694
676.093	13832
676.142	12283
676.192	13371
676.242	12746
676.292	12364
676.341	12841
676.391	12443
676.441	12260
676.491	12435
676.540	11461
676.590	11903
676.640	12069
676.689	12060
676.739	11016
676.789	11458
676.838	11234
676.888	11879
676.937	11021
676.987	10884
677.037	11054
677.086	10825
677.136	11478
677.185	10927
677.235	10986
677.284	12696
677.333	11209
677.383	11082
677.432	10971
677.482	10534
677.531	11023
677.580	10467
677.630	10229
677.679	10116
677.728	10865
677.778	11138
677.827	11002
677.876	10700
677.925	11019
677.975	11514
678.024	11202
678.073	11471
678.122	11870
678.171	12087
678.220	11497
678.269	11704
678.319	12744
678.368	12373
678.417	12133
678.466	12471
678.515	12650
678.564	11680
678.613	10936
678.662	10635
678.711	10894
678.760	11320
678.809	10497
678.857	11672
678.906	11911
678.955	10738
679.004	11902
679.053	12031
679.102	11725
679.151	11677
679.199	9943
679.248	10690
679.297	10143
679.346	11727
679.394	10022
679.443	10179
679.492	10754
679.540	10834
679.589	10612
679.638	10934
679.686	10322
679.735	10760
679.784	11199
679.832	12445
679.881	10445
679.929	10191
679.978	10162
680.026	10540
680.075	11053
680.123	10717
680.172	9802
680.220	8722
680.268	10405
680.317	9134
680.365	9489
680.414	9103
680.462	9953
680.510	10743
680.559	9440
680.607	9649
680.655	9530
680.703	10249
680.752	9667
680.800	9671
680.848	9848
680.896	9230
680.945	9100
680.993	8761
681.041	8762
681.089	9576
681.137	8361
681.185	9128
681.233	10237
681.258	9786
681.281	9303
681.329	8852
681.377	9298
681.380	9392
681.425	10070
681.473	11518
681.502	10649
681.521	9945
681.569	10989
681.617	10365
681.624	10451
681.665	10542
681.713	10667
681.745	10308
681.761	10065
681.809	10231
681.857	11040
681.867	10901
681.904	10165
681.952	11667
681.989	11050
682.000	10793
682.048	11807
682.096	10330
682.111	10632
682.143	11118
682.191	10736
682.233	12336
682.239	12512
682.286	11544
682.334	12010
682.354	11705
682.382	11176
682.430	12014
682.476	12209
682.477	12161
682.525	11779
682.572	11805
682.598	11969
682.620	12054
682.667	12049
682.715	13542
682.720	13505
682.763	12600
682.810	12479
682.841	12287
682.857	12126
682.905	11919
682.952	12111
682.963	12477
683.000	13512
683.047	13390
683.085	14733
683.095	15047
683.142	13410
683.190	13419
683.206	13384
683.237	13178
683.284	13910
683.328	13750
683.332	13696
683.379	13283
683.426	13367
683.449	13506
683.473	13567
683.521	14171
683.568	14319
683.571	14320
683.615	13736
683.662	14038
683.693	13988
683.709	13873
683.757	14142
683.804	14338
683.814	14363
683.851	14331
683.898	14456
683.936	15057
683.945	15172
683.992	14973
684.039	15081
684.057	14933
684.086	14572
684.133	15283
684.179	15029
684.180	14982
684.227	15588
684.274	15451
684.300	15537
684.321	15547
684.368	14286
684.415	15883
684.422	15734
684.462	14827
684.509	16055
684.543	15964
684.556	15866
684.603	16445
684.649	16450
684.665	16576
684.696	16735
684.743	16000
684.786	16894
684.790	16947
684.837	16614
684.883	17539
684.908	17710
684.930	17854
684.977	18523
685.023	18334
685.029	18337
685.070	17830
685.117	17380
685.150	18098
685.164	18427
685.210	18032
685.257	19076
685.272	19092
685.303	18882
685.350	18503
685.393	17931
685.396	17870
685.443	18017
685.490	18411
685.514	18593
685.536	18785
685.583	19039
685.629	19358
685.636	19354
685.675	19075
685.722	19133
685.757	19122
685.768	19121
685.815	19397
685.861	19403
685.878	19420
685.908	19435
685.954	19967
686.000	21057
686.000	21058
686.047	20013
686.093	21659
686.121	21290
686.139	21016
686.185	20957
686.232	20512
686.242	20654
686.278	20977
686.324	19855
686.363	20347
686.370	20463
686.416	20454
686.463	21331
686.484	21249
686.509	21137
686.555	21048
686.601	21236
686.606	21270
686.647	21208
686.693	21391
686.727	21082
686.739	21034
686.785	20588
686.831	21322
686.848	21397
686.877	21414
686.923	21243
686.969	20366
686.969	20361
687.015	21592
687.061	22240
687.090	22538
687.107	22530
687.153	22387
687.199	21596
687.211	21437
687.245	20941
687.291	21738
687.332	21585
687.336	21646
687.382	22662
687.428	22579
687.453	23187
687.474	23354
687.520	22730
687.565	23308
687.574	23189
687.611	23422
687.657	24620
687.695	25426
687.702	25711
687.748	28588
687.794	31609
687.816	31564
687.839	29858
687.885	27014
687.931	25437
687.937	25190
687.976	24964
688.022	24739
688.058	24272
688.067	24196
688.113	24320
688.158	23977
688.179	23609
688.204	23423
688.249	24147
688.295	24603
688.300	24607
688.340	24823
688.386	24889
688.421	24609
688.431	24460
688.477	24896
688.522	24357
688.542	24508
688.567	24967
688.613	25086
688.658	25551
688.663	25515
688.703	25010
688.749	25337
688.784	25190
688.794	25190
688.839	25543
688.884	25284
688.905	25385
688.930	25591
688.975	25127
689.020	25622
689.026	25565
689.065	25459
689.110	25833
689.146	26328
689.155	26555
689.201	27522
689.246	27632
689.267	28093
689.291	27939
689.336	27165
689.381	25619
689.388	25451
689.426	25355
689.471	25923
689.509	25847
689.516	25833
689.561	26245
689.606	25611
689.630	25706
689.651	25922
689.696	25686
689.741	26272
689.750	26188
689.785	26159
689.830	26814
689.871	26618
689.875	26594
689.920	27090
689.965	26767
689.992	26506
690.010	26603
690.054	27155
690.099	27625
690.112	27704
690.144	27727
690.189	27735
690.233	27893
690.233	27924
690.278	27953
690.323	27386
690.354	27789
690.367	28244
690.412	29035
690.457	29059
690.474	29488
690.501	30056
690.546	30178
690.590	30567
690.595	30586
690.635	31895
690.680	32981
690.716	34235
690.724	34991
690.769	38867
690.813	42828
690.836	44779
690.857	49621
690.902	61335
690.946	72377
690.957	75435
690.991	100824
691.035	137540
691.077	171637
691.080	172117
691.124	163269
691.168	155318
691.198	152145
691.213	141311
691.257	110521
691.301	79366
691.318	67536
691.346	62272
691.390	52680
691.434	43845
691.439	42765
691.478	40306
691.522	37990
691.559	35630
691.567	35555
691.611	35532
691.655	34119
691.680	33667
691.699	33430
691.743	33073
691.787	32778
691.800	32528
691.831	32435
691.875	32152
691.919	32197
691.921	32148
691.964	32091
692.008	31524
692.041	31352
692.052	31400
692.096	31117
692.139	31578
692.162	31387
692.183	31413
692.227	31757
692.271	31690
692.282	31706
692.315	31656
692.359	31470
692.402	31031
692.403	31077
692.447	30453
692.490	30303
692.523	29839
692.534	30041
692.578	30834
692.622	31439
692.643	31714
692.666	31621
692.709	31503
692.753	31531
692.763	31414
692.797	31722
692.840	31968
692.884	32392
692.884	32452
692.928	32603
692.971	32977
693.004	33285
693.015	33464
693.059	33786
693.102	34306
693.124	34375
693.146	34621
693.189	35255
693.233	35413
693.245	35547
693.276	37177
693.320	39411
693.363	41305
693.365	41302
693.407	44828
693.450	48631
693.485	51328
693.493	53000
693.537	61941
693.580	70772
693.605	75824
693.624	85938
693.667	109610
693.710	135022
693.725	144076
693.753	191585
693.797	268785
693.840	345545
693.845	352852
693.883	341577
693.926	327003
693.966	317000
693.970	310675
694.013	239838
694.056	169805
694.086	121225
694.099	115065
694.142	95176
694.185	74795
694.206	65240
694.229	62261
694.272	56257
694.315	50366
694.326	48635
694.358	46723
694.401	44230
694.444	41942
694.446	41736
694.487	40406
694.530	39062
694.566	37697
694.573	37622
694.616	36461
694.659	35670
694.686	34963
694.702	34836
694.745	34640
694.787	33914
694.806	33793
694.830	33999
694.873	33810
694.916	33602
694.926	33492
694.959	33080
695.002	32766
695.044	32160
695.046	32066
695.087	32579
695.130	32960
695.166	33571
695.172	33661
695.215	33499
695.258	33375
695.286	33306
695.301	33488
695.343	33776
695.386	33972
695.406	34013
695.428	34331
695.471	34792
695.514	35373
695.526	35417
695.556	36495
695.599	38178
695.641	39480
695.646	39567
695.684	38628
695.726	37280
695.766	36007
695.769	36062
695.811	35742
695.854	35544
695.886	35143
695.896	35223
695.938	35480
695.981	35564
696.005	35588
696.023	36003
696.065	36741
696.108	37665
696.125	37915
696.150	38406
696.192	39107
696.235	39685
696.245	39773
696.277	39866
696.319	39755
696.361	39987
696.365	39883
696.404	40492
696.446	41284
696.485	41700
696.488	41733
696.530	41258
696.572	40582
696.604	39926
696.614	39855
696.656	39229
696.698	38717
696.724	38228
696.740	38253
696.783	38130
696.825	38034
696.844	37894
696.867	38043
696.909	38020
696.951	38245
696.964	38187
696.992	38260
697.034	38155
697.076	38158
697.083	38080
697.118	39145
697.160	40321
697.202	41380
697.203	41315
697.244	40678
697.286	40038
697.323	39116
697.327	39189
697.369	39321
697.411	39294
697.442	39236
697.453	39362
697.494	39384
697.536	39598
697.562	39495
697.578	39570
697.620	39690
697.661	39724
697.682	39679
697.703	39955
697.744	40272
697.786	40692
697.801	40705
697.828	40813
697.869	40823
697.911	40844
697.921	40781
697.952	40743
697.994	40374
698.035	40156
698.040	40026
698.077	40140
698.118	40183
698.160	40187
698.160	40090
698.201	40762
698.243	41268
698.279	41698
698.284	41865
698.325	42457
698.367	43041
698.399	43386
698.408	43381
698.449	42896
698.491	42413
698.518	41985
698.532	42172
698.573	42442
698.614	42696
698.638	42738
698.656	42884
698.697	43017
698.738	43093
698.757	43057
698.779	43380
698.820	43734
698.862	44124
698.877	44159
698.903	44027
698.944	43655
698.985	43260
698.996	43051
699.026	43439
699.067	43829
699.116	44190
699.235	43708
699.354	44132
699.474	42364
699.593	42071
699.713	42401
699.832	41271
699.951	43346
700.070	41546
700.190	40007
700.309	39400
700.428	39994
700.547	39594
700.667	39995
700.786	39835
700.905	37744
701.024	38635
701.143	37308
701.262	38318
701.381	37652
701.500	39266
701.619	37701
701.738	38607
701.857	38730
701.976	36108
702.095	37087
702.214	38784
702.333	37514
702.452	38770
702.571	37864
702.690	38046
702.809	37325
702.928	35861
703.047	35635
703.165	35404
703.284	34824
703.403	35026
703.522	35349
703.640	34591
703.759	36340
703.878	37601
703.997	34176
704.115	34293
704.234	32736
704.353	34858
704.471	33483
704.590	32768
704.708	31193
704.827	32603
704.946	32963
705.064	33428
705.183	33409
705.301	35699
705.420	42814
705.538	39484
705.656	36218
705.775	37614
705.893	50712
706.012	61052
706.130	37296
706.249	36896
706.367	36345
706.485	35899
706.604	36160
706.722	35102
706.840	41672
706.958	54743
707.077	44519
707.195	34789
707.313	34128
707.431	33129
707.549	32940
707.668	32022
707.786	33401
707.904	32691
708.022	32359
708.140	32886
708.258	31476
708.376	32151
708.494	32489
708.612	34171
708.730	41477
708.848	40991
708.966	37484
709.084	36238
709.202	36303
709.320	34466
709.438	35650
709.556	36636
709.674	33994
709.791	35034
709.909	33678
710.027	34223
710.145	34470
710.263	34457
710.380	34017
710.498	33400
710.616	33276
710.733	31700
710.851	32768
710.969	31737
711.086	31406
711.204	32426
711.322	32239
711.439	32029
711.557	30976
711.674	31938
711.792	31751
711.909	32735
712.027	33653
712.144	31550
712.262	30653
712.379	33551
712.497	40091
712.614	41934
712.732	36687
712.849	34792
712.966	35231
713.084	36749
713.201	36522
713.318	34904
713.436	36185
713.553	36164
713.670	36987
713.787	37385
713.905	36839
714.022	35656
714.139	36257
714.256	39556
714.373	47289
714.490	70000
714.608	150120
714.725	554930
714.842	623835
714.959	77497
715.076	42912
715.193	37320
715.310	36221
715.427	32524
715.544	31992
715.661	32717
715.778	31947
715.895	34046
716.011	32309
716.128	31355
716.245	30994
716.362	31051
716.479	30346
716.596	29442
716.713	30747
716.829	29214
716.946	29704
717.063	28478
717.180	28147
717.296	27882
717.413	28420
717.530	27806
717.646	27023
717.763	28022
717.880	26091
717.996	24975
718.113	26497
718.229	26437
718.346	25424
718.462	24563
718.579	26859
718.695	28137
718.812	27599
718.928	27993
719.045	25290
719.161	25289
719.277	25135
719.394	25187
719.510	26987
719.626	27472
719.743	33282
719.859	39105
719.975	60683
720.092	192158
720.208	452922
720.324	76315
720.440	32054
720.557	28851
720.673	28704
720.789	31885
720.905	47266
721.021	30703
721.137	24693
721.253	24624
721.369	24239
721.486	25723
721.602	27862
721.718	24189
721.834	22709
721.950	23532
722.066	22517
722.181	22630
722.297	22514
722.413	22325
722.529	22014
722.645	21735
722.761	21692
722.877	21549
722.993	21817
723.108	24128
723.224	23076
723.340	22752
723.456	20622
723.571	21480
723.687	21137
723.803	21227
723.918	19829
724.034	21173
724.150	21353
724.265	20637
724.381	26227
724.497	29057
724.612	21203
724.728	20400
724.843	19775
724.959	20291
725.074	24241
725.190	28424
725.305	20036
725.421	19668
725.536	19209
725.651	19761
725.767	19958
725.882	18676
725.997	18641
726.113	18583
726.228	18392
726.343	18626
726.459	18092
726.574	18045
726.689	17541
726.804	18217
726.920	18131
727.035	18183
727.150	18521
727.265	18016
727.380	18547
727.495	17967
727.610	17712
727.725	18140
727.841	20016
727.956	27744
728.071	25988
728.186	17876
728.301	16687
728.416	17418
728.531	16683
728.645	16366
728.760	18343
728.875	16584
728.990	17136
729.105	17112
729.220	16814
729.335	16570
729.449	16837
729.564	15899
729.679	16419
729.794	16270
729.908	17801
730.023	16767
730.138	16745
730.253	16646
730.367	15956
730.482	16385
730.596	16841
730.711	17947
730.826	20568
730.940	22309
731.055	17886
731.169	16774
731.284	17426
731.398	17700
731.513	19035
731.627	18646
731.742	20513
731.856	23417
731.970	22082
732.085	25266
732.199	31954
732.313	46216
732.428	107481
732.542	287465
732.656	185360
732.771	44430
732.885	28864
732.999	26027
733.113	26208
733.227	25662
733.342	24116
733.456	23573
733.570	22280
733.684	21811
733.798	21178
733.912	22143
734.026	21498
734.140	20937
734.254	22256
734.368	25139
734.482	26001
734.596	20942
734.710	20736
734.824	20685
734.938	20352
735.052	21724
735.166	21803
735.280	20948
735.393	20426
735.507	19384
735.621	21175
735.735	24321
735.849	20596
735.962	20276
736.076	20125
736.190	19440
736.303	20422
736.417	23068
736.531	18978
736.644	20014
736.758	19672
736.872	18516
736.985	19057
737.099	18431
737.212	18206
737.326	18015
737.439	18389
737.553	17329
737.666	18463
737.780	18009
737.893	18419
738.007	18052
738.120	18216
738.233	16726
738.347	17893
738.460	17222
738.573	18651
738.687	16821
738.800	18425
738.913	18622
739.026	17735
739.140	17259
739.253	18163
739.366	16179
739.479	17060
739.592	17326
739.705	16939
739.818	17685
739.932	16405
740.045	17508
740.158	17103
740.271	18027
740.384	17863
740.497	15402
740.610	17900
740.723	17064
740.836	17390
740.949	16031
741.062	17832
741.174	17363
741.287	16574
741.400	16728
741.513	15909
741.626	17353
741.739	16808
741.851	15875
741.964	16516
742.077	15640
742.189	15569
742.302	16176
742.415	16810
742.527	15724
742.640	15881
742.753	15255
742.865	15652
742.978	15526
743.090	15004
743.203	15246
743.316	15557
743.428	15056
743.541	15699
743.653	14320
743.766	15034
743.878	15471
743.990	16093
744.103	16094
744.215	16007
744.327	14479
744.440	16340
744.552	17425
744.664	14507
744.777	15461
744.889	14743
745.001	15688
745.113	14790
745.226	14660
745.338	14557
745.450	14672
745.562	15148
745.674	14177
745.786	15576
745.898	15999
746.010	15518
746.122	14436
746.234	15317
746.347	15193
746.459	15014
746.570	13475
746.682	14541
746.794	15475
746.906	13807
747.018	14413
747.130	14581
747.242	14350
747.354	14169
747.466	14444
747.577	13796
747.689	14152
747.801	14344
747.913	14835
748.024	14777
748.136	13917
748.248	13973
748.359	14092
748.471	14834
748.583	13907
748.694	14637
748.806	15218
748.918	15613
749.029	13861
749.141	14133
749.252	15264
749.364	14261
749.475	14629
749.587	15421
749.698	13422
749.809	14233
749.921	13746
750.032	13849
750.144	13424
750.255	13193
750.366	13662
750.478	14148
750.589	13488
750.700	13537
750.811	14164
750.923	14852
751.034	15333
751.145	16846
751.256	14005
751.367	13005
751.479	13593
751.590	13414
751.701	13374
751.812	13757
751.923	13901
752.034	14714
752.145	14322
752.256	13469
752.367	14192
752.478	14114
752.589	14610
752.700	14490
752.811	14054
752.922	13897
753.032	13790
753.143	14022
753.254	13397
753.365	14699
753.476	14455
753.586	14325
753.697	13498
753.808	14525
753.919	14608
754.029	14914
754.140	14580
754.251	14005
754.361	14638
754.472	14357
754.582	14372
754.693	14745
754.804	15069
754.914	15057
755.025	14084
755.135	15305
755.246	14725
755.356	14774
755.466	14645
755.577	15305
755.687	14545
755.798	15400
755.908	15062
756.018	15723
756.129	15348
756.239	16561
756.349	15754
756.460	15493
756.570	16150
756.680	16260
756.790	16701
756.900	16842
757.011	15700
757.121	16084
757.231	16263
757.341	17028
757.451	16680
757.561	16745
757.671	16735
757.781	18189
757.891	17791
758.001	17453
758.111	18336
758.221	18470
758.331	19178
758.441	18293
758.551	18973
758.661	18956
758.771	18424
758.880	19298
758.990	19506
759.100	20789
759.210	20743
759.320	20373
759.429	20627
759.539	22030
759.649	21034
759.758	22635
759.868	23539
759.978	22415
760.087	23556
760.197	23478
760.307	24957
760.416	24455
760.526	24580
760.635	25620
760.745	26060
760.854	27172
760.964	28522
761.073	29235
761.182	28848
761.292	29814
761.401	28513
761.511	29814
761.620	29588
761.729	31120
761.839	30579
761.948	31884
762.057	32736
762.166	33133
762.276	33236
762.385	35346
762.494	36332
762.603	36586
762.712	39405
762.822	39920
762.931	41813
763.040	43234
763.149	43390
763.258	46631
763.367	49109
763.476	52264
763.585	54297
763.694	57613
763.803	59687
763.912	64299
764.021	67313
764.130	71000
764.238	75480
764.347	82911
764.456	88391
764.565	96337
764.674	102347
764.783	112437
764.891	122626
765.000	138119
765.109	153166
765.217	173975
765.326	200706
765.435	235464
765.543	277255
765.652	330641
765.761	408872
765.869	507109
765.978	649185
766.086	835047
766.195	1055476
766.303	1177315
766.412	843595
766.520	842810
766.629	1057450
766.737	985019
766.846	796616
766.954	627138
767.062	497145
767.171	392287
767.279	318138
767.387	260323
767.496	219806
767.604	191264
767.712	167920
767.820	150947
767.928	137193
768.037	126420
768.145	120777
768.253	116733
768.361	113215
768.469	113538
768.577	115012
768.685	121423
768.793	128755
768.901	140363
769.009	161726
769.117	192871
769.225	238541
769.333	312573
769.441	428813
769.549	616766
769.657	895833
769.765	1075121
769.873	797498
769.981	920933
770.088	841166
770.196	620128
770.304	454516
770.412	346297
770.519	271061
770.627	220249
770.735	183498
770.842	155080
770.950	133850
771.058	118281
771.165	106228
771.273	95860
771.380	88344
771.488	83407
771.595	77941
771.703	70928
771.810	65345
771.918	61736
772.025	60615
772.133	58709
772.240	54007
772.348	53387
772.455	50608
772.562	48213
772.670	45296
772.777	46110
772.884	44010
772.991	40742
773.099	40332
773.206	37718
773.313	37504
773.420	36992
773.528	34989
773.635	33707
773.742	34650
773.849	31844
773.956	31804
774.063	30919
774.170	29987
774.277	29980
774.384	28676
774.491	28181
774.598	27300
774.705	27847
774.812	27316
774.919	27337
775.026	27054
775.133	25789
775.239	25676
775.346	24583
775.453	24637
775.560	24519
775.667	23739
775.773	23995
775.880	23268
775.987	23050
776.093	22195
776.200	22568
776.307	21122
776.413	21604
776.520	21478
776.627	21285
776.733	20704
776.840	18423
776.946	22303
777.053	19728
777.159	20598
777.266	17622
777.372	19596
777.478	20612
777.585	19036
777.691	17386
777.798	18821
777.904	18542
778.010	18423
778.117	18387
778.223	17382
778.329	17586
778.435	16297
778.542	18217
778.648	16545
778.754	15720
778.860	16005
778.966	16458
779.072	15693
779.178	16614
779.284	15955
779.391	16361
779.497	17946
779.603	22454
779.708	27965
779.815	53533
779.920	170229
780.026	308327
780.132	73020
780.238	24883
780.344	18674
780.450	17739
780.556	14891
780.661	13440
780.767	14939
780.873	12758
780.979	13572
781.085	13416
781.190	12971
781.296	12870
781.402	12614
781.507	12020
781.613	11708
781.719	11353
781.824	12707
781.930	12778
782.035	11953
782.141	12748
782.246	10876
782.352	11879
782.457	12200
782.563	11033
782.668	11504
782.773	11452
782.879	11151
782.984	11893
783.090	11877
783.195	12524
783.300	12233
783.405	11560
783.511	10156
783.616	9919
783.721	11309
783.826	10346
783.932	10847
784.037	10962
784.142	10142
784.247	10179
784.352	10607
784.457	10238
784.562	10353
784.667	10749
784.772	10429
784.877	9188
784.982	10384
785.087	10845
785.192	9653
785.297	9294
785.402	9598
785.507	9440
785.611	9827
785.716	9352
785.821	9737
785.926	9219
786.031	9158
786.135	9399
786.240	10207
786.345	7476
786.450	9643
786.554	8919
786.659	9262
786.763	8857
786.868	8367
786.973	9687
787.077	8740
787.182	8882
787.286	8814
787.391	9343
787.495	7674
787.600	8035
787.704	8996
787.809	9130
787.913	8544
788.017	8691
788.122	9244
788.226	8089
788.330	7263
788.435	8715
788.539	8397
788.643	8145
788.747	7155
788.852	7341
788.956	8063
789.060	8783
789.164	8291
789.268	7350
789.372	8768
789.476	8138
789.580	7360
789.684	7062
789.788	8189
789.892	7488
789.996	7634
790.100	7303
790.204	7416
790.308	8200
790.412	7491
790.516	7088
790.620	7491
790.724	8210
790.828	7985
790.931	6081
791.035	8709
791.139	7093
791.242	6625
791.346	7571
791.450	7393
791.554	7726
791.657	6006
791.761	7242
791.864	7293
791.968	7119
792.072	7412
792.175	6251
792.279	6659
792.382	6139
792.486	6775
792.589	6287
792.693	8217
792.796	6001
792.899	7548
793.003	7040
793.106	5334
793.209	6795
793.313	6674
793.416	4977
793.519	7545
793.623	7795
793.726	7749
793.829	6674
793.932	5962
794.035	5908
794.138	8404
794.242	8118
794.345	9641
794.448	13423
794.551	27883
794.654	91236
794.757	189787
794.860	44505
794.963	11409
795.066	8779
795.169	7874
795.272	6570
795.375	7566
795.477	6586
795.580	6455
795.683	5614
795.786	5843
795.889	6002
795.991	5849
796.094	6718
796.197	5254
796.300	6614
796.402	6479
796.505	5005
796.608	4940
796.710	5572
796.813	5822
796.915	6256
797.018	6095
797.120	5979
797.223	3710
797.326	6959
797.428	5184
797.530	5066
797.633	6382
797.735	6861
797.838	6094
797.940	6857
798.042	5236
798.145	6050
798.247	5426
798.349	4818
798.452	5103
798.554	4808
798.656	5166
798.758	6214
798.860	5743
798.962	5084
799.065	4960
799.167	4567
799.269	6236
799.371	5652
799.473	5973
799.575	5717
799.677	6034
799.779	6381
799.881	3944
799.983	6502
800.085	5013
800.187	5222
800.289	4144
800.390	5071
800.492	5770
800.594	5477
800.696	4344
800.798	4457
800.899	4653
801.001	4892
801.103	4728
801.205	4545
801.306	5153
801.408	3531
801.509	3983
801.611	4289
801.713	5439
801.814	4178
801.916	4951
802.017	4265
802.119	3440
802.220	4537
802.322	3401
802.423	5769
802.525	4115
802.626	4949
802.727	4785
802.829	4424
802.930	3148
803.031	5386
803.133	4147
803.234	4239
803.335	4484
803.436	2575
803.538	3926
803.639	3736
803.740	4483
803.841	4697
803.942	4773
804.043	4278
804.144	3607
804.245	3593
804.346	3377
804.447	3475
804.548	3991
804.649	4466
804.750	4103
804.851	3475
804.952	3849
805.053	4038
805.154	2764
805.255	4252
805.355	4590
805.456	3464
805.557	3435
805.658	2807
805.758	4208
805.859	4165
805.960	3777
806.061	3750
806.161	3766
806.262	3632
806.362	3479
806.463	3337
806.564	3828
806.664	4263
806.765	4383
806.865	4122
806.966	3451
807.066	3915
807.166	3668
807.267	4002
807.367	3650
807.468	4108
807.568	2929
807.668	3661
807.769	3892
807.869	3270
807.969	3635
808.069	3781
808.170	3601
808.270	2747
808.370	4060
808.470	4038
808.570	3054
808.670	3588
808.770	3771
808.870	3257
808.970	4079
809.070	2649
809.170	3135
809.271	4283
809.370	2813
809.470	3406
809.570	2928
809.670	3033
809.770	2652
809.870	4472
809.970	3989
810.070	4138
810.169	3193
810.269	2094
810.369	3722
810.469	3557
810.568	3464
810.668	2982
810.768	3228
810.867	3013
810.967	2800
811.066	3578
811.166	3422
811.265	4137
811.365	2523
811.464	3507
811.564	2923
811.663	4186
811.763	1418
811.862	3501
811.962	3561
812.061	3445
812.160	3003
812.260	3367
812.359	4046
812.458	5666
812.557	9383
812.657	13485
812.756	6095
812.855	4183
812.954	3378
813.053	4302
813.153	3823
813.252	2565
813.351	4024
813.450	3834
813.549	2652
813.648	3162
813.747	2149
813.846	3698
813.945	3444
814.044	3453
814.143	4302
814.242	3472
814.341	2943
814.439	3673
814.538	3970
814.637	3132
814.736	3179
814.835	3592
814.933	3890
815.032	4505
815.131	5058
815.229	6546
815.328	9191
815.427	6874
815.525	6909
815.624	6580
815.722	5298
815.821	7083
815.919	7058
816.018	6009
816.116	6965
816.215	5695
816.313	7151
816.412	7915
816.510	7555
816.609	9590
816.707	8727
816.805	7280
816.904	7663
817.002	7399
817.100	8337
817.198	8159
817.296	8611
817.395	7551
817.493	8463
817.591	6517
817.689	8274
817.787	8196
817.885	8771
817.983	10271
818.081	14277
818.179	23394
818.277	53199
818.375	54410
818.473	19483
818.571	10145
818.669	9687
818.767	9484
818.865	8849
818.963	8892
819.061	10248
819.158	13205
819.256	22474
819.354	43287
819.452	99671
819.549	78167
819.647	24795
819.745	12097
819.842	9970
819.940	9558
820.038	8459
820.135	6236
820.233	8602
820.330	6648
820.428	6353
820.525	7018
820.623	6454
820.720	6139
820.818	7450
820.915	6672
821.012	6285
821.110	4942
821.207	6501
821.304	5123
821.402	6435
821.499	6940
821.596	5489
821.693	6190
821.791	6541
821.888	6431
821.985	8262
822.082	6270
822.179	5755
822.276	5531
822.373	5885
822.470	5526
822.567	5540
822.664	5107
822.761	6113
822.858	6093
822.955	5899
823.052	4631
823.149	5253
823.246	6139
823.343	4876
823.440	4861
823.536	5952
823.633	5418
823.730	4839
823.827	5104
823.923	5634
824.020	5885
824.117	5761
824.213	4882
824.310	5851
824.407	4426
824.503	5436
824.600	5212
824.696	4890
824.793	6069
824.889	5632
824.986	4290
825.082	4037
825.179	4693
825.275	5575
825.371	5623
825.468	4894
825.564	3765
825.660	5330
825.757	6061
825.853	5137
825.949	4115
826.045	4381
826.142	4509
826.238	5012
826.334	5303
826.430	4053
826.526	3980
826.622	3259
826.718	4622
826.814	5013
826.910	5048
827.006	3323
827.102	3539
827.198	5773
827.294	4960
827.390	4716
827.486	4921
827.582	3224
827.678	3339
827.774	5292
827.869	4276
827.965	3511
828.061	3916
828.157	4283
828.252	4969
828.348	3934
828.444	4077
828.539	3231
828.635	4275
828.731	4389
828.826	3104
828.922	4486
829.017	4236
829.113	4984
829.208	3249
829.304	4026
829.399	5886
829.495	3916
829.590	3899
829.685	4699
829.781	4584
829.876	4452
829.971	3285
830.066	2657
830.162	3959
830.257	4852
830.352	3963
830.447	3739
830.543	3443
830.638	3355
830.733	3948
830.828	2933
830.923	4828
831.018	3370
831.113	4518
831.208	3375
831.303	2794
831.398	3225
831.493	3523
831.588	5174
831.683	3180
831.778	3138
831.873	3569
831.967	4008
832.062	3825
832.157	3198
832.252	3050
832.346	3508
832.441	5035
832.536	4053
832.631	5222
832.725	4421
832.820	2934
832.914	4021
833.009	3296
833.104	3435
833.198	2616
833.293	3396
833.387	3727
833.482	3752
833.576	2693
833.670	3963
833.765	2888
833.859	4180
833.954	3962
834.048	3443
834.142	3710
834.237	2810
834.331	2817
834.425	4020
834.519	3186
834.613	4230
834.708	2555
834.802	3207
834.896	2670
834.990	3900
835.084	3198
835.178	2320
835.272	2986
835.366	3781
835.460	3875
835.554	2731
835.648	2270
835.742	2633
835.836	3177
835.930	2564
836.024	3808
836.117	3454
836.211	3259
836.305	3357
836.399	3255
836.493	2443
836.586	3919
836.680	2548
836.774	2882
836.867	3044
836.961	2295
837.055	1974
837.148	2302
837.242	2865
837.335	3105
837.429	2268
837.522	2978
837.616	1782
837.709	4434
837.803	3659
837.896	3909
837.989	2939
838.083	3482
838.176	4040
838.269	4570
838.363	3706
838.456	2400
838.549	3419
838.642	3481
838.735	4784
838.829	3600
838.922	2414
839.015	3016
839.108	1879
839.201	2909
839.294	2925
839.387	2606
839.480	1899
839.573	2996
839.666	2994
839.759	2615
839.852	1414
839.945	3070
840.038	1896
840.131	1394
840.223	2266
840.316	3530
840.409	2647
840.502	2365
840.594	2898
840.687	872
840.780	2005
840.873	1566
840.965	2268
841.058	2745
841.150	3326
841.243	3172
841.336	2356
841.428	1924
841.521	1773
841.613	1922
841.706	2819
841.798	1813
841.890	2267
841.983	1321
842.075	2276
842.167	2013
842.260	2165
842.352	3041
842.444	3278
842.537	4030
842.629	4773
842.721	2428
842.813	2413
842.905	1015
842.997	2259
843.090	2219
843.182	3501
843.274	3533
843.366	6692
843.458	11001
843.550	8938
843.642	3001
843.734	2856
843.826	1685
843.918	2154
844.009	2807
844.101	2276
844.193	2063
844.285	2371
844.377	2248
844.469	2728
844.560	1312
844.652	2089
844.744	2301
844.835	1958
844.927	2665
845.019	2032
845.110	2377
845.202	2107
845.293	2477
845.385	880
845.476	1623
845.568	2782
845.659	1542
845.751	2676
845.842	1896
845.934	1696
846.025	2282
846.116	1990
846.208	1718
846.299	1547
846.390	1571
846.482	1926
846.573	2744
846.664	2968
846.755	2198
846.846	2243
846.937	703
847.029	1562
847.120	1606
847.211	2191
847.302	3230
847.393	1282
847.484	3055
847.575	2468
847.666	1637
847.757	1516
847.847	1967
847.938	3345
848.029	2241
848.120	1705
848.211	1481
848.302	2658
848.392	1740
848.483	2285
848.574	1966
848.664	1664
848.755	2657
848.846	2288
848.936	1926
849.027	2195
849.118	1982
849.208	2309
849.299	2827
849.389	3665
849.480	5053
849.570	10465
849.661	17488
849.751	28554
849.841	12842
849.932	3845
850.022	2700
850.112	2625
850.203	2269
850.293	1516
850.383	1500
850.474	1007
850.564	2143
850.654	1437
850.744	1003
850.834	1839
850.924	2581
851.014	3233
851.104	2565
851.194	1724
851.284	1861
851.374	2244
851.464	1573
851.554	2665
851.644	1908
851.734	3300
851.824	3738
851.914	3882
852.004	8247
852.094	8890
852.183	3389
852.273	2005
852.363	1450
852.452	1949
852.542	2078
852.632	1702
852.721	2093
852.811	1461
852.901	2771
852.990	2289
853.080	1671
853.169	1586
853.259	2795
853.348	2042
853.438	2614
853.527	3683
853.617	3465
853.706	6946
853.795	11614
853.885	24501
853.974	45220
854.063	77809
854.152	120708
854.242	55817
854.331	12011
854.420	4953
854.509	4064
854.598	3535
854.687	3081
854.777	3468
854.866	2822
854.955	2673
855.044	1765
855.133	1406
855.222	1965
855.311	1780
855.400	1945
855.488	2009
855.577	1412
855.666	1729
855.755	2634
855.844	2601
855.933	1931
856.021	2350
856.110	2062
856.199	512
856.288	993
856.376	1156
856.465	1694
856.554	2263
856.642	1417
856.731	1779
856.819	2266
856.908	1897
856.996	940
857.085	1431
857.173	1859
857.262	1292
857.350	1722
857.438	1459
857.527	1167
857.615	1349
857.703	1790
857.792	1318
857.880	1393
857.968	1619
858.056	1902
858.145	1986
858.233	1856
858.321	1139
858.409	1743
858.497	1585
858.585	1400
858.673	1844
858.761	790
858.849	1179
858.937	1690
859.025	1080
859.113	1761
859.201	1117
859.289	2228
859.377	1427
859.465	1514
859.552	1708
859.640	838
859.728	1924
859.816	1557
859.903	1686
859.991	827
860.079	1694
860.166	964
860.254	2186
860.342	1100
860.429	1124
860.517	1540
860.604	1664
860.692	1506
860.779	1222
860.867	615
860.954	1807
861.042	2197
861.129	1404
861.216	1983
861.304	1679
861.391	1602
861.478	1453
861.565	1486
861.653	2517
861.740	1454
861.827	1375
861.914	1358
862.001	1674
862.089	987
862.176	1986
862.263	1279
862.350	409
862.437	817
862.524	1293
862.611	1097
862.698	2337
862.785	1520
862.871	2004
862.958	1720
863.045	1450
863.132	1663
863.219	1247
863.306	1267
863.392	2063
863.479	1716
863.566	1480
863.652	1552
863.739	594
863.826	1732
863.912	1891
863.999	1309
864.086	1147
864.172	1896
864.259	2323
864.345	2224
864.432	1999
864.518	1809
864.604	1639
864.691	1872
864.777	1776
864.863	2522
864.950	3615
865.036	3328
865.122	6268
865.209	7984
865.295	6507
865.381	5886
865.467	6208
865.553	6942
865.639	9247
865.726	10159
865.812	16830
865.898	27312
865.984	37792
866.070	62224
866.156	73021
866.242	25304
866.328	9804
866.414	6027
866.499	5982
866.585	6648
866.671	6104
866.757	5332
866.843	5408
866.928	4439
867.014	4855
867.100	6072
867.186	5224
867.271	5037
867.357	5579
867.442	5864
867.528	5608
867.614	5196
867.699	3963
867.785	4938
867.870	4678
867.956	5693
868.041	5306
868.127	4021
868.212	4725
868.297	4995
868.383	5199
868.468	5307
868.553	6120
868.639	5265
868.724	5757
868.809	5736
868.894	4878
868.979	4875
869.065	4816
869.150	3485
869.235	4644
869.320	4221
869.405	4410
869.490	4530
869.575	3694
869.660	3857
869.745	3587
869.830	4303
869.915	3753
870.000	3012
870.085	3205
870.169	4966
870.254	4535
870.339	2935
870.424	2458
870.509	3933
870.593	4113
870.678	4673
870.763	3804
870.847	3179
870.932	3637
871.016	3962
871.101	2176
871.186	4160
871.270	4118
871.355	2571
871.439	4056
871.523	3946
871.608	3980
871.692	3204
871.777	3913
871.861	3656
871.945	2795
872.030	3408
872.114	3234
872.198	3323
872.282	3775
872.367	3485
872.451	2605
872.535	3760
872.619	3964
872.703	3397
872.787	3309
872.871	3401
872.955	3242
873.039	2242
873.123	3399
873.207	4118
873.291	3367
873.375	2297
873.459	4080
873.543	2999
873.627	3146
873.711	2847
873.794	2640
873.878	2970
873.962	2049
874.045	3133
874.129	2804
874.137	2848
874.213	3295
874.245	2930
874.296	2341
874.352	2516
874.380	2599
874.460	2322
874.464	2313
874.547	3152
874.568	3148
874.631	3096
874.676	2981
874.714	2909
874.784	3372
874.798	3461
874.881	3332
874.892	3190
874.965	2221
874.999	2440
875.048	2722
875.107	2574
875.131	2530
875.215	2390
875.215	2389
875.298	1972
875.323	1853
875.381	1595
875.430	2708
875.465	3494
875.538	2666
875.548	2552
875.631	2087
875.646	2044
875.714	1754
875.753	1668
875.798	1654
875.861	2314
875.881	2525
875.964	2546
875.968	2542
876.047	2415
876.076	2459
876.130	2459
876.183	2467
876.213	2540
876.291	2633
876.296	2628
876.379	1912
876.398	1952
876.462	2172
876.506	1747
876.545	1308
876.613	1825
876.628	1972
876.711	1793
876.721	1957
876.794	3097
876.828	2680
876.877	2007
876.935	1915
876.960	1950
877.043	1682
877.043	1685
877.125	2036
877.150	2271
877.208	2827
877.258	2515
877.291	2373
877.365	1152
877.374	978
877.456	2131
877.472	2092
877.539	2202
877.579	2364
877.622	2336
877.687	2296
877.704	2348
877.787	2005
877.794	2024
877.869	2133
877.901	2450
877.952	2906
878.008	1595
878.034	954
878.115	806
878.117	807
878.199	1561
878.222	1616
878.282	1659
878.329	2030
878.364	2389
878.437	2596
878.447	2570
878.529	1168
878.544	1177
878.611	1462
878.651	1422
878.694	1377
878.758	1923
878.776	2073
878.858	1609
878.865	1635
878.941	1730
878.972	1427
879.023	1060
879.078	1143
879.105	1225
879.185	1770
879.187	1775
879.269	1364
879.292	1370
879.351	1464
879.399	1485
879.433	1489
879.506	1478
879.516	1478
879.598	1631
879.613	1617
879.680	1395
879.720	1501
879.762	1725
879.827	1390
879.844	1284
879.926	1394
879.933	1364
880.007	1091
880.040	1200
880.089	1508
880.147	2021
880.171	2129
880.253	2095
880.254	2097
880.335	2205
880.360	2330
880.417	2673
880.467	3174
880.499	3443
880.574	3749
880.580	3760
880.662	2555
880.680	2305
880.744	1276
880.787	1208
880.825	1263
880.893	1213
880.907	1242
880.989	1341
881.000	1386
881.070	1413
881.106	1235
881.152	960
881.213	771
881.233	751
881.315	779
881.319	804
881.396	1501
881.426	1498
881.478	1093
881.532	1461
881.559	1878
881.639	1632
881.641	1600
881.722	689
881.745	483
881.803	658
881.852	1032
881.885	1067
881.958	678
881.966	694
882.047	1371
882.064	1431
882.129	1142
882.171	992
882.210	1065
882.277	1469
882.291	1489
882.372	922
882.383	941
882.454	1433
882.489	1590
882.535	1420
882.596	946
882.616	890
882.697	1074
882.702	1052
882.778	647
882.808	689
882.859	765
882.914	981
882.940	992
883.020	496
883.021	495
883.102	1201
883.127	1329
883.183	1090
883.233	806
883.264	795
883.339	689
883.345	631
883.426	-204
883.445	-258
883.507	299
883.551	680
883.587	795
883.657	934
883.668	992
883.749	1344
883.763	1357
883.830	1022
883.869	933
883.910	1012
883.975	1129
883.991	1015
884.072	712
884.081	623
884.152	641
884.187	927
884.233	1111
884.292	944
884.314	910
884.394	607
884.398	606
884.475	498
884.504	574
884.555	743
884.610	734
884.636	526
884.716	164
884.716	164
884.797	657
884.821	836
884.877	1001
884.927	916
884.958	738
885.033	596
885.038	573
885.118	-6
885.139	-86
885.199	287
885.244	590
885.279	550
885.350	570
885.359	638
885.439	1206
885.456	1246
885.520	543
885.561	179
885.600	210
885.667	353
885.680	394
885.760	570
885.773	610
885.840	812
885.878	896
885.920	381
885.984	-268
886.000	-126
886.080	698
886.089	739
886.160	299
886.195	245
886.240	755
886.300	1379
886.320	1150
886.400	295
886.406	233
886.480	599
886.511	800
886.560	713
886.616	444
886.640	343
886.720	373
886.722	368
886.800	-118
886.827	-167
886.879	294
886.932	673
886.959	687
887.038	835
887.039	837
887.119	966
887.143	1121
887.198	837
887.248	579
887.278	464
887.354	20
887.358	17
887.437	118
887.459	188
887.517	658
887.564	859
887.596	623
887.669	230
887.676	202
887.755	-72
887.774	-129
887.835	204
887.880	501
887.914	627
887.985	733
887.994	632
888.073	-203
888.090	-362
888.153	373
888.195	906
888.232	563
888.300	-159
888.311	-82
888.391	478
888.405	603
888.470	243
888.510	-30
888.549	-158
888.615	-196
888.628	-121
888.708	235
888.720	306
888.787	711
888.825	905
888.866	463
888.930	-200
888.945	-178
889.024	41
889.035	78
889.103	275
889.140	352
889.182	339
889.245	362
889.261	361
889.340	409
889.349	419
889.419	477
889.454	506
889.498	223
889.559	-128
889.577	-46
889.656	342
889.664	388
889.735	93
889.768	-45
889.814	222
889.873	589
889.978	377
890.083	839
890.187	648
890.292	1461
890.397	366
890.501	677
890.606	-245
890.710	1559
890.815	99
890.919	392
891.024	297
891.128	919
891.233	-56
891.337	254
891.442	-295
891.546	184
891.650	41
891.755	816
891.859	1587
891.963	545
892.068	236
892.172	406
892.276	-200
892.380	-119
892.484	-37
892.589	540
892.693	257
892.797	755
892.901	-486
893.005	519
893.109	436
893.213	927
893.317	-494
893.421	522
893.525	-324
893.629	879
893.733	330
893.837	-98
893.941	355
894.045	1223
894.148	253
894.252	1088
894.356	54
894.460	669
894.564	595
894.667	-159
894.771	-569
894.875	934
894.978	-356
895.082	526
895.186	264
895.289	1718
895.393	-547
895.496	571
895.600	-145
895.703	-160
895.807	-939
895.910	45
896.014	-76
896.117	942
896.221	264
896.324	169
896.427	189
896.531	145
896.634	-249
896.737	756
896.840	-81
896.944	341
897.047	162
897.150	207
897.253	-567
897.356	591
897.460	-246
897.563	412
897.666	-233
897.769	723
897.872	389
897.975	321
898.078	156
898.181	-220
898.284	-580
898.387	411
898.490	333
898.593	999
898.695	99
898.798	317
898.901	56
899.004	181
899.107	22
899.209	730
899.312	382
899.415	438
899.518	-34
899.620	645
899.723	-567
899.826	-301
899.928	-294
900.031	87
900.133	-63
900.236	748
900.338	-193
900.441	859
900.543	-499
900.646	-305
900.748	-451
900.851	713
900.953	-308
901.055	76
901.158	-471
901.260	140
901.362	-981
901.465	164
901.567	-287
901.669	1032
901.771	364
901.873	543
901.976	413
902.078	-209
902.180	-1061
902.282	76
902.384	-134
902.486	228
902.588	-174
902.690	504
902.792	215
902.894	334
902.996	-168
903.098	-62
903.200	-677
903.302	441
903.404	-208
903.505	-300
903.607	253
903.709	1049
903.811	281
903.913	87
904.014	-116
904.116	132
904.218	51
904.319	1243
904.421	-156
904.523	685
904.624	11
904.726	669
904.827	208
904.929	100
905.030	605
905.132	660
905.233	-418
905.335	513
905.436	-315
905.537	301
905.639	-302
905.740	509
905.841	-270
905.943	75
906.044	373
906.145	96
906.247	-593
906.348	525
906.449	250
906.550	1103
906.651	130
906.752	-70
906.854	-634
906.955	709
907.056	-471
907.157	443
907.258	-208
907.359	576
907.460	-536
907.561	318
907.662	-627
907.762	-111
907.863	-689
907.964	694
908.065	-41
908.166	373
908.267	-544
908.367	684
908.468	-80
908.569	108
908.670	-104
908.770	746
908.871	-111
908.971	-170
909.072	-251
909.173	51
909.273	-57
909.374	1017
909.474	179
909.575	91
909.675	189
909.776	494
909.876	235
909.977	15
910.077	-197
910.177	-19
910.278	-276
910.378	290
910.478	-176
910.579	85
910.679	-303
910.779	832
910.879	140
910.980	72
911.080	-177
911.180	116
911.280	-269
911.380	116
911.480	-253
911.580	742
911.680	208
911.780	-124
911.880	120
911.980	187
912.080	-438
912.180	-32
912.280	-313
912.380	126
912.480	-517
912.580	453
912.679	-349
912.779	139
912.879	483
912.979	132
913.078	-1489
913.178	9
913.278	-559
913.377	1126
913.477	75
913.577	323
913.676	289
913.776	373
913.875	880
913.975	109
914.074	-1582
914.174	715
914.273	-720
914.373	110
914.472	-562
914.572	-336
914.671	-913
914.770	-66
914.870	-1139
914.969	-488
915.068	-302
915.167	491
915.267	-50
915.366	242
915.465	-119
915.564	343
915.663	-466
915.763	660
915.862	279
915.961	252
916.060	-83
916.159	400
916.258	493
916.357	189
916.456	-73
916.555	-488
916.654	-295
916.752	296
916.851	33
916.950	174
917.049	217
917.148	333
917.247	-16
917.345	56
917.444	-556
917.543	144
917.642	240
917.740	553
917.839	-656
917.937	1001
918.036	216
918.135	246
918.233	709
918.332	341
918.430	-613
918.529	208
918.627	259
918.726	399
918.824	-610
918.923	47
919.021	-383
919.119	-449
919.218	-555
919.316	-182
919.414	-572
919.512	549
919.611	-755
919.709	-28
919.807	-600
919.905	449
920.003	-86
920.102	1179
920.200	-489
920.298	796
920.396	310
920.494	-581
920.592	-1027
920.690	87
920.788	-550
920.886	348
920.984	-412
921.082	30
921.180	-204
921.277	-165
921.375	-176
921.473	67
921.571	-37
921.669	418
921.766	-197
921.864	140
921.962	113
922.060	224
922.157	0
922.255	957
922.352	1264
922.450	1314
922.548	-627
922.645	24
922.743	655
922.840	1681
922.938	1159
923.035	1051
923.133	189
923.230	1140
923.327	1374
923.425	1103
923.522	1388
923.619	1079
923.717	870
923.814	792
923.911	756
924.008	983
924.106	375
924.203	1213
924.300	1066
924.397	1370
924.494	1318
924.591	794
924.688	688
924.786	1044
924.883	1233
924.979	830
925.077	953
925.173	1038
925.270	1052
925.367	1187
925.464	1485
925.561	2002
925.658	920
925.755	1325
925.852	1019
925.948	1020
926.045	119
926.142	847
926.239	163
926.335	1025
926.432	1327
926.529	1725
926.625	355
926.722	946
926.818	516
926.915	472
927.011	547
927.108	796
927.204	23
927.301	1065
927.397	-78
927.494	934
927.590	139
927.687	392
927.783	645
927.879	788
927.976	359
928.072	978
928.168	670
928.264	1690
928.361	113
928.457	1216
928.553	-434
928.649	1304
928.745	682
928.841	-253
928.937	833
929.033	459
929.129	75
929.225	1198
929.321	-85
929.417	1460
929.513	1034
929.609	1175
929.705	-90
929.801	1212
929.897	-763
929.993	547
930.089	635
930.184	371
930.280	380
930.376	1057
930.471	-297
930.567	602
930.663	86
930.758	23
930.854	796
930.950	785
931.045	351
931.141	921
931.236	406
931.332	963
931.427	-494
931.523	495
931.618	126
931.714	662
931.809	-226
931.905	976
932.000	-736
932.095	127
932.191	403
932.286	952
932.381	47
932.476	214
932.572	28
932.667	14
932.762	247
932.857	472
932.952	526
933.047	1213
933.142	494
933.237	693
933.332	113
933.427	796
933.522	377
933.617	-259
933.712	271
933.807	762
933.902	269
933.997	646
934.092	-794
934.187	195
934.282	-329
934.376	-278
934.471	70
934.566	1023
934.661	666
934.755	345
934.850	475
934.945	1010
935.039	-344
935.134	274
935.228	22
935.323	1041
935.417	592
935.512	654
935.606	-288
935.701	36
935.795	-87
935.890	911
935.984	-680
936.079	475
936.173	36
936.267	228
936.362	-777
936.456	-16
936.550	463
936.644	346
936.738	-382
936.833	721
936.927	-1292
937.021	98
937.115	-705
937.209	-635
937.303	-188
937.397	-297
937.491	-396
937.585	-138
937.679	129
937.773	-290
937.867	-809
937.961	247
938.055	-398
938.149	316
938.243	-493
938.337	222
938.430	132
938.524	34
938.618	-3
938.712	849
938.805	-282
938.899	782
938.993	-532
939.086	460
939.180	-910
939.274	763
939.367	298
939.461	-142
939.554	-455
939.648	310
939.741	-188
939.835	48
939.928	-747
940.022	900
940.115	-814
940.208	453
940.302	-440
940.395	252
940.488	-1442
940.582	761
940.675	-951
940.768	177
940.861	-468
940.954	1403
941.048	-403
941.141	-316
941.234	-840
941.327	293
941.420	-16
941.513	-412
941.606	-1212
941.699	182
941.792	-214
941.885	251
941.978	-717
942.071	302
942.164	-1282
942.257	386
942.349	-436
942.442	-144
942.535	-1431
942.628	-683
942.721	-45
942.813	-253
942.906	3
942.999	-82
943.091	-434
943.184	-676
943.277	-37
943.369	772
943.462	-676
943.554	170
943.647	-335
943.739	800
943.832	-774
943.924	-483
944.017	-973
944.109	-802
944.201	-709
944.294	269
944.386	-706
944.478	-220
944.571	-1541
944.663	-411
944.755	-187
944.847	100
944.940	-882
945.032	-645
945.124	-1175
945.216	1031
945.308	-793
945.400	326
945.492	-678
945.584	477
945.676	-57
945.768	222
945.860	-266
945.952	120
946.044	-413
946.136	-44
946.228	-408
946.320	-626
946.412	-306
946.503	157
946.595	358
946.687	-213
946.779	-549
946.870	-111
946.962	-1071
947.054	-538
947.145	-643
947.237	-309
947.329	-948
947.420	-429
947.512	-719
947.603	-188
947.695	-767
947.786	-848
947.878	-797
947.969	-347
948.061	-1051
948.152	-978
948.243	-1056
948.335	157
948.426	-472
948.517	-787
948.609	-1004
948.700	-129
948.791	-1346
948.882	-207
948.973	-310
949.065	-623
949.156	-134
949.247	-1342
949.338	-602
949.429	-900
949.520	-1188
949.611	-736
949.702	-424
949.793	-1093
949.884	141
949.975	-904
950.066	-1279
950.157	-397
950.247	-693
950.338	-764
950.429	-796
950.520	-651
950.611	-915
950.701	-445
950.792	-955
950.883	-625
950.973	-1183
951.064	-289
951.155	67
951.245	300
951.336	115
951.427	228
951.517	-450
951.608	-400
951.698	-868
951.788	-183
951.879	-1629
951.969	-370
952.060	-956
952.150	-980
952.240	-265
952.331	-1523
952.421	853
952.511	-880
952.602	-435
952.692	-555
952.782	98
952.872	-1160
952.962	-312
953.052	-466
953.143	-1536
953.233	-451
953.323	-334
953.413	-535
953.503	-746
953.593	29
953.683	-262
953.773	-629
953.863	-835
953.953	-1698
954.042	-1115
954.132	-357
954.222	223
954.312	-1405
954.402	-679
954.492	-291
954.581	-812
954.671	-968
954.761	-1266
954.850	687
954.940	-559
955.030	-200
955.119	-1054
955.209	67
955.298	-1416
955.388	-933
955.477	-179
955.567	-467
955.656	-907
955.746	-1
955.835	-1750
955.925	-1220
956.014	-108
956.103	-598
956.193	-179
956.282	-1208
956.371	-1404
956.461	-10
956.550	-1549
956.639	-761
956.728	-1377
956.817	-507
956.906	-1929
956.995	176
957.085	-669
957.174	-660
957.263	-1728
957.352	-163
957.441	-954
957.530	-559
957.619	-348
957.708	-388
957.796	-1521
957.885	-707
957.974	-1063
958.063	-576
958.152	-1475
958.241	-52
958.329	-1208
958.418	-201
958.507	-1467
958.596	-153
958.684	-1351
958.773	-328
958.861	-384
958.950	361
959.039	-732
959.127	-753
959.216	-160
959.304	132
959.393	-1160
959.481	-65
959.570	-525
959.658	-316
959.746	-406
959.835	979
959.923	-973
960.011	-321
960.100	-720
960.188	309
960.276	-1370
960.365	-580
960.453	-1459
960.541	-1949
960.629	-762
960.717	-703
960.805	-1413
960.893	-228
960.981	-1936
961.069	539
961.158	-1063
961.245	636
961.333	-1223
961.421	-163
961.509	-241
961.597	312
961.685	-1133
961.773	-476
961.861	-1543
961.949	-261
962.036	-1621
962.124	262
962.212	-1097
962.299	-488
962.387	-2122
962.475	-611
962.562	-2012
962.650	140
962.738	-1390
962.825	-1022
962.913	-1253
963.000	-264
963.088	-1741
963.175	-622
963.263	-658
963.350	-1174
963.438	-1279
963.525	-881
963.612	-880
963.700	-61
963.787	1053
963.874	-352
963.962	-1437
964.049	-433
964.136	-1778
964.223	-991
964.310	-1788
964.398	-550
964.485	-1380
964.572	-310
964.659	-983
964.746	-912
964.833	-697
964.920	-310
965.007	-2079
965.094	-761
965.181	-1030
965.268	-1183
965.355	-711
965.441	-533
965.528	-1640
965.615	-778
965.702	-754
965.789	-1646
965.875	-1174
965.962	-688
966.049	-1992
966.136	-1018
966.222	-1083
966.309	-22
966.395	-2415
966.482	-774
966.569	-1991
966.655	-952
966.742	-1377
966.828	-813
966.915	-1667
967.001	-754
967.087	-1852
967.174	-722
967.260	-444
967.347	-391
967.433	-1469
967.519	19
967.605	-1521
967.692	-1072
967.778	-990
967.864	90
967.950	-1248
968.036	-542
968.123	-1233
968.209	-1190
968.295	-1927
968.381	321
968.467	-697
968.553	-1593
968.639	-539
968.725	-610
968.811	-925
968.897	-1021
968.983	-829
969.069	-991
969.154	-1158
969.240	-659
969.326	-1893
969.412	-545
969.497	-1480
969.583	-1159
969.669	-451
969.755	213
969.840	-1592
969.926	-290
970.012	-1113
970.097	-152
970.183	-1515
970.268	-956
970.354	-773
970.439	-1324
970.525	-790
970.610	-827
970.696	-230
970.781	-1016
970.866	-1863
970.952	-410
971.037	-1627
971.122	-1138
971.208	-1198
971.293	-1147
971.378	-2479
971.463	-812
971.549	-586
971.634	-983
971.719	-1399
971.804	-135
971.889	-456
971.974	-932
972.059	-789
972.144	-1953
972.229	-1555
972.314	-1557
972.399	-326
972.484	-1150
972.569	-1114
972.654	-1226
972.739	-534
972.824	-696
972.908	-1727
972.993	-1037
973.078	-1596
973.163	-808
973.247	-1425
973.332	-1846
973.417	337
973.501	-1312
973.586	-1313
973.671	-1117
973.755	-1181
973.840	-147
973.924	-1148
974.009	269
974.093	-1447
974.178	112
974.262	-933
974.346	-213
974.431	-1079
974.515	-492
974.600	-1192
974.684	-980
974.768	-913
974.852	-1107
974.937	-2372
975.021	-269
975.105	-1330
975.189	-1172
975.273	-689
975.358	-783
975.442	-1235
975.526	340
975.610	-871
975.694	-930
975.778	-709
975.862	-396
975.946	-2570
976.030	616
976.114	-1556
976.198	-424
976.281	-397
976.365	-277
976.449	-745
976.533	-1077
976.617	-1771
976.700	-505
976.784	-918
976.868	-1474
976.951	-939
977.035	-1228
977.119	-1116
977.202	-1025
977.286	-1465
977.369	-527
977.453	-964
977.536	-795
977.620	-1237
977.703	-511
977.787	-1692
977.870	-469
977.953	-854
978.037	-1870
978.120	-599
978.203	-633
978.287	-215
978.370	-94
978.453	-1528
978.536	-1090
978.620	-979
978.703	-887
978.786	-1416
978.869	-1468
978.952	-2016
979.035	376
979.118	-643
979.201	-979
979.284	-1181
979.367	-776
979.450	-520
979.533	-583
979.616	-1889
979.699	-1052
979.782	-1107
979.865	-194
979.948	-1360
980.030	-1235
980.113	-1607
980.196	-1671
980.279	-859
980.361	-339
980.444	-1613
980.526	-601
980.609	-830
980.692	-1037
980.774	-581
980.857	-1382
980.939	-1063
981.022	-1453
981.104	-1153
981.187	-977
981.269	-635
981.352	-644
981.434	-1563
981.516	-1994
981.599	134
981.681	-427
981.763	-1004
981.846	-242
981.928	-1317
982.010	-1145
982.092	-2154
982.174	-670
982.256	-2696
982.339	-762
982.421	-719
982.503	-502
982.585	-1380
982.667	-776
982.749	-1150
982.831	-1112
982.913	-1879
982.995	-272
983.077	-1964
983.158	335
983.240	-3096
983.322	-401
983.404	-618
983.486	-1168
983.568	-8
983.649	-1066
983.731	-672
983.813	-825
983.894	-676
983.976	-1887
984.058	-223
984.139	-72
984.221	-1249
984.302	100
984.384	-1170
984.465	-853
984.547	-1286
984.628	-810
984.710	-565
984.791	-526
984.872	-1482
984.954	-1492
985.035	-502
985.116	-889
985.198	-913
985.279	1162
985.360	-2305
985.441	-1228
985.522	-990
985.604	-907
985.685	-2972
985.766	-417
985.847	124
985.928	-1264
986.009	-930
986.090	-1091
986.171	-1112
986.252	-908
986.333	-1274
986.414	-44
986.495	-540
986.576	-304
986.656	-782
986.737	-263
986.818	-896
986.899	-1527
986.980	-1217
987.060	-238
987.141	-1164
987.222	85
987.302	-946
987.383	108
987.464	-742
987.544	-135
987.625	-881
987.705	220
987.786	-1055
987.866	-625
987.947	-1416
988.027	-762
988.108	-1119
988.188	-886
988.268	-1310
988.349	-794
988.429	-806
988.509	-351
988.589	-1170
988.670	-1841
988.750	216
988.830	-608
988.910	-897
988.990	-508
989.070	-648
989.151	78
989.231	-1327
989.311	99
989.391	-1163
989.471	-872
989.551	-1284
989.631	-1562
989.711	-730
989.791	-967
989.870	-1378
989.950	364
990.030	-2270
990.110	-295
990.190	-1026
990.269	-1117
990.349	-1624
990.429	-505
990.509	-1021
990.588	-1060
990.668	-866
990.747	-382
990.827	-1254
990.907	19
990.986	-1673
991.066	-1235
991.145	-1921
991.225	-225
991.304	-1429
991.383	-571
991.463	-1188
991.542	-429
991.622	-1436
991.701	-1270
991.780	-1699
991.859	-687
991.939	-1874
992.018	-453
992.097	-1143
992.176	-975
992.256	-1662
992.335	-1704
992.414	-1225
992.493	-687
992.572	-1632
992.651	-67
992.730	-733
992.809	555
992.888	-1082
992.967	-1808
993.046	-1308
993.125	-1112
993.203	-1307
993.282	-450
993.361	-1133
993.440	-582
993.519	-1386
993.597	-939
993.676	-1914
993.755	-80
993.834	-1676
993.912	-1949
993.991	-527
994.069	-911
994.148	-1114
994.226	-891
994.305	-1980
994.384	-1072
994.462	-134
994.540	-1533
994.619	-1543
994.697	-325
994.776	-1591
994.854	482
994.932	-1259
995.011	-384
995.089	-1877
995.167	-769
995.245	-616
995.324	-1668
995.402	-1478
995.480	-886
995.558	-1487
995.636	-1459
995.714	-427
995.792	-255
995.870	-1519
995.948	-1018
996.026	-1171
996.104	-1474
996.182	-1147
996.260	-1217
996.338	-1065
996.416	-2049
996.494	-1046
996.572	-351
996.649	-1776
996.727	-1601
996.805	-963
996.883	-622
996.960	-1942
997.038	-741
997.116	-1407
997.193	-1876
997.271	-1273
997.348	-1309
997.426	-1169
997.504	-1570
997.581	-682
997.658	-963
997.736	-2128
997.813	-1503
997.891	-1461
997.968	-858
998.046	-1633
998.123	-1872
998.200	-1567
998.277	-1600
998.355	-541
998.432	-1613
998.509	-1906
998.586	-642
998.663	-967
998.741	-1082
998.818	-1851
998.895	-2026
998.972	-1672
999.049	-1626
999.126	-2067
999.203	-75
999.280	-1367
999.357	-958
999.434	-1576
999.511	-1039
999.587	-1246
999.664	-1974
999.741	-1052
999.818	-797
999.895	-1501
999.971	-1583
1000.048	-1491
1000.125	-756
1000.202	-1694
1000.278	-673
1000.355	-1268
1000.431	-1426
1000.508	-2193
1000.584	-949
1000.661	-834
1000.738	-1445
1000.814	-1711
1000.890	-1395
1000.967	-2191
1001.043	-1433
1001.120	-1801
1001.196	-1580
1001.272	-1828
1001.349	-1504
1001.425	-545
1001.501	-1097
1001.577	-2089
1001.654	-1133
1001.730	-2012
1001.806	-1131
1001.882	-3013
1001.958	-890
1002.034	-1870
1002.110	-1434
1002.186	-2266
1002.262	-1991
1002.338	-2510
1002.414	-1280
1002.490	-1466
1002.566	-1993
1002.642	-2502
1002.718	-844
1002.794	-1506
1002.870	-1129
1002.945	-2347
1003.021	-1371
1003.097	-1955
1003.173	-873
1003.248	-2009
1003.324	-1456
1003.400	-1951
1003.475	-1390
1003.551	-1230
1003.626	-956
1003.702	-1737
1003.777	-1631
1003.853	-1880
1003.928	-1883
1004.004	-1458
1004.079	-418
1004.155	-2277
1004.230	-1693
1004.305	-104
1004.381	-1858
1004.456	-1835
1004.531	-1001
1004.607	-1265
1004.682	-1901
1004.757	-1334
1004.832	-1270
1004.907	-2214
1004.982	-1233
1005.057	-1698
1005.133	-1675
1005.208	-2428
1005.283	-869
1005.358	-1599
1005.433	-1905
1005.508	-1620
1005.583	-1480
1005.657	-2321
1005.732	-818
1005.807	-2194
1005.882	-1389
1005.957	-712
1006.032	-303
1006.106	-1666
1006.181	-1247
1006.256	-1847
1006.331	-1908
1006.405	-2205
1006.480	-599
1006.554	-1649
1006.629	-1087
1006.704	-2506
1006.778	-1163
1006.853	-2047
1006.927	-1653
1007.002	-1928
1007.076	-979
1007.150	-1723
1007.225	-705
1007.299	-1282
1007.373	-2358
1007.448	-1670
1007.522	-600
1007.596	-1306
1007.671	-2445
1007.745	-1201
1007.819	-2165
1007.893	-1558
1007.967	-780
1008.041	-2918
1008.115	-180
1008.190	-2661
1008.264	-934
1008.338	-2651
1008.412	-2080
1008.486	-1830
1008.560	-1363
1008.633	-2897
1008.707	-1700
1008.781	-1530
1008.855	-999
1008.929	-1897
1009.003	-2147
1009.076	-2343
1009.150	-1438
1009.224	-1666
1009.298	-1493
1009.371	-1841
1009.445	-237
1009.519	-1287
1009.592	-2127
1009.666	-2147
1009.739	-1276
1009.813	-2593
1009.886	-1024
1009.960	-2369
1010.033	-1371
1010.107	-1460
1010.180	-2796
1010.253	-1787
1010.327	-1860
1010.400	-1155
1010.473	-1382
1010.547	-1123
1010.620	-1175
1010.693	-1660
1010.766	-1285
1010.840	-951
1010.913	-1460
1010.986	-1629
1011.059	-1133
1011.132	-2344
1011.205	-1660
1011.278	-2180
1011.351	-1821
1011.424	-1356
1011.497	-1917
1011.570	-1313
1011.643	-1522
1011.716	-2188
1011.789	-2101
1011.862	-2444
1011.934	-1856
1012.007	-1969
1012.080	-1083
1012.153	-1743
1012.225	-822
1012.298	-2226
1012.371	-2294
1012.443	-2310
1012.516	-1828
1012.588	-1600
1012.661	-1004
1012.733	-2364
1012.806	-1451
1012.879	-2473
1012.951	-1025
1013.023	-1810
1013.096	-1135
1013.168	-2532
1013.241	-1140
1013.313	-1807
1013.385	-2234
1013.458	-1180
1013.530	-1316
1013.602	-2598
1013.674	-899
1013.746	-2795
1013.819	-2261
1013.891	-2117
1013.963	-2047
1014.035	-1606
1014.107	-1936
1014.179	-2346
1014.251	-1738
1014.323	-1622
1014.395	-1229
1014.467	-1529
1014.539	-1839
1014.611	-2341
1014.683	-944
1014.754	-1427
1014.826	-1230
1014.898	-1558
1014.970	-3080
1015.042	-1208
1015.113	-1479
1015.185	-2390
1015.257	-1875
1015.328	-2141
1015.400	-2073
1015.471	-1786
1015.543	-2398
1015.615	-1991
1015.686	-1743
1015.757	-2273
1015.829	-1928
1015.901	-1850
1015.972	-1567
1016.043	-3011
1016.115	-911
1016.186	-2006
1016.257	-2203
1016.328	-2146
1016.400	-913
1016.471	-1986
1016.542	-1201
1016.613	-2094
1016.685	-999
1016.756	-2060
1016.827	-2039
1016.898	-2650
1016.969	-1061
1017.040	-2651
1017.111	-2555
1017.182	-1818
1017.253	-1379
1017.324	-2371
1017.395	-1747
1017.466	-1431
1017.537	-1344
1017.608	-1873
1017.678	-1309
1017.749	-2549
1017.820	-1672
1017.891	-2137
1017.961	-2029
1018.032	-2231
1018.103	-1565
1018.173	-1927
1018.244	-2139
1018.315	-2153
1018.385	-779
1018.456	-2157
1018.526	-1951
1018.597	-2064
1018.667	-1841
1018.738	-2209
1018.808	-958
1018.878	-1972
1018.949	-1951
1019.019	-1780
1019.089	-1775
1019.160	-2548
1019.230	-2526
1019.300	-1303
1019.371	-1869
1019.441	-1332
1019.511	-860
1019.581	-1653
1019.651	-1934
1019.721	-1972
1019.791	-2338
1019.861	-1590
1019.931	-1272
1020.001	-2312
1020.071	-1798
1020.141	-2477
1020.211	-1464
1020.281	-2444
1020.351	-2072
1020.421	-1901
1020.491	-1210
1020.560	-2860
1020.630	-1855
1020.700	-2615
1020.770	-2128
1020.839	-2990
1020.909	-2377
1020.979	-2808
1021.048	-1479
1021.118	-1314
1021.187	-1984
1021.257	-2222
1021.326	-1191
1021.396	-2126
1021.465	-1608
1021.535	-2456
1021.604	-3054
1021.674	-1781
1021.743	-1568
1021.812	-2646
1021.882	-1705
1021.951	-2475
1022.020	-1736
1022.089	-1816
1022.159	-1686
1022.228	-1717
1022.297	-2352
1022.366	-2133
1022.435	-1366
1022.504	-1764
1022.573	-1989
1022.642	-1777
1022.711	-1876
1022.781	-1879
1022.849	-1335
1022.918	-2332
1022.987	-1808
1023.056	-2391
1023.125	-1796
1023.194	-2427
1023.263	-1282
1023.331	-1676
1023.400	-1288
1023.469	-2667
1023.538	-1714
1023.606	-2829
1023.675	-1823
1023.744	-2445
1023.812	-2724
1023.881	-1525
1023.949	-1553
1024.018	-3298
1024.086	-1786
1024.155	-1277
1024.223	-1930
1024.292	-2850
1024.360	-1668
1024.429	-2764
1024.497	-1953
1024.565	-1834
1024.634	-2448
1024.702	-2315
1024.770	-2185
1024.838	-2840
1024.907	-1875
1024.975	-1213
1025.043	-2332
1025.111	-2967
1025.179	-848
1025.247	-1919
1025.315	-2181
1025.383	-1886
1025.451	-1874
1025.519	-2168
1025.587	-1527
1025.655	-1956
1025.723	-1492
1025.791	-2616
1025.859	-1093
1025.927	-1672
1025.995	-2213
1026.062	-1542
1026.130	-1734
1026.198	-1760
1026.266	-1611
1026.333	-2074
1026.401	-848
1026.469	-1788
1026.536	-1990
1026.604	-2034
1026.671	-1383
1026.739	-2737
1026.806	-1904
1026.874	-2608
1026.941	-1977
1027.009	-2373
1027.076	-2043
1027.144	-1964
1027.211	-1780
1027.278	-2277
1027.345	-1669
1027.413	-2612
1027.480	-1793
1027.547	-2443
1027.614	-1222
1027.682	-2429
1027.749	-2505
1027.816	-2340
1027.883	-1776
1027.950	-2639
1028.017	-1948
1028.084	-1670
1028.151	-2325
1028.218	-2025
1028.285	-2226
1028.352	-1663
1028.419	-1348
1028.486	-2039
1028.553	-1889
1028.619	-2523
1028.686	-1841
1028.753	-2670
1028.820	-2461
1028.886	-2488
1028.953	-1874
1029.020	-2252
1029.086	-2114
1029.153	-1622
1029.220	-1700
1029.286	-1592
1029.353	-1547
1029.419	-1856
1029.486	-1754
1029.552	-1970
1029.619	-2226
1029.685	-1935
1029.751	-1030
1029.818	-734
1029.884	-1665
1029.951	-1453
1030.017	-1914
1030.083	-2431
1030.149	-1376
1030.216	-1593
1030.282	-1260
1030.348	-2291
1030.414	-2800
1030.480	-1919
1030.546	-1528
1030.612	-1992
1030.678	-2008
1030.744	-2486
1030.810	-1163
1030.876	-1610
1030.942	-2256
1031.008	-1623
1031.074	-2514
1031.140	-2003
1031.206	-992
1031.272	-3028
1031.337	-1892
1031.403	-2429
1031.469	-1742
1031.534	-1846
1031.600	-1607
1031.666	-2413
1031.731	-2459
1031.797	-1945
1031.863	-1661
1031.928	-2009
1031.994	-1871
1032.059	-1664
1032.125	-1719
1032.190	-2772
1032.256	-2045
1032.321	-2518
1032.386	-1902
1032.452	-2188
1032.517	-1672
1032.582	-2063
1032.647	-1483
1032.713	-2060
1032.778	-1385
1032.843	-1829
1032.908	-1408
1032.974	-2240
1033.039	-1818
1033.104	-2081
1033.169	-1325
1033.234	-2540
1033.299	-1500
1033.364	-2170
1033.429	-1622
1033.494	-1805
1033.559	-1848
1033.624	-1913
1033.688	-1877
1033.753	-2551
1033.818	-1260
1033.883	-2493
1033.948	-1184
1034.013	-2783
1034.077	-1651
1034.142	-1192
1034.207	-766
1034.271	-1146
1034.336	-344
1034.400	-1545
1034.465	-2007
1034.530	-1399
1034.594	-1637
1034.658	-2746
1034.723	-969
1034.787	-2451
1034.852	-1804
1034.916	-2255
1034.981	-1878
1035.045	-2285
1035.109	-1600
1035.173	-1631
1035.238	-1773
1035.302	-2476
1035.366	-1809
1035.430	-2251
1035.495	-1902
1035.559	-1788
1035.623	-1967
1035.687	-2887
1035.751	-1538
1035.815	-2011
1035.879	-2029
1035.943	-2579
1036.007	-1892
1036.071	-2217
1036.135	-1730
1036.198	-2204
1036.262	-2276
1036.326	-1810
1036.390	-2411
1036.454	-2233
1036.517	-2077
1036.581	-2397
1036.645	-2118
1036.709	-1664
1036.772	-2004
1036.836	-1552
1036.900	-1846
1036.963	-2259
1037.026	-1296
1037.090	-2435
1037.154	-2106
1037.217	-2120
1037.280	-1604
1037.344	-1545
1037.407	-2371
1037.471	-2382
1037.534	-1715
1037.597	-2738
1037.661	-1053
1037.724	-2796
1037.787	-2173
1037.850	-1817
1037.913	-2175
1037.977	-2446
1038.040	-2121
1038.103	-2821
1038.166	-2155
1038.229	-1810
1038.292	-2262
1038.355	-2097
1038.418	-1444
1038.481	-1919
1038.544	-1267
1038.607	-2394
1038.670	-2073
1038.732	-2429
1038.795	-1935
1038.858	-2130
1038.921	-1962
1038.984	-2503
1039.046	-1759
1039.109	-2855
1039.172	-2455
1039.234	-2676
1039.297	-2105
1039.360	-1719
1039.422	-1716
1039.485	-2624
1039.547	-2805
1039.610	-2623
1039.672	-1963
1039.734	-3124
1039.797	-1850
1039.859	-2319
1039.922	-1384
1039.984	-1964
1040.046	-1944
1040.109	-2784
1040.171	-2599
1040.233	-3051
1040.295	-1927
1040.358	-2890
1040.420	-2303
1040.482	-1923
1040.544	-2258
1040.606	-2583
1040.668	-2132
1040.730	-2104
1040.792	-2004
1040.854	-2903
1040.916	-1936
1040.978	-2867
1041.040	-1649
1041.102	-2529
1041.164	-2405
1041.225	-2308
1041.287	-2026
1041.349	-2320
1041.411	-2593
1041.472	-2562
1041.534	-1299
1041.596	-2827
1041.657	-2067
1041.719	-1825
1041.781	-1942
1041.842	-2820
1041.904	-1526
1041.965	-2722
1042.027	-1817
1042.088	-3132
1042.150	-2451
1042.211	-2267
1042.272	-970
1042.334	-2231
1042.395	-1992
1042.456	-2603
1042.518	-1822
1042.579	-2023
1042.640	-1989
1042.701	-1689
1042.763	-1825
1042.824	-3410
1042.885	-2247
1042.946	-2406
1043.007	-2645
1043.068	-2582
1043.129	-1795
1043.190	-2375
1043.251	-2197
1043.312	-2110
1043.373	-2045
1043.434	-1926
1043.495	-951
1043.556	-2218
1043.616	-1550
1043.677	-1724
1043.738	-1893
1043.799	-2267
1043.859	-1901
1043.920	-2739
1043.981	-1766
1044.041	-2403
1044.102	-1790
1044.162	-2149
1044.223	-1622
1044.284	-2247
1044.344	-1349
1044.405	-2673
1044.465	-1723
1044.525	-2582
1044.586	-1709
1044.646	-1735
1044.707	-1876
1044.767	-2937
1044.827	-1467
1044.887	-2467
1044.948	-1740
1045.008	-2033
1045.068	-1601
1045.128	-2397
1045.188	-2375
1045.249	-2096
1045.309	-1791
1045.369	-2370
1045.429	-1921
1045.489	-2059
1045.549	-1227
1045.609	-2701
1045.669	-2238
1045.729	-2369
1045.789	-2112
1045.848	-1987
1045.908	-1250
1045.968	-1846
1046.028	-1582
1046.088	-2150
1046.147	-2052
1046.207	-2405
1046.267	-2011
1046.326	-1870
1046.386	-1306
1046.446	-1931
1046.505	-1042
1046.565	-1307
1046.624	-1252
1046.684	-1477
1046.743	-1221
1046.803	-1428
1046.862	-785
1046.922	0
