'Start Wavelength	183.907
'End Wavelength	1046.922
'Gate Delay	5.000
'Gate Width (ms)	1.050
'Laser Output Level	0.000
'X Position	0.000
'Y Position	0.000
'Z Position	0.000
'Grid Point Number	1.000
'Shot Number	100.000
183.907	116.000
183.977	-185.000
184.047	50
184.116	1169
184.186	-303
184.256	261
184.325	-426
184.395	-1055
184.465	698
184.534	448
184.604	-532
184.674	657
184.743	-926
184.813	40
184.883	-228
184.952	-476
185.022	68
185.092	191
185.161	202
185.231	399
185.301	-93
185.370	65
185.440	-6
185.509	-407
185.579	210
185.649	807
185.718	367
185.788	835
185.857	-642
185.927	-318
185.996	156
186.066	470
186.136	-84
186.205	-405
186.275	-5
186.344	28
186.414	408
186.483	-760
186.553	831
186.622	511
186.692	609
186.761	1005
186.831	-237
186.900	-523
186.970	682
187.039	180
187.109	1104
187.178	811
187.248	323
187.317	895
187.387	-190
187.456	-273
187.526	24
187.595	298
187.664	-123
187.734	465
187.803	694
187.873	548
187.942	728
188.012	209
188.081	-114
188.150	-75
188.220	1116
188.289	752
188.358	189
188.428	156
188.497	404
188.567	65
188.636	444
188.705	297
188.775	-668
188.844	-113
188.913	1206
188.983	-18
189.052	516
189.121	686
189.191	75
189.260	339
189.329	281
189.399	-555
189.468	456
189.537	35
189.606	725
189.676	597
189.745	598
189.814	626
189.883	181
189.953	282
190.022	409
190.091	828
190.161	1237
190.230	819
190.299	24
190.368	127
190.437	108
190.507	448
190.576	554
190.645	620
190.714	708
190.783	-281
190.853	764
190.922	508
190.991	296
191.060	958
191.129	115
191.198	1105
191.268	-212
191.337	187
191.406	839
191.475	-406
191.544	-626
191.613	495
191.682	-198
191.752	282
191.821	561
191.890	-116
191.959	248
192.028	262
192.097	496
192.166	546
192.235	361
192.304	653
192.373	533
192.442	536
192.511	676
192.580	466
192.650	606
192.719	-429
192.788	465
192.857	168
192.926	601
192.995	1038
193.064	-78
193.133	432
193.202	577
193.271	334
193.340	765
193.409	630
193.478	703
193.547	1025
193.615	1511
193.684	1040
193.753	488
193.822	983
193.891	482
193.960	545
194.029	308
194.098	777
194.167	47
194.236	885
194.305	152
194.374	294
194.443	159
194.512	423
194.580	171
194.649	519
194.718	294
194.787	312
194.856	350
194.925	1029
194.994	168
195.062	660
195.131	246
195.200	409
195.269	902
195.338	116
195.407	1021
195.475	709
195.544	800
195.613	935
195.682	1003
195.751	43
195.819	286
195.888	-611
195.957	1843
196.026	655
196.094	420
196.163	938
196.232	628
196.301	771
196.369	134
196.438	675
196.507	463
196.576	390
196.644	464
196.713	235
196.782	-225
196.850	706
196.919	-47
196.988	857
197.056	201
197.125	106
197.194	627
197.262	231
197.331	560
197.400	136
197.468	167
197.537	111
197.606	916
197.674	877
197.743	1122
197.812	477
197.880	853
197.949	41
198.017	1097
198.086	-96
198.155	800
198.223	898
198.292	802
198.360	774
198.429	-31
198.497	356
198.566	874
198.635	1175
198.703	1089
198.772	244
198.840	879
198.909	997
198.977	733
199.046	645
199.114	1163
199.183	694
199.251	402
199.320	921
199.388	311
199.457	235
199.525	865
199.594	953
199.662	200
199.731	491
199.799	775
199.867	1178
199.936	192
200.004	1370
200.073	799
200.141	478
200.210	182
200.278	122
200.346	801
200.415	982
200.483	678
200.552	454
200.620	69
200.688	97
200.757	1162
200.825	-10
200.893	-82
200.962	49
201.030	847
201.098	1062
201.167	1278
201.235	1032
201.303	539
201.372	1516
201.440	932
201.508	373
201.577	1082
201.645	702
201.713	455
201.781	583
201.850	594
201.918	364
201.986	-79
202.055	877
202.123	734
202.191	669
202.259	379
202.327	491
202.396	764
202.464	257
202.532	834
202.600	1304
202.669	1520
202.737	951
202.805	682
202.873	424
202.941	1141
203.009	1050
203.078	851
203.146	308
203.214	587
203.282	179
203.350	873
203.418	745
203.487	1397
203.555	-15
203.623	357
203.691	1292
203.759	743
203.827	1097
203.895	1728
203.963	902
204.031	1086
204.099	950
204.168	864
204.236	1033
204.304	905
204.372	1102
204.440	1349
204.508	210
204.576	1210
204.644	835
204.712	1200
204.780	514
204.848	212
204.916	812
204.984	729
205.052	1664
205.120	859
205.188	961
205.256	1047
205.324	532
205.392	689
205.460	1333
205.528	1532
205.596	786
205.664	875
205.732	511
205.799	2158
205.867	2664
205.935	929
206.003	859
206.071	503
206.139	1028
206.207	1461
206.275	644
206.343	500
206.411	878
206.478	770
206.546	1332
206.614	1236
206.682	830
206.750	1008
206.818	1253
206.885	1249
206.953	610
207.021	1681
207.089	1367
207.157	-217
207.225	691
207.292	1099
207.360	869
207.428	1235
207.496	1221
207.563	1450
207.631	591
207.699	753
207.767	1587
207.834	1533
207.902	913
207.970	1181
208.038	1260
208.105	317
208.173	1576
208.241	1977
208.309	2261
208.376	1070
208.444	2098
208.512	831
208.579	1174
208.647	1126
208.715	1968
208.782	1175
208.850	1414
208.918	433
208.985	1198
209.053	1550
209.120	1234
209.188	1461
209.256	1089
209.323	521
209.391	534
209.459	2645
209.526	887
209.594	1727
209.661	1361
209.729	1314
209.796	1566
209.864	2315
209.932	743
209.999	2031
210.067	902
210.134	1025
210.202	1737
210.269	2232
210.337	1484
210.404	1494
210.472	1215
210.539	2167
210.607	1969
210.674	1414
210.742	1569
210.809	1206
210.877	1341
210.944	1961
211.012	1310
211.079	2350
211.146	1398
211.214	1146
211.281	2365
211.349	2595
211.416	1341
211.484	2096
211.551	1681
211.618	2121
211.686	1948
211.753	1313
211.821	1491
211.888	1886
211.955	1793
212.023	1504
212.090	947
212.157	1326
212.225	1464
212.292	1590
212.359	3243
212.427	4993
212.494	3440
212.561	2022
212.629	2159
212.696	1815
212.763	2423
212.831	1248
212.898	2389
212.965	1242
213.032	2622
213.100	1609
213.167	886
213.234	1945
213.301	1500
213.369	1627
213.436	1928
213.503	1170
213.570	2143
213.638	1850
213.705	2062
213.772	1602
213.839	1341
213.906	1648
213.973	1862
214.041	1120
214.108	1762
214.175	2018
214.242	1323
214.309	1880
214.376	1794
214.444	1034
214.511	1740
214.578	1959
214.645	2418
214.712	1852
214.779	1203
214.846	1404
214.913	2509
214.980	2307
215.048	2674
215.115	2257
215.182	2292
215.249	3004
215.316	2217
215.383	2137
215.450	1336
215.517	1388
215.584	1562
215.651	1319
215.718	1381
215.785	1667
215.852	1676
215.919	1814
215.986	2186
216.053	1690
216.120	1234
216.187	1531
216.254	1972
216.321	1507
216.388	1661
216.455	1449
216.522	2710
216.589	2793
216.656	2947
216.722	2779
216.789	3036
216.856	2826
216.923	2550
216.990	2028
217.057	1871
217.124	2818
217.191	2457
217.258	3220
217.324	3509
217.391	4208
217.458	2671
217.525	2729
217.592	2044
217.659	1744
217.725	3170
217.792	1924
217.859	2462
217.926	1260
217.993	891
218.059	1803
218.126	1326
218.193	1376
218.260	2235
218.327	1104
218.393	1349
218.460	471
218.527	739
218.594	1141
218.660	1267
218.727	1918
218.794	441
218.860	1626
218.927	1639
218.994	859
219.061	902
219.127	1970
219.194	1647
219.261	1327
219.327	1350
219.394	1577
219.461	-141
219.527	752
219.594	1436
219.661	1090
219.727	628
219.794	1539
219.860	907
219.927	1133
219.994	1927
220.060	2633
220.127	2348
220.193	1994
220.260	2626
220.326	3676
220.393	5045
220.460	5969
220.526	4688
220.593	3154
220.659	4702
220.726	2404
220.792	4708
220.859	5527
220.925	6714
220.992	8481
221.058	7289
221.125	6608
221.191	4560
221.258	2414
221.324	2923
221.391	1750
221.457	1200
221.524	2143
221.590	2039
221.657	3980
221.723	2389
221.789	2411
221.856	3695
221.922	1384
221.989	1652
222.055	1324
222.121	867
222.188	2577
222.254	2036
222.321	874
222.387	1152
222.453	472
222.520	2012
222.586	609
222.652	2187
222.719	1070
222.785	1669
222.851	919
222.918	1256
222.984	1543
223.050	1249
223.116	-337
223.183	1928
223.249	821
223.315	723
223.382	914
223.448	695
223.514	724
223.580	1003
223.647	446
223.713	846
223.779	952
223.845	665
223.911	1511
223.978	536
224.044	1406
224.110	851
224.176	1251
224.242	-56
224.309	73
224.375	1520
224.441	1279
224.507	630
224.573	-120
224.639	1453
224.705	-237
224.772	402
224.838	901
224.904	1590
224.970	968
225.036	957
225.102	800
225.168	1272
225.234	2050
225.300	1567
225.366	868
225.432	1200
225.499	890
225.565	1218
225.631	708
225.697	1524
225.763	1555
225.829	1609
225.895	2354
225.961	1725
226.027	2559
226.093	1868
226.159	3792
226.225	5342
226.291	8127
226.357	11145
226.423	7563
226.489	4992
226.554	3233
226.620	4026
226.686	3996
226.752	5413
226.818	7755
226.884	10000
226.950	9932
227.016	6922
227.082	5487
227.148	2906
227.214	3162
227.279	2193
227.345	2447
227.411	1578
227.477	1977
227.543	3394
227.609	3398
227.674	3523
227.740	2106
227.806	2267
227.872	1898
227.938	2019
228.003	1925
228.069	1651
228.135	1193
228.201	1488
228.267	1132
228.332	948
228.398	448
228.464	1531
228.530	538
228.595	616
228.661	769
228.727	802
228.792	2090
228.858	1242
228.924	-335
228.990	2471
229.055	741
229.121	1172
229.187	1059
229.252	349
229.318	922
229.384	987
229.449	1415
229.515	235
229.581	367
229.646	2215
229.712	1330
229.777	1323
229.843	1363
229.909	2389
229.974	2279
230.040	2396
230.105	1977
230.171	808
230.236	2571
230.302	3203
230.368	1766
230.433	1217
230.499	1862
230.564	2885
230.630	1433
230.695	1036
230.761	2067
230.826	460
230.892	2261
230.957	795
231.023	1219
231.088	1360
231.154	1502
231.219	1724
231.284	1859
231.350	1393
231.415	1233
231.481	2073
231.546	1223
231.612	1975
231.677	546
231.742	278
231.808	2447
231.873	1052
231.939	-180
232.004	2035
232.069	2097
232.135	694
232.200	1115
232.265	955
232.331	1166
232.396	848
232.461	324
232.527	647
232.592	602
232.657	1349
232.723	1066
232.788	1315
232.853	1238
232.918	496
232.984	727
233.049	798
233.114	906
233.179	1307
233.245	2577
233.310	2118
233.375	367
233.440	1424
233.506	1490
233.571	1304
233.636	613
233.701	1144
233.766	1197
233.832	1399
233.897	1162
233.962	-79
234.027	1811
234.092	2021
234.157	1258
234.222	1269
234.288	594
234.353	3222
234.418	3773
234.483	3042
234.548	2693
234.613	1846
234.678	2208
234.743	1368
234.808	4547
234.873	2137
234.938	2683
235.004	1805
235.069	1610
235.134	1374
235.199	1604
235.264	1798
235.329	743
235.394	1884
235.459	2385
235.524	1263
235.589	1926
235.654	1620
235.719	518
235.784	2346
235.849	1887
235.913	2902
235.978	3022
236.043	2899
236.108	1841
236.173	1489
236.238	2544
236.303	1585
236.368	1310
236.433	2320
236.498	3540
236.563	4231
236.627	8362
236.692	14512
236.757	14014
236.822	8580
236.887	5674
236.952	5264
237.017	3181
237.081	4865
237.146	5504
237.211	11792
237.276	16406
237.341	17064
237.405	12729
237.470	6976
237.535	5124
237.600	4063
237.664	3436
237.729	2430
237.794	3394
237.859	9648
237.923	4856
237.988	2639
238.053	3911
238.118	2670
238.182	4470
238.247	5792
238.312	1491
238.376	2590
238.441	296
238.506	2961
238.570	857
238.635	2605
238.700	2788
238.764	738
238.829	2998
238.893	2534
238.958	2999
239.023	2050
239.087	1685
239.152	2816
239.216	1374
239.281	1612
239.346	1761
239.410	1541
239.475	1510
239.539	4392
239.604	3352
239.668	2429
239.733	2514
239.797	3530
239.862	6985
239.926	5954
239.991	3220
240.055	2413
240.120	1302
240.184	2339
240.249	1282
240.313	1096
240.378	1046
240.442	3878
240.507	4460
240.571	1927
240.635	2093
240.700	2561
240.764	1702
240.829	1629
240.893	399
240.957	1979
241.022	2502
241.086	4875
241.151	1697
241.215	-32
241.279	2759
241.344	2152
241.408	3159
241.472	2064
241.537	3635
241.601	2709
241.665	1446
241.730	2416
241.794	2628
241.858	2802
241.922	2273
241.987	2013
242.051	2662
242.115	1211
242.179	3140
242.244	1720
242.308	2539
242.372	1975
242.436	2218
242.501	2512
242.565	1599
242.629	1334
242.693	3675
242.757	1631
242.822	2008
242.886	2071
242.950	2136
243.014	1166
243.078	1725
243.142	1755
243.206	1388
243.271	2734
243.335	1558
243.399	3695
243.463	7419
243.527	19152
243.591	6848
243.655	3734
243.719	2183
243.783	3067
243.847	4075
243.911	4895
243.975	5301
244.040	3140
244.104	4508
244.168	2014
244.232	2199
244.296	4178
244.360	4548
244.424	2570
244.488	1721
244.552	2451
244.615	907
244.679	1697
244.743	1736
244.807	1059
244.871	2594
244.935	1708
244.999	512
245.063	2121
245.127	2750
245.191	3303
245.255	2790
245.319	2790
245.383	429
245.446	2691
245.510	1454
245.574	2141
245.638	2336
245.702	448
245.766	3247
245.829	3265
245.893	1538
245.957	1999
246.021	2990
246.085	2562
246.149	2724
246.212	5072
246.276	4998
246.340	2628
246.404	3346
246.467	2893
246.531	2195
246.595	3735
246.659	2870
246.722	1742
246.786	3159
246.850	2805
246.913	4273
246.977	1450
247.041	2566
247.104	1906
247.168	2091
247.232	4973
247.295	6871
247.359	4218
247.423	2312
247.486	3662
247.550	2784
247.614	2134
247.677	3461
247.741	2072
247.804	1793
247.868	2681
247.932	2668
247.995	7133
248.059	3776
248.122	1361
248.186	2831
248.249	5213
248.313	9978
248.376	11345
248.440	8122
248.503	2927
248.567	4514
248.630	3669
248.694	5584
248.757	8251
248.821	11186
248.884	9673
248.948	6927
249.011	10882
249.075	12340
249.138	11692
249.202	6634
249.265	5044
249.328	5223
249.392	3478
249.455	5104
249.519	4089
249.582	3769
249.645	6003
249.709	5690
249.772	5972
249.835	3930
249.899	3939
249.962	3992
250.025	2673
250.089	5248
250.152	8005
250.215	4718
250.279	4049
250.342	4355
250.405	4086
250.468	3246
250.532	5039
250.595	6735
250.658	16516
250.721	28364
250.785	11874
250.848	8233
250.911	3836
250.974	5388
251.038	4971
251.101	8578
251.164	6035
251.227	5866
251.290	5475
251.354	9593
251.417	24357
251.480	26246
251.543	21289
251.606	39050
251.669	33965
251.732	16707
251.795	14462
251.859	14992
251.922	27140
251.985	18642
252.048	9198
252.111	7312
252.174	5853
252.237	9052
252.300	14422
252.363	17981
252.426	33278
252.489	15573
252.552	9157
252.615	5590
252.678	7651
252.741	11313
252.804	17771
252.867	34732
252.930	22504
252.993	12382
253.056	9281
253.119	6209
253.182	4398
253.245	8210
253.308	6897
253.371	5325
253.434	5210
253.497	5559
253.559	7717
253.622	6055
253.685	7266
253.748	7639
253.811	4286
253.874	4738
253.937	4504
254.000	4645
254.062	5520
254.125	7707
254.188	9593
254.251	7728
254.314	3187
254.376	5498
254.439	6415
254.502	6366
254.565	4594
254.628	10510
254.690	6580
254.753	2376
254.816	3184
254.878	3759
254.941	5952
255.004	5976
255.067	3529
255.129	3441
255.192	2233
255.255	1287
255.317	3375
255.380	1984
255.443	1396
255.505	1684
255.568	1118
255.631	1707
255.693	2836
255.756	1512
255.819	2759
255.881	1530
255.944	1834
256.006	1528
256.069	1414
256.132	1659
256.194	2158
256.257	3944
256.319	3756
256.382	2443
256.444	3584
256.507	3626
256.569	3163
256.632	3653
256.694	4120
256.757	13304
256.819	30955
256.882	16698
256.944	7584
257.007	5778
257.069	5008
257.132	3673
257.194	4784
257.257	3377
257.319	3302
257.381	4800
257.444	11714
257.506	32092
257.569	35634
257.631	17643
257.693	9175
257.756	5776
257.818	3470
257.880	3509
257.943	2854
258.005	2518
258.067	2700
258.130	2522
258.192	3012
258.254	4583
258.317	3314
258.379	2422
258.441	4246
258.503	5424
258.566	5610
258.628	7170
258.690	2695
258.753	4147
258.815	5485
258.877	3789
258.939	3440
259.001	3374
259.064	3369
259.126	2139
259.188	3149
259.250	3871
259.312	3348
259.375	4831
259.437	3609
259.499	2275
259.561	2238
259.623	3348
259.685	2262
259.747	3095
259.809	5787
259.872	9111
259.934	12614
259.996	15969
260.058	6627
260.120	2966
260.182	2419
260.244	1749
260.306	1841
260.368	2532
260.430	1604
260.492	5812
260.554	9213
260.616	3151
260.678	5781
260.740	9377
260.802	3726
260.864	3122
260.926	1851
260.988	2830
261.050	3219
261.112	7212
261.174	15597
261.236	8438
261.298	3913
261.359	4399
261.421	7000
261.483	2317
261.545	3492
261.607	1549
261.669	2779
261.731	3828
261.793	6771
261.854	3120
261.916	3571
261.978	3466
262.040	4087
262.102	2553
262.164	2409
262.225	3196
262.287	2074
262.349	4429
262.411	3893
262.472	2836
262.534	2599
262.596	5032
262.658	3143
262.719	1315
262.781	2920
262.843	4649
262.904	3129
262.966	2564
263.028	3038
263.090	11321
263.151	30838
263.213	11844
263.275	7681
263.336	3392
263.398	2741
263.459	1309
263.521	2177
263.583	4884
263.644	3909
263.706	2287
263.767	1387
263.829	1415
263.891	952
263.952	1518
264.014	1935
264.075	3927
264.137	11068
264.198	4239
264.260	1162
264.321	2337
264.383	4393
264.444	15349
264.506	5748
264.567	2871
264.629	5730
264.690	12255
264.752	4897
264.813	2999
264.875	1339
264.936	3118
264.998	1742
265.059	2357
265.120	2705
265.182	4675
265.243	21197
265.305	24326
265.366	7608
265.427	3688
265.489	4254
265.550	1149
265.611	1307
265.673	3294
265.734	2136
265.795	2780
265.857	1617
265.918	2309
265.979	7177
266.040	28270
266.102	29200
266.163	9212
266.224	6446
266.286	4274
266.347	2343
266.408	2513
266.469	2797
266.530	1880
266.592	1296
266.653	3052
266.714	4595
266.775	3168
266.836	2270
266.898	984
266.959	3669
267.020	2355
267.081	2797
267.142	2228
267.203	2221
267.264	598
267.326	3651
267.387	2032
267.448	1297
267.509	2342
267.570	1416
267.631	1507
267.692	677
267.753	2314
267.814	741
267.875	2138
267.936	6809
267.997	5416
268.058	3477
268.119	1497
268.180	1188
268.241	1070
268.302	1949
268.363	976
268.424	1683
268.485	2472
268.546	1578
268.607	1154
268.668	1439
268.729	118
268.790	1939
268.851	1948
268.912	4438
268.972	4483
269.033	2939
269.094	1267
269.155	1770
269.216	1212
269.277	1587
269.338	1444
269.398	1135
269.459	959
269.520	2458
269.581	2988
269.642	3848
269.702	1773
269.763	3369
269.824	1970
269.885	2028
269.945	4182
270.006	2257
270.067	1035
270.128	1623
270.188	818
270.249	1172
270.310	879
270.370	2167
270.431	1108
270.492	1219
270.553	1652
270.613	2648
270.674	5961
270.734	3189
270.795	1135
270.856	2844
270.916	1892
270.977	1673
271.038	2106
271.098	975
271.159	3211
271.219	3435
271.280	1634
271.340	2361
271.401	478
271.462	2375
271.522	2530
271.583	2545
271.643	1635
271.704	1563
271.764	2693
271.825	4942
271.885	12468
271.946	15944
272.006	6797
272.066	7155
272.127	12464
272.187	6153
272.248	3530
272.308	2998
272.369	8759
272.429	6253
272.489	4585
272.550	5113
272.610	5668
272.671	4148
272.731	3800
272.791	4617
272.852	3196
272.912	2915
272.972	1851
273.033	1807
273.093	2967
273.153	3615
273.214	2836
273.274	2133
273.334	8972
273.394	13403
273.455	6057
273.515	5676
273.575	13552
273.635	5092
273.696	7069
273.756	10873
273.816	5138
273.876	4904
273.936	5456
273.997	10065
274.057	3164
274.117	2219
274.177	3889
274.237	16105
274.297	14341
274.358	8033
274.418	9861
274.478	8386
274.538	3676
274.598	1936
274.658	6576
274.718	9327
274.778	4035
274.838	2532
274.898	3840
274.958	11375
275.018	12166
275.078	7801
275.138	3851
275.198	2389
275.258	1946
275.318	2265
275.378	4503
275.438	5909
275.498	3627
275.558	5975
275.618	11763
275.678	8386
275.738	6419
275.798	6553
275.858	4364
275.918	1739
275.978	2691
276.038	3551
276.098	1834
276.157	3400
276.217	10610
276.277	5142
276.337	3347
276.397	2833
276.457	3431
276.517	2423
276.576	2116
276.636	2090
276.696	2031
276.756	6235
276.815	4999
276.875	2296
276.935	2045
276.995	2863
277.055	2497
277.114	1612
277.174	2413
277.234	7484
277.293	3863
277.353	2797
277.413	1942
277.472	1521
277.532	1842
277.592	2384
277.651	5956
277.711	12815
277.771	5126
277.830	15148
277.890	12404
277.950	7719
278.009	21935
278.069	9241
278.128	8892
278.188	13997
278.248	5339
278.307	13644
278.367	9208
278.426	2779
278.486	2689
278.545	1805
278.605	1426
278.664	1368
278.724	1435
278.783	4834
278.843	12134
278.902	4562
278.962	2186
279.021	3005
279.081	3395
279.140	3296
279.199	2448
279.259	2785
279.318	3596
279.378	4111
279.437	5944
279.496	15350
279.556	51239
279.615	46118
279.675	12412
279.734	7058
279.793	8646
279.853	13511
279.912	6648
279.971	3637
280.031	3607
280.090	6100
280.149	10057
280.208	8475
280.268	38885
280.327	44053
280.386	10778
280.445	8326
280.505	7718
280.564	3952
280.623	3481
280.682	4715
280.742	8092
280.801	2844
280.860	1841
280.919	2456
280.978	2211
281.037	941
281.097	2263
281.156	2291
281.215	1477
281.274	1811
281.333	8349
281.392	6340
281.451	1651
281.510	2262
281.569	1880
281.628	1170
281.688	1812
281.747	2709
281.806	1838
281.865	1912
281.924	528
281.983	1913
282.042	553
282.101	1409
282.160	1973
282.219	1288
282.278	704
282.337	5210
282.396	4582
282.454	2350
282.513	2217
282.572	8412
282.631	5643
282.690	1853
282.749	1509
282.808	2229
282.867	2483
282.926	2113
282.985	2103
283.043	877
283.102	2309
283.161	2276
283.220	4972
283.279	9201
283.338	3980
283.396	2193
283.455	1665
283.514	2635
283.573	4426
283.631	3175
283.690	2277
283.749	1994
283.808	3546
283.866	5034
283.925	2074
283.984	2340
284.043	2658
284.101	3068
284.160	2029
284.219	3844
284.277	3377
284.336	3340
284.395	11563
284.453	9835
284.512	3884
284.570	5464
284.629	5367
284.688	4369
284.746	4527
284.805	5259
284.863	6864
284.922	8656
284.981	10195
285.039	14130
285.098	23588
285.156	44935
285.215	56259
285.273	57350
285.332	50015
285.390	29296
285.449	19670
285.507	12092
285.566	8990
285.624	6993
285.683	6270
285.741	4934
285.799	4305
285.858	4353
285.916	3813
285.975	3253
286.033	3332
286.091	2844
286.150	2512
286.208	2227
286.267	3139
286.325	3230
286.383	3605
286.442	4156
286.500	2430
286.558	1598
286.616	1929
286.675	2483
286.733	2557
286.791	2039
286.850	2983
286.908	2877
286.966	5123
287.024	2160
287.083	1801
287.141	1235
287.199	1748
287.257	2770
287.315	2716
287.374	2767
287.432	6476
287.490	4489
287.548	2580
287.606	2516
287.664	2401
287.723	3215
287.781	4279
287.839	2849
287.897	3258
287.955	4081
288.013	6524
288.071	12284
288.129	40857
288.187	103024
288.245	58665
288.303	19815
288.361	10289
288.419	7398
288.477	4983
288.535	5021
288.593	4024
288.651	3087
288.709	2933
288.767	2049
288.825	1598
288.883	2344
288.941	1951
288.999	1967
289.057	1398
289.115	2154
289.173	1874
289.231	1714
289.289	1946
289.346	1346
289.404	3167
289.462	2908
289.520	3890
289.578	1922
289.636	1902
289.694	1683
289.751	665
289.809	1586
289.867	1723
289.925	2286
289.983	2749
290.040	1481
290.098	1536
290.156	2233
290.214	1669
290.271	1847
290.329	1369
290.387	1945
290.444	1754
290.502	1254
290.560	1569
290.617	1808
290.675	954
290.733	1472
290.790	2307
290.848	2111
290.906	1629
290.963	1863
291.021	1980
291.078	1950
291.136	1785
291.194	6657
291.251	14970
291.309	4792
291.366	1857
291.424	2072
291.481	2377
291.539	1367
291.596	1645
291.654	408
291.711	862
291.769	899
291.826	3073
291.884	2738
291.941	1593
291.999	947
292.056	1926
292.114	1691
292.171	984
292.228	1806
292.286	2840
292.343	3941
292.401	4977
292.458	2687
292.515	1737
292.573	2891
292.630	1851
292.687	2130
292.745	1442
292.802	3240
292.859	10018
292.917	11363
292.974	6808
293.031	2818
293.089	1948
293.146	1534
293.203	1039
293.260	1916
293.318	1777
293.375	5804
293.432	3892
293.489	1594
293.546	2516
293.604	2027
293.661	5362
293.718	15203
293.775	10691
293.832	5546
293.889	3581
293.947	3377
294.004	2472
294.061	2893
294.118	5969
294.175	12911
294.232	21027
294.289	8624
294.346	3774
294.403	4298
294.460	2822
294.517	2688
294.574	1908
294.631	2927
294.688	2395
294.745	5421
294.802	19795
294.859	29473
294.916	10663
294.973	5165
295.030	5013
295.087	4014
295.144	2943
295.201	3090
295.258	2339
295.315	3150
295.372	7679
295.429	13103
295.486	6833
295.542	4949
295.599	13100
295.656	25717
295.713	14783
295.770	14554
295.827	6689
295.883	4929
295.940	3402
295.997	5581
296.054	5505
296.111	3752
296.167	3795
296.224	2202
296.281	1977
296.338	2825
296.394	2027
296.451	2391
296.508	6434
296.564	13651
296.621	10298
296.678	14514
296.734	23072
296.791	10582
296.848	5424
296.904	5974
296.961	10585
297.018	16334
297.074	13323
297.131	6742
297.187	4087
297.244	4722
297.301	12151
297.357	21258
297.414	9223
297.470	5225
297.527	3792
297.583	3776
297.640	3034
297.696	2678
297.753	2090
297.809	2336
297.866	2290
297.922	3324
297.979	2378
298.035	1770
298.092	3063
298.148	8530
298.204	9088
298.261	5042
298.317	7720
298.374	18621
298.430	11852
298.486	5493
298.543	4128
298.599	4361
298.656	5532
298.712	7206
298.768	18527
298.824	14835
298.881	5886
298.937	3900
298.993	3053
299.050	3176
299.106	4243
299.162	2824
299.218	3861
299.275	3354
299.331	2726
299.387	4328
299.443	15163
299.500	19429
299.556	9273
299.612	4783
299.668	3923
299.724	7589
299.780	8414
299.837	4811
299.893	5072
299.949	14870
300.005	18891
300.061	15165
300.117	25341
300.173	13097
300.229	5479
300.285	6756
300.341	8660
300.397	5149
300.453	3146
300.510	2451
300.566	2657
300.622	4957
300.678	13390
300.734	21695
300.790	15704
300.845	16540
300.901	12293
300.957	18234
301.013	14256
301.069	5438
301.125	4098
301.181	3960
301.237	4513
301.293	2823
301.349	3288
301.405	2834
301.461	2667
301.516	3541
301.572	3824
301.628	5002
301.684	4891
301.740	6055
301.796	10415
301.851	7197
301.907	11724
301.963	11424
302.019	14058
302.074	35384
302.130	39635
302.186	20620
302.242	9211
302.297	6739
302.353	5835
302.409	9676
302.464	9862
302.520	8369
302.576	16121
302.631	19485
302.687	12907
302.743	6155
302.798	4539
302.854	4009
302.910	4555
302.965	4945
303.021	7882
303.076	7590
303.132	7606
303.187	10029
303.243	6266
303.299	4614
303.354	4390
303.410	4106
303.465	3436
303.521	3212
303.576	3256
303.632	3357
303.687	5664
303.743	14058
303.798	13288
303.853	6609
303.909	4351
303.964	4108
304.020	5617
304.075	7844
304.130	7363
304.186	11532
304.241	12578
304.297	11411
304.352	6096
304.358	5865
304.407	3989
304.449	3720
304.463	3633
304.518	3913
304.539	3858
304.573	3766
304.629	3971
304.630	3992
304.684	5079
304.720	8531
304.739	10268
304.794	15493
304.811	13753
304.850	9592
304.902	4780
304.905	4472
304.960	3871
304.992	4434
305.015	4799
305.071	5227
305.083	4838
305.126	3453
305.173	3090
305.181	3029
305.236	2051
305.264	2522
305.292	3081
305.347	3845
305.354	3906
305.402	4232
305.445	4440
305.457	4485
305.512	5896
305.535	5486
305.567	4945
305.622	5118
305.626	5237
305.678	7876
305.716	14497
305.733	16925
305.788	18437
305.807	16173
305.843	12239
305.897	13575
305.898	13581
305.953	15014
305.988	10944
306.008	8710
306.063	5948
306.078	5487
306.118	4360
306.168	3007
306.173	2895
306.228	3219
306.259	2911
306.283	2606
306.338	3096
306.349	3198
306.393	3823
306.440	4408
306.448	4462
306.503	3675
306.530	4013
306.558	4998
306.613	10602
306.620	11198
306.668	14405
306.711	16529
306.723	16717
306.778	12796
306.801	10143
306.833	7030
306.888	4398
306.892	4329
306.943	3898
306.982	3350
306.997	3113
307.052	3037
307.072	3003
307.107	3288
307.162	5017
307.163	5042
307.217	7299
307.253	8275
307.272	8449
307.327	9862
307.343	9009
307.381	7102
307.434	5320
307.436	5346
307.491	9992
307.524	14762
307.546	16434
307.600	15767
307.614	13961
307.655	8812
307.704	6058
307.710	5939
307.765	6072
307.795	7785
307.819	9357
307.874	16190
307.885	16149
307.929	13904
307.975	11859
307.984	12037
308.038	14858
308.065	18392
308.093	27101
308.148	53168
308.156	58294
308.202	82334
308.246	96281
308.257	94999
308.312	65263
308.336	50081
308.366	37917
308.421	23650
308.426	22554
308.475	15096
308.517	11175
308.530	10300
308.585	9128
308.607	8662
308.639	8136
308.694	8046
308.697	8125
308.748	12169
308.787	17994
308.803	18698
308.857	15510
308.877	13737
308.912	12249
308.967	11803
308.967	11843
309.021	15147
309.058	18063
309.076	21621
309.130	36361
309.148	42447
309.185	64925
309.238	102898
309.239	103120
309.293	108135
309.328	104657
309.348	95559
309.402	58137
309.418	47778
309.457	34516
309.508	22187
309.511	21644
309.566	16706
309.598	15180
309.620	15380
309.674	16822
309.688	17535
309.729	16855
309.778	14175
309.783	13933
309.837	11306
309.868	9998
309.892	10649
309.946	13717
309.959	15078
310.001	19715
310.049	23426
310.055	22777
310.109	14498
310.139	9516
310.163	7680
310.218	5196
310.229	4905
310.272	4308
310.319	3720
310.326	3636
310.381	3154
310.409	3072
310.435	3175
310.489	3297
310.499	3326
310.543	3475
310.589	3916
310.598	3903
310.652	3512
310.679	3300
310.706	3078
310.760	2812
310.769	2748
310.814	2347
310.859	2046
310.868	2131
310.923	2624
310.948	2980
310.977	3054
311.031	3003
311.038	3004
311.085	2777
311.128	2454
311.139	2414
311.193	2401
311.218	2353
311.247	2658
311.301	3254
311.308	3337
311.356	3281
311.398	3151
311.410	3013
311.464	2358
311.488	2085
311.518	2344
311.572	2796
311.578	2850
311.626	3094
311.668	3395
311.680	3472
311.734	3722
311.758	3834
311.788	3880
311.842	3987
311.847	4003
311.896	5234
311.937	6341
311.950	6278
312.004	6009
312.027	5861
312.058	4988
312.112	3472
312.117	3328
312.165	3518
312.207	3698
312.297	4811
312.386	3866
312.476	2655
312.566	4846
312.656	2816
312.745	2825
312.835	3371
312.925	3182
313.015	3465
313.104	3306
313.194	2378
313.284	2869
313.374	3533
313.463	3864
313.553	1920
313.643	2702
313.732	2837
313.822	3051
313.912	2958
314.001	4036
314.091	4158
314.180	5146
314.270	4350
314.360	4868
314.449	2957
314.539	3470
314.628	2880
314.718	3837
314.808	3835
314.897	1923
314.987	3396
315.076	3094
315.166	3208
315.255	4191
315.345	3189
315.434	3707
315.524	3543
315.613	3950
315.703	3615
315.792	5868
315.881	11276
315.971	5828
316.060	6481
316.150	8289
316.239	8622
316.328	5301
316.418	2415
316.507	2917
316.597	3338
316.686	3425
316.775	4613
316.865	8612
316.954	2761
317.043	2238
317.133	2337
317.222	2144
317.311	2307
317.400	1822
317.490	3986
317.579	3270
317.668	2026
317.757	4302
317.847	7192
317.936	18806
318.025	9377
318.114	5806
318.203	3348
318.293	6285
318.382	9900
318.471	9380
318.560	13329
318.649	27227
318.738	5624
318.828	3851
318.917	3198
319.006	5596
319.095	11473
319.184	31280
319.273	15361
319.362	7274
319.451	2408
319.540	2552
319.629	5692
319.718	8143
319.807	5072
319.896	11359
319.985	37141
320.074	12233
320.163	3814
320.252	6181
320.341	5254
320.430	5859
320.519	4964
320.608	3112
320.697	3848
320.786	3709
320.875	3719
320.964	4751
321.053	5628
321.142	7835
321.230	8623
321.319	7874
321.408	16456
321.497	7424
321.586	6618
321.675	9898
321.764	9328
321.852	6634
321.941	8906
322.030	6942
322.119	7463
322.207	15459
322.296	13393
322.385	7890
322.474	7097
322.562	18217
322.651	9811
322.740	7206
322.829	9587
322.917	10728
323.006	6429
323.095	5239
323.183	4516
323.272	6619
323.361	12283
323.449	31086
323.538	11482
323.626	22535
323.715	13092
323.804	5659
323.892	19122
323.981	10461
324.069	4437
324.158	12400
324.246	10571
324.335	5100
324.424	5830
324.512	3995
324.601	4571
324.689	8448
324.778	13642
324.866	8070
324.954	2727
325.043	3193
325.131	5114
325.220	9609
325.308	10486
325.397	8277
325.485	4341
325.574	2673
325.662	1924
325.750	2646
325.839	2513
325.927	2044
326.015	2772
326.104	4203
326.192	5390
326.280	2738
326.369	2254
326.457	3603
326.545	4835
326.634	2827
326.722	2713
326.810	2316
326.898	2951
326.987	3246
327.075	4308
327.163	5753
327.251	4113
327.340	6380
327.428	9316
327.516	3438
327.604	2505
327.692	2822
327.781	2602
327.869	5139
327.957	3060
328.045	2977
328.133	2792
328.221	2335
328.309	2875
328.397	2604
328.485	3035
328.574	3770
328.662	9626
328.750	6310
328.838	3292
328.926	2742
329.014	2092
329.102	3443
329.190	9433
329.278	5533
329.366	2017
329.454	1650
329.542	2309
329.630	1901
329.718	1722
329.806	2047
329.893	2616
329.981	3018
330.069	2403
330.157	4346
330.245	10386
330.333	6495
330.421	2458
330.509	3020
330.597	9930
330.684	7352
330.772	4248
330.860	5883
330.948	8912
331.036	3730
331.123	1221
331.211	2282
331.299	3362
331.387	7052
331.475	12382
331.562	3389
331.650	2452
331.738	3091
331.825	2997
331.913	2343
332.001	1688
332.089	3279
332.176	5002
332.264	11891
332.352	8626
332.439	3777
332.527	2721
332.614	2753
332.702	3340
332.790	2088
332.877	5762
332.965	10233
333.052	2602
333.140	3975
333.228	5810
333.315	2416
333.403	2370
333.490	7246
333.578	5238
333.665	5958
333.753	3600
333.840	2034
333.928	3389
334.015	7413
334.103	13397
334.190	38360
334.278	10445
334.365	5466
334.452	4176
334.540	3450
334.627	3463
334.715	5342
334.802	9605
334.889	40126
334.977	36194
335.064	7470
335.151	3555
335.239	4849
335.326	5397
335.413	21577
335.501	27162
335.588	4389
335.675	4192
335.762	5619
335.850	8385
335.937	5896
336.024	13901
336.111	45662
336.199	20884
336.286	6332
336.373	3948
336.460	3262
336.547	3187
336.635	3659
336.722	3115
336.809	2986
336.896	4234
336.983	12994
337.070	31519
337.157	40880
337.245	25927
337.332	16959
337.419	3141
337.506	2979
337.593	3087
337.680	12356
337.767	32902
337.854	8631
337.941	9118
338.028	9580
338.115	3386
338.202	5696
338.289	9242
338.376	23779
338.463	9509
338.550	19506
338.637	19301
338.724	6248
338.811	8657
338.898	3572
338.984	1869
339.071	3061
339.158	2849
339.245	6767
339.332	4741
339.419	5531
339.506	5264
339.593	1578
339.679	1423
339.766	2191
339.853	2150
339.940	4455
340.027	2193
340.113	2315
340.200	2890
340.287	2418
340.374	2913
340.460	5471
340.547	2446
340.634	3174
340.720	10419
340.807	5894
340.894	2059
340.980	2767
341.067	1587
341.154	2377
341.240	3130
341.327	5671
341.414	2699
341.500	3196
341.587	2898
341.674	2486
341.760	4472
341.847	4447
341.933	1810
342.020	1546
342.106	1951
342.193	2074
342.279	2554
342.366	2106
342.452	3792
342.539	2512
342.625	4978
342.712	11015
342.798	4655
342.885	1747
342.971	1197
343.058	2083
343.144	1681
343.230	2103
343.317	1576
343.403	2423
343.490	1145
343.576	1340
343.662	1536
343.749	1976
343.835	2480
343.921	4859
344.008	20922
344.094	42903
344.180	9904
344.267	3912
344.353	14168
344.439	14641
344.525	6508
344.612	9926
344.698	10493
344.784	6302
344.870	2154
344.957	1709
345.043	2982
345.129	2099
345.215	4215
345.301	2461
345.387	2106
345.474	925
345.560	1493
345.646	2012
345.732	2326
345.818	1664
345.904	1894
345.990	2156
346.076	2019
346.162	4049
346.249	2865
346.335	1860
346.421	2616
346.507	5731
346.593	19362
346.679	4051
346.765	2780
346.851	2243
346.937	1832
347.023	2598
347.108	2424
347.194	2048
347.280	2053
347.366	2521
347.452	7492
347.538	22427
347.624	17349
347.710	14568
347.796	2298
347.882	2429
347.967	1995
348.053	3238
348.139	2389
348.225	2226
348.311	1665
348.397	2381
348.482	2260
348.568	3376
348.654	1305
348.740	4102
348.825	2661
348.911	4739
348.997	10793
349.083	20551
349.168	2679
349.254	2614
349.340	1926
349.425	1785
349.511	1874
349.597	2561
349.682	4141
349.768	14143
349.854	6941
349.939	3229
350.025	1404
350.110	2528
350.196	2005
350.282	1079
350.367	1966
350.453	2468
350.538	3166
350.624	2659
350.709	3085
350.795	1855
350.880	1621
350.966	2557
351.051	3098
351.137	1944
351.222	1283
351.308	5487
351.393	12076
351.479	4064
351.564	1446
351.649	2346
351.735	1738
351.820	1917
351.906	1311
351.991	2274
352.076	7884
352.162	11998
352.247	3388
352.332	2202
352.418	3871
352.503	5386
352.588	17393
352.673	13356
352.759	3652
352.844	1595
352.929	2797
353.014	2324
353.100	2506
353.185	2978
353.270	3618
353.355	4358
353.441	2203
353.526	2801
353.611	3654
353.696	4342
353.781	2707
353.866	2169
353.952	1967
354.037	4280
354.122	8498
354.207	7071
354.292	3097
354.377	1771
354.462	1979
354.547	2832
354.632	3264
354.717	4469
354.802	2523
354.887	1937
354.972	1423
355.057	2258
355.142	2186
355.227	2359
355.312	2637
355.397	4798
355.482	11728
355.567	5460
355.652	5078
355.737	5402
355.822	15575
355.907	12818
355.991	3041
356.076	1269
356.161	1993
356.246	1898
356.331	2452
356.416	3610
356.501	24425
356.585	23621
356.670	3163
356.755	4126
356.840	4008
356.924	17064
357.009	53139
357.094	20331
357.179	4947
357.263	4251
357.348	3723
357.433	4580
357.517	3582
357.602	3757
357.687	2855
357.771	4651
357.856	14397
357.941	8707
358.025	14135
358.110	53420
358.195	24713
358.279	4280
358.364	3823
358.448	10948
358.533	28863
358.617	20382
358.702	19975
358.787	8704
358.871	4293
358.956	4648
359.040	1651
359.125	2723
359.209	2448
359.294	7192
359.378	10569
359.462	4283
359.547	2905
359.631	1904
359.716	994
359.800	2643
359.885	4486
359.969	2000
360.053	2954
360.138	1820
360.222	3227
360.306	4298
360.391	3775
360.475	7092
360.559	13501
360.644	10984
360.728	8125
360.812	14832
360.896	35947
360.981	16839
361.065	9632
361.149	3842
361.233	2886
361.318	2374
361.402	2707
361.486	3124
361.570	2413
361.654	2799
361.739	5032
361.823	23491
361.907	34435
361.991	6365
362.075	4523
362.159	7287
362.243	7007
362.327	9506
362.411	13965
362.495	6186
362.580	3903
362.664	2488
362.748	2881
362.832	3987
362.916	6934
363.000	23298
363.084	46545
363.168	46273
363.252	10747
363.336	5763
363.420	7763
363.503	30109
363.587	34526
363.671	6253
363.755	3480
363.839	6826
363.923	3150
364.007	5643
364.091	6016
364.175	12510
364.258	51804
364.342	39552
364.426	48915
364.510	25648
364.594	11551
364.677	10553
364.761	31930
364.845	22304
364.929	7880
365.013	6544
365.096	6501
365.180	6515
365.264	12716
365.347	47635
365.431	20475
365.515	5343
365.598	2335
365.682	3997
365.766	5333
365.849	8710
365.933	3592
366.017	5473
366.100	4341
366.184	1875
366.267	3373
366.351	2563
366.435	2089
366.518	1749
366.602	1582
366.685	2506
366.769	2533
366.852	5587
366.936	8213
367.019	4456
367.103	3702
367.186	9405
367.270	2240
367.353	930
367.436	2692
367.520	1959
367.603	2686
367.687	3038
367.770	4545
367.853	3787
367.937	10459
368.020	17206
368.104	3556
368.187	4447
368.270	6358
368.353	5739
368.437	7117
368.520	17032
368.603	9840
368.687	11982
368.770	21763
368.853	5922
368.936	6921
369.020	8219
369.103	2502
369.186	2009
369.269	1361
369.352	4318
369.436	4640
369.519	3003
369.602	418
369.685	3720
369.768	2297
369.851	2546
369.934	1441
370.018	1795
370.101	3742
370.184	5344
370.267	3772
370.350	5153
370.433	7803
370.516	18466
370.599	21877
370.682	6365
370.765	13191
370.848	16581
370.931	26278
371.014	12403
371.097	2346
371.180	2527
371.263	2205
371.346	1313
371.429	2204
371.511	1337
371.594	3440
371.677	6647
371.760	9285
371.843	5663
371.926	22022
372.009	45984
372.091	17065
372.174	11696
372.257	24869
372.340	9511
372.423	9806
372.505	13675
372.588	5571
372.671	9151
372.754	25089
372.836	14237
372.919	15061
373.002	30958
373.085	8174
373.167	5602
373.250	11857
373.332	25081
373.415	32793
373.498	61254
373.580	24338
373.663	31610
373.746	40607
373.828	10152
373.911	6020
373.993	6755
374.076	28627
374.159	25579
374.241	9276
374.324	23031
374.406	15362
374.489	19998
374.571	51624
374.654	21345
374.736	12108
374.819	32890
374.901	46867
374.983	45402
375.066	8775
375.148	5434
375.231	21581
375.313	44472
375.395	15209
375.478	4184
375.560	2953
375.643	3487
375.725	10798
375.807	39579
375.890	33085
375.972	14572
376.054	8645
376.136	13807
376.219	6345
376.301	13657
376.383	34129
376.465	13530
376.548	8030
376.630	10893
376.712	30418
376.794	13513
376.877	2243
376.959	1720
377.041	2395
377.123	6892
377.205	8067
377.287	2714
377.369	1845
377.452	1837
377.534	1124
377.616	2507
377.698	1338
377.780	1337
377.862	2042
377.944	2423
378.026	573
378.108	2733
378.190	1688
378.272	2248
378.354	1249
378.436	1353
378.518	2410
378.600	12054
378.682	9392
378.764	15209
378.846	11936
378.928	4384
379.010	5237
379.091	3690
379.173	1799
379.255	1579
379.337	2308
379.419	7749
379.501	22359
379.583	9864
379.664	2545
379.746	5174
379.828	16802
379.910	21214
379.991	18757
380.073	3350
380.155	2430
380.237	1948
380.318	1112
380.400	1638
380.482	3853
380.564	5020
380.645	3840
380.727	4273
380.809	4414
380.890	2733
380.972	787
381.053	2259
381.135	2994
381.217	5385
381.298	16768
381.380	8305
381.461	7008
381.543	30262
381.624	34958
381.706	8034
381.787	4243
381.869	4833
381.951	13190
382.032	46704
382.113	31000
382.195	5741
382.276	5427
382.358	9645
382.439	25912
382.521	30573
382.602	45044
382.684	20680
382.765	37186
382.846	36318
382.928	41555
383.009	22743
383.090	17041
383.172	61128
383.253	90187
383.334	35127
383.416	39125
383.497	20515
383.578	8591
383.659	15348
383.741	54606
383.822	135308
383.903	67231
383.984	28736
384.066	51893
384.147	30612
384.228	6469
384.309	5243
384.390	3737
384.471	3653
384.553	3481
384.634	4325
384.715	4909
384.796	2440
384.877	3671
384.958	14554
385.039	16694
385.120	6807
385.201	3279
385.282	4961
385.363	5576
385.444	4678
385.525	7673
385.606	22474
385.687	18207
385.768	5963
385.849	6679
385.930	25346
386.011	40531
386.092	11911
386.173	4417
386.254	3035
386.335	4392
386.416	3167
386.496	10026
386.577	17762
386.658	7938
386.739	4914
386.820	5228
386.901	4461
386.981	4081
387.062	3008
387.143	4061
387.224	16274
387.304	15994
387.385	7061
387.466	4475
387.547	7409
387.627	3761
387.708	7832
387.789	28006
387.869	33555
387.950	9851
388.031	2413
388.111	1727
388.192	9461
388.273	13641
388.353	6959
388.434	3337
388.514	7035
388.595	25962
388.676	31792
388.756	16417
388.837	14729
388.917	8942
388.998	1844
389.078	3482
389.159	3159
389.239	1577
389.320	4896
389.400	2464
389.480	8118
389.561	18433
389.641	10095
389.722	3397
389.802	5532
389.883	9250
389.963	21393
390.043	14076
390.124	5167
390.204	7058
390.284	17989
390.365	11227
390.445	20094
390.525	37044
390.605	28204
390.686	9896
390.766	4510
390.846	3455
390.927	1958
391.007	2233
391.087	3839
391.167	3129
391.247	2118
391.328	4523
391.408	7766
391.488	6101
391.568	1146
391.648	2191
391.728	4419
391.808	4702
391.888	3796
391.969	10197
392.049	15612
392.129	9682
392.209	9563
392.289	21375
392.369	12846
392.449	14948
392.529	8277
392.609	6045
392.689	8397
392.769	19999
392.849	17365
392.929	15945
393.009	33482
393.089	24354
393.169	23202
393.248	71783
393.328	243130
393.408	251545
393.488	72887
393.568	22034
393.648	11134
393.728	7374
393.807	5949
393.887	6932
393.967	6265
394.047	7349
394.127	8459
394.206	15439
394.286	52229
394.366	172689
394.446	181360
394.525	54154
394.605	16499
394.685	11906
394.764	22054
394.844	35313
394.924	24488
395.003	7237
395.083	5545
395.163	3879
395.242	3867
395.322	4514
395.402	3360
395.481	6515
395.561	14252
395.640	36988
395.720	31432
395.799	41546
395.879	33900
395.958	24482
396.038	77847
396.117	221802
396.197	231842
396.276	92133
396.356	34167
396.435	22912
396.515	16263
396.594	12146
396.673	22155
396.753	77953
396.832	224461
396.912	164629
396.991	39047
397.070	12503
397.150	6670
397.229	6466
397.308	8823
397.388	16098
397.467	8558
397.546	3938
397.625	789
397.705	4900
397.784	3548
397.863	1418
397.942	2489
398.022	3022
398.101	11936
398.180	34204
398.259	18087
398.338	4857
398.417	2194
398.497	1890
398.576	3416
398.655	1358
398.734	2233
398.813	2648
398.892	12002
398.971	35321
399.050	16603
399.129	1914
399.208	1879
399.287	2561
399.366	1340
399.445	2302
399.524	1561
399.603	657
399.682	3744
399.761	9792
399.840	37551
399.919	29327
399.998	4526
400.077	1003
400.156	757
400.235	4095
400.313	1448
400.392	1916
400.471	8652
400.550	12760
400.629	3307
400.708	1878
400.786	2672
400.865	8770
400.944	9205
401.023	4120
401.102	1127
401.180	1271
401.259	1937
401.338	1301
401.416	3037
401.495	1203
401.574	2953
401.652	1787
401.731	2939
401.810	1280
401.888	741
401.967	487
402.046	1098
402.124	2731
402.203	2506
402.281	2004
402.360	3476
402.438	10982
402.517	6483
402.596	2859
402.674	2270
402.753	1654
402.831	1288
402.910	2284
402.988	5440
403.066	14872
403.145	9317
403.223	5944
403.302	11577
403.380	9162
403.459	8061
403.537	3299
403.615	2573
403.694	102
403.772	2291
403.850	1552
403.929	1240
404.007	862
404.085	3178
404.164	2420
404.242	3784
404.320	15435
404.398	45095
404.477	42881
404.555	48398
404.633	42626
404.711	35401
404.789	24266
404.868	6268
404.946	1526
405.024	2026
405.102	751
405.180	602
405.258	78
405.336	1564
405.415	893
405.493	3829
405.571	2777
405.649	377
405.727	-91
405.805	3311
405.883	1582
405.961	2495
406.039	2713
406.117	1152
406.195	2205
406.273	9426
406.351	32983
406.429	20879
406.507	3238
406.585	1177
406.663	1277
406.740	1663
406.818	383
406.896	335
406.974	2266
407.052	2160
407.130	19815
407.208	27614
407.285	6017
407.363	1181
407.441	758
407.519	1383
407.596	1763
407.674	5023
407.752	19464
407.830	20297
407.907	6110
407.985	1504
408.063	1243
408.141	731
408.218	3802
408.296	1783
408.373	932
408.451	2042
408.529	974
408.606	959
408.684	709
408.762	1890
408.839	306
408.917	1161
408.994	319
409.072	131
409.149	568
409.227	2543
409.304	2562
409.382	2758
409.459	1765
409.537	4527
409.614	3849
409.692	3263
409.769	2288
409.846	3492
409.924	6042
410.001	3293
410.079	2779
410.156	3337
410.233	1851
410.311	1822
410.388	1155
410.465	1535
410.543	1183
410.620	2037
410.697	1301
410.775	1362
410.852	-321
410.929	2117
411.006	2709
411.083	1035
411.161	3250
411.238	5182
411.315	2267
411.392	1567
411.469	2329
411.547	1716
411.624	-243
411.701	184
411.778	1579
411.855	2336
411.932	1524
412.009	606
412.086	640
412.163	1643
412.240	1963
412.317	2171
412.394	2508
412.471	1810
412.548	620
412.625	1323
412.702	1283
412.779	2817
412.856	1879
412.933	748
413.010	1376
413.087	2582
413.164	7971
413.241	12200
413.318	1672
413.395	1948
413.471	1863
413.548	1226
413.625	1208
413.702	666
413.779	1278
413.855	282
413.932	35
414.009	300
414.086	873
414.162	1520
414.239	1825
414.316	7724
414.393	17063
414.469	5860
414.546	578
414.623	1318
414.699	503
414.776	944
414.853	927
414.929	905
415.006	274
415.082	1184
415.159	1213
415.236	1453
415.312	856
415.389	2488
415.465	1476
415.542	1243
415.618	651
415.695	2183
415.771	573
415.848	580
415.924	1301
416.000	738
416.077	1049
416.153	-14
416.230	-420
416.306	514
416.383	209
416.459	1033
416.535	-161
416.612	911
416.688	22
416.764	594
416.841	-710
416.917	412
416.993	594
417.069	1028
417.146	821
417.222	3172
417.298	1899
417.374	-342
417.451	958
417.527	1030
417.603	702
417.679	1316
417.755	1001
417.831	270
417.908	384
417.984	638
418.060	-293
418.136	1250
418.212	1535
418.288	1337
418.364	959
418.440	92
418.516	1861
418.592	2883
418.668	4998
418.744	4883
418.820	3851
418.896	1297
418.972	-499
419.048	606
419.124	2896
419.200	302
419.276	226
419.352	111
419.428	747
419.504	53
419.579	660
419.655	786
419.731	799
419.807	2779
419.883	4513
419.959	3645
420.034	1903
420.110	2986
420.186	11442
420.262	9627
420.337	1578
420.413	1417
420.489	970
420.565	2454
420.640	702
420.716	1642
420.792	153
420.867	1840
420.943	372
421.019	2186
421.094	1471
421.170	858
421.245	485
421.321	2024
421.397	1148
421.472	4392
421.548	11691
421.623	8443
421.699	2800
421.774	3874
421.850	2103
421.925	3567
422.001	4652
422.076	4672
422.152	5577
422.227	9137
422.302	12549
422.378	17573
422.453	32225
422.529	72071
422.604	165302
422.679	216968
422.755	165093
422.830	81227
422.905	36621
422.981	20136
423.056	13654
423.131	10718
423.207	7581
423.282	5992
423.357	6536
423.432	4988
423.508	4286
423.583	6012
423.658	5622
423.733	3230
423.808	3292
423.883	3262
423.959	2683
424.034	2071
424.109	2264
424.184	1091
424.259	1603
424.334	1194
424.409	1534
424.484	1250
424.559	1417
424.634	1114
424.709	1975
424.784	1510
424.859	927
424.934	1891
425.009	7966
425.084	13074
425.159	4418
425.234	1293
425.309	808
425.384	4493
425.459	7042
425.534	2935
425.609	919
425.683	578
425.758	338
425.833	989
425.908	1874
425.983	4035
426.058	12247
426.132	5866
426.207	621
426.282	3829
426.357	2015
426.431	832
426.506	393
426.581	815
426.655	634
426.730	1158
426.805	-169
426.879	1134
426.954	736
427.029	2486
427.103	11941
427.178	30360
427.253	13276
427.327	2143
427.402	3181
427.476	9247
427.551	3976
427.625	914
427.700	1068
427.774	613
427.849	2190
427.923	113
427.998	333
428.072	1646
428.147	4192
428.221	15719
428.296	48464
428.370	26704
428.444	4140
428.519	4833
428.593	8824
428.667	7322
428.742	9069
428.816	10117
428.890	32862
428.965	51255
429.039	16599
429.113	9802
429.188	3377
429.262	1602
429.336	1755
429.410	6696
429.485	4338
429.559	7118
429.633	5862
429.707	2111
429.781	5989
429.855	35337
429.930	52050
430.004	25533
430.078	38561
430.152	37508
430.226	61798
430.300	62847
430.374	9652
430.448	4142
430.522	11970
430.596	35759
430.670	23084
430.744	46457
430.818	61398
430.892	12162
430.966	1817
431.040	1072
431.114	538
431.188	216
431.262	614
431.336	470
431.410	3483
431.484	9398
431.557	6715
431.631	997
431.705	1396
431.779	9233
431.853	42495
431.927	31005
432.000	3858
432.074	1417
432.148	1073
432.222	1496
432.295	1032
432.369	272
432.443	1641
432.516	11415
432.590	30882
432.664	11745
432.737	654
432.811	966
432.885	-288
432.958	745
433.032	-765
433.106	305
433.179	275
433.253	71
433.326	-84
433.400	-65
433.473	38
433.547	-350
433.620	-179
433.694	879
433.767	2108
433.841	399
433.914	155
433.988	742
434.061	287
434.134	458
434.208	-506
434.281	-69
434.355	-373
434.428	539
434.501	-621
434.575	134
434.648	197
434.721	294
434.795	-272
434.868	-155
434.941	-215
435.014	17
435.088	-783
435.161	785
435.234	366
435.307	1240
435.381	936
435.454	1193
435.527	1388
435.600	2501
435.673	1096
435.746	1642
435.819	-64
435.892	179
435.966	559
436.039	98
436.112	636
436.185	420
436.258	312
436.331	40
436.404	-400
436.477	459
436.550	-335
436.623	4
436.696	310
436.769	489
436.842	161
436.915	504
436.987	849
437.060	1034
437.133	-360
437.206	-68
437.279	175
437.352	609
437.425	-401
437.498	694
437.570	2249
437.643	2047
437.716	317
437.789	62
437.861	1824
437.934	4253
438.007	1620
438.080	-150
438.152	527
438.225	2213
438.298	15933
438.370	43289
438.443	17741
438.516	3353
438.588	714
438.661	-84
438.734	148
438.806	650
438.879	737
438.951	1034
439.024	1347
439.096	532
439.169	312
439.241	47
439.314	269
439.386	1052
439.459	2069
439.531	2075
439.604	398
439.676	355
439.749	-154
439.821	190
439.893	103
439.966	487
440.038	870
440.110	703
440.183	29
440.255	-676
440.327	2057
440.400	6627
440.472	27439
440.544	18887
440.617	2045
440.689	2328
440.761	1998
440.833	3741
440.905	1697
440.978	103
441.050	-42
441.122	941
441.194	-322
441.266	335
441.338	201
441.411	1287
441.483	7930
441.555	13006
441.627	2546
441.699	2231
441.771	1826
441.843	1021
441.915	504
441.987	1067
442.059	229
442.131	947
442.203	2098
442.275	2232
442.347	2503
442.419	4189
442.491	23361
442.563	56186
442.635	26433
442.706	11859
442.778	8653
442.850	1884
442.922	546
442.994	2314
443.066	2697
443.137	2330
443.209	1037
443.281	3544
443.353	7142
443.425	29050
443.496	100135
443.568	99764
443.640	37526
443.711	7306
443.783	2917
443.855	2824
443.926	404
443.998	884
444.070	2309
444.141	1882
444.213	1720
444.285	2137
444.356	901
444.428	2178
444.499	1147
444.571	468
444.642	257
444.714	397
444.785	1443
444.857	2920
444.928	7588
445.000	5928
445.071	5137
445.143	6055
445.214	3224
445.285	7598
445.357	22081
445.428	67199
445.500	145972
445.571	99536
445.642	52835
445.714	20163
445.785	16092
445.856	4621
445.928	3249
445.999	2123
446.070	2138
446.141	1306
446.213	2037
446.284	1417
446.355	1311
446.426	836
446.497	995
446.569	2454
446.640	3483
446.711	1992
446.782	154
446.853	1000
446.924	852
446.995	768
447.066	2012
447.138	2950
447.209	1298
447.280	1048
447.351	-454
447.422	101
447.493	702
447.564	1296
447.635	637
447.706	1202
447.777	714
447.847	412
447.918	339
447.989	1368
448.060	2382
448.131	5566
448.202	4591
448.273	2406
448.344	1324
448.414	1192
448.485	152
448.556	1027
448.627	316
448.698	657
448.768	-262
448.839	1173
448.910	1974
448.981	2382
449.051	694
449.122	1
449.193	218
449.263	1097
449.334	620
449.405	1204
449.475	2391
449.546	2739
449.616	2768
449.687	3020
449.758	777
449.828	427
449.899	70
449.969	418
450.040	-120
450.110	892
450.181	748
450.251	682
450.322	167
450.392	1068
450.463	255
450.533	107
450.604	539
450.674	318
450.744	1402
450.815	708
450.885	893
450.955	831
451.026	0
451.096	138
451.166	1088
451.237	2792
451.307	9240
451.377	4680
451.447	92
451.518	710
451.588	431
451.658	1575
451.728	2998
451.799	9825
451.869	12049
451.939	3081
452.009	555
452.079	391
452.149	925
452.219	3184
452.289	11357
452.360	9658
452.430	2115
452.500	1180
452.570	1970
452.640	3426
452.710	8945
452.780	14097
452.850	7952
452.920	4665
452.990	2512
453.060	1871
453.129	1983
453.199	2858
453.269	12104
453.339	26712
453.409	41372
453.479	38428
453.549	57952
453.619	63853
453.688	27172
453.758	4658
453.828	2140
453.898	1290
453.968	1231
454.037	1236
454.087	1203
454.107	1176
454.168	967
454.177	920
454.247	794
454.249	829
454.316	1337
454.330	1252
454.386	769
454.411	2677
454.456	5515
454.492	7693
454.525	9628
454.574	5642
454.595	3950
454.655	1466
454.665	1083
454.734	2593
454.736	2663
454.804	3593
454.817	5098
454.873	10299
454.898	11449
454.943	13148
454.979	8495
455.013	4488
455.060	2713
455.082	2154
455.141	3937
455.152	4199
455.221	9497
455.222	9704
455.291	18247
455.303	17932
455.360	15870
455.384	20637
455.430	26933
455.465	20701
455.499	15183
455.546	12829
455.569	11503
455.627	7917
455.638	7409
455.707	1682
455.708	1697
455.777	1397
455.789	1494
455.846	1964
455.869	1887
455.916	1622
455.950	1764
455.985	1853
456.031	1872
456.054	1910
456.112	1621
456.124	1561
456.193	1287
456.193	1270
456.262	2311
456.274	2477
456.332	2918
456.355	2956
456.401	2652
456.436	2243
456.470	1944
456.516	1328
456.540	1026
456.597	1450
456.609	1535
456.678	1500
456.678	1489
456.747	787
456.759	942
456.817	1637
456.840	1378
456.886	562
456.920	997
456.955	1722
457.001	1813
457.024	1860
457.082	2769
457.093	2933
457.162	2850
457.163	2879
457.232	3522
457.243	3426
457.301	2445
457.324	2068
457.370	1670
457.405	1861
457.439	2085
457.485	2008
457.508	2040
457.566	2139
457.577	2169
457.646	3069
457.647	3088
457.715	4208
457.727	4569
457.784	7440
457.808	9256
457.853	11355
457.889	13246
457.922	13319
457.969	9828
457.991	9831
458.050	10847
458.060	11068
458.129	17608
458.130	17813
458.198	18385
458.211	16808
458.267	10047
458.292	7482
458.336	5540
458.372	5188
458.405	6195
458.453	8213
458.474	9959
458.533	17211
458.543	17866
458.611	29142
458.614	29352
458.680	20129
458.694	16391
458.749	8349
458.775	6254
458.818	3824
458.855	3665
458.887	3873
458.936	3013
458.955	2635
459.016	2989
459.024	3032
459.093	2864
459.097	2874
459.162	3032
459.177	3068
459.230	3287
459.257	3600
459.299	3740
459.338	3532
459.368	3685
459.418	3855
459.437	3602
459.499	3570
459.505	3591
459.574	3235
459.579	3183
459.643	2854
459.659	2922
459.711	3052
459.740	3094
459.780	3270
459.820	3587
459.849	3774
459.900	3862
459.917	3768
459.981	4002
459.986	3998
460.054	3376
460.061	3381
460.123	4087
460.141	4066
460.191	4121
460.222	4518
460.260	4895
460.302	5045
460.328	4743
460.382	4676
460.397	4770
460.462	4179
460.465	4283
460.534	7696
460.543	8114
460.602	19424
460.623	23988
460.671	36949
460.703	49840
460.739	47052
460.783	39077
460.808	34202
460.864	9807
460.876	7534
460.944	4672
460.945	4631
461.013	4408
461.024	4267
461.081	3603
461.104	3685
461.150	3825
461.184	3509
461.218	3505
461.264	3573
461.286	3494
461.345	3518
461.355	3514
461.423	3598
461.425	3603
461.491	4506
461.505	4684
461.559	8383
461.585	10092
461.628	15148
461.665	20279
461.696	21967
461.745	26046
461.764	22792
461.825	8183
461.832	8041
461.901	5542
461.905	5548
461.969	4397
461.985	4108
462.037	4579
462.065	4689
462.105	4947
462.145	5742
462.173	8112
462.225	12047
462.241	13055
462.305	18308
462.310	17806
462.378	9944
462.385	8773
462.446	5690
462.465	4816
462.514	4160
462.545	4450
462.582	4665
462.625	4569
462.650	4360
462.705	4197
462.718	4443
462.785	5138
462.786	5169
462.854	7183
462.865	7524
462.922	9216
462.945	10065
462.990	7754
463.025	5239
463.058	4627
463.104	4317
463.126	4230
463.184	3755
463.194	3866
463.262	4829
463.264	4856
463.330	4948
463.344	5055
463.398	5541
463.424	5475
463.466	5214
463.504	5415
463.533	5550
463.583	5390
463.601	5456
463.663	5740
463.669	5922
463.737	8171
463.743	8352
463.805	12428
463.823	13668
463.873	20745
463.903	25280
463.940	26374
463.982	27953
464.008	22579
464.062	9660
464.076	9128
464.142	5615
464.144	5568
464.211	4879
464.221	4802
464.279	4986
464.301	5085
464.347	5607
464.381	6002
464.414	6578
464.461	7439
464.482	7872
464.540	9025
464.550	8705
464.617	6252
464.620	6151
464.685	7477
464.699	7816
464.753	9546
464.779	10448
464.820	11485
464.859	12571
464.888	12179
464.938	11105
464.956	11436
465.018	12652
465.023	12485
465.091	10007
465.098	9741
465.158	8819
465.177	8549
465.226	8370
465.257	8233
465.293	8610
465.336	8936
465.361	9482
465.416	10792
465.428	11625
465.495	16024
465.496	16114
465.563	26324
465.575	28083
465.631	32715
465.654	34854
465.698	22563
465.734	11608
465.765	10364
465.813	8402
465.833	8102
465.893	7700
465.900	7723
465.968	7977
465.972	7969
466.035	7683
466.052	7594
466.102	8033
466.131	8334
466.170	7973
466.210	7530
466.237	7949
466.290	8658
466.304	8573
466.369	8188
466.372	8237
466.439	9259
466.449	9382
466.506	9648
466.528	9736
466.573	13745
466.607	16725
466.641	24491
466.687	35268
466.708	38671
466.766	48086
466.775	44290
466.842	14936
466.845	13516
466.909	10322
466.925	9604
466.977	9276
467.004	9135
467.044	9820
467.083	10466
467.111	11635
467.163	13808
467.178	14482
467.242	17178
467.245	17100
467.312	14908
467.321	14596
467.379	14973
467.400	15069
467.446	15703
467.480	16116
467.559	14256
467.638	12808
467.717	13329
467.796	13511
467.875	14453
467.955	13713
468.034	22094
468.113	44723
468.192	65010
468.271	18661
468.350	13333
468.429	14907
468.508	14656
468.588	13286
468.667	13842
468.746	14135
468.825	13882
468.904	11406
468.983	13719
469.062	19599
469.141	23313
469.220	11640
469.299	11626
469.378	13147
469.456	15890
469.535	14873
469.614	14010
469.693	13490
469.772	17408
469.851	21048
469.930	16432
470.009	12383
470.088	12111
470.166	12637
470.245	14784
470.324	15517
470.403	13472
470.482	12691
470.560	11621
470.639	12194
470.718	13789
470.797	10869
470.875	13590
470.954	17511
471.033	19192
471.111	9622
471.190	10503
471.269	9783
471.347	10902
471.426	11288
471.505	13668
471.583	14424
471.662	12649
471.740	11307
471.819	11096
471.898	11931
471.976	11508
472.055	10852
472.133	13234
472.212	16513
472.290	15777
472.369	12376
472.447	11045
472.526	9528
472.604	11427
472.683	10980
472.761	10628
472.839	10626
472.918	10399
472.996	11205
473.075	13113
473.153	12001
473.231	11012
473.310	11442
473.388	12426
473.466	11119
473.545	12807
473.623	14590
473.701	14386
473.780	10818
473.858	10364
473.936	12861
474.014	10944
474.093	12034
474.171	17469
474.249	21913
474.327	14858
474.405	8729
474.484	9241
474.562	9499
474.640	10152
474.718	9107
474.796	9538
474.874	9476
474.952	8620
475.030	8723
475.108	9030
475.187	9485
475.265	9000
475.343	10464
475.421	12372
475.499	10511
475.577	10625
475.655	14093
475.733	26307
475.811	43460
475.889	38353
475.966	26061
476.044	10297
476.122	10658
476.200	11967
476.278	9969
476.356	10178
476.434	10656
476.512	10848
476.590	11856
476.667	11220
476.745	8995
476.823	10079
476.901	9413
476.979	9908
477.056	9846
477.134	10758
477.212	10429
477.290	10114
477.367	9285
477.445	9739
477.523	9663
477.601	9241
477.678	9318
477.756	11226
477.834	12711
477.911	9285
477.989	9820
478.066	9131
478.144	9893
478.222	9652
478.299	10136
478.377	10913
478.454	8709
478.532	8186
478.609	8421
478.687	9852
478.764	7457
478.842	8902
478.919	8885
478.997	9049
479.074	8533
479.152	10549
479.229	13535
479.307	9159
479.384	7835
479.461	8684
479.539	8480
479.616	10786
479.694	9018
479.771	9943
479.848	10814
479.926	12709
480.003	14153
480.080	8491
480.157	8791
480.235	7665
480.312	7950
480.389	9356
480.467	14909
480.544	18736
480.621	10095
480.698	9651
480.775	10465
480.853	11323
480.930	8696
481.007	9697
481.084	10310
481.161	12246
481.238	11429
481.315	8284
481.392	9048
481.470	9406
481.547	9412
481.624	8536
481.701	7624
481.778	9224
481.855	9170
481.932	14805
482.009	22707
482.086	16070
482.163	8752
482.240	10063
482.317	11363
482.393	10029
482.470	8805
482.547	8487
482.624	7865
482.701	8961
482.778	8087
482.855	7443
482.932	7572
483.009	7327
483.085	9714
483.162	9790
483.239	10708
483.316	8809
483.393	8804
483.469	8269
483.546	9942
483.623	11210
483.699	8641
483.776	8823
483.853	9627
483.930	14601
484.006	34985
484.083	60570
484.160	35620
484.236	52763
484.313	41746
484.389	30233
484.466	28554
484.543	25861
484.619	26215
484.696	28091
484.772	28667
484.849	29537
484.925	25257
485.002	24368
485.078	26000
485.155	25432
485.231	23367
485.308	23691
485.384	23206
485.461	28122
485.537	41337
485.614	48689
485.690	24230
485.766	22066
485.843	22237
485.919	27133
485.995	26382
486.072	20254
486.148	20379
486.224	20198
486.301	21048
486.377	24146
486.453	22774
486.530	23537
486.606	31236
486.682	35334
486.758	39713
486.835	44826
486.911	34091
486.987	51940
487.063	45774
487.139	47400
487.215	36808
487.292	26006
487.368	23220
487.444	25388
487.520	27118
487.596	28648
487.672	37984
487.748	77406
487.824	113270
487.900	50651
487.976	26582
488.052	25334
488.128	26252
488.204	22366
488.280	21872
488.356	26349
488.432	45762
488.508	68617
488.584	25811
488.660	19726
488.736	18482
488.812	19944
488.888	24292
488.964	28097
489.039	42232
489.115	60511
489.191	39414
489.267	20993
489.343	19782
489.418	18213
489.494	17246
489.570	16338
489.646	18256
489.722	16617
489.797	17959
489.873	26927
489.949	51182
490.024	43252
490.100	17680
490.176	16794
490.251	18212
490.327	21409
490.403	15485
490.478	15898
490.554	13348
490.629	14374
490.705	14104
490.781	16042
490.856	14799
490.932	17850
491.007	16551
491.083	16332
491.158	15051
491.234	20951
491.309	38685
491.385	40172
491.460	15953
491.536	16562
491.611	14167
491.686	14832
491.762	17319
491.837	27425
491.913	43802
491.988	59158
492.063	68855
492.139	29085
492.214	20363
492.289	13376
492.365	12916
492.440	14755
492.515	13503
492.590	14757
492.666	11869
492.741	17374
492.816	23717
492.891	15065
492.967	13465
493.042	12050
493.117	12550
493.192	13876
493.267	23309
493.342	69792
493.418	95679
493.493	19577
493.568	10888
493.643	10284
493.718	14628
493.793	19010
493.868	17555
493.943	11386
494.018	10751
494.093	10763
494.168	11583
494.243	10398
494.318	9310
494.393	9874
494.468	9580
494.543	9161
494.618	10419
494.693	9926
494.768	10571
494.842	10828
494.917	9189
494.992	9671
495.067	9717
495.142	9255
495.217	10636
495.292	10400
495.366	11621
495.441	13313
495.516	16203
495.591	19641
495.665	50935
495.740	110781
495.815	45401
495.890	14704
495.964	10847
496.039	14378
496.114	11676
496.188	14370
496.263	14589
496.338	11629
496.412	13020
496.487	16018
496.561	14597
496.636	15015
496.710	12681
496.785	13935
496.860	15877
496.934	11618
497.009	11762
497.083	11740
497.158	11581
497.232	14033
497.307	16272
497.381	13865
497.455	15714
497.530	21362
497.604	14466
497.679	14454
497.753	22628
497.827	25898
497.902	19181
497.976	26404
498.050	74494
498.125	293050
498.199	283290
498.273	31794
498.348	18179
498.422	16413
498.496	16960
498.570	15802
498.645	13489
498.719	13910
498.793	17845
498.867	29072
498.941	42280
499.016	121083
499.090	322989
499.164	107751
499.238	14711
499.312	12495
499.386	15312
499.460	15139
499.534	14149
499.609	16273
499.683	24492
499.757	24780
499.831	55670
499.905	215479
499.979	198725
500.053	32062
500.127	28886
500.201	18760
500.275	13358
500.349	13365
500.422	14357
500.496	20332
500.570	40500
500.644	116395
500.718	224573
500.792	49214
500.866	15932
500.940	19207
501.013	16763
501.087	14731
501.161	21570
501.235	30672
501.309	72857
501.382	201268
501.456	170651
501.530	38408
501.603	66621
501.677	27827
501.751	11379
501.825	15308
501.898	28952
501.972	82006
502.046	50271
502.119	15531
502.193	35141
502.266	87747
502.340	42921
502.413	39347
502.487	75285
502.561	42543
502.634	14377
502.708	11738
502.781	9743
502.855	10326
502.928	7462
503.002	9557
503.075	8843
503.149	9886
503.222	10011
503.295	10673
503.369	13273
503.442	18508
503.516	59729
503.589	151810
503.662	97971
503.736	30116
503.809	71061
503.882	56705
503.956	81520
504.029	76563
504.102	45078
504.175	57509
504.249	26314
504.322	17466
504.395	14236
504.468	10930
504.542	10116
504.615	7237
504.688	8377
504.761	7139
504.834	9940
504.907	10261
504.980	14197
505.053	9826
505.127	8420
505.200	13836
505.273	14245
505.346	9772
505.419	7509
505.492	8161
505.565	6398
505.638	7325
505.711	6921
505.784	6726
505.857	7217
505.930	8739
506.003	6609
506.076	9877
506.149	10170
506.221	11836
506.294	13613
506.367	32066
506.440	107459
506.513	56507
506.586	13138
506.659	9355
506.731	7667
506.804	8502
506.877	10369
506.950	9093
507.022	8335
507.095	9133
507.168	11846
507.241	8369
507.313	6206
507.386	7251
507.459	9538
507.531	7587
507.604	5867
507.677	7003
507.749	4791
507.822	8730
507.894	16660
507.967	22907
508.040	13593
508.112	13155
508.185	11652
508.257	10103
508.330	14480
508.402	11693
508.475	12016
508.547	12349
508.620	11759
508.692	17549
508.765	11947
508.837	8891
508.909	9577
508.982	9470
509.054	11041
509.127	9176
509.199	9640
509.271	9340
509.344	9092
509.416	8878
509.488	9233
509.560	9737
509.633	9437
509.705	10682
509.777	11309
509.849	14405
509.922	11619
509.994	11438
510.066	11403
510.138	12434
510.210	23874
510.283	21196
510.355	17978
510.427	15219
510.499	14162
510.571	12848
510.643	11760
510.715	15982
510.787	13772
510.859	13934
510.931	14318
511.003	16753
511.076	16677
511.148	12744
511.219	13399
511.291	21190
511.363	23052
511.435	12917
511.507	11555
511.579	12738
511.651	12298
511.723	12170
511.795	11094
511.867	11322
511.939	14236
512.010	24126
512.082	19500
512.154	10747
512.226	11659
512.298	17451
512.369	23830
512.441	18673
512.513	16230
512.585	13726
512.656	14145
512.728	14279
512.800	13064
512.871	13762
512.943	13104
513.015	11411
513.086	12029
513.158	13425
513.230	12081
513.301	14964
513.373	16108
513.444	12389
513.516	10908
513.588	10559
513.659	11436
513.731	13244
513.802	11997
513.874	19702
513.945	25737
514.016	13781
514.088	10953
514.159	12145
514.231	14524
514.302	19980
514.374	16292
514.445	15380
514.516	27441
514.588	20886
514.659	15179
514.730	23540
514.802	17938
514.873	11368
514.944	13229
515.016	12561
515.087	13318
515.158	16504
515.229	22875
515.301	10913
515.372	12510
515.443	10239
515.514	10905
515.585	10167
515.656	11465
515.728	10703
515.799	10303
515.870	12514
515.941	11329
516.012	11599
516.083	16227
516.154	16261
516.225	17639
516.296	16792
516.367	14470
516.438	13978
516.509	16359
516.580	22496
516.651	52314
516.722	161294
516.793	78614
516.864	23504
516.935	22166
517.006	24381
517.077	28758
517.148	56892
517.219	178388
517.289	278365
517.360	128836
517.431	47930
517.502	16040
517.573	16795
517.643	16199
517.714	18535
517.785	18452
517.856	17008
517.926	19321
517.997	20564
518.068	21143
518.138	27105
518.209	37682
518.280	125432
518.350	417644
518.421	163177
518.492	26940
518.562	21206
518.633	21902
518.703	21053
518.774	34975
518.845	72586
518.915	71542
518.986	29203
519.056	22123
519.127	30068
519.197	44859
519.268	115118
519.338	77489
519.408	20754
519.479	19474
519.549	14737
519.620	13967
519.690	12415
519.760	12390
519.831	11780
519.901	11575
519.971	11664
520.042	12200
520.112	13145
520.182	14053
520.253	13840
520.323	11817
520.393	14845
520.463	20291
520.534	13385
520.604	26951
520.674	16055
520.744	15574
520.814	28074
520.885	29127
520.955	39436
521.025	137700
521.095	55531
521.165	13133
521.235	11636
521.305	11353
521.375	10858
521.445	11204
521.515	12613
521.585	13866
521.655	12107
521.725	12985
521.795	12551
521.865	9040
521.935	16963
522.005	13531
522.075	9541
522.145	11444
522.215	12309
522.285	16295
522.355	20994
522.424	37850
522.494	32039
522.564	16308
522.634	23315
522.704	52365
522.774	22265
522.843	10164
522.913	10742
522.983	11932
523.053	10127
523.122	10382
523.192	11560
523.262	30136
523.331	27814
523.401	11183
523.471	9287
523.540	9140
523.610	7364
523.680	8969
523.749	9329
523.819	11700
523.888	11173
523.958	8345
524.027	8681
524.097	8844
524.166	9452
524.236	7718
524.305	10676
524.375	7863
524.444	8230
524.514	11313
524.583	9646
524.653	10790
524.722	12819
524.791	8155
524.861	9667
524.930	7617
524.999	8760
525.069	11048
525.138	10356
525.207	11244
525.277	10178
525.346	8782
525.415	9401
525.484	9966
525.554	10748
525.623	11233
525.692	11324
525.761	12117
525.830	12169
525.900	13467
525.969	18397
526.038	28519
526.107	49996
526.176	141174
526.245	119535
526.314	42353
526.383	75556
526.452	105596
526.522	164348
526.591	176287
526.660	46200
526.729	23390
526.797	26303
526.867	49874
526.935	183200
527.004	351676
527.073	212231
527.142	25408
527.211	13879
527.280	11727
527.349	11593
527.418	7359
527.487	9727
527.555	6628
527.624	7622
527.693	6485
527.762	8495
527.831	6257
527.899	8011
527.968	6945
528.037	6686
528.106	8971
528.174	12447
528.243	12344
528.312	15935
528.380	16994
528.449	8027
528.518	8283
528.586	5144
528.655	7654
528.723	6994
528.792	6454
528.861	6774
528.929	5896
528.998	8707
529.066	7907
529.135	10882
529.203	9952
529.272	11604
529.340	17253
529.409	16015
529.477	13148
529.545	15408
529.614	17996
529.682	18083
529.751	21526
529.819	22769
529.887	21825
529.956	18930
530.024	18880
530.092	17487
530.161	17933
530.229	18758
530.297	19062
530.365	19037
530.434	18182
530.502	19172
530.570	17825
530.638	14887
530.707	15759
530.775	17026
530.843	13581
530.911	16816
530.979	17612
531.047	18114
531.115	18133
531.183	17260
531.252	17060
531.320	15622
531.388	14274
531.456	17871
531.524	16843
531.592	19707
531.660	21849
531.728	18393
531.796	17359
531.864	17841
531.932	17364
532.000	18621
532.067	19508
532.135	20764
532.203	21909
532.271	23336
532.339	28260
532.407	40138
532.475	29484
532.542	22854
532.610	21959
532.678	25971
532.746	56466
532.814	111604
532.881	40680
532.949	23274
533.017	20803
533.084	20254
533.152	18840
533.220	18713
533.287	18490
533.355	19419
533.423	20001
533.490	19911
533.558	19269
533.625	19553
533.693	19756
533.761	20197
533.828	19770
533.896	19194
533.963	28928
534.031	30127
534.098	31335
534.166	23834
534.233	20424
534.300	22040
534.368	20745
534.435	19347
534.503	19217
534.570	19515
534.637	18000
534.705	19439
534.772	20914
534.840	25310
534.907	72568
534.974	96114
535.041	22434
535.109	18755
535.176	14781
535.243	15859
535.310	15255
535.378	13587
535.445	14205
535.512	14322
535.579	13959
535.646	12731
535.714	13351
535.781	17226
535.848	17221
535.915	19196
535.982	20667
536.049	20523
536.116	18309
536.183	15749
536.250	14537
536.317	14503
536.384	15123
536.451	16695
536.518	15962
536.585	13576
536.652	16915
536.719	18722
536.786	14854
536.853	13881
536.920	16628
536.987	21644
537.053	19974
537.120	53807
537.187	49987
537.254	13470
537.321	12480
537.388	13704
537.454	10243
537.521	11097
537.588	10639
537.654	12743
537.721	14104
537.788	13883
537.855	11782
537.921	12075
537.988	11683
538.055	11424
538.121	11130
538.188	12447
538.254	13172
538.321	19331
538.388	15024
538.454	11283
538.521	11743
538.587	10392
538.654	10527
538.720	11147
538.787	10529
538.853	11478
538.920	12593
538.986	12860
539.053	10503
539.119	12007
539.185	10135
539.252	12963
539.318	13567
539.385	14222
539.451	13804
539.517	14003
539.583	13845
539.650	21919
539.716	42598
539.782	17354
539.849	9793
539.915	11788
539.981	11084
540.047	11299
540.114	12084
540.180	12409
540.246	9677
540.312	12680
540.378	18620
540.444	20560
540.510	19551
540.576	45723
540.643	19071
540.709	8989
540.775	10700
540.841	11074
540.907	13791
540.973	19439
541.039	15499
541.105	15130
541.171	10299
541.237	11012
541.303	11922
541.369	13415
541.435	14184
541.500	17527
541.566	12858
541.632	9614
541.698	9048
541.764	10641
541.830	9209
541.896	9876
541.961	10359
542.027	9746
542.093	10097
542.159	11167
542.224	10595
542.290	15532
542.356	17694
542.421	19562
542.487	12629
542.553	10838
542.618	11956
542.684	10230
542.750	10290
542.815	11943
542.881	16528
542.947	39794
543.012	31661
543.078	10891
543.143	9517
543.209	11500
543.274	10135
543.340	12209
543.405	18488
543.471	25962
543.536	11889
543.602	10501
543.667	9397
543.732	11062
543.798	8763
543.863	10100
543.928	10471
543.994	9423
544.059	9610
544.124	10610
544.190	10756
544.255	10490
544.320	9872
544.386	10943
544.451	12962
544.516	13610
544.581	13359
544.646	27756
544.712	41008
544.777	13997
544.842	13678
544.907	14822
544.972	12352
545.037	12470
545.102	13547
545.168	12232
545.233	13312
545.298	14160
545.363	16151
545.428	16107
545.493	21130
545.558	33810
545.623	19279
545.688	12549
545.753	13374
545.818	12446
545.883	14278
545.947	13843
546.012	14702
546.077	14757
546.142	15036
546.207	13805
546.272	16302
546.337	16527
546.401	16087
546.466	15805
546.531	14661
546.596	16865
546.661	15608
546.725	16862
546.790	15467
546.855	16624
546.919	16474
546.984	19054
547.049	19440
547.113	21692
547.178	21476
547.243	24978
547.307	28289
547.372	31032
547.436	32244
547.501	30028
547.565	31799
547.630	31132
547.695	29985
547.759	33134
547.823	31272
547.888	29236
547.952	29434
548.017	31591
548.081	34215
548.146	37236
548.210	34972
548.274	31635
548.339	31752
548.403	31574
548.468	27976
548.532	29267
548.596	29970
548.660	28939
548.725	32191
548.789	36031
548.853	36832
548.917	33476
548.982	36465
549.046	35673
549.110	26733
549.174	28198
549.238	29946
549.303	31364
549.367	34606
549.431	32948
549.495	30933
549.559	31057
549.623	34557
549.687	38893
549.751	40792
549.815	44853
549.879	44619
549.943	41160
550.007	44034
550.071	44754
550.135	43534
550.199	39744
550.263	39817
550.327	38460
550.391	43206
550.455	43594
550.519	42847
550.582	46014
550.646	51227
550.710	53808
550.774	49968
550.838	49471
550.901	52073
550.965	55322
551.029	56323
551.093	62153
551.156	69093
551.220	88451
551.284	95954
551.347	67999
551.411	83901
551.475	86102
551.538	56388
551.602	51603
551.666	50821
551.729	46547
551.793	46876
551.856	47106
551.920	45441
551.983	45181
552.047	43857
552.110	44994
552.174	45260
552.237	47233
552.301	42931
552.364	41535
552.428	41194
552.491	41501
552.554	42475
552.618	43251
552.681	44433
552.745	43109
552.808	48444
552.871	51635
552.934	46659
552.998	44823
553.061	44811
553.124	42810
553.187	42807
553.251	45394
553.314	45636
553.377	47706
553.440	55597
553.503	98614
553.567	148273
553.630	61171
553.693	48037
553.756	48380
553.819	46245
553.882	45309
553.945	46274
554.008	45422
554.071	45464
554.134	46535
554.197	43817
554.260	44585
554.323	46096
554.386	45452
554.449	45304
554.512	47134
554.575	42782
554.638	45134
554.701	43828
554.764	44164
554.827	42525
554.889	41107
554.952	39287
555.015	38407
555.078	39255
555.141	40544
555.203	38230
555.266	38733
555.329	38832
555.391	37832
555.454	37137
555.517	35692
555.580	34669
555.642	33676
555.705	33679
555.768	33690
555.830	32677
555.893	30385
555.955	30342
556.018	30095
556.080	30132
556.143	30977
556.206	30323
556.268	30182
556.330	29211
556.393	29089
556.455	29142
556.518	31470
556.580	32171
556.643	26429
556.705	26262
556.767	24133
556.830	25434
556.892	25321
556.955	27677
557.017	25886
557.079	23853
557.142	23192
557.204	24023
557.266	29975
557.328	26888
557.391	21935
557.453	21217
557.515	21782
557.577	21360
557.639	22497
557.701	20518
557.764	20373
557.826	20134
557.888	22124
557.950	21252
558.012	23882
558.074	29216
558.136	51071
558.198	113501
558.260	52634
558.322	23826
558.384	24413
558.446	25978
558.508	28262
558.570	32093
558.632	41215
558.694	55110
558.756	74699
558.818	198150
558.880	480987
558.942	173145
559.003	119503
559.065	67588
559.127	30016
559.189	28959
559.251	33425
559.312	46481
559.374	100439
559.436	308694
559.498	171208
559.559	33481
559.621	28691
559.683	33371
559.744	52681
559.806	146582
559.868	229565
559.929	55346
559.991	32482
560.052	44642
560.114	107781
560.176	79437
560.237	64296
560.299	105796
560.360	32168
560.422	17499
560.483	16358
560.545	15462
560.606	15156
560.667	14269
560.729	15459
560.790	14033
560.852	14764
560.913	14644
560.974	14514
561.036	13013
561.097	13591
561.158	13773
561.220	14165
561.281	12941
561.342	13333
561.403	15237
561.465	16764
561.526	25171
561.587	30677
561.648	14907
561.709	13888
561.771	13475
561.832	13695
561.893	12598
561.954	13302
562.015	13281
562.076	14014
562.137	13279
562.198	12698
562.259	13689
562.320	13864
562.381	13843
562.442	15112
562.503	14429
562.564	12961
562.625	13274
562.686	13203
562.747	13614
562.808	13170
562.869	13314
562.930	16047
562.991	14363
563.051	14444
563.112	13338
563.173	13757
563.234	13136
563.294	13210
563.355	12198
563.416	13147
563.477	13795
563.537	13896
563.598	13701
563.659	13828
563.720	11857
563.780	13062
563.841	13961
563.901	12621
563.962	13816
564.023	12979
564.083	12345
564.144	14063
564.204	13269
564.265	13300
564.325	14965
564.386	23327
564.446	21569
564.507	12039
564.567	11734
564.628	11991
564.688	12623
564.749	13162
564.809	14335
564.869	16483
564.930	12992
564.990	13144
565.050	12173
565.111	12988
565.171	12287
565.231	12331
565.292	12524
565.352	11159
565.412	12718
565.472	12640
565.532	12358
565.593	11722
565.653	11730
565.713	12021
565.773	12381
565.833	13181
565.893	14323
565.953	12633
566.013	11986
566.074	13237
566.134	16596
566.194	21507
566.254	20876
566.314	15196
566.374	12340
566.434	12325
566.494	12309
566.554	12033
566.614	13210
566.673	12231
566.733	13417
566.793	12599
566.853	13595
566.913	12563
566.973	12484
567.033	14104
567.092	12707
567.152	12240
567.212	13446
567.272	14071
567.331	13853
567.391	13191
567.451	14419
567.511	17702
567.570	17843
567.630	12307
567.690	11961
567.749	12500
567.809	12393
567.868	13516
567.928	12385
567.988	13609
568.047	13380
568.107	12782
568.166	12682
568.226	13301
568.285	15191
568.345	13858
568.404	13862
568.464	13433
568.523	13658
568.582	13361
568.642	13339
568.701	14102
568.761	14546
568.820	17062
568.879	18170
568.939	19501
568.998	15835
569.057	14702
569.116	12842
569.176	12460
569.235	11203
569.294	11921
569.353	12274
569.413	12980
569.472	12183
569.531	11810
569.590	11501
569.649	11131
569.708	11697
569.767	12191
569.827	12580
569.886	12326
569.945	11130
570.004	11229
570.063	11213
570.122	11764
570.181	12684
570.240	13624
570.299	13359
570.358	13169
570.417	12179
570.475	12000
570.534	11905
570.593	12896
570.652	12478
570.711	12848
570.770	11580
570.829	13005
570.887	11765
570.946	12679
571.005	11021
571.064	11679
571.122	11827
571.181	13070
571.240	11799
571.299	11784
571.357	11713
571.416	12053
571.475	12923
571.533	14218
571.592	11605
571.650	12920
571.709	10645
571.768	10340
571.826	11304
571.885	11668
571.943	11408
572.002	10744
572.060	11040
572.119	10460
572.177	10961
572.236	11098
572.294	10628
572.352	12061
572.411	10724
572.469	10428
572.528	10002
572.586	10364
572.644	11411
572.703	13083
572.761	10421
572.819	9630
572.877	10442
572.936	9796
572.994	9615
573.052	10056
573.110	10682
573.169	9728
573.227	9244
573.285	10407
573.343	10756
573.401	9979
573.459	10369
573.517	10243
573.576	10560
573.634	10489
573.692	10540
573.750	10073
573.808	10597
573.866	9831
573.924	12665
573.982	12056
574.040	10737
574.098	10412
574.155	9277
574.213	10248
574.271	8635
574.329	9481
574.387	9366
574.445	9256
574.503	8718
574.560	8866
574.618	7920
574.676	9494
574.734	8908
574.792	9370
574.849	8679
574.907	7929
574.965	9015
575.022	7958
575.080	7642
575.138	9728
575.195	8596
575.253	7862
575.311	8862
575.368	8420
575.426	7885
575.483	8386
575.541	8623
575.598	8235
575.656	9054
575.713	9398
575.771	7227
575.828	8739
575.886	8238
575.943	8557
576.001	8796
576.058	8727
576.115	9419
576.173	10516
576.230	11643
576.287	11302
576.345	10299
576.402	10188
576.459	9572
576.517	9505
576.574	10292
576.631	10789
576.688	9997
576.746	9317
576.803	9655
576.860	8821
576.917	9068
576.974	9356
577.031	9320
577.089	9820
577.146	9828
577.203	9429
577.260	9913
577.317	10080
577.374	11680
577.431	10985
577.488	9182
577.545	8772
577.602	9631
577.659	10262
577.716	10478
577.773	10921
577.830	10056
577.886	10206
577.943	8816
578.000	9884
578.057	10634
578.114	12267
578.171	14587
578.227	20066
578.284	20121
578.341	16633
578.398	13560
578.454	13086
578.511	11983
578.568	13085
578.625	9995
578.681	9267
578.738	9066
578.794	9085
578.851	9010
578.908	9965
578.964	9602
579.021	10339
579.077	10060
579.134	9269
579.190	8917
579.247	8685
579.303	9968
579.360	9048
579.416	9321
579.473	9413
579.529	8728
579.586	9925
579.642	10308
579.698	10032
579.755	10394
579.811	11160
579.867	11693
579.924	10697
579.980	12295
580.036	15615
580.093	20549
580.149	29832
580.205	35071
580.261	25750
580.317	19863
580.374	15980
580.430	15722
580.486	14210
580.542	12157
580.598	13718
580.619	13035
580.654	11858
580.692	11422
580.710	11226
580.765	11304
580.767	11318
580.823	11820
580.838	11733
580.879	11528
580.911	11466
580.935	11452
580.984	10794
580.991	10712
581.047	12346
581.057	12221
581.103	11759
581.130	13001
581.159	14292
581.203	15957
581.215	16418
581.270	16004
581.276	15772
581.326	13597
581.349	13361
581.382	13028
581.422	12601
581.438	12454
581.494	12113
581.494	12110
581.550	12590
581.567	12253
581.606	11486
581.640	11263
581.661	11148
581.713	12511
581.717	12635
581.773	11742
581.786	11878
581.829	12260
581.859	11727
581.885	11314
581.932	12156
581.940	12310
581.996	12488
582.004	12475
582.052	12417
582.077	12144
582.107	11798
582.150	11983
582.163	12056
582.219	12353
582.223	12367
582.274	12694
582.296	12672
582.330	12480
582.368	12633
582.386	12797
582.441	12943
582.441	12945
582.497	13414
582.514	13286
582.552	13135
582.587	13518
582.608	13714
582.659	13609
582.663	13607
582.719	13707
582.732	13678
582.774	13727
582.805	14328
582.830	14764
582.877	15417
582.885	15547
582.941	15976
582.950	16273
582.996	17661
583.023	19136
583.052	21024
583.095	21644
583.107	21808
583.162	25403
583.168	25538
583.218	26171
583.240	24850
583.273	22519
583.313	20405
583.328	19770
583.384	17227
583.385	17141
583.439	14632
583.458	14654
583.494	14675
583.531	14430
583.549	14411
583.603	14510
583.605	14505
583.660	14399
583.676	14207
583.715	13809
583.748	13606
583.770	13558
583.820	14167
583.825	14202
583.881	14312
583.893	14057
583.936	13287
583.965	12900
583.991	12466
584.038	13260
584.046	13450
584.101	14029
584.110	14024
584.156	13975
584.183	13937
584.211	13680
584.255	13388
584.266	13397
584.321	13560
584.328	13610
584.376	14208
584.400	14371
584.431	14151
584.472	14090
584.486	14242
584.541	14917
584.545	14895
584.596	14402
584.617	14468
584.651	14658
584.689	15336
584.706	15552
584.761	15395
584.762	15396
584.816	15785
584.834	15920
584.871	15952
584.906	15786
584.926	15913
584.978	16086
584.980	16087
585.035	16662
585.051	16800
585.090	17086
585.123	17621
585.145	18073
585.195	18148
585.200	18164
585.254	18513
585.267	19036
585.309	20939
585.340	21827
585.364	22387
585.412	22358
585.419	22322
585.473	23839
585.484	24444
585.528	28367
585.556	32727
585.583	39720
585.628	54974
585.637	60747
585.692	114186
585.700	125097
585.747	172132
585.772	151361
585.801	102714
585.845	43909
585.856	35451
585.910	23962
585.917	22967
585.965	21437
585.989	20956
586.019	20464
586.061	19765
586.074	19627
586.128	19115
586.133	19128
586.183	19199
586.205	19065
586.237	19035
586.277	19008
586.292	18871
586.346	17957
586.349	17919
586.401	17970
586.421	18128
586.455	18388
586.493	19242
586.509	20128
586.564	22805
586.565	22939
586.618	31057
586.637	31911
586.672	28378
586.709	22124
586.727	20146
586.781	19923
586.781	19934
586.835	18619
586.853	18188
586.889	17318
586.925	16597
586.944	16531
586.996	16658
586.998	16680
587.052	17620
587.068	17756
587.106	17590
587.140	16985
587.161	17015
587.212	17979
587.215	18013
587.269	18068
587.284	18092
587.323	18115
587.356	18304
587.377	18429
587.427	18377
587.431	18444
587.485	19031
587.499	19260
587.539	19133
587.571	18822
587.593	19157
587.643	20288
587.648	20350
587.702	20561
587.715	20653
587.755	21272
587.786	21414
587.810	21179
587.858	20762
587.864	20845
587.917	22506
587.930	22703
587.971	23462
588.001	24236
588.025	24794
588.073	25240
588.079	25384
588.133	26853
588.145	27198
588.187	28542
588.217	29502
588.241	30610
588.288	32777
588.295	33143
588.348	36872
588.360	37523
588.402	40617
588.431	42943
588.456	44866
588.503	48878
588.510	49750
588.564	57267
588.575	59060
588.617	67470
588.646	73835
588.671	80940
588.718	97367
588.725	101964
588.778	143551
588.789	154108
588.832	241530
588.861	309575
588.886	418226
588.932	649905
588.939	670292
588.993	778814
589.004	780546
589.047	527533
589.075	356211
589.100	268208
589.147	139494
589.154	133466
589.207	100910
589.218	95259
589.261	90234
589.290	88262
589.314	91848
589.361	102933
589.368	107998
589.421	154718
589.433	166901
589.475	287782
589.504	383156
589.528	486029
589.576	687400
589.582	672479
589.635	439440
589.647	386885
589.689	211834
589.718	107994
589.742	88207
589.790	57750
589.795	56707
589.849	48515
589.861	47081
589.902	45564
589.932	43490
589.955	39917
590.004	32166
590.009	31919
590.062	30348
590.075	29777
590.115	28348
590.146	27477
590.168	27053
590.218	26221
590.222	26274
590.275	26434
590.289	26448
590.328	26526
590.360	26364
590.381	25878
590.431	25021
590.435	25072
590.488	25049
590.503	25034
590.541	24774
590.574	24639
590.594	24590
590.645	24227
590.647	24271
590.700	24596
590.716	24572
590.753	24645
590.787	24897
590.806	24894
590.859	24523
590.859	24568
590.912	24906
590.930	25039
590.965	24799
591.001	24468
591.018	24480
591.071	24332
591.072	24294
591.124	24657
591.143	24738
591.177	24542
591.214	24227
591.230	24631
591.283	26143
591.285	26149
591.336	26018
591.356	25937
591.389	25796
591.427	25559
591.442	25526
591.495	25232
591.498	25169
591.547	25111
591.569	25017
591.600	24709
591.640	24256
591.653	24489
591.706	25251
591.711	25302
591.759	26144
591.782	26515
591.811	27115
591.853	27867
591.864	27827
591.917	27244
591.924	27116
591.969	26695
591.995	26426
592.022	26590
592.066	26702
592.075	27005
592.127	28652
592.137	28911
592.180	30333
592.208	31167
592.233	29913
592.279	27249
592.285	27350
592.338	27935
592.350	28027
592.390	27033
592.421	26208
592.443	26533
592.491	27100
592.495	27180
592.548	27706
592.562	27806
592.600	28144
592.633	28356
592.653	28240
592.704	27663
592.705	27808
592.775	27065
592.846	28296
592.916	27642
592.987	28217
593.058	28055
593.128	28112
593.199	28387
593.270	27229
593.341	28395
593.411	28711
593.482	28821
593.553	29883
593.623	28768
593.694	29595
593.764	30286
593.835	29870
593.906	30120
593.976	29749
594.047	31491
594.117	33514
594.188	34581
594.258	31861
594.329	30576
594.399	32608
594.470	32117
594.540	32494
594.611	33790
594.681	32810
594.751	32993
594.822	33844
594.892	34658
594.963	36672
595.033	36083
595.103	36476
595.174	38126
595.244	43392
595.314	48712
595.384	39276
595.455	39884
595.525	41605
595.595	41346
595.665	41906
595.736	40295
595.806	41278
595.876	42363
595.946	41737
596.016	42393
596.087	44094
596.157	44267
596.227	44293
596.297	45960
596.367	47552
596.437	50415
596.507	54735
596.577	59288
596.647	51870
596.717	52111
596.787	53601
596.857	52389
596.927	53830
596.997	54619
597.067	55783
597.137	57581
597.207	56898
597.277	56291
597.347	55112
597.417	53942
597.487	55352
597.557	56292
597.626	57457
597.696	58023
597.766	60610
597.836	62907
597.906	54857
597.975	53521
598.045	54385
598.115	56361
598.185	57715
598.254	63479
598.324	67733
598.394	68606
598.464	66937
598.533	65503
598.603	64542
598.672	62266
598.742	63711
598.812	65159
598.881	66167
598.951	66863
599.020	66461
599.090	68393
599.159	70229
599.229	69022
599.299	66614
599.368	69717
599.437	69962
599.507	67662
599.576	68020
599.646	67121
599.715	68928
599.785	67523
599.854	68408
599.924	68768
599.993	69338
600.062	69507
600.132	71786
600.201	73040
600.270	81652
600.340	84584
600.409	83325
600.478	84281
600.547	86206
600.617	84963
600.686	76118
600.755	75372
600.824	72915
600.894	75481
600.963	74460
601.032	76383
601.101	77289
601.170	76220
601.239	76804
601.308	79784
601.378	80251
601.447	81001
601.516	84415
601.585	84126
601.654	87166
601.723	90015
601.792	91699
601.861	94623
601.930	99377
601.999	101872
602.068	99270
602.137	100315
602.206	102065
602.275	102393
602.343	103916
602.412	105810
602.481	105138
602.550	107329
602.619	107662
602.688	107865
602.756	111149
602.825	108744
602.894	111397
602.963	110896
603.032	113347
603.100	111598
603.169	110459
603.238	114511
603.307	110129
603.375	110538
603.444	115222
603.513	106998
603.581	109519
603.650	116623
603.719	97127
603.787	90676
603.856	94293
603.924	95232
603.993	99603
604.061	99582
604.130	104312
604.198	107636
604.267	108124
604.335	111629
604.404	110582
604.472	112862
604.541	113419
604.609	115986
604.678	120671
604.746	121267
604.815	128233
604.883	123344
604.951	120367
605.020	123734
605.088	117601
605.156	109498
605.225	109173
605.293	109600
605.361	109652
605.429	108310
605.498	111395
605.566	110764
605.634	115654
605.702	115974
605.771	116548
605.839	120870
605.907	111314
605.975	116699
606.043	111896
606.111	106649
606.180	118391
606.248	112203
606.316	109001
606.384	115138
606.452	97154
606.520	80222
606.588	79217
606.656	79102
606.724	77455
606.792	74472
606.860	68440
606.928	63402
606.996	60973
607.064	61033
607.132	62300
607.200	64580
607.267	66440
607.335	67751
607.403	69792
607.471	67102
607.539	64802
607.607	66566
607.674	58728
607.742	58966
607.810	58550
607.878	58000
607.946	59113
608.013	60632
608.081	63281
608.149	62717
608.216	64079
608.284	66348
608.352	64886
608.419	64466
608.487	68837
608.555	63796
608.622	63690
608.690	66810
608.757	71093
608.825	71976
608.893	70168
608.960	68551
609.028	67127
609.095	68959
609.163	65348
609.230	59837
609.298	55992
609.365	56351
609.432	60775
609.500	66363
609.567	74163
609.635	83407
609.702	87705
609.769	84208
609.837	70015
609.904	60104
609.971	60105
610.039	66667
610.106	82942
610.173	137818
610.241	297451
610.308	233153
610.375	117420
610.442	71489
610.509	62467
610.577	61332
610.644	61383
610.711	64621
610.778	65199
610.845	66556
610.912	71148
610.980	75778
611.047	78142
611.114	75983
611.181	70584
611.248	69422
611.315	73776
611.382	74448
611.449	75173
611.516	78671
611.583	77754
611.650	78514
611.717	79220
611.784	79690
611.851	83498
611.918	87651
611.984	99064
612.051	135239
612.118	245728
612.185	569979
612.252	408941
612.319	119324
612.386	100069
612.452	93160
612.519	90128
612.586	90408
612.653	91494
612.719	91525
612.786	87995
612.853	81921
612.919	80405
612.986	82224
613.053	77654
613.120	73772
613.186	69791
613.253	73549
613.319	72022
613.386	72260
613.453	73502
613.519	75102
613.586	74599
613.652	79932
613.719	76702
613.785	75979
613.852	75134
613.918	73614
613.985	77686
614.051	83620
614.118	98212
614.184	95986
614.250	75895
614.317	76656
614.383	73728
614.449	75302
614.516	76473
614.582	77016
614.648	74719
614.715	75258
614.781	73782
614.847	73590
614.914	73125
614.980	70595
615.046	72515
615.112	72533
615.179	73444
615.245	73919
615.311	74030
615.377	75095
615.443	75165
615.509	76583
615.575	78192
615.642	78659
615.708	80455
615.774	83081
615.840	89710
615.906	94560
615.972	109941
616.038	150805
616.104	296249
616.170	685514
616.236	640934
616.302	170628
616.368	121637
616.434	98072
616.500	91811
616.565	93781
616.631	109287
616.697	98387
616.763	99589
616.829	125454
616.895	196944
616.961	197442
617.026	106821
617.092	82761
617.158	80990
617.224	79392
617.289	76373
617.355	73446
617.421	73132
617.487	73542
617.552	70147
617.618	69572
617.684	68179
617.749	71626
617.815	67301
617.880	66411
617.946	66483
618.012	68541
618.077	70159
618.143	67371
618.208	67086
618.274	71684
618.339	73245
618.405	63840
618.470	64223
618.536	64278
618.601	64432
618.667	61768
618.732	59334
618.798	57871
618.863	59126
618.928	57554
618.994	58909
619.059	59855
619.124	63831
619.190	59502
619.255	57775
619.320	58741
619.386	58509
619.451	57771
619.516	57774
619.581	58305
619.647	59411
619.712	60346
619.777	58060
619.842	59019
619.907	60129
619.972	59604
620.038	59800
620.103	58682
620.168	58576
620.233	60650
620.298	58592
620.363	60057
620.428	60262
620.493	62982
620.558	62879
620.623	62606
620.688	62906
620.753	61737
620.818	62527
620.883	64375
620.948	63411
621.013	63715
621.078	63120
621.143	63895
621.207	65953
621.272	64595
621.337	63627
621.402	64477
621.467	68345
621.532	68574
621.596	65844
621.661	64311
621.726	62778
621.791	62898
621.855	64478
621.920	63779
621.985	65590
622.049	67907
622.114	66366
622.179	65845
622.243	68361
622.308	67930
622.373	71620
622.437	70021
622.502	66521
622.566	65277
622.631	63542
622.695	67568
622.760	66018
622.824	66637
622.889	65404
622.953	67532
623.018	72761
623.082	73253
623.147	68108
623.211	67061
623.276	67265
623.340	64226
623.404	64410
623.469	64104
623.533	65609
623.597	63168
623.662	63512
623.726	60931
623.790	58201
623.854	57239
623.919	59371
623.983	58014
624.047	58197
624.111	59110
624.176	60393
624.240	60504
624.304	62194
624.368	59285
624.432	58816
624.496	59384
624.560	60662
624.625	61761
624.689	61328
624.753	63019
624.817	60905
624.881	58738
624.945	56307
625.009	54585
625.073	54350
625.137	55845
625.201	58193
625.265	59580
625.329	54990
625.393	55746
625.456	55654
625.520	56422
625.584	56641
625.648	61682
625.712	68894
625.776	94221
625.839	99558
625.903	61621
625.967	49569
626.031	60306
626.095	75882
626.158	53412
626.222	44066
626.286	42327
626.349	40912
626.413	38693
626.477	39744
626.540	39035
626.604	38624
626.668	39145
626.731	38211
626.795	38284
626.858	37760
626.922	36437
626.986	35951
627.049	34657
627.113	36898
627.176	36857
627.240	35532
627.303	34706
627.366	34972
627.430	33991
627.493	35377
627.557	34668
627.620	36178
627.684	34250
627.747	34530
627.810	32024
627.874	30435
627.937	29088
628.000	31783
628.064	30376
628.127	27482
628.190	28317
628.253	27385
628.317	26195
628.380	25869
628.443	25494
628.506	25469
628.569	25109
628.632	22997
628.696	23639
628.759	23685
628.822	22288
628.885	22793
628.948	21987
629.011	22329
629.074	20810
629.137	21694
629.200	20097
629.263	22113
629.326	19889
629.389	20217
629.452	20834
629.515	20712
629.578	19895
629.641	20793
629.704	20458
629.767	19770
629.830	19932
629.892	19124
629.955	18351
630.018	20605
630.081	19533
630.144	20554
630.207	17524
630.269	19672
630.332	19319
630.395	18775
630.458	17888
630.520	16809
630.583	18633
630.646	17143
630.708	17420
630.771	17154
630.834	18550
630.896	17637
630.959	16881
631.021	16297
631.084	17545
631.146	17667
631.209	19564
631.272	17210
631.334	17544
631.397	17789
631.459	16400
631.522	17461
631.584	16928
631.646	18471
631.709	18188
631.771	19159
631.834	18133
631.896	17740
631.958	16203
632.021	16775
632.083	15644
632.145	17223
632.208	15616
632.270	16801
632.332	15870
632.395	15477
632.457	17177
632.519	16680
632.581	17408
632.643	15137
632.706	15974
632.768	14723
632.830	16071
632.892	15211
632.954	15098
633.016	16563
633.078	14968
633.141	15681
633.203	15769
633.265	15160
633.327	16037
633.389	15020
633.451	16137
633.513	15466
633.575	16722
633.637	16135
633.698	15474
633.760	15465
633.822	15845
633.884	16380
633.946	16128
634.008	16082
634.070	16337
634.132	18079
634.193	17201
634.255	17389
634.317	16370
634.379	18426
634.441	16710
634.502	15061
634.564	15481
634.626	14890
634.687	14669
634.749	14763
634.811	15440
634.873	13641
634.934	14179
634.996	15452
635.057	13919
635.119	13893
635.181	14945
635.242	15700
635.304	13220
635.365	15913
635.427	13442
635.488	14635
635.550	13306
635.611	14876
635.673	12978
635.734	16197
635.796	15062
635.857	16293
635.918	15170
635.980	17676
636.041	16049
636.102	18020
636.164	17497
636.225	17544
636.286	14843
636.348	16106
636.409	15117
636.470	12840
636.531	14106
636.593	14651
636.654	14896
636.715	13862
636.776	13841
636.838	12439
636.899	14016
636.960	12402
637.021	13014
637.082	13165
637.143	14329
637.204	12637
637.265	12184
637.326	12542
637.387	13415
637.448	11726
637.509	12898
637.570	11711
637.631	13308
637.692	12219
637.753	12020
637.814	12629
637.875	12773
637.936	13298
637.997	12435
638.058	12810
638.119	13333
638.179	11291
638.240	11961
638.301	12361
638.362	11190
638.423	12135
638.483	13116
638.544	10257
638.605	12696
638.666	11921
638.726	12687
638.787	12632
638.848	11707
638.908	11906
638.969	12031
639.030	11411
639.090	10744
639.151	11737
639.211	12009
639.272	12038
639.332	14813
639.393	13381
639.453	11322
639.514	12044
639.574	12092
639.635	10504
639.695	11656
639.756	10952
639.816	11678
639.877	11345
639.937	13706
639.997	15121
640.058	11047
640.118	10634
640.178	11049
640.239	11233
640.299	10366
640.359	10446
640.420	11679
640.480	11886
640.540	11837
640.600	12028
640.661	11357
640.721	10326
640.781	14063
640.841	11545
640.901	12124
640.961	11842
641.021	11139
641.082	11326
641.142	12777
641.202	11503
641.262	9075
641.322	11525
641.382	10191
641.442	11138
641.502	10815
641.562	10884
641.622	10065
641.682	11509
641.742	10977
641.802	11594
641.861	11804
641.921	9891
641.981	11500
642.041	10449
642.101	11338
642.161	9024
642.221	10279
642.280	10323
642.340	9767
642.400	8746
642.460	10970
642.519	10478
642.579	9038
642.639	10940
642.698	8351
642.758	11699
642.818	10517
642.877	9683
642.937	11216
642.997	11468
643.056	11886
643.116	9525
643.175	11752
643.235	10300
643.294	9919
643.354	11381
643.414	11848
643.473	12992
643.532	14035
643.592	17799
643.651	25370
643.711	42933
643.770	78542
643.830	182885
643.889	414889
643.948	112522
644.008	21474
644.067	14627
644.126	12192
644.186	12352
644.245	11824
644.304	9425
644.363	11146
644.423	8567
644.482	9859
644.541	10072
644.600	8985
644.659	11619
644.719	12793
644.778	17033
644.837	24283
644.896	43907
644.955	101309
645.014	41694
645.073	13944
645.132	11111
645.191	11199
645.250	9742
645.309	11402
645.368	10988
645.427	12757
645.486	15140
645.545	24486
645.604	11241
645.663	10693
645.722	9905
645.781	10451
645.840	10832
645.898	12295
645.957	16614
646.016	21910
646.075	38424
646.134	74197
646.192	185664
646.251	304397
646.310	51123
646.369	16544
646.427	13120
646.486	11414
646.545	9604
646.603	9922
646.662	9721
646.721	9388
646.779	8652
646.838	7465
646.896	9678
646.955	11406
647.014	16011
647.072	25577
647.131	64401
647.189	35879
647.248	8899
647.306	8943
647.365	8349
647.423	7002
647.481	9084
647.540	6472
647.598	8138
647.657	7069
647.715	8007
647.773	6652
647.832	7748
647.890	6913
647.948	6575
648.007	7971
648.065	6812
648.123	6621
648.181	8172
648.240	8409
648.298	7174
648.356	6922
648.414	7011
648.472	7031
648.531	7496
648.589	6561
648.647	6768
648.705	6192
648.763	5931
648.821	7230
648.879	6456
648.937	6360
648.995	8209
649.053	8425
649.111	12311
649.169	18119
649.227	30107
649.285	58138
649.343	166489
649.401	93993
649.459	20131
649.516	14714
649.574	9919
649.632	17461
649.690	20786
649.748	12552
649.806	13950
649.863	24175
649.921	44545
649.979	34119
650.037	8588
650.094	5359
650.152	6946
650.210	5566
650.268	7051
650.325	5616
650.383	6519
650.440	5113
650.498	5652
650.556	5398
650.613	4532
650.671	5709
650.728	5687
650.786	5132
650.843	5946
650.901	4353
650.958	5490
651.016	5686
651.073	5083
651.131	4540
651.188	4711
651.246	5506
651.303	3885
651.360	5421
651.418	4547
651.475	4051
651.532	3460
651.590	4511
651.647	3623
651.704	4885
651.762	4456
651.819	4334
651.876	3469
651.933	4008
651.990	5047
652.048	2489
652.105	4243
652.162	5241
652.219	3926
652.276	3953
652.333	5366
652.390	3021
652.448	4333
652.505	4492
652.562	4963
652.619	4617
652.676	6391
652.733	8429
652.790	4697
652.847	3011
652.904	4488
652.961	2772
653.017	2341
653.074	3828
653.131	3300
653.188	2605
653.245	3367
653.302	4447
653.359	3903
653.415	4225
653.472	3461
653.529	4379
653.586	2529
653.642	3548
653.699	3914
653.756	3391
653.813	4406
653.869	3901
653.926	2707
653.983	4147
654.039	3524
654.096	3853
654.152	5081
654.209	2138
654.266	4838
654.322	3103
654.379	4344
654.435	4901
654.492	4291
654.548	5034
654.605	6342
654.661	4783
654.717	3134
654.774	3815
654.830	3617
654.887	3442
654.943	3757
655.000	4027
655.056	4440
655.112	3852
655.168	3072
655.225	3610
655.281	5033
655.337	4257
655.394	6348
655.450	5563
655.506	4937
655.562	5737
655.618	7064
655.675	3012
655.731	2174
655.787	2889
655.843	4185
655.899	2851
655.955	3542
656.011	4350
656.067	2065
656.123	4659
656.179	3626
656.235	5046
656.291	2788
656.347	4516
656.403	2987
656.459	3737
656.515	3991
656.571	3836
656.627	4230
656.683	3587
656.739	4386
656.795	3206
656.850	3905
656.906	4134
656.962	4163
657.018	2442
657.074	3655
657.129	4384
657.185	5383
657.241	7970
657.297	5728
657.352	4318
657.408	3900
657.464	3420
657.519	3175
657.575	1923
657.630	3655
657.686	2510
657.742	2259
657.797	3186
657.853	3505
657.908	4447
657.964	2114
658.019	3549
658.075	3482
658.130	3839
658.186	2023
658.241	3958
658.297	2417
658.352	2872
658.407	3921
658.463	3132
658.518	3006
658.573	3434
658.629	3204
658.684	1953
658.739	3489
658.795	2838
658.850	3705
658.905	4000
658.960	3294
659.016	2502
659.071	2515
659.126	3171
659.181	2990
659.236	4675
659.291	4641
659.346	3620
659.401	3850
659.457	4353
659.512	5146
659.567	5372
659.622	3335
659.677	3166
659.732	2116
659.787	2912
659.842	2992
659.897	3770
659.952	3461
660.007	2321
660.061	3476
660.116	2600
660.171	3370
660.226	3492
660.281	3451
660.336	2394
660.391	3492
660.445	2491
660.500	3510
660.555	3409
660.610	3263
660.664	2585
660.719	2864
660.774	3551
660.828	3320
660.883	2861
660.938	3658
660.992	2150
661.047	3608
661.101	3079
661.156	3507
661.211	2364
661.265	2796
661.320	2958
661.374	3485
661.429	2609
661.483	3835
661.538	2119
661.592	2542
661.647	3303
661.701	3798
661.755	3406
661.810	4146
661.864	2526
661.919	2703
661.973	2739
662.027	2763
662.081	2660
662.136	2837
662.190	3223
662.244	3661
662.299	2598
662.353	3345
662.407	3263
662.461	3293
662.515	3426
662.569	3515
662.624	4054
662.678	2331
662.732	3025
662.786	2849
662.840	3169
662.894	3973
662.948	3469
663.002	1823
663.056	2553
663.110	2101
663.164	2882
663.218	2535
663.272	3116
663.326	3354
663.380	2943
663.434	3381
663.488	2798
663.542	2646
663.595	2761
663.649	2233
663.703	3186
663.757	2670
663.811	3084
663.864	2373
663.918	2757
663.972	2695
664.026	2849
664.079	3012
664.133	2953
664.187	3294
664.240	3225
664.294	2990
664.348	2464
664.401	2476
664.455	2572
664.508	2792
664.562	3037
664.615	2485
664.669	2331
664.722	2839
664.776	2487
664.829	2449
664.883	2691
664.936	2801
664.990	2298
665.043	2995
665.097	3186
665.150	3731
665.203	2781
665.257	2293
665.310	2787
665.363	2987
665.417	3162
665.470	3533
665.523	2833
665.576	3229
665.630	3237
665.683	2760
665.736	3298
665.789	2891
665.842	2592
665.895	3008
665.949	3371
666.002	3324
666.055	1649
666.108	3596
666.161	2762
666.214	3496
666.267	2934
666.320	3587
666.373	3059
666.426	3707
666.479	2431
666.532	3042
666.585	3150
666.638	4054
666.691	2959
666.744	4031
666.796	2563
666.849	3695
666.902	3470
666.955	2920
667.008	2427
667.060	2912
667.113	2519
667.166	3020
667.219	2506
667.271	3093
667.324	2451
667.377	3303
667.430	3423
667.482	3373
667.535	3992
667.587	3045
667.640	2641
667.693	3245
667.745	3970
667.798	4465
667.850	3356
667.903	3343
667.955	3512
668.008	3072
668.060	3762
668.113	4539
668.165	2461
668.218	3384
668.270	3178
668.322	1693
668.375	3231
668.427	4192
668.479	2446
668.532	3445
668.584	2799
668.636	2998
668.689	3512
668.741	2806
668.793	3223
668.845	3243
668.898	3272
668.950	3856
669.002	3172
669.054	2993
669.106	2262
669.158	3838
669.211	3696
669.263	2667
669.315	4574
669.367	4688
669.419	3096
669.471	4112
669.523	4072
669.575	4870
669.627	4572
669.679	3456
669.731	3460
669.783	4032
669.835	4142
669.886	4157
669.938	4196
669.990	3701
670.042	2859
670.094	3801
670.146	3968
670.197	4493
670.249	6003
670.301	6298
670.353	8466
670.404	11957
670.456	17169
670.508	27242
670.560	43376
670.611	75082
670.663	131839
670.715	293128
670.766	474145
670.818	178850
670.869	34721
670.921	17802
670.972	11619
671.024	8325
671.075	6369
671.127	5593
671.178	4659
671.230	5341
671.281	3800
671.333	4378
671.384	3725
671.436	4554
671.487	5402
671.538	5650
671.590	7368
671.641	9908
671.692	15314
671.744	28631
671.795	20070
671.846	7622
671.897	5458
671.949	4057
672.000	4576
672.051	3451
672.102	4524
672.153	3302
672.204	3280
672.256	3514
672.307	4307
672.358	3696
672.409	3002
672.460	2857
672.511	2731
672.562	2334
672.613	2143
672.664	2561
672.715	2987
672.766	3144
672.817	2089
672.868	2209
672.919	2519
672.970	2584
673.021	2060
673.071	2299
673.122	2185
673.173	2913
673.224	2858
673.275	2802
673.326	2318
673.376	2390
673.427	2570
673.478	2500
673.528	2645
673.579	1672
673.630	2386
673.680	3168
673.731	2415
673.782	2434
673.832	1986
673.883	2329
673.934	1677
673.984	1882
674.035	2592
674.085	2403
674.136	3108
674.186	2416
674.237	3750
674.287	3779
674.338	3114
674.388	2723
674.438	2306
674.489	2828
674.539	2861
674.589	3052
674.640	2222
674.690	2848
674.740	2033
674.791	3345
674.841	2990
674.891	2994
674.942	2331
674.992	1928
675.042	1606
675.092	2008
675.142	1112
675.193	2126
675.243	1475
675.293	1902
675.343	2390
675.393	2277
675.443	2483
675.493	2273
675.543	1816
675.593	2538
675.643	2167
675.693	2194
675.743	1735
675.793	1263
675.843	1826
675.893	1793
675.943	2909
675.993	1527
676.043	1991
676.093	2144
676.142	1261
676.192	1713
676.242	1941
676.292	1274
676.341	1672
676.391	1634
676.441	1321
676.491	1660
676.540	1476
676.590	2467
676.640	1070
676.689	1913
676.739	1051
676.789	1574
676.838	980
676.888	1720
676.937	1425
676.987	1802
677.037	1347
677.086	1589
677.136	1007
677.185	1463
677.235	1709
677.284	1356
677.333	1624
677.383	447
677.432	450
677.482	2081
677.531	1344
677.580	1788
677.630	1099
677.679	1272
677.728	2163
677.778	2073
677.827	1643
677.876	2064
677.925	994
677.975	1471
678.024	2058
678.073	1216
678.122	1758
678.171	1514
678.220	1758
678.269	2524
678.319	2911
678.368	1815
678.417	1510
678.466	1614
678.515	1887
678.564	1287
678.613	1194
678.662	636
678.711	1837
678.760	1758
678.809	1884
678.857	1340
678.906	1662
678.955	1393
679.004	1402
679.053	1418
679.102	1539
679.151	1612
679.199	1524
679.248	2180
679.297	1791
679.346	2178
679.394	1638
679.443	1857
679.492	1641
679.540	1395
679.589	1749
679.638	1685
679.686	1175
679.735	1995
679.784	1497
679.832	2198
679.881	1017
679.929	1781
679.978	1177
680.026	1321
680.075	2031
680.123	654
680.172	527
680.220	930
680.268	697
680.317	1171
680.365	946
680.414	1414
680.462	1655
680.510	2362
680.559	1184
680.607	2077
680.655	1943
680.703	874
680.752	1369
680.800	1446
680.848	1127
680.896	831
680.945	1113
680.993	902
681.041	1256
681.089	876
681.137	641
681.185	1041
681.233	967
681.258	1275
681.281	1533
681.329	1611
681.377	1687
681.380	1728
681.425	1841
681.473	1247
681.502	1456
681.521	1533
681.569	2120
681.617	2219
681.624	2126
681.665	1271
681.713	1807
681.745	1584
681.761	1423
681.809	1638
681.857	1940
681.867	2130
681.904	2653
681.952	2081
681.989	2717
682.000	2859
682.048	1922
682.096	1976
682.111	2248
682.143	2742
682.191	1993
682.233	3116
682.239	3251
682.286	3120
682.334	2655
682.354	2643
682.382	2531
682.430	3457
682.476	2520
682.477	2469
682.525	3057
682.572	2659
682.598	2892
682.620	3047
682.667	3226
682.715	3070
682.720	3146
682.763	3515
682.810	3450
682.841	3326
682.857	3234
682.905	2783
682.952	4058
682.963	4082
683.000	4006
683.047	4015
683.085	4134
683.095	4136
683.142	3627
683.190	3554
683.206	3650
683.237	3722
683.284	4353
683.328	3817
683.332	3749
683.379	4011
683.426	4175
683.449	4243
683.473	4264
683.521	4293
683.568	4125
683.571	4125
683.615	3729
683.662	5207
683.693	4684
683.709	4363
683.757	4466
683.804	4418
683.814	4418
683.851	4319
683.898	5004
683.936	5506
683.945	5620
683.992	5037
684.039	5525
684.057	5384
684.086	5078
684.133	5227
684.179	5561
684.180	5550
684.227	5859
684.274	5432
684.300	5448
684.321	5419
684.368	5321
684.415	5663
684.422	5674
684.462	5619
684.509	5683
684.543	5545
684.556	5493
684.603	6130
684.649	4674
684.665	5156
684.696	6057
684.743	6060
684.786	6323
684.790	6339
684.837	6439
684.883	6991
684.908	7150
684.930	7194
684.977	7067
685.023	7122
685.029	7134
685.070	7045
685.117	6606
685.150	6797
685.164	6901
685.210	7112
685.257	7654
685.272	7800
685.303	7850
685.350	7636
685.393	7591
685.396	7583
685.443	7641
685.490	7453
685.514	7361
685.536	7305
685.583	7625
685.629	8296
685.636	8278
685.675	7928
685.722	7837
685.757	7453
685.768	7366
685.815	7778
685.861	7767
685.878	7768
685.908	7748
685.954	7535
686.000	8287
686.000	8293
686.047	8753
686.093	8861
686.121	8814
686.139	8608
686.185	8478
686.232	8665
686.242	8724
686.278	9097
686.324	8994
686.363	9036
686.370	9043
686.416	9054
686.463	9744
686.484	9533
686.509	9151
686.555	9646
686.601	8934
686.606	8929
686.647	8884
686.693	8801
686.727	8751
686.739	8786
686.785	8711
686.831	8612
686.848	8759
686.877	8948
686.923	9021
686.969	9158
686.969	9157
687.015	9122
687.061	9414
687.090	9428
687.107	9361
687.153	9638
687.199	9179
687.211	9190
687.245	9437
687.291	9188
687.332	9286
687.336	9288
687.382	9741
687.428	10045
687.453	9889
687.474	9743
687.520	10040
687.565	9761
687.574	9669
687.611	9551
687.657	10662
687.695	10714
687.702	10741
687.748	11587
687.794	11854
687.816	11958
687.839	11638
687.885	10786
687.931	10032
687.937	10063
687.976	10684
688.022	10571
688.058	10538
688.067	10522
688.113	10668
688.158	10256
688.179	10385
688.204	10599
688.249	10364
688.295	10874
688.300	10843
688.340	10900
688.386	11737
688.421	11352
688.431	11129
688.477	10983
688.522	11011
688.542	10692
688.567	10698
688.613	11609
688.658	11517
688.663	11587
688.703	11704
688.749	11363
688.784	11116
688.794	11105
688.839	11277
688.884	11493
688.905	11539
688.930	11590
688.975	11511
689.020	11544
689.026	11480
689.065	11290
689.110	12172
689.146	12017
689.155	11963
689.201	11922
689.246	12039
689.267	12041
689.291	12033
689.336	12086
689.381	11902
689.388	11859
689.426	11923
689.471	11939
689.509	12618
689.516	12723
689.561	12642
689.606	11970
689.630	12252
689.651	12547
689.696	12658
689.741	12354
689.750	12320
689.785	12271
689.830	12545
689.871	12106
689.875	12100
689.920	12668
689.965	12865
689.992	12869
690.010	12844
690.054	13135
690.099	13001
690.112	13071
690.144	13341
690.189	13265
690.233	13557
690.233	13577
690.278	13859
690.323	13922
690.354	14077
690.367	14273
690.412	14564
690.457	14996
690.474	15268
690.501	15613
690.546	15968
690.590	16082
690.595	16104
690.635	17274
690.680	18205
690.716	19350
690.724	19965
690.769	22891
690.813	26015
690.836	27360
690.857	30982
690.902	39298
690.946	48444
690.957	50361
690.991	69789
691.035	97379
691.077	123080
691.080	123258
691.124	118262
691.168	113238
691.198	110397
691.213	101869
691.257	76877
691.301	51862
691.318	42143
691.346	38201
691.390	31314
691.434	24458
691.439	23675
691.478	21986
691.522	20571
691.559	18639
691.567	18536
691.611	18101
691.655	17721
691.680	17575
691.699	17582
691.743	16828
691.787	16744
691.800	16554
691.831	16312
691.875	16147
691.919	16224
691.921	16186
691.964	16396
692.008	16617
692.041	16552
692.052	16543
692.096	16819
692.139	17405
692.162	17257
692.183	16954
692.227	16913
692.271	16668
692.282	16519
692.315	16355
692.359	16590
692.402	16321
692.403	16351
692.447	16175
692.490	16229
692.523	16075
692.534	16165
692.578	16756
692.622	17273
692.643	17384
692.666	17264
692.709	16615
692.753	16266
692.763	16246
692.797	16584
692.840	16556
692.884	16892
692.884	16931
692.928	17093
692.971	17418
693.004	17505
693.015	17642
693.059	18177
693.102	18520
693.124	18734
693.146	18927
693.189	19162
693.233	19615
693.245	19611
693.276	20840
693.320	22709
693.363	24567
693.365	24582
693.407	27239
693.450	30242
693.485	32425
693.493	33810
693.537	40354
693.580	47371
693.605	51431
693.624	59846
693.667	79785
693.710	99785
693.725	106882
693.753	144563
693.797	203346
693.840	263325
693.845	269643
693.883	261872
693.926	251038
693.966	242730
693.970	237632
694.013	179628
694.056	121567
694.086	81708
694.099	77190
694.142	62217
694.185	46952
694.206	39798
694.229	38009
694.272	34094
694.315	30419
694.326	29349
694.358	27899
694.401	26065
694.444	23810
694.446	23668
694.487	23294
694.530	22733
694.566	22018
694.573	21892
694.616	20722
694.659	19950
694.686	19093
694.702	18922
694.745	18731
694.787	18468
694.806	18206
694.830	18100
694.873	18023
694.916	17921
694.926	17843
694.959	17776
695.002	17817
695.044	17536
695.046	17493
695.087	17397
695.130	17032
695.166	16773
695.172	16896
695.215	17434
695.258	18071
695.286	18368
695.301	18327
695.343	18024
695.386	17975
695.406	17803
695.428	17882
695.471	17872
695.514	18129
695.526	18061
695.556	18534
695.599	19632
695.641	20156
695.646	20210
695.684	19915
695.726	19301
695.766	18699
695.769	18740
695.811	18820
695.854	18618
695.886	18645
695.896	18672
695.938	18357
695.981	18147
696.005	18010
696.023	18051
696.065	17903
696.108	17839
696.125	17701
696.150	18014
696.192	18761
696.235	19298
696.245	19382
696.277	19703
696.319	20200
696.361	20596
696.365	20583
696.404	21402
696.446	22076
696.485	22823
696.488	22822
696.530	21893
696.572	21104
696.604	20425
696.614	20404
696.656	20022
696.698	19706
696.724	19462
696.740	19442
696.783	19061
696.825	18914
696.844	18791
696.867	18934
696.909	18998
696.951	19087
696.964	19103
696.992	18918
697.034	18432
697.076	17944
697.083	17833
697.118	18409
697.160	18924
697.202	19510
697.203	19476
697.244	19568
697.286	19522
697.323	19434
697.327	19494
697.369	19517
697.411	19648
697.442	19673
697.453	19711
697.494	19616
697.536	19557
697.562	19456
697.578	19577
697.620	19728
697.661	19935
697.682	19992
697.703	20074
697.744	20039
697.786	20162
697.801	20095
697.828	20239
697.869	20458
697.911	20586
697.921	20588
697.952	20227
697.994	19612
698.035	19025
698.040	18902
698.077	19122
698.118	19280
698.160	19474
698.160	19421
698.201	19486
698.243	19499
698.279	19442
698.284	19520
698.325	19739
698.367	19973
698.399	20105
698.408	20076
698.449	19658
698.491	19276
698.518	18966
698.532	19187
698.573	19685
698.614	20205
698.638	20435
698.656	20538
698.697	20660
698.738	20780
698.757	20786
698.779	21036
698.820	21385
698.862	21749
698.877	21824
698.903	21650
698.944	21278
698.985	20904
698.996	20745
699.026	20733
699.067	20639
699.116	20473
699.235	20661
699.354	20952
699.474	20757
699.593	21033
699.713	20281
699.832	20825
699.951	19761
700.070	21204
700.190	19118
700.309	20085
700.428	18399
700.547	19043
700.667	18806
700.786	19758
700.905	19807
701.024	19153
701.143	17838
701.262	17836
701.381	18639
701.500	18817
701.619	19260
701.738	18731
701.857	19094
701.976	18524
702.095	18185
702.214	19755
702.333	18504
702.452	18047
702.571	18067
702.690	19200
702.809	19248
702.928	17795
703.047	16984
703.165	17648
703.284	16772
703.403	17746
703.522	17765
703.640	17534
703.759	17765
703.878	20080
703.997	16757
704.115	17234
704.234	17527
704.353	16941
704.471	15498
704.590	16037
704.708	16839
704.827	16858
704.946	16379
705.064	16911
705.183	16591
705.301	18869
705.420	23592
705.538	22817
705.656	19779
705.775	21457
705.893	29024
706.012	36173
706.130	20204
706.249	20431
706.367	19414
706.485	20012
706.604	18998
706.722	19610
706.840	20784
706.958	24545
707.077	22031
707.195	19225
707.313	18757
707.431	19081
707.549	18521
707.668	17919
707.786	18326
707.904	17763
708.022	16828
708.140	17029
708.258	17703
708.376	18318
708.494	17272
708.612	19515
708.730	24050
708.848	23432
708.966	21474
709.084	20223
709.202	19706
709.320	21121
709.438	20383
709.556	20804
709.674	19330
709.791	20948
709.909	19035
710.027	20143
710.145	18723
710.263	20613
710.380	19040
710.498	19781
710.616	19258
710.733	20184
710.851	18777
710.969	19193
711.086	18204
711.204	19829
711.322	18601
711.439	19023
711.557	18062
711.674	18158
711.792	17457
711.909	19756
712.027	19979
712.144	17771
712.262	17644
712.379	18640
712.497	24058
712.614	25896
712.732	22046
712.849	21379
712.966	20556
713.084	22865
713.201	21376
713.318	21805
713.436	21439
713.553	21320
713.670	21905
713.787	23969
713.905	21837
714.022	20614
714.139	19334
714.256	21904
714.373	24399
714.490	32617
714.608	61692
714.725	222739
714.842	264909
714.959	32548
715.076	21942
715.193	21069
715.310	19727
715.427	19606
715.544	17971
715.661	19414
715.778	18114
715.895	20212
716.011	19481
716.128	18627
716.245	19077
716.362	19149
716.479	18310
716.596	17438
716.713	17956
716.829	17520
716.946	17386
717.063	17620
717.180	15781
717.296	16353
717.413	17431
717.530	17081
717.646	15608
717.763	17189
717.880	15350
717.996	17003
718.113	15603
718.229	16530
718.346	15247
718.462	15868
718.579	16176
718.695	18444
718.812	17938
718.928	18227
719.045	16046
719.161	15534
719.277	15500
719.394	16017
719.510	16151
719.626	16175
719.743	18188
719.859	19390
719.975	26454
720.092	68365
720.208	162284
720.324	30891
720.440	17038
720.557	17372
720.673	17125
720.789	20665
720.905	32551
721.021	19256
721.137	15567
721.253	14844
721.369	14705
721.486	15400
721.602	16517
721.718	15651
721.834	14258
721.950	14604
722.066	13306
722.181	14520
722.297	14032
722.413	13920
722.529	13680
722.645	14296
722.761	13243
722.877	14022
722.993	12702
723.108	14831
723.224	13773
723.340	13524
723.456	13064
723.571	12724
723.687	12549
723.803	13066
723.918	12358
724.034	13144
724.150	11992
724.265	13583
724.381	16995
724.497	20224
724.612	12338
724.728	12769
724.843	11913
724.959	13433
725.074	16063
725.190	18439
725.305	12600
725.421	12377
725.536	10879
725.651	12979
725.767	11356
725.882	11957
725.997	11850
726.113	11252
726.228	10682
726.343	11087
726.459	11347
726.574	12024
726.689	10375
726.804	11666
726.920	11424
727.035	11933
727.150	11456
727.265	11137
727.380	11108
727.495	11882
727.610	10235
727.725	11431
727.841	12240
727.956	17819
728.071	15821
728.186	11000
728.301	9800
728.416	12103
728.531	11526
728.645	10261
728.760	10478
728.875	10178
728.990	10284
729.105	11143
729.220	10129
729.335	10504
729.449	10471
729.564	9661
729.679	10201
729.794	10420
729.908	9740
730.023	10935
730.138	9721
730.253	9780
730.367	9825
730.482	10271
730.596	9321
730.711	11335
730.826	10918
730.940	12009
731.055	10161
731.169	9894
731.284	9264
731.398	10073
731.513	9702
731.627	11028
731.742	11758
731.856	12957
731.970	10785
732.085	11633
732.199	12802
732.313	16552
732.428	30344
732.542	79113
732.656	52774
732.771	15977
732.885	11743
732.999	11629
733.113	12322
733.227	12117
733.342	11430
733.456	11639
733.570	10877
733.684	11329
733.798	10970
733.912	11015
734.026	10519
734.140	10775
734.254	11388
734.368	13400
734.482	14766
734.596	11048
734.710	10490
734.824	10482
734.938	11268
735.052	10324
735.166	11513
735.280	11936
735.393	10399
735.507	10066
735.621	10990
735.735	13673
735.849	10610
735.962	10780
736.076	10643
736.190	10214
736.303	10572
736.417	13203
736.531	9893
736.644	11358
736.758	10186
736.872	10810
736.985	10180
737.099	10477
737.212	9051
737.326	9907
737.439	10061
737.553	9963
737.666	9326
737.780	9603
737.893	10034
738.007	10126
738.120	10077
738.233	8851
738.347	10085
738.460	9565
738.573	9245
738.687	9599
738.800	9473
738.913	10535
739.026	9992
739.140	9535
739.253	10186
739.366	9396
739.479	9349
739.592	9244
739.705	9338
739.818	10790
739.932	8885
740.045	10035
740.158	8698
740.271	9087
740.384	9634
740.497	9933
740.610	9863
740.723	10070
740.836	9840
740.949	9895
741.062	9829
741.174	9747
741.287	9823
741.400	9089
741.513	8494
741.626	9803
741.739	9140
741.851	9157
741.964	8567
742.077	9371
742.189	8463
742.302	9316
742.415	8898
742.527	9064
742.640	8467
742.753	9237
742.865	8884
742.978	9208
743.090	8853
743.203	9213
743.316	9230
743.428	8645
743.541	8584
743.653	8956
743.766	8089
743.878	9109
743.990	9000
744.103	9933
744.215	8560
744.327	8550
744.440	9271
744.552	9110
744.664	8965
744.777	8598
744.889	8828
745.001	9310
745.113	8572
745.226	8634
745.338	8381
745.450	9226
745.562	8861
745.674	8756
745.786	8359
745.898	8747
746.010	9408
746.122	8855
746.234	8377
746.347	9278
746.459	9659
746.570	9527
746.682	8600
746.794	8403
746.906	8647
747.018	8777
747.130	9030
747.242	9134
747.354	8863
747.466	9302
747.577	8123
747.689	9033
747.801	9432
747.913	8379
748.024	8696
748.136	9100
748.248	8302
748.359	8903
748.471	9321
748.583	9165
748.694	8941
748.806	10773
748.918	9039
749.029	9533
749.141	9575
749.252	10097
749.364	9011
749.475	10444
749.587	9606
749.698	8870
749.809	9251
749.921	9475
750.032	8868
750.144	8551
750.255	8719
750.366	8613
750.478	9206
750.589	9197
750.700	9466
750.811	9470
750.923	10112
751.034	9896
751.145	10689
751.256	9619
751.367	8397
751.479	9677
751.590	9057
751.701	9443
751.812	8671
751.923	9918
752.034	9538
752.145	9800
752.256	9468
752.367	9614
752.478	8991
752.589	10409
752.700	9943
752.811	9624
752.922	8644
753.032	9521
753.143	10316
753.254	9367
753.365	9268
753.476	10709
753.586	10386
753.697	9622
753.808	9484
753.919	10397
754.029	10421
754.140	10297
754.251	9887
754.361	10604
754.472	10080
754.582	10988
754.693	9897
754.804	11177
754.914	10034
755.025	10694
755.135	10084
755.246	10600
755.356	10186
755.466	11265
755.577	11019
755.687	10474
755.798	11122
755.908	11610
756.018	11372
756.129	10625
756.239	10592
756.349	12454
756.460	12042
756.570	12632
756.680	11299
756.790	11682
756.900	12322
757.011	11888
757.121	12222
757.231	11664
757.341	12057
757.451	12110
757.561	12236
757.671	13157
757.781	12397
757.891	13506
758.001	12976
758.111	14213
758.221	13506
758.331	14412
758.441	13705
758.551	14504
758.661	14439
758.771	15029
758.880	14966
758.990	15575
759.100	15616
759.210	16131
759.320	16229
759.429	16516
759.539	16533
759.649	17643
759.758	16948
759.868	18321
759.978	17573
760.087	18495
760.197	18052
760.307	19397
760.416	19026
760.526	19345
760.635	20011
760.745	20937
760.854	21753
760.964	22723
761.073	21428
761.182	22177
761.292	22669
761.401	24245
761.511	23558
761.620	23836
761.729	25641
761.839	27203
761.948	26757
762.057	28987
762.166	27581
762.276	28525
762.385	30337
762.494	31016
762.603	31676
762.712	34175
762.822	36196
762.931	36800
763.040	36979
763.149	39878
763.258	41369
763.367	42815
763.476	45446
763.585	46623
763.694	49989
763.803	53766
763.912	55414
764.021	59096
764.130	63025
764.238	67262
764.347	72760
764.456	78671
764.565	85211
764.674	91507
764.783	99377
764.891	109706
765.000	122870
765.109	139249
765.217	156649
765.326	179457
765.435	209177
765.543	247079
765.652	295588
765.761	359829
765.869	442969
765.978	557589
766.086	694987
766.195	840865
766.303	874312
766.412	614760
766.520	631374
766.629	843635
766.737	807797
766.846	678763
766.954	546970
767.062	435300
767.171	349811
767.279	284154
767.387	233770
767.496	198999
767.604	172556
767.712	150750
767.820	135333
767.928	125153
768.037	115672
768.145	108497
768.253	103969
768.361	102348
768.469	101439
768.577	102067
768.685	107752
768.793	113730
768.901	125422
769.009	145328
769.117	171464
769.225	212982
769.333	274380
769.441	377062
769.549	526085
769.657	726421
769.765	804623
769.873	600545
769.981	738137
770.088	700363
770.196	533405
770.304	398070
770.412	304849
770.519	240839
770.627	196015
770.735	165077
770.842	139721
770.950	122745
771.058	106733
771.165	95766
771.273	85620
771.380	78963
771.488	71219
771.595	66111
771.703	60669
771.810	57075
771.918	53480
772.025	50522
772.133	47726
772.240	45027
772.348	43175
772.455	40817
772.562	37845
772.670	36660
772.777	35841
772.884	34269
772.991	31554
773.099	31841
773.206	30455
773.313	29871
773.420	29147
773.528	27902
773.635	26676
773.742	25847
773.849	25318
773.956	23792
774.063	23107
774.170	22989
774.277	22900
774.384	21658
774.491	20776
774.598	21406
774.705	20234
774.812	20262
774.919	19635
775.026	19168
775.133	18545
775.239	19101
775.346	17259
775.453	17159
775.560	16759
775.667	17850
775.773	16607
775.880	16914
775.987	15328
776.093	16997
776.200	16199
776.307	15255
776.413	15319
776.520	15316
776.627	14981
776.733	14846
776.840	12928
776.946	15335
777.053	13991
777.159	14143
777.266	11832
777.372	14579
777.478	12950
777.585	13513
777.691	12644
777.798	12435
777.904	11705
778.010	13838
778.117	12613
778.223	11738
778.329	11275
778.435	10807
778.542	11780
778.648	11850
778.754	9955
778.860	10980
778.966	10481
779.072	11694
779.178	10383
779.284	11627
779.391	10832
779.497	12348
779.603	15830
779.708	22593
779.815	44844
779.920	139158
780.026	247694
780.132	59546
780.238	17929
780.344	13703
780.450	12375
780.556	11366
780.661	9220
780.767	10149
780.873	8981
780.979	9890
781.085	8369
781.190	9163
781.296	8514
781.402	8784
781.507	7832
781.613	8511
781.719	7665
781.824	8986
781.930	8564
782.035	7750
782.141	7977
782.246	7545
782.352	7090
782.457	7671
782.563	6964
782.668	7294
782.773	7438
782.879	6554
782.984	6544
783.090	8241
783.195	7544
783.300	7289
783.405	7175
783.511	6701
783.616	6941
783.721	7994
783.826	6300
783.932	7100
784.037	6868
784.142	7167
784.247	5748
784.352	7448
784.457	5906
784.562	7334
784.667	6171
784.772	6681
784.877	4804
784.982	6451
785.087	5982
785.192	7079
785.297	6167
785.402	6450
785.507	5919
785.611	5486
785.716	5749
785.821	5790
785.926	5651
786.031	6522
786.135	5330
786.240	6036
786.345	5225
786.450	5970
786.554	5477
786.659	5719
786.763	4588
786.868	6293
786.973	6048
787.077	5988
787.182	5045
787.286	5203
787.391	5322
787.495	4708
787.600	5421
787.704	4895
787.809	4687
787.913	5228
788.017	5292
788.122	6036
788.226	4802
788.330	5164
788.435	4377
788.539	4966
788.643	4452
788.747	4673
788.852	3666
788.956	4949
789.060	4685
789.164	4721
789.268	3762
789.372	4941
789.476	4515
789.580	4626
789.684	4009
789.788	4844
789.892	4693
789.996	4916
790.100	4658
790.204	4938
790.308	4684
790.412	4070
790.516	4549
790.620	5017
790.724	3972
790.828	4987
790.931	3573
791.035	5567
791.139	4649
791.242	3910
791.346	4903
791.450	4386
791.554	4806
791.657	3119
791.761	4083
791.864	5427
791.968	3675
792.072	4686
792.175	3856
792.279	4094
792.382	3503
792.486	4066
792.589	2921
792.693	4693
792.796	2692
792.899	4620
793.003	3337
793.106	3029
793.209	3911
793.313	5262
793.416	1967
793.519	5416
793.623	4705
793.726	4416
793.829	3323
793.932	4147
794.035	2972
794.138	6442
794.242	5709
794.345	7366
794.448	10562
794.551	22488
794.654	77812
794.757	157297
794.860	37020
794.963	8481
795.066	5255
795.169	5948
795.272	3163
795.375	4516
795.477	3208
795.580	3850
795.683	2557
795.786	4268
795.889	2408
795.991	3908
796.094	3236
796.197	2763
796.300	4599
796.402	3486
796.505	3015
796.608	3263
796.710	3719
796.813	3462
796.915	2459
797.018	4018
797.120	2095
797.223	1544
797.326	3641
797.428	3521
797.530	3371
797.633	3232
797.735	3797
797.838	3508
797.940	4364
798.042	2855
798.145	2343
798.247	3248
798.349	1737
798.452	4238
798.554	2544
798.656	2551
798.758	3003
798.860	3635
798.962	2456
799.065	3344
799.167	1805
799.269	4826
799.371	3142
799.473	3688
799.575	2180
799.677	3733
799.779	4244
799.881	2368
799.983	2793
800.085	2834
800.187	2077
800.289	2111
800.390	2136
800.492	3071
800.594	2301
800.696	2354
800.798	2163
800.899	2775
801.001	1900
801.103	2244
801.205	1628
801.306	2584
801.408	1229
801.509	2839
801.611	2693
801.713	2592
801.814	1945
801.916	2402
802.017	1823
802.119	2291
802.220	2281
802.322	1451
802.423	4246
802.525	1787
802.626	1843
802.727	3275
802.829	2651
802.930	1075
803.031	3207
803.133	2945
803.234	1675
803.335	3574
803.436	1786
803.538	2641
803.639	852
803.740	2376
803.841	2110
803.942	2676
804.043	2189
804.144	1576
804.245	1888
804.346	1197
804.447	1396
804.548	2129
804.649	2786
804.750	2227
804.851	1505
804.952	2062
805.053	1917
805.154	1553
805.255	3227
805.355	1795
805.456	1359
805.557	1676
805.658	1128
805.758	2509
805.859	1585
805.960	1801
806.061	1186
806.161	2115
806.262	2626
806.362	2489
806.463	1301
806.564	2377
806.664	1555
806.765	3062
806.865	2646
806.966	2650
807.066	1281
807.166	2491
807.267	2193
807.367	1601
807.468	1960
807.568	1293
807.668	1865
807.769	2844
807.869	1544
807.969	1975
808.069	2084
808.170	2172
808.270	998
808.370	2515
808.470	1290
808.570	1734
808.670	2085
808.770	2194
808.870	1301
808.970	2236
809.070	1618
809.170	1674
809.271	1894
809.370	1592
809.470	2046
809.570	1773
809.670	984
809.770	1943
809.870	2295
809.970	1299
810.070	1266
810.169	2291
810.269	481
810.369	2757
810.469	1160
810.568	2118
810.668	1441
810.768	1785
810.867	2125
810.967	1245
811.066	1684
811.166	2064
811.265	2541
811.365	1790
811.464	1223
811.564	1647
811.663	2191
811.763	1588
811.862	2095
811.962	2608
812.061	1439
812.160	2082
812.260	1774
812.359	1995
812.458	2503
812.557	5118
812.657	6270
812.756	3276
812.855	2073
812.954	2004
813.053	1638
813.153	3485
813.252	1216
813.351	2156
813.450	1633
813.549	1777
813.648	1076
813.747	1953
813.846	1748
813.945	1644
814.044	601
814.143	2146
814.242	2172
814.341	860
814.439	1957
814.538	2015
814.637	1542
814.736	1473
814.835	1996
814.933	950
815.032	1336
815.131	2231
815.229	2171
815.328	3931
815.427	1921
815.525	3079
815.624	1661
815.722	1680
815.821	2527
815.919	2327
816.018	1462
816.116	3417
816.215	933
816.313	2169
816.412	2115
816.510	2782
816.609	4302
816.707	3252
816.805	2251
816.904	2349
817.002	2758
817.100	3917
817.198	3484
817.296	3048
817.395	2716
817.493	3858
817.591	2459
817.689	3495
817.787	2779
817.885	3602
817.983	4351
818.081	7913
818.179	14315
818.277	36327
818.375	38945
818.473	11682
818.571	5175
818.669	4376
818.767	3634
818.865	3520
818.963	3790
819.061	4856
819.158	7183
819.256	14349
819.354	30506
819.452	75873
819.549	55994
819.647	15723
819.745	6044
819.842	4634
819.940	3236
820.038	2968
820.135	3017
820.233	4359
820.330	2186
820.428	2835
820.525	2829
820.623	3122
820.720	1497
820.818	2582
820.915	2517
821.012	2896
821.110	1309
821.207	2741
821.304	1460
821.402	2656
821.499	3127
821.596	2941
821.693	1222
821.791	2030
821.888	2322
821.985	3423
822.082	1770
822.179	3083
822.276	1240
822.373	2734
822.470	2611
822.567	2147
822.664	1351
822.761	3123
822.858	907
822.955	1826
823.052	1458
823.149	1506
823.246	2144
823.343	1289
823.440	1747
823.536	2274
823.633	1539
823.730	2166
823.827	1757
823.923	2426
824.020	2288
824.117	1880
824.213	1241
824.310	1854
824.407	1626
824.503	2227
824.600	1893
824.696	1232
824.793	2312
824.889	1389
824.986	2027
825.082	2028
825.179	2472
825.275	2250
825.371	1205
825.468	2656
825.564	-124
825.660	2613
825.757	1429
825.853	2458
825.949	458
826.045	1572
826.142	1515
826.238	976
826.334	1702
826.430	611
826.526	1025
826.622	1427
826.718	1586
826.814	1855
826.910	1282
827.006	407
827.102	470
827.198	1919
827.294	462
827.390	2144
827.486	2118
827.582	1195
827.678	523
827.774	1593
827.869	418
827.965	2097
828.061	942
828.157	918
828.252	1050
828.348	977
828.444	1779
828.539	857
828.635	900
828.731	1948
828.826	116
828.922	1975
829.017	1274
829.113	2178
829.208	846
829.304	1734
829.399	1926
829.495	911
829.590	2162
829.685	180
829.781	1488
829.876	1930
829.971	1384
830.066	1123
830.162	444
830.257	1683
830.352	404
830.447	2034
830.543	1078
830.638	288
830.733	2464
830.828	756
830.923	1768
831.018	1180
831.113	923
831.208	1453
831.303	936
831.398	927
831.493	557
831.588	1356
831.683	501
831.778	1481
831.873	588
831.967	1507
832.062	1021
832.157	1046
832.252	1935
832.346	1400
832.441	1814
832.536	1161
832.631	2458
832.725	2541
832.820	715
832.914	999
833.009	623
833.104	611
833.198	1524
833.293	2080
833.387	1009
833.482	1025
833.576	623
833.670	2335
833.765	619
833.859	1449
833.954	937
834.048	2029
834.142	939
834.237	653
834.331	525
834.425	1820
834.519	149
834.613	1453
834.708	551
834.802	1268
834.896	1101
834.990	1164
835.084	-103
835.178	1029
835.272	734
835.366	1362
835.460	1447
835.554	750
835.648	678
835.742	399
835.836	991
835.930	67
836.024	817
836.117	1977
836.211	917
836.305	2177
836.399	1551
836.493	-118
836.586	1507
836.680	321
836.774	70
836.867	2040
836.961	-325
837.055	406
837.148	-24
837.242	1295
837.335	887
837.429	1072
837.522	881
837.616	1379
837.709	1715
837.803	1025
837.896	984
837.989	1566
838.083	1213
838.176	2251
838.269	1851
838.363	1939
838.456	837
838.549	1444
838.642	1397
838.735	3143
838.829	1733
838.922	816
839.015	369
839.108	333
839.201	987
839.294	1695
839.387	1302
839.480	567
839.573	719
839.666	777
839.759	700
839.852	215
839.945	1042
840.038	504
840.131	-205
840.223	870
840.316	1610
840.409	1067
840.502	-249
840.594	1416
840.687	-165
840.780	1659
840.873	426
840.965	538
841.058	1211
841.150	2673
841.243	1510
841.336	1549
841.428	228
841.521	379
841.613	-123
841.706	446
841.798	312
841.890	1237
841.983	-502
842.075	1729
842.167	91
842.260	361
842.352	1385
842.444	1289
842.537	1736
842.629	4205
842.721	749
842.813	419
842.905	-451
842.997	452
843.090	33
843.182	1490
843.274	1041
843.366	4339
843.458	8122
843.550	6528
843.642	821
843.734	969
843.826	224
843.918	915
844.009	361
844.101	1358
844.193	-21
844.285	866
844.377	1125
844.469	1405
844.560	216
844.652	1449
844.744	991
844.835	716
844.927	-165
845.019	982
845.110	185
845.202	556
845.293	776
845.385	553
845.476	495
845.568	1282
845.659	1351
845.751	634
845.842	-131
845.934	907
846.025	221
846.116	901
846.208	165
846.299	758
846.390	344
846.482	1223
846.573	1599
846.664	1395
846.755	355
846.846	1851
846.937	435
847.029	986
847.120	814
847.211	788
847.302	1581
847.393	169
847.484	872
847.575	353
847.666	39
847.757	1228
847.847	440
847.938	1287
848.029	242
848.120	847
848.211	359
848.302	1102
848.392	372
848.483	1257
848.574	322
848.664	1362
848.755	703
848.846	1103
848.936	-291
849.027	564
849.118	622
849.208	892
849.299	856
849.389	746
849.480	1999
849.570	3161
849.661	5985
849.751	10149
849.841	3802
849.932	763
850.022	495
850.112	1640
850.203	-139
850.293	1317
850.383	-72
850.474	721
850.564	-299
850.654	785
850.744	873
850.834	984
850.924	668
851.014	618
851.104	282
851.194	180
851.284	343
851.374	847
851.464	534
851.554	676
851.644	-6
851.734	1659
851.824	1290
851.914	3167
852.004	6845
852.094	5869
852.183	1413
852.273	1079
852.363	469
852.452	387
852.542	365
852.632	1554
852.721	307
852.811	504
852.901	322
852.990	1092
853.080	-541
853.169	1159
853.259	-518
853.348	486
853.438	67
853.527	852
853.617	894
853.706	2598
853.795	3201
853.885	9734
853.974	18719
854.063	33946
854.152	57211
854.242	24183
854.331	4429
854.420	1791
854.509	471
854.598	948
854.687	1505
854.777	1554
854.866	537
854.955	1846
855.044	-28
855.133	688
855.222	-123
855.311	-4
855.400	429
855.488	167
855.577	-379
855.666	370
855.755	1004
855.844	853
855.933	160
856.021	1536
856.110	276
856.199	357
856.288	108
856.376	823
856.465	217
856.554	1170
856.642	-775
856.731	722
856.819	300
856.908	-36
856.996	851
857.085	236
857.173	532
857.262	861
857.350	-312
857.438	481
857.527	-108
857.615	822
857.703	736
857.792	773
857.880	381
857.968	-129
858.056	30
858.145	80
858.233	-7
858.321	540
858.409	759
858.497	301
858.585	-237
858.673	1070
858.761	547
858.849	564
858.937	0
859.025	595
859.113	93
859.201	39
859.289	27
859.377	186
859.465	-130
859.552	299
859.640	328
859.728	452
859.816	-544
859.903	1346
859.991	-374
860.079	198
860.166	-399
860.254	117
860.342	702
860.429	845
860.517	-244
860.604	668
860.692	-121
860.779	-12
860.867	-373
860.954	599
861.042	-776
861.129	914
861.216	297
861.304	880
861.391	708
861.478	1073
861.565	235
861.653	2237
861.740	-320
861.827	257
861.914	11
862.001	573
862.089	-314
862.176	42
862.263	-439
862.350	73
862.437	-356
862.524	725
862.611	-129
862.698	577
862.785	-56
862.871	655
862.958	-381
863.045	740
863.132	39
863.219	297
863.306	-979
863.392	821
863.479	180
863.566	72
863.652	128
863.739	623
863.826	-5
863.912	-42
863.999	-700
864.086	308
864.172	45
864.259	424
864.345	47
864.432	175
864.518	525
864.604	458
864.691	858
864.777	1247
864.863	-129
864.950	829
865.036	341
865.122	1915
865.209	1874
865.295	1777
865.381	1104
865.467	1610
865.553	2062
865.639	2218
865.726	2178
865.812	5461
865.898	10138
865.984	15004
866.070	26218
866.156	32809
866.242	8972
866.328	3379
866.414	1370
866.499	1874
866.585	1636
866.671	1339
866.757	1538
866.843	1784
866.928	1021
867.014	1519
867.100	1462
867.186	1295
867.271	606
867.357	1711
867.442	1534
867.528	1601
867.614	1305
867.699	2028
867.785	1791
867.870	1349
867.956	1000
868.041	1284
868.127	1209
868.212	1974
868.297	406
868.383	1467
868.468	1488
868.553	1950
868.639	1909
868.724	2995
868.809	2649
868.894	1740
868.979	1495
869.065	1549
869.150	-278
869.235	426
869.320	682
869.405	846
869.490	1007
869.575	549
869.660	-5
869.745	1675
869.830	507
869.915	68
870.000	31
870.085	1379
870.169	717
870.254	1795
870.339	635
870.424	1131
870.509	1199
870.593	678
870.678	814
870.763	818
870.847	875
870.932	237
871.016	1047
871.101	1178
871.186	1110
871.270	1353
871.355	-118
871.439	1082
871.523	1446
871.608	379
871.692	457
871.777	1076
871.861	-107
871.945	-471
872.030	760
872.114	967
872.198	171
872.282	999
872.367	261
872.451	652
872.535	508
872.619	1536
872.703	252
872.787	672
872.871	126
872.955	-552
873.039	120
873.123	1185
873.207	285
873.291	151
873.375	-206
873.459	1384
873.543	-350
873.627	933
873.711	-93
873.794	1061
873.878	-453
873.962	381
874.045	341
874.129	212
874.137	202
874.213	102
874.245	232
874.296	442
874.352	94
874.380	-79
874.460	787
874.464	822
874.547	101
874.568	319
874.631	969
874.676	404
874.714	-82
874.784	928
874.798	1135
874.881	1783
874.892	1680
874.965	960
874.999	475
875.048	-196
875.107	368
875.131	590
875.215	101
875.215	101
875.298	-486
875.323	-333
875.381	79
875.430	810
875.465	1274
875.538	459
875.548	361
875.631	194
875.646	162
875.714	-40
875.753	167
875.798	428
875.861	208
875.881	121
875.964	976
875.968	908
876.047	-223
876.076	14
876.130	455
876.183	195
876.213	28
876.291	858
876.296	914
876.379	-526
876.398	-203
876.462	861
876.506	502
876.545	235
876.613	444
876.628	501
876.711	215
876.721	319
876.794	915
876.828	797
876.877	698
876.935	836
876.960	875
877.043	553
877.043	552
877.125	428
877.150	516
877.208	609
877.258	724
877.291	885
877.365	695
877.374	675
877.456	748
877.472	843
877.539	1015
877.579	962
877.622	983
877.687	511
877.704	400
877.787	1087
877.794	1042
877.869	344
877.901	572
877.952	1052
878.008	385
878.034	143
878.115	784
878.117	791
878.199	304
878.222	383
878.282	819
878.329	843
878.364	723
878.437	1338
878.447	1410
878.529	-216
878.544	-65
878.611	801
878.651	485
878.694	178
878.758	567
878.776	690
878.858	-214
878.865	-118
878.941	826
878.972	483
879.023	83
879.078	398
879.105	498
879.185	648
879.187	651
879.269	670
879.292	626
879.351	690
879.399	695
879.433	641
879.506	582
879.516	558
879.598	611
879.613	525
879.680	270
879.720	463
879.762	654
879.827	326
879.844	242
879.926	553
879.933	526
880.007	334
880.040	330
880.089	358
880.147	654
880.171	829
880.253	1227
880.254	1227
880.335	1106
880.360	1115
880.417	1462
880.467	2452
880.499	3089
880.574	2859
880.580	2757
880.662	1409
880.680	1146
880.744	323
880.787	146
880.825	326
880.893	720
880.907	731
880.989	213
881.000	286
881.070	1152
881.106	998
881.152	582
881.213	684
881.233	845
881.315	1035
881.319	1054
881.396	601
881.426	345
881.478	386
881.532	626
881.559	755
881.639	943
881.641	933
881.722	718
881.745	445
881.803	286
881.852	638
881.885	843
881.958	900
881.966	878
882.047	1111
882.064	971
882.129	642
882.171	616
882.210	651
882.277	1251
882.291	1346
882.372	1002
882.383	998
882.454	872
882.489	710
882.535	579
882.596	422
882.616	309
882.697	517
882.702	494
882.778	804
882.808	856
882.859	651
882.914	533
882.940	473
883.020	764
883.021	770
883.102	649
883.127	703
883.183	845
883.233	863
883.264	824
883.339	857
883.345	862
883.426	821
883.445	845
883.507	1041
883.551	912
883.587	766
883.657	999
883.668	1077
883.749	1014
883.763	1060
883.830	869
883.869	748
883.910	506
883.975	169
883.991	300
884.072	722
884.081	798
884.152	696
884.187	557
884.233	749
884.292	1086
884.314	958
884.394	63
884.398	28
884.475	425
884.504	706
884.555	851
884.610	742
884.636	755
884.716	915
884.716	920
884.797	1121
884.821	1159
884.877	1113
884.927	1012
884.958	1039
885.033	1129
885.038	1131
885.118	1116
885.139	1142
885.199	1135
885.244	1022
885.279	979
885.350	857
885.359	865
885.439	1156
885.456	1095
885.520	979
885.561	1296
885.600	1301
885.667	784
885.680	758
885.760	1129
885.773	1060
885.840	779
885.878	901
885.920	874
885.984	754
886.000	791
886.080	1241
886.089	1189
886.160	733
886.195	848
886.240	977
886.300	979
886.320	1065
886.400	1497
886.406	1496
886.480	1490
886.511	1669
886.560	1672
886.616	1421
886.640	1393
886.720	1508
886.722	1502
886.800	1187
886.827	1121
886.879	1314
886.932	1283
886.959	1401
887.038	2136
887.039	2140
887.119	1601
887.143	1576
887.198	1809
887.248	1819
887.278	1717
887.354	1296
887.358	1316
887.437	1850
887.459	1982
887.517	1701
887.564	1396
887.596	1423
887.669	1528
887.676	1512
887.755	1152
887.774	1111
887.835	1034
887.880	909
887.914	967
887.985	1130
887.994	1161
888.073	1286
888.090	1339
888.153	1389
888.195	1342
888.232	1373
888.300	1472
888.311	1380
888.391	685
888.405	566
888.470	1140
888.510	1442
888.549	1641
888.615	2054
888.628	2037
888.708	1851
888.720	1817
888.787	1574
888.825	1421
888.866	1584
888.930	1855
888.945	1771
889.024	1268
889.035	1206
889.103	1253
889.140	1251
889.182	1267
889.245	1283
889.261	1306
889.340	1448
889.349	1459
889.419	1221
889.454	1106
889.498	1510
889.559	2067
889.577	1923
889.656	1283
889.664	1221
889.735	1791
889.768	2057
889.814	2012
889.873	1944
889.978	1078
890.083	1697
890.187	2210
890.292	1883
890.397	1297
890.501	2168
890.606	952
890.710	2319
890.815	2269
890.919	1754
891.024	1872
891.128	984
891.233	1324
891.337	1310
891.442	989
891.546	1104
891.650	831
891.755	1529
891.859	3031
891.963	1367
892.068	1126
892.172	1555
892.276	1469
892.380	1450
892.484	1264
892.589	1093
892.693	1778
892.797	1028
892.901	1225
893.005	1428
893.109	1533
893.213	1564
893.317	1463
893.421	799
893.525	1692
893.629	1034
893.733	1347
893.837	874
893.941	1223
894.045	1490
894.148	1735
894.252	4530
894.356	3169
894.460	1714
894.564	1382
894.667	598
894.771	1003
894.875	876
894.978	1180
895.082	1042
895.186	1650
895.289	866
895.393	1893
895.496	1173
895.600	675
895.703	1200
895.807	1452
895.910	957
896.014	842
896.117	756
896.221	715
896.324	287
896.427	1409
896.531	475
896.634	1009
896.737	1215
896.840	1558
896.944	1311
897.047	843
897.150	970
897.253	758
897.356	1255
897.460	1508
897.563	730
897.666	1137
897.769	1423
897.872	883
897.975	757
898.078	881
898.181	934
898.284	190
898.387	1468
898.490	1412
898.593	1569
898.695	1517
898.798	810
898.901	1526
899.004	854
899.107	1235
899.209	890
899.312	1046
899.415	1648
899.518	1019
899.620	870
899.723	1204
899.826	2050
899.928	1210
900.031	693
900.133	1149
900.236	1018
900.338	1124
900.441	1225
900.543	821
900.646	511
900.748	1306
900.851	921
900.953	133
901.055	376
901.158	1181
901.260	1095
901.362	1137
901.465	770
901.567	812
901.669	1143
901.771	907
901.873	1166
901.976	432
902.078	827
902.180	572
902.282	747
902.384	389
902.486	1574
902.588	629
902.690	74
902.792	289
902.894	1245
902.996	1237
903.098	1168
903.200	1380
903.302	1376
903.404	412
903.505	470
903.607	1253
903.709	1539
903.811	1567
903.913	1148
904.014	641
904.116	494
904.218	1547
904.319	606
904.421	1082
904.523	941
904.624	164
904.726	1048
904.827	854
904.929	177
905.030	1137
905.132	930
905.233	1127
905.335	487
905.436	677
905.537	1085
905.639	520
905.740	942
905.841	1205
905.943	1481
906.044	711
906.145	27
906.247	804
906.348	901
906.449	827
906.550	1127
906.651	612
906.752	830
906.854	44
906.955	848
907.056	775
907.157	1009
907.258	1095
907.359	1068
907.460	98
907.561	926
907.662	935
907.762	264
907.863	517
907.964	499
908.065	818
908.166	601
908.267	623
908.367	454
908.468	717
908.569	724
908.670	1358
908.770	1081
908.871	259
908.971	1771
909.072	513
909.173	-276
909.273	545
909.374	159
909.474	769
909.575	365
909.675	989
909.776	705
909.876	149
909.977	1118
910.077	1789
910.177	932
910.278	432
910.378	914
910.478	1466
910.579	552
910.679	458
910.779	1147
910.879	1622
910.980	674
911.080	357
911.180	371
911.280	1088
911.380	15
911.480	426
911.580	-72
911.680	429
911.780	590
911.880	554
911.980	-52
912.080	858
912.180	1085
912.280	236
912.380	459
912.480	448
912.580	67
912.679	396
912.779	-38
912.879	482
912.979	85
913.078	722
913.178	790
913.278	858
913.377	153
913.477	830
913.577	136
913.676	1063
913.776	832
913.875	694
913.975	1180
914.074	1056
914.174	671
914.273	892
914.373	431
914.472	396
914.572	-89
914.671	765
914.770	33
914.870	493
914.969	-310
915.068	349
915.167	211
915.267	126
915.366	116
915.465	1041
915.564	841
915.663	1138
915.763	808
915.862	1030
915.961	336
916.060	142
916.159	469
916.258	1272
916.357	225
916.456	904
916.555	-107
916.654	617
916.752	793
916.851	404
916.950	615
917.049	858
917.148	77
917.247	902
917.345	226
917.444	42
917.543	283
917.642	742
917.740	563
917.839	1110
917.937	319
918.036	1291
918.135	220
918.233	970
918.332	215
918.430	-228
918.529	-297
918.627	581
918.726	1371
918.824	1322
918.923	245
919.021	563
919.119	272
919.218	535
919.316	149
919.414	173
919.512	802
919.611	1151
919.709	853
919.807	938
919.905	1217
920.003	173
920.102	9
920.200	846
920.298	-46
920.396	367
920.494	1176
920.592	1070
920.690	645
920.788	600
920.886	361
920.984	1049
921.082	-424
921.180	1270
921.277	608
921.375	1328
921.473	554
921.571	987
921.669	1173
921.766	1156
921.864	1482
921.962	1198
922.060	1038
922.157	1720
922.255	1049
922.352	1423
922.450	689
922.548	432
922.645	916
922.743	1936
922.840	2822
922.938	2270
923.035	1757
923.133	1788
923.230	2168
923.327	2445
923.425	2637
923.522	2700
923.619	2518
923.717	2409
923.814	1977
923.911	1930
924.008	2267
924.106	1789
924.203	1430
924.300	2312
924.397	1611
924.494	2027
924.591	1603
924.688	1327
924.786	3027
924.883	1843
924.979	1368
925.077	2614
925.173	991
925.270	1846
925.367	1564
925.464	2286
925.561	1853
925.658	2056
925.755	2547
925.852	2200
925.948	1987
926.045	2130
926.142	1420
926.239	1582
926.335	1730
926.432	2059
926.529	2276
926.625	1585
926.722	1377
926.818	2052
926.915	1686
927.011	1322
927.108	1829
927.204	2057
927.301	1318
927.397	1190
927.494	1756
927.590	1293
927.687	1077
927.783	2054
927.879	2005
927.976	1451
928.072	2073
928.168	2083
928.264	2228
928.361	2117
928.457	1800
928.553	853
928.649	1342
928.745	2057
928.841	1732
928.937	2614
929.033	1079
929.129	1811
929.225	1327
929.321	1967
929.417	656
929.513	2071
929.609	1827
929.705	1235
929.801	1685
929.897	756
929.993	1788
930.089	1186
930.184	1029
930.280	1442
930.376	2675
930.471	1250
930.567	1489
930.663	2175
930.758	763
930.854	2405
930.950	1267
931.045	770
931.141	880
931.236	1865
931.332	1373
931.427	1246
931.523	1009
931.618	1786
931.714	1482
931.809	849
931.905	792
932.000	1099
932.095	1105
932.191	1845
932.286	1731
932.381	1610
932.476	699
932.572	1659
932.667	1681
932.762	1868
932.857	1215
932.952	1030
933.047	1404
933.142	1023
933.237	1763
933.332	1092
933.427	1335
933.522	846
933.617	972
933.712	1843
933.807	1032
933.902	966
933.997	1204
934.092	1215
934.187	1480
934.282	1377
934.376	830
934.471	1819
934.566	1210
934.661	738
934.755	1303
934.850	1137
934.945	1238
935.039	761
935.134	1424
935.228	1302
935.323	1971
935.417	960
935.512	1266
935.606	219
935.701	156
935.795	922
935.890	974
935.984	1212
936.079	1007
936.173	567
936.267	858
936.362	739
936.456	907
936.550	1647
936.644	1599
936.738	682
936.833	676
936.927	847
937.021	824
937.115	926
937.209	-71
937.303	1940
937.397	590
937.491	1142
937.585	1252
937.679	686
937.773	1206
937.867	398
937.961	1083
938.055	888
938.149	1285
938.243	1243
938.337	1062
938.430	928
938.524	1308
938.618	1599
938.712	922
938.805	757
938.899	1749
938.993	1188
939.086	492
939.180	356
939.274	1128
939.367	1354
939.461	920
939.554	461
939.648	1208
939.741	642
939.835	272
939.928	976
940.022	717
940.115	1452
940.208	1103
940.302	1078
940.395	1774
940.488	223
940.582	1437
940.675	117
940.768	128
940.861	813
940.954	872
941.048	48
941.141	1189
941.234	865
941.327	528
941.420	1592
941.513	818
941.606	1105
941.699	964
941.792	58
941.885	747
941.978	2104
942.071	643
942.164	224
942.257	1169
942.349	135
942.442	662
942.535	272
942.628	581
942.721	1089
942.813	-61
942.906	1092
942.999	621
943.091	322
943.184	-300
943.277	643
943.369	616
943.462	1113
943.554	543
943.647	829
943.739	1184
943.832	1034
943.924	-176
944.017	788
944.109	-71
944.201	419
944.294	479
944.386	1250
944.478	720
944.571	-371
944.663	518
944.755	617
944.847	525
944.940	91
945.032	-232
945.124	303
945.216	594
945.308	630
945.400	390
945.492	585
945.584	-6
945.676	1307
945.768	447
945.860	1695
945.952	719
946.044	906
946.136	225
946.228	721
946.320	-345
946.412	783
946.503	343
946.595	1636
946.687	322
946.779	333
946.870	-128
946.962	401
947.054	601
947.145	1086
947.237	295
947.329	378
947.420	385
947.512	859
947.603	-482
947.695	-209
947.786	326
947.878	643
947.969	106
948.061	569
948.152	152
948.243	398
948.335	315
948.426	206
948.517	414
948.609	-125
948.700	491
948.791	360
948.882	128
948.973	145
949.065	-42
949.156	552
949.247	100
949.338	-391
949.429	-631
949.520	16
949.611	-748
949.702	1034
949.793	595
949.884	509
949.975	-409
950.066	279
950.157	73
950.247	326
950.338	-190
950.429	242
950.520	536
950.611	590
950.701	681
950.792	820
950.883	771
950.973	362
951.064	528
951.155	562
951.245	-449
951.336	633
951.427	293
951.517	288
951.608	-221
951.698	-301
951.788	-125
951.879	-151
951.969	-39
952.060	-156
952.150	254
952.240	429
952.331	-1087
952.421	1221
952.511	154
952.602	340
952.692	261
952.782	638
952.872	-587
952.962	427
953.052	-728
953.143	-225
953.233	-169
953.323	45
953.413	-179
953.503	859
953.593	-354
953.683	-352
953.773	-191
953.863	504
953.953	-180
954.042	245
954.132	-503
954.222	616
954.312	-265
954.402	-203
954.492	681
954.581	551
954.671	202
954.761	246
954.850	975
954.940	-190
955.030	806
955.119	-56
955.209	-116
955.298	-327
955.388	-246
955.477	204
955.567	-551
955.656	699
955.746	232
955.835	-690
955.925	242
956.014	600
956.103	127
956.193	126
956.282	408
956.371	272
956.461	-473
956.550	228
956.639	-169
956.728	439
956.817	-190
956.906	296
956.995	980
957.085	-55
957.174	162
957.263	31
957.352	-632
957.441	96
957.530	-84
957.619	545
957.708	408
957.796	467
957.885	365
957.974	334
958.063	1095
958.152	-820
958.241	1616
958.329	913
958.418	49
958.507	-682
958.596	943
958.684	230
958.773	1374
958.861	289
958.950	991
959.039	1175
959.127	944
959.216	1745
959.304	1283
959.393	1218
959.481	707
959.570	1897
959.658	364
959.746	1517
959.835	1952
959.923	1666
960.011	1054
960.100	1565
960.188	592
960.276	760
960.365	377
960.453	584
960.541	-698
960.629	719
960.717	558
960.805	-558
960.893	-145
960.981	717
961.069	965
961.158	582
961.245	1410
961.333	630
961.421	-716
961.509	656
961.597	10
961.685	298
961.773	141
961.861	514
961.949	627
962.036	-299
962.124	312
962.212	550
962.299	-882
962.387	-114
962.475	-304
962.562	-276
962.650	486
962.738	186
962.825	-350
962.913	5
963.000	381
963.088	-51
963.175	-81
963.263	-877
963.350	-866
963.438	312
963.525	-402
963.612	1586
963.700	2125
963.787	5910
963.874	2913
963.962	646
964.049	140
964.136	-367
964.223	-477
964.310	-902
964.398	4
964.485	50
964.572	-32
964.659	1624
964.746	462
964.833	237
964.920	-1
965.007	-297
965.094	-46
965.181	-398
965.268	-621
965.355	57
965.441	-353
965.528	-504
965.615	259
965.702	442
965.789	-247
965.875	-121
965.962	94
966.049	-784
966.136	-43
966.222	-424
966.309	281
966.395	315
966.482	716
966.569	368
966.655	-392
966.742	-129
966.828	15
966.915	-695
967.001	587
967.087	-427
967.174	598
967.260	587
967.347	1371
967.433	1379
967.519	3246
967.605	1017
967.692	-325
967.778	-406
967.864	-546
967.950	-717
968.036	-132
968.123	104
968.209	-171
968.295	-682
968.381	808
968.467	1
968.553	-407
968.639	119
968.725	-761
968.811	933
968.897	-486
968.983	-764
969.069	-619
969.154	156
969.240	-20
969.326	-1031
969.412	-1327
969.497	-94
969.583	-514
969.669	-658
969.755	-129
969.840	-696
969.926	-66
970.012	124
970.097	262
970.183	-208
970.268	-554
970.354	214
970.439	407
970.525	2537
970.610	756
970.696	-122
970.781	-163
970.866	-501
970.952	272
971.037	-668
971.122	-710
971.208	-198
971.293	-59
971.378	-594
971.463	461
971.549	-449
971.634	63
971.719	-254
971.804	-258
971.889	637
971.974	-698
972.059	-124
972.144	-340
972.229	-336
972.314	-725
972.399	-409
972.484	268
972.569	627
972.654	-756
972.739	1549
972.824	-260
972.908	75
972.993	-779
973.078	-512
973.163	-255
973.247	-406
973.332	-1413
973.417	2
973.501	-1337
973.586	523
973.671	-19
973.755	-710
973.840	-58
973.924	18
974.009	-379
974.093	-308
974.178	729
974.262	369
974.346	196
974.431	-216
974.515	-615
974.600	313
974.684	99
974.768	-215
974.852	380
974.937	-1552
975.021	16
975.105	-111
975.189	-617
975.273	-143
975.358	-619
975.442	-998
975.526	-29
975.610	-1161
975.694	-1307
975.778	39
975.862	-559
975.946	-2148
976.030	571
976.114	-496
976.198	370
976.281	-81
976.365	126
976.449	-1019
976.533	-31
976.617	-816
976.700	-1271
976.784	-245
976.868	17
976.951	655
977.035	-369
977.119	75
977.202	-1058
977.286	-693
977.369	-216
977.453	-36
977.536	-209
977.620	-114
977.703	-50
977.787	-1455
977.870	670
977.953	1107
978.037	-794
978.120	482
978.203	-308
978.287	869
978.370	-132
978.453	-592
978.536	32
978.620	1350
978.703	305
978.786	-854
978.869	-1006
978.952	-1918
979.035	1097
979.118	-698
979.201	-1379
979.284	-386
979.367	-1374
979.450	-500
979.533	-1136
979.616	-518
979.699	-1238
979.782	-187
979.865	-323
979.948	254
980.030	-1305
980.113	-965
980.196	-1590
980.279	262
980.361	-835
980.444	-200
980.526	-595
980.609	-316
980.692	-768
980.774	-121
980.857	-941
980.939	304
981.022	-1075
981.104	-739
981.187	-1180
981.269	-141
981.352	-542
981.434	-1216
981.516	-486
981.599	761
981.681	353
981.763	-676
981.846	-356
981.928	-1104
982.010	-566
982.092	-1873
982.174	532
982.256	-322
982.339	-929
982.421	-689
982.503	-172
982.585	-1528
982.667	-181
982.749	-346
982.831	-278
982.913	-1120
982.995	-338
983.077	-894
983.158	251
983.240	-822
983.322	-353
983.404	523
983.486	-1047
983.568	348
983.649	-429
983.731	-1155
983.813	-922
983.894	379
983.976	-1344
984.058	-1338
984.139	-470
984.221	-153
984.302	-160
984.384	-311
984.465	-530
984.547	-314
984.628	-1036
984.710	-101
984.791	-480
984.872	-1012
984.954	-829
985.035	-326
985.116	-837
985.198	-532
985.279	143
985.360	-1235
985.441	-1394
985.522	-12
985.604	-1228
985.685	-1936
985.766	477
985.847	154
985.928	-1251
986.009	-279
986.090	-1228
986.171	677
986.252	-927
986.333	-644
986.414	-445
986.495	-147
986.576	-1434
986.656	-562
986.737	276
986.818	-94
986.899	-549
986.980	-1317
987.060	-645
987.141	-1070
987.222	-190
987.302	-501
987.383	-685
987.464	-632
987.544	-559
987.625	-152
987.705	-185
987.786	-734
987.866	-330
987.947	-372
988.027	-1240
988.108	-956
988.188	-296
988.268	-1988
988.349	-290
988.429	51
988.509	-239
988.589	-1056
988.670	-1293
988.750	427
988.830	-701
988.910	-139
988.990	-1265
989.070	-1032
989.151	-11
989.231	-1520
989.311	-392
989.391	-277
989.471	-161
989.551	-837
989.631	-1112
989.711	-229
989.791	-1240
989.870	-1060
989.950	642
990.030	-656
990.110	-432
990.190	-983
990.269	-1239
990.349	-888
990.429	-410
990.509	-234
990.588	-883
990.668	-448
990.747	-812
990.827	-1035
990.907	-140
990.986	-1839
991.066	-1044
991.145	-604
991.225	-615
991.304	-665
991.383	-259
991.463	-1182
991.542	-735
991.622	-1340
991.701	-891
991.780	-1372
991.859	-930
991.939	-1119
992.018	-945
992.097	-896
992.176	-735
992.256	-917
992.335	-1507
992.414	-568
992.493	-1840
992.572	-1038
992.651	444
992.730	-1215
992.809	-645
992.888	-842
992.967	-876
993.046	-221
993.125	-1511
993.203	-1435
993.282	-786
993.361	-689
993.440	-1027
993.519	-1099
993.597	-1480
993.676	-1038
993.755	-615
993.834	-894
993.912	-1978
993.991	-242
994.069	-1257
994.148	-341
994.226	-1105
994.305	-1491
994.384	-1192
994.462	529
994.540	-1953
994.619	-404
994.697	-295
994.776	-1210
994.854	-99
994.932	-1183
995.011	-969
995.089	-1496
995.167	-902
995.245	-407
995.324	-1505
995.402	-79
995.480	-1480
995.558	-898
995.636	-1446
995.714	-1465
995.792	-139
995.870	-1535
995.948	-1141
996.026	-1918
996.104	-1973
996.182	-906
996.260	-870
996.338	-372
996.416	-2208
996.494	-1185
996.572	-889
996.649	-1512
996.727	-1273
996.805	-489
996.883	-953
996.960	-1286
997.038	-995
997.116	-781
997.193	-1017
997.271	-1113
997.348	-2147
997.426	-479
997.504	-1799
997.581	-527
997.658	-1304
997.736	-2003
997.813	-1450
997.891	-59
997.968	-1966
998.046	-727
998.123	-1332
998.200	-917
998.277	-1651
998.355	296
998.432	-2812
998.509	-1302
998.586	-919
998.663	-675
998.741	-434
998.818	-718
998.895	-827
998.972	-840
999.049	-978
999.126	-1284
999.203	-724
999.280	-1202
999.357	-1025
999.434	-1280
999.511	-1981
999.587	-877
999.664	-1295
999.741	-779
999.818	-1099
999.895	-1703
999.971	-1598
1000.048	-1480
1000.125	-711
1000.202	-2195
1000.278	-1233
1000.355	-859
1000.431	-1522
1000.508	-1625
1000.584	-1258
1000.661	-666
1000.738	-1818
1000.814	-791
1000.890	-954
1000.967	-1844
1001.043	-1749
1001.120	-2212
1001.196	-1141
1001.272	-816
1001.349	-2031
1001.425	-1196
1001.501	-1528
1001.577	-1828
1001.654	-1505
1001.730	-1357
1001.806	-1780
1001.882	-2005
1001.958	-1419
1002.034	-884
1002.110	-883
1002.186	-1772
1002.262	-2123
1002.338	-1980
1002.414	-495
1002.490	-215
1002.566	-1704
1002.642	-2334
1002.718	-1342
1002.794	-1744
1002.870	-637
1002.945	-1977
1003.021	-1855
1003.097	-949
1003.173	-986
1003.248	-359
1003.324	-1741
1003.400	-1327
1003.475	-1294
1003.551	-1688
1003.626	-960
1003.702	-1872
1003.777	-2372
1003.853	-1559
1003.928	-1463
1004.004	-987
1004.079	-1343
1004.155	-1498
1004.230	-2542
1004.305	-617
1004.381	-1673
1004.456	-1062
1004.531	-1617
1004.607	-1719
1004.682	-1489
1004.757	-1414
1004.832	-1189
1004.907	-1292
1004.982	-1136
1005.057	-855
1005.133	-1555
1005.208	-1445
1005.283	-2171
1005.358	-1536
1005.433	-2100
1005.508	-1921
1005.583	-1801
1005.657	-1089
1005.732	-856
1005.807	-1563
1005.882	-1851
1005.957	-1858
1006.032	-1107
1006.106	-1584
1006.181	-1620
1006.256	-1726
1006.331	-2233
1006.405	-1551
1006.480	-1570
1006.554	-2007
1006.629	-986
1006.704	-1812
1006.778	-1569
1006.853	-881
1006.927	-1878
1007.002	-1763
1007.076	-1421
1007.150	-1388
1007.225	-1351
1007.299	-1951
1007.373	-2247
1007.448	-2154
1007.522	-1316
1007.596	-2004
1007.671	-1190
1007.745	-1169
1007.819	-2402
1007.893	-2475
1007.967	-1225
1008.041	-2679
1008.115	-1246
1008.190	-1400
1008.264	-1617
1008.338	-2142
1008.412	-2046
1008.486	-603
1008.560	-1174
1008.633	-1162
1008.707	-1600
1008.781	-1774
1008.855	-1700
1008.929	-1804
1009.003	-1695
1009.076	-1539
1009.150	-1703
1009.224	-1541
1009.298	-1196
1009.371	-1955
1009.445	-1038
1009.519	-1455
1009.592	-2610
1009.666	-1515
1009.739	-927
1009.813	-2425
1009.886	-996
1009.960	-2734
1010.033	-1682
1010.107	-1236
1010.180	-2868
1010.253	-1406
1010.327	-2077
1010.400	-1728
1010.473	-2604
1010.547	388
1010.620	-1225
1010.693	-1899
1010.766	-1485
1010.840	-1484
1010.913	-1821
1010.986	-1952
1011.059	-1587
1011.132	-1629
1011.205	-1141
1011.278	-1535
1011.351	-1688
1011.424	-2009
1011.497	-1335
1011.570	-1509
1011.643	-1981
1011.716	-1504
1011.789	-1208
1011.862	-1096
1011.934	-1725
1012.007	-3016
1012.080	-1370
1012.153	-1583
1012.225	-95
1012.298	-2371
1012.371	-3347
1012.443	-1433
1012.516	-2516
1012.588	-2063
1012.661	-1763
1012.733	-2384
1012.806	-1701
1012.879	-1648
1012.951	-2399
1013.023	-1668
1013.096	-1186
1013.168	-1807
1013.241	-1508
1013.313	-1521
1013.385	-2005
1013.458	-1965
1013.530	-1203
1013.602	-2630
1013.674	-990
1013.746	-1982
1013.819	-1471
1013.891	-1363
1013.963	-2222
1014.035	-1326
1014.107	-1751
1014.179	-1392
1014.251	-2098
1014.323	-1850
1014.395	-1164
1014.467	-2011
1014.539	-1185
1014.611	-2349
1014.683	-2532
1014.754	-590
1014.826	-1494
1014.898	-1095
1014.970	-2346
1015.042	-1021
1015.113	-1540
1015.185	-1745
1015.257	-2499
1015.328	-1245
1015.400	-2801
1015.471	-1661
1015.543	-1874
1015.615	-1349
1015.686	-2686
1015.757	-1870
1015.829	-2330
1015.901	-1471
1015.972	-1306
1016.043	-1665
1016.115	-2211
1016.186	-2415
1016.257	-1697
1016.328	-835
1016.400	-873
1016.471	-2705
1016.542	-1796
1016.613	-1831
1016.685	-1207
1016.756	-997
1016.827	-1392
1016.898	-2203
1016.969	-982
1017.040	-1638
1017.111	-1543
1017.182	-1716
1017.253	-2399
1017.324	-1490
1017.395	-2345
1017.466	-1009
1017.537	-2646
1017.608	-1725
1017.678	-2028
1017.749	-2183
1017.820	-2002
1017.891	-2278
1017.961	-1920
1018.032	-1602
1018.103	-1361
1018.173	-1718
1018.244	-1746
1018.315	-1949
1018.385	-2037
1018.456	-1672
1018.526	-2181
1018.597	-2444
1018.667	-2088
1018.738	-1842
1018.808	-1917
1018.878	-1583
1018.949	-1127
1019.019	-842
1019.089	-1522
1019.160	-2230
1019.230	-2213
1019.300	-1009
1019.371	-2563
1019.441	-1806
1019.511	-1681
1019.581	-1894
1019.651	-1679
1019.721	-2186
1019.791	-1476
1019.861	-1676
1019.931	-2149
1020.001	-2588
1020.071	-1972
1020.141	-1771
1020.211	-2376
1020.281	-2535
1020.351	-2599
1020.421	-1647
1020.491	-1149
1020.560	-2137
1020.630	-1323
1020.700	-1811
1020.770	-2097
1020.839	-1697
1020.909	-1823
1020.979	-2283
1021.048	-1804
1021.118	-1401
1021.187	-1509
1021.257	-1951
1021.326	-1110
1021.396	-1353
1021.465	-1633
1021.535	-1860
1021.604	-2828
1021.674	-2350
1021.743	-1756
1021.812	-1889
1021.882	-2208
1021.951	-1863
1022.020	-1814
1022.089	-1308
1022.159	-2646
1022.228	-2214
1022.297	-2180
1022.366	-2710
1022.435	-2140
1022.504	-2016
1022.573	-2225
1022.642	-1528
1022.711	-2814
1022.781	-1051
1022.849	-1853
1022.918	-2306
1022.987	-1848
1023.056	-2290
1023.125	-1889
1023.194	-1501
1023.263	-1714
1023.331	-1053
1023.400	-2450
1023.469	-2113
1023.538	-1547
1023.606	-1766
1023.675	-2401
1023.744	-1830
1023.812	-2484
1023.881	-2698
1023.949	-1680
1024.018	-2098
1024.086	-2163
1024.155	-1978
1024.223	-2288
1024.292	-2104
1024.360	-1929
1024.429	-1338
1024.497	-2669
1024.565	-1975
1024.634	-1873
1024.702	-1461
1024.770	-2110
1024.838	-2018
1024.907	-1909
1024.975	-2021
1025.043	-2106
1025.111	-2052
1025.179	-1828
1025.247	-2109
1025.315	-2422
1025.383	-1499
1025.451	-1570
1025.519	-1840
1025.587	-1885
1025.655	-2188
1025.723	-2078
1025.791	-1471
1025.859	-2645
1025.927	-1572
1025.995	-2269
1026.062	-1992
1026.130	-1999
1026.198	-1742
1026.266	-1901
1026.333	-1659
1026.401	-2008
1026.469	-1851
1026.536	-1276
1026.604	-1913
1026.671	-2483
1026.739	-2291
1026.806	-2466
1026.874	-2221
1026.941	-2301
1027.009	-1678
1027.076	-2078
1027.144	-2050
1027.211	-2420
1027.278	-2562
1027.345	-2265
1027.413	-1480
1027.480	-2388
1027.547	-2125
1027.614	-2349
1027.682	-2017
1027.749	-1511
1027.816	-2580
1027.883	-2210
1027.950	-1692
1028.017	-2903
1028.084	-1711
1028.151	-2554
1028.218	-2005
1028.285	-2081
1028.352	-1788
1028.419	-2334
1028.486	-1760
1028.553	-2087
1028.619	-2243
1028.686	-1906
1028.753	-2810
1028.820	-2105
1028.886	-2802
1028.953	-1478
1029.020	-2082
1029.086	-2191
1029.153	-2031
1029.220	-2160
1029.286	-2171
1029.353	-1967
1029.419	-2041
1029.486	-2111
1029.552	-1827
1029.619	-2130
1029.685	-1860
1029.751	-2540
1029.818	-1584
1029.884	-2441
1029.951	-1677
1030.017	-2415
1030.083	-2289
1030.149	-2432
1030.216	-2467
1030.282	-1880
1030.348	-2038
1030.414	-2132
1030.480	-1521
1030.546	-1759
1030.612	-1429
1030.678	-1846
1030.744	-982
1030.810	-1904
1030.876	-2711
1030.942	-2044
1031.008	-2016
1031.074	-2411
1031.140	-1869
1031.206	-1817
1031.272	-2212
1031.337	-2071
1031.403	-1815
1031.469	-2121
1031.534	-1678
1031.600	-657
1031.666	-1708
1031.731	-2879
1031.797	-2100
1031.863	-1573
1031.928	-2713
1031.994	-2533
1032.059	-1701
1032.125	-3071
1032.190	-2561
1032.256	-3315
1032.321	-2705
1032.386	-2478
1032.452	-1456
1032.517	-2698
1032.582	-1883
1032.647	-2123
1032.713	-2423
1032.778	-2188
1032.843	-2180
1032.908	-2435
1032.974	-1733
1033.039	-2646
1033.104	-1643
1033.169	-2425
1033.234	-1763
1033.299	-1707
1033.364	-2246
1033.429	-1851
1033.494	-1952
1033.559	-2192
1033.624	-2086
1033.688	-1660
1033.753	-2646
1033.818	-1985
1033.883	-2747
1033.948	-1627
1034.013	-2133
1034.077	-2181
1034.142	-1667
1034.207	-1539
1034.271	-1241
1034.336	-708
1034.400	-1557
1034.465	-2350
1034.530	-1738
1034.594	-2158
1034.658	-1907
1034.723	-2574
1034.787	-2429
1034.852	-2352
1034.916	-2043
1034.981	-2732
1035.045	-1715
1035.109	-2132
1035.173	-1794
1035.238	-1945
1035.302	-1779
1035.366	-2181
1035.430	-1168
1035.495	-3188
1035.559	-1628
1035.623	-2796
1035.687	-2128
1035.751	-1753
1035.815	-2194
1035.879	-2365
1035.943	-2228
1036.007	-2159
1036.071	-1567
1036.135	-1910
1036.198	-1601
1036.262	-2051
1036.326	-1953
1036.390	-2565
1036.454	-1077
1036.517	-1559
1036.581	-1864
1036.645	-1542
1036.709	-2175
1036.772	-1511
1036.836	-1909
1036.900	-1875
1036.963	-1893
1037.026	-2230
1037.090	-1756
1037.154	-2239
1037.217	-1864
1037.280	-1863
1037.344	-2393
1037.407	-2267
1037.471	-1846
1037.534	-2126
1037.597	-2334
1037.661	-1866
1037.724	-1669
1037.787	-2498
1037.850	-1796
1037.913	-1928
1037.977	-1145
1038.040	-2505
1038.103	-1120
1038.166	-2287
1038.229	-1349
1038.292	-1936
1038.355	-2086
1038.418	-2511
1038.481	-1759
1038.544	-2420
1038.607	-2288
1038.670	-2787
1038.732	-1936
1038.795	-2371
1038.858	-1881
1038.921	-2459
1038.984	-1759
1039.046	-2518
1039.109	-2609
1039.172	-2102
1039.234	-2000
1039.297	-2195
1039.360	-1555
1039.422	-1615
1039.485	-2460
1039.547	-2192
1039.610	-2220
1039.672	-2534
1039.734	-1595
1039.797	-2266
1039.859	-1711
1039.922	-1598
1039.984	-2233
1040.046	-2238
1040.109	-1986
1040.171	-1763
1040.233	-2242
1040.295	-3469
1040.358	-2330
1040.420	-2155
1040.482	-1936
1040.544	-2567
1040.606	-1562
1040.668	-1388
1040.730	-1577
1040.792	-2081
1040.854	-2069
1040.916	-2051
1040.978	-1731
1041.040	-1872
1041.102	-1941
1041.164	-1908
1041.225	-1961
1041.287	-2145
1041.349	-2381
1041.411	-1575
1041.472	-2030
1041.534	-2174
1041.596	-1774
1041.657	-2379
1041.719	-1697
1041.781	-1105
1041.842	-1889
1041.904	-2795
1041.965	-1351
1042.027	-1878
1042.088	-1592
1042.150	-1863
1042.211	-1671
1042.272	-1862
1042.334	-1894
1042.395	-1755
1042.456	-2782
1042.518	-1935
1042.579	-1695
1042.640	-2160
1042.701	-1997
1042.763	-2232
1042.824	-2147
1042.885	-1679
1042.946	-1665
1043.007	-2283
1043.068	-2261
1043.129	-2275
1043.190	-1924
1043.251	-1846
1043.312	-2108
1043.373	-1843
1043.434	-2107
1043.495	-1996
1043.556	-1431
1043.616	-1912
1043.677	-1343
1043.738	-1702
1043.799	-1596
1043.859	-1689
1043.920	-2384
1043.981	-1906
1044.041	-1370
1044.102	-2551
1044.162	-1889
1044.223	-2086
1044.284	-2469
1044.344	-2402
1044.405	-1508
1044.465	-2306
1044.525	-1521
1044.586	-1705
1044.646	-2399
1044.707	-1195
1044.767	-1835
1044.827	-1284
1044.887	-2438
1044.948	-1313
1045.008	-1867
1045.068	-1769
1045.128	-2520
1045.188	-1708
1045.249	-1282
1045.309	-2198
1045.369	-2553
1045.429	-2249
1045.489	-2235
1045.549	-1874
1045.609	-2024
1045.669	-2751
1045.729	-2350
1045.789	-2351
1045.848	-1885
1045.908	-2113
1045.968	-1367
1046.028	-1568
1046.088	-1624
1046.147	-613
1046.207	-1485
1046.267	-1524
1046.326	-991
1046.386	-751
1046.446	-877
1046.505	-861
1046.565	-579
1046.624	-386
1046.684	-393
1046.743	-1421
1046.803	-861
1046.862	-313
1046.922	0
