'Start Wavelength	183.907
'End Wavelength	1046.922
'Gate Delay	5.000
'Gate Width (ms)	1.050
'Laser Output Level	0.000
'X Position	0.000
'Y Position	0.000
'Z Position	0.000
'Grid Point Number	1.000
'Shot Number	100.000
183.907	610.000
183.977	85.000
184.047	-600
184.116	105
184.186	81
184.256	-203
184.325	148
184.395	-541
184.465	1008
184.534	654
184.604	-67
184.674	417
184.743	-146
184.813	874
184.883	-677
184.952	655
185.022	-36
185.092	309
185.161	313
185.231	286
185.301	-146
185.370	881
185.440	-989
185.509	443
185.579	-662
185.649	1135
185.718	113
185.788	619
185.857	338
185.927	1060
185.996	-272
186.066	-24
186.136	-151
186.205	509
186.275	261
186.344	1035
186.414	309
186.483	-131
186.553	363
186.622	680
186.692	-697
186.761	760
186.831	488
186.900	-382
186.970	272
187.039	-15
187.109	1254
187.178	792
187.248	885
187.317	453
187.387	-266
187.456	795
187.526	390
187.595	170
187.664	-480
187.734	881
187.803	280
187.873	1106
187.942	1125
188.012	206
188.081	-651
188.150	403
188.220	613
188.289	295
188.358	221
188.428	401
188.497	147
188.567	53
188.636	-375
188.705	480
188.775	-99
188.844	195
188.913	679
188.983	-442
189.052	658
189.121	348
189.191	48
189.260	-55
189.329	35
189.399	202
189.468	-493
189.537	138
189.606	-184
189.676	72
189.745	246
189.814	634
189.883	-125
189.953	-72
190.022	113
190.091	794
190.161	1361
190.230	141
190.299	-257
190.368	634
190.437	94
190.507	537
190.576	146
190.645	-201
190.714	-379
190.783	-201
190.853	-238
190.922	366
190.991	-421
191.060	1217
191.129	-675
191.198	1009
191.268	193
191.337	202
191.406	484
191.475	412
191.544	-200
191.613	1013
191.682	190
191.752	332
191.821	62
191.890	393
191.959	-314
192.028	856
192.097	25
192.166	691
192.235	-133
192.304	567
192.373	100
192.442	513
192.511	-137
192.580	349
192.650	646
192.719	1026
192.788	1099
192.857	393
192.926	-336
192.995	865
193.064	143
193.133	851
193.202	1397
193.271	1270
193.340	632
193.409	1635
193.478	687
193.547	1250
193.615	741
193.684	1415
193.753	64
193.822	1298
193.891	-82
193.960	872
194.029	649
194.098	1037
194.167	-140
194.236	1243
194.305	105
194.374	547
194.443	-305
194.512	216
194.580	-555
194.649	605
194.718	1007
194.787	609
194.856	-202
194.925	296
194.994	172
195.062	206
195.131	251
195.200	578
195.269	-143
195.338	947
195.407	530
195.475	664
195.544	538
195.613	487
195.682	503
195.751	788
195.819	-91
195.888	831
195.957	615
196.026	999
196.094	521
196.163	618
196.232	1092
196.301	636
196.369	-460
196.438	711
196.507	720
196.576	440
196.644	-448
196.713	-138
196.782	-266
196.850	648
196.919	739
196.988	605
197.056	-22
197.125	1171
197.194	976
197.262	268
197.331	-3
197.400	422
197.468	302
197.537	4
197.606	655
197.674	1503
197.743	1438
197.812	1535
197.880	931
197.949	949
198.017	1305
198.086	1528
198.155	506
198.223	850
198.292	1169
198.360	1442
198.429	-62
198.497	717
198.566	815
198.635	2356
198.703	820
198.772	1254
198.840	1587
198.909	1712
198.977	1435
199.046	999
199.114	746
199.183	859
199.251	1021
199.320	992
199.388	149
199.457	407
199.525	47
199.594	593
199.662	614
199.731	785
199.799	446
199.867	326
199.936	105
200.004	614
200.073	1350
200.141	650
200.210	588
200.278	537
200.346	832
200.415	1550
200.483	580
200.552	790
200.620	75
200.688	900
200.757	653
200.825	552
200.893	513
200.962	1020
201.030	332
201.098	1108
201.167	1042
201.235	748
201.303	788
201.372	1422
201.440	1241
201.508	884
201.577	437
201.645	1017
201.713	169
201.781	1277
201.850	597
201.918	1264
201.986	258
202.055	2160
202.123	814
202.191	1094
202.259	934
202.327	997
202.396	914
202.464	441
202.532	1101
202.600	2171
202.669	1157
202.737	1490
202.805	801
202.873	1346
202.941	228
203.009	1292
203.078	1334
203.146	1480
203.214	760
203.282	752
203.350	933
203.418	941
203.487	728
203.555	977
203.623	807
203.691	1420
203.759	739
203.827	729
203.895	953
203.963	1137
204.031	577
204.099	535
204.168	217
204.236	1633
204.304	345
204.372	791
204.440	397
204.508	1509
204.576	513
204.644	1096
204.712	715
204.780	930
204.848	904
204.916	1485
204.984	443
205.052	1450
205.120	191
205.188	1682
205.256	673
205.324	888
205.392	710
205.460	1396
205.528	365
205.596	1892
205.664	385
205.732	1108
205.799	1505
205.867	3560
205.935	733
206.003	1476
206.071	1021
206.139	1101
206.207	923
206.275	1387
206.343	1319
206.411	1634
206.478	1412
206.546	2038
206.614	1407
206.682	1519
206.750	1010
206.818	1309
206.885	1565
206.953	1311
207.021	2314
207.089	1922
207.157	1494
207.225	1475
207.292	852
207.360	1687
207.428	1130
207.496	1075
207.563	1198
207.631	1412
207.699	1102
207.767	1536
207.834	953
207.902	1843
207.970	1256
208.038	1371
208.105	1804
208.173	2089
208.241	1515
208.309	3266
208.376	1849
208.444	2637
208.512	1884
208.579	1929
208.647	1170
208.715	2167
208.782	1313
208.850	1593
208.918	1198
208.985	1869
209.053	930
209.120	1732
209.188	1576
209.256	1418
209.323	710
209.391	1985
209.459	2395
209.526	2110
209.594	758
209.661	2371
209.729	1703
209.796	2362
209.864	2277
209.932	1326
209.999	3069
210.067	2286
210.134	2448
210.202	2013
210.269	3381
210.337	2559
210.404	1388
210.472	2482
210.539	2252
210.607	2312
210.674	1840
210.742	2518
210.809	1531
210.877	2013
210.944	2660
211.012	1588
211.079	2392
211.146	2280
211.214	2000
211.281	2868
211.349	2009
211.416	2275
211.484	1696
211.551	2167
211.618	1413
211.686	2150
211.753	1514
211.821	2301
211.888	1328
211.955	1923
212.023	2030
212.090	2702
212.157	2055
212.225	2954
212.292	3202
212.359	4769
212.427	9381
212.494	5617
212.561	3000
212.629	3186
212.696	2715
212.763	3000
212.831	1906
212.898	3355
212.965	1533
213.032	1774
213.100	2877
213.167	3142
213.234	2202
213.301	3030
213.369	1947
213.436	3347
213.503	1824
213.570	2550
213.638	2939
213.705	2370
213.772	2035
213.839	2636
213.906	2470
213.973	2927
214.041	2248
214.108	2799
214.175	2337
214.242	3314
214.309	1725
214.376	3464
214.444	2052
214.511	2438
214.578	2717
214.645	3243
214.712	2955
214.779	2879
214.846	2556
214.913	4165
214.980	3241
215.048	3101
215.115	2355
215.182	2764
215.249	2462
215.316	2685
215.383	2373
215.450	2722
215.517	2687
215.584	2341
215.651	1511
215.718	3392
215.785	2443
215.852	2617
215.919	3147
215.986	3337
216.053	2488
216.120	1987
216.187	2630
216.254	2906
216.321	2048
216.388	2774
216.455	2857
216.522	3035
216.589	2919
216.656	4635
216.722	4940
216.789	4166
216.856	4010
216.923	4094
216.990	3933
217.057	4162
217.124	3664
217.191	4463
217.258	4247
217.324	5212
217.391	5428
217.458	4504
217.525	3942
217.592	4516
217.659	2550
217.725	4570
217.792	3064
217.859	4242
217.926	2446
217.993	3183
218.059	2414
218.126	2402
218.193	1960
218.260	3251
218.327	1822
218.393	2544
218.460	1896
218.527	3588
218.594	2429
218.660	3260
218.727	3492
218.794	3410
218.860	3736
218.927	2331
218.994	2757
219.061	2742
219.127	2481
219.194	3514
219.261	2123
219.327	2632
219.394	2201
219.461	2251
219.527	2371
219.594	2856
219.661	1778
219.727	2051
219.794	3185
219.860	1974
219.927	3166
219.994	3366
220.060	4528
220.127	4520
220.193	3543
220.260	3999
220.326	5609
220.393	8595
220.460	8714
220.526	6820
220.593	4733
220.659	5693
220.726	5416
220.792	8737
220.859	8706
220.925	11280
220.992	12096
221.058	12293
221.125	10776
221.191	8398
221.258	4888
221.324	4756
221.391	3504
221.457	3415
221.524	3333
221.590	4646
221.657	7472
221.723	6395
221.789	5586
221.856	6054
221.922	3728
221.989	4811
222.055	3597
222.121	2379
222.188	4537
222.254	3608
222.321	2376
222.387	2868
222.453	2406
222.520	2985
222.586	2545
222.652	3596
222.719	2096
222.785	3478
222.851	2021
222.918	3151
222.984	2698
223.050	2792
223.116	814
223.183	2990
223.249	2203
223.315	1580
223.382	1950
223.448	3029
223.514	1808
223.580	1855
223.647	1769
223.713	2139
223.779	2644
223.845	2955
223.911	2669
223.978	2693
224.044	2094
224.110	1692
224.176	3076
224.242	2257
224.309	692
224.375	2353
224.441	961
224.507	2179
224.573	1348
224.639	2918
224.705	1300
224.772	2958
224.838	1769
224.904	2614
224.970	1509
225.036	2285
225.102	1769
225.168	3163
225.234	2500
225.300	2018
225.366	2197
225.432	2563
225.499	2342
225.565	1989
225.631	2728
225.697	4555
225.763	3781
225.829	4485
225.895	4321
225.961	4677
226.027	5006
226.093	5449
226.159	6352
226.225	9478
226.291	15596
226.357	20294
226.423	13448
226.489	10040
226.554	6914
226.620	6924
226.686	7302
226.752	11041
226.818	15273
226.884	22297
226.950	21213
227.016	12778
227.082	8848
227.148	7087
227.214	5699
227.279	5793
227.345	4983
227.411	6020
227.477	4108
227.543	7104
227.609	6286
227.674	5916
227.740	3570
227.806	4394
227.872	4355
227.938	4556
228.003	4945
228.069	4270
228.135	3183
228.201	3537
228.267	2818
228.332	3989
228.398	2923
228.464	3507
228.530	1992
228.595	4022
228.661	2028
228.727	3889
228.792	3797
228.858	3563
228.924	2080
228.990	4637
229.055	2127
229.121	3426
229.187	3219
229.252	1908
229.318	2330
229.384	3662
229.449	2706
229.515	1391
229.581	1160
229.646	4032
229.712	2855
229.777	4250
229.843	4365
229.909	4801
229.974	4602
230.040	4905
230.105	3908
230.171	3939
230.236	4698
230.302	6551
230.368	4396
230.433	5116
230.499	3171
230.564	6158
230.630	3955
230.695	4269
230.761	3955
230.826	2999
230.892	4499
230.957	3317
231.023	3747
231.088	3678
231.154	3147
231.219	4372
231.284	4124
231.350	5092
231.415	2905
231.481	3620
231.546	2846
231.612	3637
231.677	1894
231.742	2093
231.808	3120
231.873	3148
231.939	1075
232.004	4616
232.069	3942
232.135	3688
232.200	3124
232.265	3768
232.331	2735
232.396	3120
232.461	2041
232.527	3021
232.592	2279
232.657	2933
232.723	3009
232.788	3349
232.853	4018
232.918	2512
232.984	1459
233.049	2706
233.114	1969
233.179	3419
233.245	3310
233.310	4550
233.375	2085
233.440	3978
233.506	2353
233.571	3093
233.636	2589
233.701	2216
233.766	2666
233.832	3536
233.897	2452
233.962	1834
234.027	3132
234.092	2852
234.157	2481
234.222	3454
234.288	4048
234.353	6767
234.418	5331
234.483	6412
234.548	4644
234.613	5038
234.678	5361
234.743	4883
234.808	6759
234.873	4934
234.938	5172
235.004	4040
235.069	3446
235.134	4057
235.199	4074
235.264	4083
235.329	3255
235.394	4882
235.459	5135
235.524	4220
235.589	4532
235.654	4364
235.719	2319
235.784	3960
235.849	3982
235.913	4940
235.978	4598
236.043	4947
236.108	3688
236.173	3431
236.238	4882
236.303	4257
236.368	4032
236.433	5985
236.498	6247
236.563	9325
236.627	15893
236.692	32649
236.757	30871
236.822	16502
236.887	11111
236.952	11051
237.017	8437
237.081	10497
237.146	12612
237.211	24742
237.276	34443
237.341	40321
237.405	28757
237.470	15893
237.535	10849
237.600	9023
237.664	6848
237.729	6661
237.794	7836
237.859	16561
237.923	8919
237.988	5807
238.053	5995
238.118	5208
238.182	8945
238.247	9507
238.312	4211
238.376	5662
238.441	3002
238.506	5680
238.570	2628
238.635	5893
238.700	3561
238.764	3913
238.829	5448
238.893	5534
238.958	5317
239.023	5412
239.087	4166
239.152	4660
239.216	3532
239.281	4403
239.346	4667
239.410	4213
239.475	3123
239.539	8047
239.604	5131
239.668	5738
239.733	3876
239.797	5751
239.862	10456
239.926	8957
239.991	4961
240.055	4573
240.120	3370
240.184	3717
240.249	3010
240.313	4069
240.378	3401
240.442	5226
240.507	6437
240.571	3985
240.635	3467
240.700	4715
240.764	3478
240.829	3201
240.893	1959
240.957	3938
241.022	4959
241.086	6885
241.151	3620
241.215	2258
241.279	4487
241.344	4205
241.408	5957
241.472	5635
241.537	6434
241.601	5908
241.665	4684
241.730	5783
241.794	5893
241.858	5380
241.922	5133
241.987	6238
242.051	4584
242.115	4574
242.179	5636
242.244	5126
242.308	6371
242.372	6228
242.436	5409
242.501	5782
242.565	3927
242.629	4523
242.693	4617
242.757	4647
242.822	5012
242.886	4860
242.950	4880
243.014	3819
243.078	4812
243.142	4387
243.206	4294
243.271	6210
243.335	5297
243.399	8253
243.463	15835
243.527	40861
243.591	13391
243.655	7230
243.719	4816
243.783	6784
243.847	7884
243.911	10141
243.975	7848
244.040	6652
244.104	6302
244.168	5504
244.232	5082
244.296	7245
244.360	8512
244.424	4801
244.488	4167
244.552	4233
244.615	2652
244.679	4896
244.743	4109
244.807	4763
244.871	3638
244.935	4532
244.999	2475
245.063	4151
245.127	4376
245.191	6751
245.255	5845
245.319	5645
245.383	3175
245.446	5358
245.510	3026
245.574	3952
245.638	4005
245.702	3215
245.766	8037
245.829	6571
245.893	3703
245.957	5113
246.021	5328
246.085	4857
246.149	4721
246.212	9853
246.276	13389
246.340	7015
246.404	5443
246.467	6501
246.531	6027
246.595	6508
246.659	5331
246.722	5595
246.786	6029
246.850	5965
246.913	6170
246.977	3721
247.041	5244
247.104	5891
247.168	5070
247.232	9412
247.295	15875
247.359	10548
247.423	5606
247.486	8860
247.550	5581
247.614	4487
247.677	5791
247.741	4620
247.804	4351
247.868	5728
247.932	6693
247.995	16419
248.059	6903
248.122	5400
248.186	7724
248.249	10108
248.313	25632
248.376	27328
248.440	16272
248.503	8457
248.567	8134
248.630	9082
248.694	12989
248.757	16896
248.821	28891
248.884	20743
248.948	16336
249.011	23957
249.075	31294
249.138	27279
249.202	12797
249.265	10627
249.328	9954
249.392	8832
249.455	8656
249.519	7317
249.582	7224
249.645	11607
249.709	10553
249.772	10180
249.835	8345
249.899	7823
249.962	7117
250.025	7626
250.089	12461
250.152	16380
250.215	9172
250.279	8146
250.342	8421
250.405	8942
250.468	7998
250.532	9193
250.595	13505
250.658	37851
250.721	61514
250.785	24293
250.848	14352
250.911	9245
250.974	8935
251.038	11417
251.101	19559
251.164	12516
251.227	12773
251.290	11930
251.354	17560
251.417	53595
251.480	53881
251.543	40963
251.606	87709
251.669	71897
251.732	30602
251.795	28216
251.859	29657
251.922	58890
251.985	37008
252.048	18067
252.111	13550
252.174	12054
252.237	17886
252.300	34943
252.363	37995
252.426	71475
252.489	31337
252.552	16257
252.615	10585
252.678	14591
252.741	26693
252.804	36978
252.867	74732
252.930	43971
252.993	23313
253.056	14712
253.119	9730
253.182	9403
253.245	13253
253.308	10644
253.371	8933
253.434	8356
253.497	8719
253.559	15578
253.622	10278
253.685	11551
253.748	10198
253.811	6671
253.874	7777
253.937	6708
254.000	6277
254.062	10848
254.125	15797
254.188	16337
254.251	11502
254.314	5882
254.376	8860
254.439	10350
254.502	8596
254.565	10354
254.628	17246
254.690	9770
254.753	5041
254.816	5417
254.878	5578
254.941	11667
255.004	11791
255.067	6934
255.129	4849
255.192	4827
255.255	3035
255.317	4890
255.380	4017
255.443	3535
255.505	3168
255.568	3524
255.631	3691
255.693	4673
255.756	3642
255.819	4384
255.881	3503
255.944	4042
256.006	3239
256.069	4448
256.132	3062
256.194	4867
256.257	6135
256.319	6284
256.382	5359
256.444	8108
256.507	6229
256.569	6148
256.632	7698
256.694	9477
256.757	27289
256.819	66690
256.882	31729
256.944	13409
257.007	10025
257.069	9377
257.132	7493
257.194	8611
257.257	7683
257.319	7896
257.381	10506
257.444	23489
257.506	68261
257.569	75078
257.631	30798
257.693	17268
257.756	9597
257.818	8027
257.880	7136
257.943	6813
258.005	5405
258.067	6974
258.130	5550
258.192	5718
258.254	6943
258.317	5860
258.379	6258
258.441	10038
258.503	10007
258.566	9128
258.628	10105
258.690	5203
258.753	6434
258.815	8910
258.877	6190
258.939	6590
259.001	6024
259.064	5965
259.126	5662
259.188	6667
259.250	5721
259.312	6462
259.375	7841
259.437	6520
259.499	5494
259.561	5307
259.623	5466
259.685	6254
259.747	5101
259.809	9389
259.872	11714
259.934	18780
259.996	21970
260.058	9634
260.120	5275
260.182	4771
260.244	4076
260.306	4362
260.368	4539
260.430	4649
260.492	9369
260.554	12253
260.616	6083
260.678	12032
260.740	12207
260.802	6067
260.864	5545
260.926	4400
260.988	5349
261.050	5358
261.112	12775
261.174	20765
261.236	11009
261.298	6395
261.359	6412
261.421	8064
261.483	4410
261.545	5901
261.607	2813
261.669	4267
261.731	4803
261.793	9373
261.854	5558
261.916	6010
261.978	4967
262.040	6727
262.102	4477
262.164	4304
262.225	4184
262.287	4173
262.349	8073
262.411	6743
262.472	4098
262.534	4502
262.596	5702
262.658	4842
262.719	3290
262.781	4201
262.843	5416
262.904	5377
262.966	4966
263.028	5675
263.090	18531
263.151	45792
263.213	17178
263.275	11267
263.336	4867
263.398	4463
263.459	3530
263.521	4001
263.583	7542
263.644	6116
263.706	3322
263.767	2455
263.829	3208
263.891	3109
263.952	2678
264.014	3276
264.075	6643
264.137	15349
264.198	6813
264.260	3033
264.321	4002
264.383	9783
264.444	23183
264.506	7574
264.567	5514
264.629	11040
264.690	19910
264.752	7509
264.813	4900
264.875	4292
264.936	4840
264.998	4084
265.059	4794
265.120	5571
265.182	8783
265.243	40861
265.305	41192
265.366	12802
265.427	5693
265.489	5273
265.550	3468
265.611	5042
265.673	3620
265.734	5112
265.795	4515
265.857	4376
265.918	5262
265.979	13317
266.040	58601
266.102	51013
266.163	15873
266.224	10416
266.286	5890
266.347	4720
266.408	4243
266.469	4623
266.530	4418
266.592	3303
266.653	5984
266.714	8143
266.775	3867
266.836	3277
266.898	2677
266.959	6389
267.020	4362
267.081	4724
267.142	3492
267.203	2996
267.264	2717
267.326	4536
267.387	3750
267.448	3629
267.509	3051
267.570	4045
267.631	3398
267.692	2761
267.753	3524
267.814	2875
267.875	5569
267.936	11032
267.997	6652
268.058	4899
268.119	3101
268.180	3559
268.241	1543
268.302	3348
268.363	2118
268.424	2973
268.485	4054
268.546	2994
268.607	2330
268.668	2658
268.729	2177
268.790	3410
268.851	3910
268.912	7575
268.972	7856
269.033	4628
269.094	2464
269.155	2805
269.216	2835
269.277	3346
269.338	2386
269.398	3572
269.459	3090
269.520	5079
269.581	4281
269.642	6097
269.702	4514
269.763	3966
269.824	3339
269.885	4722
269.945	5944
270.006	3702
270.067	3334
270.128	3274
270.188	3273
270.249	2840
270.310	2471
270.370	3450
270.431	2284
270.492	3471
270.553	2442
270.613	5184
270.674	9804
270.734	4711
270.795	3455
270.856	4455
270.916	3236
270.977	3113
271.038	4196
271.098	3603
271.159	5351
271.219	4472
271.280	3943
271.340	3115
271.401	2747
271.462	4590
271.522	3572
271.583	3448
271.643	3284
271.704	3885
271.764	3959
271.825	8898
271.885	24135
271.946	30452
272.006	10758
272.066	15397
272.127	24454
272.187	9585
272.248	5928
272.308	5980
272.369	17204
272.429	10295
272.489	7793
272.550	8176
272.610	7451
272.671	6008
272.731	5012
272.791	6013
272.852	4830
272.912	4985
272.972	2711
273.033	3691
273.093	3786
273.153	5356
273.214	4325
273.274	4771
273.334	14599
273.394	23062
273.455	8827
273.515	10335
273.575	19454
273.635	8758
273.696	10222
273.756	21441
273.816	8584
273.876	5980
273.936	6679
273.997	10991
274.057	4987
274.117	5100
274.177	7145
274.237	28819
274.297	20631
274.358	11641
274.418	17248
274.478	12869
274.538	5377
274.598	4461
274.658	7326
274.718	9723
274.778	5999
274.838	3914
274.898	4719
274.958	12075
275.018	20024
275.078	13829
275.138	5123
275.198	4432
275.258	3511
275.318	3873
275.378	6568
275.438	6607
275.498	5269
275.558	7324
275.618	16410
275.678	13426
275.738	10456
275.798	7552
275.858	5401
275.918	2731
275.978	3190
276.038	4530
276.098	2897
276.157	6326
276.217	13901
276.277	7232
276.337	5337
276.397	3530
276.457	3651
276.517	3160
276.576	2939
276.636	3036
276.696	4179
276.756	10042
276.815	6515
276.875	3590
276.935	2762
276.995	4349
277.055	3327
277.114	2918
277.174	4422
277.234	13121
277.293	6065
277.353	3519
277.413	3073
277.472	3332
277.532	3614
277.592	5449
277.651	12706
277.711	21187
277.771	7886
277.830	26295
277.890	18388
277.950	15539
278.009	39280
278.069	14913
278.128	16672
278.188	20311
278.248	10395
278.307	23990
278.367	13232
278.426	6286
278.486	3682
278.545	3812
278.605	3852
278.664	3831
278.724	3451
278.783	10447
278.843	21350
278.902	7992
278.962	3653
279.021	5083
279.081	5360
279.140	5103
279.199	4866
279.259	5667
279.318	6838
279.378	8065
279.437	9682
279.496	28961
279.556	79927
279.615	60008
279.675	16990
279.734	10749
279.793	14177
279.853	21634
279.912	10107
279.971	6661
280.031	5772
280.090	10893
280.149	15320
280.208	14307
280.268	57045
280.327	53875
280.386	13937
280.445	12666
280.505	9284
280.564	6433
280.623	5540
280.682	8277
280.742	11010
280.801	5437
280.860	3803
280.919	4230
280.978	3238
281.037	4026
281.097	2344
281.156	3836
281.215	2487
281.274	3944
281.333	13771
281.392	10472
281.451	3018
281.510	2599
281.569	2947
281.628	2523
281.688	2225
281.747	3945
281.806	2594
281.865	2754
281.924	1927
281.983	2411
282.042	2076
282.101	2567
282.160	2677
282.219	3106
282.278	2708
282.337	8069
282.396	5589
282.454	3502
282.513	3576
282.572	12294
282.631	6848
282.690	3039
282.749	2143
282.808	3802
282.867	3146
282.926	3671
282.985	3015
283.043	2428
283.102	2292
283.161	3255
283.220	6937
283.279	13485
283.338	5267
283.396	4024
283.455	3457
283.514	4034
283.573	4156
283.631	4918
283.690	3272
283.749	3230
283.808	5694
283.866	6713
283.925	3055
283.984	3841
284.043	4648
284.101	4128
284.160	3956
284.219	5756
284.277	4278
284.336	6582
284.395	16694
284.453	13716
284.512	6368
284.570	8521
284.629	7805
284.688	7081
284.746	8235
284.805	11021
284.863	12047
284.922	16265
284.981	20607
285.039	30774
285.098	48643
285.156	92277
285.215	121808
285.273	133771
285.332	95894
285.390	56415
285.449	34628
285.507	24744
285.566	18257
285.624	14822
285.683	11859
285.741	10838
285.799	8843
285.858	8417
285.916	6774
285.975	6383
286.033	5219
286.091	4834
286.150	3695
286.208	4930
286.267	4663
286.325	4783
286.383	6467
286.442	5658
286.500	3615
286.558	3090
286.616	2320
286.675	3361
286.733	3182
286.791	3356
286.850	3509
286.908	4868
286.966	7406
287.024	3085
287.083	3184
287.141	2820
287.199	3299
287.257	4908
287.315	3233
287.374	4792
287.432	8821
287.490	6819
287.548	3702
287.606	3570
287.664	3252
287.723	4143
287.781	4315
287.839	4553
287.897	4827
287.955	7792
288.013	10563
288.071	20886
288.129	69215
288.187	161794
288.245	79401
288.303	28220
288.361	14753
288.419	10640
288.477	7313
288.535	6354
288.593	5480
288.651	4659
288.709	3480
288.767	3574
288.825	2531
288.883	2715
288.941	3394
288.999	2239
289.057	1444
289.115	2605
289.173	2265
289.231	2637
289.289	2713
289.346	2629
289.404	3304
289.462	3547
289.520	3972
289.578	2925
289.636	2086
289.694	1287
289.751	2064
289.809	2297
289.867	1591
289.925	3294
289.983	2671
290.040	2158
290.098	2345
290.156	2735
290.214	2579
290.271	2780
290.329	1784
290.387	2209
290.444	1487
290.502	1695
290.560	3281
290.617	2304
290.675	2220
290.733	2294
290.790	2004
290.848	1923
290.906	2680
290.963	3143
291.021	2550
291.078	2537
291.136	2713
291.194	9876
291.251	15393
291.309	6371
291.366	2594
291.424	2674
291.481	2586
291.539	1209
291.596	2080
291.654	1710
291.711	1604
291.769	2095
291.826	2891
291.884	3023
291.941	1486
291.999	1691
292.056	2047
292.114	2981
292.171	2089
292.228	2887
292.286	2248
292.343	4437
292.401	4257
292.458	3374
292.515	2045
292.573	3224
292.630	2581
292.687	3089
292.745	2484
292.802	4683
292.859	10421
292.917	14880
292.974	7204
293.031	4693
293.089	3156
293.146	3045
293.203	2350
293.260	2664
293.318	2761
293.375	5825
293.432	3289
293.489	3724
293.546	1634
293.604	3294
293.661	9733
293.718	23414
293.775	13161
293.832	6101
293.889	4550
293.947	4774
294.004	3391
294.061	3358
294.118	7641
294.175	17796
294.232	22852
294.289	9684
294.346	6425
294.403	6087
294.460	4516
294.517	3530
294.574	2129
294.631	3883
294.688	3844
294.745	8653
294.802	29864
294.859	33445
294.916	12376
294.973	7130
295.030	4942
295.087	4600
295.144	2835
295.201	3827
295.258	3397
295.315	5402
295.372	11192
295.429	19325
295.486	8917
295.542	6753
295.599	18738
295.656	27667
295.713	18125
295.770	18953
295.827	8337
295.883	5683
295.940	4545
295.997	6572
296.054	5894
296.111	3573
296.167	3212
296.224	2818
296.281	2818
296.338	3250
296.394	3100
296.451	4155
296.508	9646
296.564	16693
296.621	11102
296.678	23564
296.734	31248
296.791	13599
296.848	7430
296.904	7584
296.961	12069
297.018	20983
297.074	15325
297.131	8336
297.187	5813
297.244	7231
297.301	21372
297.357	34384
297.414	13645
297.470	7244
297.527	3990
297.583	4406
297.640	4343
297.696	4185
297.753	2829
297.809	3419
297.866	2034
297.922	3542
297.979	2214
298.035	3329
298.092	4615
298.148	12416
298.204	10271
298.261	6835
298.317	11278
298.374	27591
298.430	15471
298.486	7376
298.543	4811
298.599	5557
298.656	6295
298.712	9626
298.768	20957
298.824	15399
298.881	6564
298.937	4615
298.993	3850
299.050	4060
299.106	3640
299.162	4145
299.218	3582
299.275	4019
299.331	3884
299.387	7026
299.443	22149
299.500	23436
299.556	10481
299.612	6088
299.668	4149
299.724	6824
299.780	5977
299.837	3528
299.893	6440
299.949	19479
300.005	19919
300.061	18352
300.117	31757
300.173	15946
300.229	7334
300.285	8106
300.341	7788
300.397	5219
300.453	3777
300.510	4085
300.566	3680
300.622	4716
300.678	12791
300.734	19644
300.790	16874
300.845	20891
300.901	13112
300.957	18151
301.013	12880
301.069	5843
301.125	3691
301.181	5414
301.237	3066
301.293	3354
301.349	3299
301.405	2837
301.461	3593
301.516	5973
301.572	3233
301.628	5663
301.684	4960
301.740	9277
301.796	13244
301.851	10589
301.907	13617
301.963	14704
302.019	23109
302.074	60698
302.130	59501
302.186	29423
302.242	12700
302.297	8687
302.353	8387
302.409	14334
302.464	12182
302.520	10215
302.576	21534
302.631	23935
302.687	13268
302.743	7816
302.798	5827
302.854	5308
302.910	6010
302.965	6138
303.021	8342
303.076	7859
303.132	9195
303.187	10434
303.243	7627
303.299	5323
303.354	5394
303.410	4848
303.465	4707
303.521	4604
303.576	4679
303.632	5084
303.687	8480
303.743	21368
303.798	17719
303.853	9161
303.909	5728
303.964	5202
304.020	7069
304.075	8880
304.130	7957
304.186	12343
304.241	13101
304.297	11477
304.352	7010
304.358	6761
304.407	4743
304.449	5164
304.463	5311
304.518	5489
304.539	5067
304.573	4381
304.629	4663
304.630	4712
304.684	7291
304.720	13313
304.739	16222
304.794	22188
304.811	19414
304.850	12484
304.902	6232
304.905	5865
304.960	6270
304.992	6221
305.015	6072
305.071	6023
305.083	5771
305.126	4827
305.173	3909
305.181	3787
305.236	3134
305.264	3550
305.292	3972
305.347	4362
305.354	4472
305.402	5313
305.445	6325
305.457	6554
305.512	7282
305.535	6796
305.567	6247
305.622	6644
305.626	6839
305.678	12786
305.716	22601
305.733	25373
305.788	25181
305.807	22135
305.843	17975
305.897	24016
305.898	24064
305.953	22027
305.988	15370
306.008	12062
306.063	9682
306.078	8574
306.118	5902
306.168	4691
306.173	4608
306.228	3665
306.259	3498
306.283	3610
306.338	3663
306.349	4007
306.393	5471
306.440	6113
306.448	6132
306.503	6025
306.530	5931
306.558	7701
306.613	14765
306.620	15564
306.668	19776
306.711	25214
306.723	25219
306.778	18403
306.801	14283
306.833	10468
306.888	6205
306.892	6019
306.943	5098
306.982	4128
306.997	3901
307.052	4638
307.072	4706
307.107	5292
307.162	6986
307.163	7000
307.217	9595
307.253	11356
307.272	11584
307.327	11328
307.343	10882
307.381	9780
307.434	8483
307.436	8780
307.491	17987
307.524	24487
307.546	24911
307.600	23848
307.614	21817
307.655	14790
307.704	9681
307.710	9826
307.765	11275
307.795	13827
307.819	16751
307.874	24379
307.885	25187
307.929	23060
307.975	21407
307.984	22970
308.038	35474
308.065	43761
308.093	72341
308.148	141768
308.156	153928
308.202	208610
308.246	245472
308.257	235569
308.312	142303
308.336	101582
308.366	78499
308.421	45463
308.426	42624
308.475	29653
308.517	21348
308.530	20043
308.585	17709
308.607	16718
308.639	16813
308.694	17475
308.697	17566
308.748	26671
308.787	35098
308.803	34524
308.857	28695
308.877	26398
308.912	26069
308.967	26605
308.967	26613
309.021	39263
309.058	48009
309.076	60610
309.130	104158
309.148	120071
309.185	191192
309.238	302829
309.239	303858
309.293	313456
309.328	302025
309.348	266274
309.402	149848
309.418	117980
309.457	86868
309.508	51667
309.511	50966
309.566	42759
309.598	38955
309.620	41227
309.674	49124
309.688	51280
309.729	48207
309.778	41527
309.783	40709
309.837	30517
309.868	24983
309.892	28170
309.946	37222
309.959	39774
310.001	48471
310.049	56165
310.055	54126
310.109	32646
310.139	20703
310.163	17357
310.218	11775
310.229	10648
310.272	9662
310.319	8978
310.326	8788
310.381	7285
310.409	6658
310.435	6766
310.489	6850
310.499	6891
310.543	6973
310.589	6987
310.598	7118
310.652	7846
310.679	8141
310.706	7315
310.760	5767
310.769	5481
310.814	5227
310.859	5122
310.868	5203
310.923	5519
310.948	5747
310.977	6010
311.031	6297
311.038	6362
311.085	6639
311.128	6651
311.139	6624
311.193	6451
311.218	6317
311.247	5981
311.301	5472
311.308	5385
311.356	5849
311.398	6364
311.410	6349
311.464	6010
311.488	5918
311.518	5846
311.572	5627
311.578	5593
311.626	6755
311.668	7683
311.680	7877
311.734	8752
311.758	9065
311.788	8866
311.842	8544
311.847	8481
311.896	11968
311.937	14979
311.950	14709
312.004	13298
312.027	12624
312.058	10709
312.112	7238
312.117	6875
312.165	6625
312.207	6386
312.297	12080
312.386	8284
312.476	8590
312.566	11623
312.656	7870
312.745	5756
312.835	7156
312.925	8340
313.015	7624
313.104	7853
313.194	6192
313.284	7013
313.374	8433
313.463	6971
313.553	5427
313.643	5788
313.732	5767
313.822	5431
313.912	6415
314.001	7563
314.091	8407
314.180	11755
314.270	9539
314.360	9235
314.449	8356
314.539	5555
314.628	5092
314.718	7306
314.808	8199
314.897	5722
314.987	5922
315.076	6987
315.166	8900
315.255	8673
315.345	7668
315.434	7349
315.524	7576
315.613	8165
315.703	9586
315.792	11926
315.881	22693
315.971	10654
316.060	14472
316.150	21640
316.239	20554
316.328	9624
316.418	5767
316.507	5888
316.597	8063
316.686	7224
316.775	11432
316.865	22540
316.954	6772
317.043	5108
317.133	6030
317.222	4813
317.311	5415
317.400	4069
317.490	6611
317.579	7581
317.668	6001
317.757	8178
317.847	14390
317.936	37966
318.025	21286
318.114	13515
318.203	10420
318.293	19222
318.382	37513
318.471	26648
318.560	41451
318.649	78611
318.738	16116
318.828	9183
318.917	8952
319.006	12926
319.095	32696
319.184	94515
319.273	43199
319.362	18063
319.451	7140
319.540	6840
319.629	14168
319.718	22177
319.807	13375
319.896	32251
319.985	113256
320.074	34517
320.163	10650
320.252	14662
320.341	15604
320.430	13636
320.519	13859
320.608	8746
320.697	8304
320.786	8286
320.875	8057
320.964	9742
321.053	15097
321.142	20373
321.230	23053
321.319	19125
321.408	42873
321.497	18839
321.586	17699
321.675	23263
321.764	22561
321.852	16127
321.941	24501
322.030	16318
322.119	19855
322.207	40788
322.296	33389
322.385	17926
322.474	18161
322.562	48016
322.651	26148
322.740	17327
322.829	23903
322.917	27552
323.006	16245
323.095	12594
323.183	11327
323.272	17020
323.361	31406
323.449	87848
323.538	29308
323.626	61536
323.715	36012
323.804	16304
323.892	54488
323.981	27867
324.069	10844
324.158	31925
324.246	28811
324.335	10297
324.424	14265
324.512	5905
324.601	8908
324.689	16468
324.778	29601
324.866	20066
324.954	7268
325.043	7317
325.131	13591
325.220	24057
325.308	26418
325.397	18671
325.485	11476
325.574	4564
325.662	5986
325.750	5538
325.839	6420
325.927	4903
326.015	6332
326.104	9643
326.192	13100
326.280	5293
326.369	5686
326.457	7340
326.545	11957
326.634	5823
326.722	3824
326.810	4612
326.898	5330
326.987	5866
327.075	11839
327.163	12703
327.251	7999
327.340	12288
327.428	15599
327.516	5418
327.604	4495
327.692	5072
327.781	6404
327.869	10651
327.957	8128
328.045	6137
328.133	3909
328.221	5383
328.309	5095
328.397	4840
328.485	5908
328.574	8513
328.662	25142
328.750	15231
328.838	7029
328.926	4646
329.014	4241
329.102	7115
329.190	21975
329.278	11965
329.366	3684
329.454	3637
329.542	4731
329.630	3601
329.718	4418
329.806	5492
329.893	6380
329.981	5463
330.069	5416
330.157	12025
330.245	30858
330.333	15073
330.421	5399
330.509	8696
330.597	29372
330.684	21809
330.772	9636
330.860	14606
330.948	22060
331.036	7740
331.123	4257
331.211	4662
331.299	6881
331.387	18836
331.475	30828
331.562	8233
331.650	4109
331.738	5491
331.825	7441
331.913	4313
332.001	4684
332.089	6685
332.176	14075
332.264	30437
332.352	22512
332.439	6870
332.527	6581
332.614	5046
332.702	7004
332.790	5028
332.877	14005
332.965	27752
333.052	8539
333.140	8540
333.228	20081
333.315	6681
333.403	6158
333.490	18012
333.578	15585
333.665	24523
333.753	12292
333.840	4590
333.928	7653
334.015	18922
334.103	35238
334.190	109929
334.278	27199
334.365	9793
334.452	7982
334.540	6164
334.627	7518
334.715	10213
334.802	21421
334.889	106298
334.977	98929
335.064	13925
335.151	8385
335.239	7974
335.326	13036
335.413	61735
335.501	79490
335.588	10945
335.675	7512
335.762	11353
335.850	19796
335.937	11486
336.024	31040
336.111	119680
336.199	48097
336.286	11013
336.373	6185
336.460	4829
336.547	5899
336.635	5937
336.722	6971
336.809	5256
336.896	9522
336.983	34422
337.070	87301
337.157	120043
337.245	74451
337.332	47476
337.419	8084
337.506	6017
337.593	7477
337.680	31327
337.767	90335
337.854	22706
337.941	25087
338.028	25084
338.115	8981
338.202	12497
338.289	21891
338.376	68034
338.463	22392
338.550	55160
338.637	54960
338.724	15081
338.811	21031
338.898	5539
338.984	5833
339.071	6779
339.158	8313
339.245	18335
339.332	10713
339.419	14394
339.506	13825
339.593	2853
339.679	4292
339.766	4513
339.853	6586
339.940	11061
340.027	4979
340.113	4352
340.200	6393
340.287	4655
340.374	6693
340.460	10433
340.547	5194
340.634	7793
340.720	29873
340.807	16285
340.894	4452
340.980	3650
341.067	3974
341.154	5374
341.240	6926
341.327	14095
341.414	6162
341.500	6744
341.587	5168
341.674	4534
341.760	9339
341.847	10935
341.933	3932
342.020	2882
342.106	2374
342.193	4540
342.279	7843
342.366	6444
342.452	9333
342.539	5292
342.625	13118
342.712	30171
342.798	13215
342.885	4925
342.971	2549
343.058	3072
343.144	3572
343.230	3101
343.317	4298
343.403	2846
343.490	3291
343.576	2108
343.662	3857
343.749	5007
343.835	7374
343.921	11325
344.008	72143
344.094	155192
344.180	31329
344.267	11950
344.353	44485
344.439	44765
344.525	17990
344.612	19910
344.698	22369
344.784	13295
344.870	5730
344.957	4023
345.043	6469
345.129	4640
345.215	10062
345.301	6826
345.387	4346
345.474	3282
345.560	3375
345.646	4488
345.732	3996
345.818	5424
345.904	4456
345.990	4670
346.076	5880
346.162	10435
346.249	5637
346.335	3370
346.421	4714
346.507	18921
346.593	63350
346.679	14047
346.765	5614
346.851	4736
346.937	3846
347.023	4524
347.108	5445
347.194	4451
347.280	4356
347.366	5122
347.452	19715
347.538	75394
347.624	52410
347.710	40717
347.796	6642
347.882	5100
347.967	4838
348.053	7359
348.139	5279
348.225	3482
348.311	3309
348.397	3214
348.482	4504
348.568	4407
348.654	3171
348.740	3680
348.825	4105
348.911	7798
348.997	34961
349.083	67611
349.168	10212
349.254	5449
349.340	5130
349.425	3364
349.511	5618
349.597	6762
349.682	11828
349.768	41372
349.854	18889
349.939	5361
350.025	4067
350.110	5616
350.196	3496
350.282	1763
350.367	3566
350.453	6174
350.538	7185
350.624	6258
350.709	6128
350.795	2691
350.880	4191
350.966	4990
351.051	6430
351.137	5330
351.222	3785
351.308	12792
351.393	32963
351.479	8302
351.564	3704
351.649	3066
351.735	3125
351.820	3417
351.906	4293
351.991	7367
352.076	22357
352.162	31310
352.247	6794
352.332	4842
352.418	9530
352.503	12306
352.588	48606
352.673	36122
352.759	8015
352.844	3926
352.929	5759
353.014	5687
353.100	4325
353.185	5036
353.270	9857
353.355	11655
353.441	4522
353.526	5259
353.611	10681
353.696	10675
353.781	7403
353.866	2658
353.952	4494
354.037	9103
354.122	20945
354.207	18341
354.292	7908
354.377	3672
354.462	3652
354.547	4244
354.632	5099
354.717	7616
354.802	6977
354.887	3184
354.972	3049
355.057	3095
355.142	2912
355.227	4990
355.312	6920
355.397	14202
355.482	32514
355.567	16049
355.652	13006
355.737	13075
355.822	47593
355.907	37394
355.991	6517
356.076	3401
356.161	4055
356.246	3555
356.331	4653
356.416	12208
356.501	80777
356.585	80116
356.670	11505
356.755	7601
356.840	10417
356.924	49332
357.009	177850
357.094	61485
357.179	13329
357.263	9780
357.348	10186
357.433	9331
357.517	9800
357.602	8417
357.687	7058
357.771	12760
357.856	49164
357.941	27658
358.025	43075
358.110	182986
358.195	80754
358.279	11749
358.364	9226
358.448	30535
358.533	82439
358.617	58452
358.702	58983
358.787	21109
358.871	11511
358.956	9482
359.040	5647
359.125	3524
359.209	5993
359.294	23448
359.378	39624
359.462	11873
359.547	6255
359.631	5306
359.716	2575
359.800	4214
359.885	9323
359.969	4302
360.053	5280
360.138	6292
360.222	6762
360.306	11201
360.391	8950
360.475	22600
360.559	47890
360.644	31350
360.728	21589
360.812	42849
360.896	118568
360.981	47289
361.065	24899
361.149	7685
361.233	6068
361.318	5602
361.402	6825
361.486	6674
361.570	3864
361.654	6313
361.739	15255
361.823	76039
361.907	117190
361.991	19683
362.075	11074
362.159	21593
362.243	17568
362.327	16066
362.411	19983
362.495	10882
362.580	6655
362.664	5667
362.748	5264
362.832	7008
362.916	10484
363.000	35071
363.084	96467
363.168	137307
363.252	30322
363.336	11982
363.420	17400
363.503	81802
363.587	95667
363.671	13717
363.755	9157
363.839	12506
363.923	6381
364.007	13255
364.091	15895
364.175	30690
364.258	133638
364.342	82478
364.426	64517
364.510	34742
364.594	20838
364.677	25641
364.761	106011
364.845	71879
364.929	19907
365.013	16297
365.096	13869
365.180	16209
365.264	35637
365.347	132792
365.431	56923
365.515	14015
365.598	6371
365.682	6257
365.766	14266
365.849	18850
365.933	6901
366.017	11297
366.100	10001
366.184	3957
366.267	4559
366.351	5060
366.435	3962
366.518	3126
366.602	3743
366.685	3823
366.769	4690
366.852	11184
366.936	17514
367.019	8480
367.103	9822
367.186	21131
367.270	6162
367.353	2966
367.436	4497
367.520	2762
367.603	5269
367.687	6645
367.770	12364
367.853	8525
367.937	31039
368.020	51592
368.104	11202
368.187	9611
368.270	14313
368.353	13543
368.437	18481
368.520	44171
368.603	27376
368.687	34333
368.770	64459
368.853	15818
368.936	16022
369.020	20105
369.103	6174
369.186	4502
369.269	5404
369.352	9050
369.436	13199
369.519	9370
369.602	4898
369.685	6378
369.768	5938
369.851	4602
369.934	3309
370.018	5652
370.101	9697
370.184	10311
370.267	8434
370.350	14402
370.433	22543
370.516	56782
370.599	65036
370.682	16262
370.765	31495
370.848	41606
370.931	81822
371.014	33722
371.097	7079
371.180	4856
371.263	4271
371.346	2420
371.429	3602
371.511	3393
371.594	8120
371.677	15134
371.760	22393
371.843	14924
371.926	68645
372.009	153902
372.091	46628
372.174	32499
372.257	80850
372.340	31308
372.423	26390
372.505	33235
372.588	13257
372.671	23708
372.754	77338
372.836	39441
372.919	40655
373.002	80512
373.085	20535
373.167	12827
373.250	32780
373.332	77430
373.415	101584
373.498	199772
373.580	72130
373.663	93128
373.746	127629
373.828	28239
373.911	13160
373.993	17750
374.076	77860
374.159	70824
374.241	24269
374.324	64383
374.406	42785
374.489	61282
374.571	170383
374.654	67342
374.736	32633
374.819	106118
374.901	147694
374.983	147192
375.066	26246
375.148	12201
375.231	62749
375.313	117114
375.395	41092
375.478	8408
375.560	6783
375.643	7787
375.725	31814
375.807	129855
375.890	100579
375.972	40048
376.054	22495
376.136	36379
376.219	16483
376.301	38625
376.383	112426
376.465	40895
376.548	21069
376.630	31733
376.712	93918
376.794	42431
376.877	5656
376.959	3579
377.041	5867
377.123	16756
377.205	20549
377.287	3997
377.369	3305
377.452	3663
377.534	3932
377.616	3468
377.698	4108
377.780	1808
377.862	4348
377.944	5192
378.026	3303
378.108	3506
378.190	2873
378.272	3950
378.354	2582
378.436	3757
378.518	8941
378.600	31406
378.682	24457
378.764	43959
378.846	34418
378.928	11170
379.010	12840
379.091	8706
379.173	4851
379.255	2516
379.337	6205
379.419	21931
379.501	64245
379.583	25116
379.664	7868
379.746	14500
379.828	43047
379.910	58864
379.991	51065
380.073	8903
380.155	6082
380.237	4914
380.318	4449
380.400	4312
380.482	9526
380.564	13302
380.645	11664
380.727	10849
380.809	7737
380.890	5420
380.972	4601
381.053	4320
381.135	6325
381.217	15244
381.298	45335
381.380	22667
381.461	20697
381.543	92789
381.624	112255
381.706	21542
381.787	11839
381.869	13634
381.951	41674
382.032	155019
382.113	93234
382.195	20082
382.276	15240
382.358	30277
382.439	86298
382.521	97011
382.602	146473
382.684	67076
382.765	123180
382.846	139275
382.928	194943
383.009	109101
383.090	86259
383.172	294468
383.253	410899
383.334	146806
383.416	140364
383.497	72821
383.578	41012
383.659	77905
383.741	271968
383.822	613150
383.903	308360
383.984	108418
384.066	161281
384.147	96477
384.228	23192
384.309	15999
384.390	11632
384.471	9682
384.553	10881
384.634	13348
384.715	14285
384.796	6987
384.877	12232
384.958	41903
385.039	48820
385.120	17641
385.201	9858
385.282	12710
385.363	15000
385.444	12291
385.525	21661
385.606	72548
385.687	59327
385.768	16832
385.849	20207
385.930	75341
386.011	127392
386.092	34250
386.173	9379
386.254	8818
386.335	9640
386.416	10548
386.496	29753
386.577	45644
386.658	18820
386.739	11954
386.820	13087
386.901	10017
386.981	9009
387.062	6416
387.143	12265
387.224	43267
387.304	41789
387.385	14628
387.466	11676
387.547	15857
387.627	10009
387.708	19220
387.789	80090
387.869	98975
387.950	26352
388.031	6502
388.111	7166
388.192	22901
388.273	32523
388.353	17200
388.434	9198
388.514	18849
388.595	80313
388.676	98483
388.756	43139
388.837	38509
388.917	24316
388.998	6300
389.078	7801
389.159	6709
389.239	4887
389.320	9788
389.400	7925
389.480	20530
389.561	50809
389.641	25190
389.722	8744
389.802	13344
389.883	23617
389.963	59989
390.043	38729
390.124	13640
390.204	18751
390.284	49952
390.365	33415
390.445	58109
390.525	146244
390.605	118540
390.686	30255
390.766	10847
390.846	7094
390.927	4681
391.007	5283
391.087	7021
391.167	7994
391.247	5491
391.328	10501
391.408	17873
391.488	14134
391.568	4811
391.648	7363
391.728	8961
391.808	9459
391.888	10685
391.969	27606
392.049	43009
392.129	22271
392.209	24564
392.289	58238
392.369	34217
392.449	37210
392.529	20513
392.609	13150
392.689	18930
392.769	56056
392.849	48219
392.929	37645
393.009	88832
393.089	60754
393.169	43945
393.248	149217
393.328	576248
393.408	614068
393.488	153755
393.568	42168
393.648	23342
393.728	16405
393.807	14184
393.887	14568
393.967	14140
394.047	17669
394.127	24346
394.206	47590
394.286	166559
394.366	557663
394.446	586716
394.525	181199
394.605	52235
394.685	34929
394.764	57454
394.844	90377
394.924	62088
395.003	19229
395.083	13188
395.163	12255
395.242	11642
395.322	12196
395.402	10428
395.481	15902
395.561	38142
395.640	95372
395.720	71937
395.799	113159
395.879	97052
395.958	82434
396.038	254638
396.117	705259
396.197	752276
396.276	298854
396.356	106480
396.435	67143
396.515	39701
396.594	33782
396.673	49765
396.753	170003
396.832	538681
396.912	392275
396.991	88335
397.070	26292
397.150	15117
397.229	12930
397.308	15790
397.388	25248
397.467	14397
397.546	8119
397.625	5178
397.705	9481
397.784	7913
397.863	6029
397.942	5298
398.022	8140
398.101	30893
398.180	91051
398.259	46471
398.338	11600
398.417	6570
398.497	6030
398.576	5959
398.655	3460
398.734	4378
398.813	6001
398.892	29430
398.971	96553
399.050	46148
399.129	5871
399.208	3973
399.287	4677
399.366	3390
399.445	3656
399.524	4162
399.603	3023
399.682	8113
399.761	26805
399.840	98620
399.919	77425
399.998	10805
400.077	2919
400.156	2547
400.235	5797
400.313	4361
400.392	5398
400.471	22250
400.550	36528
400.629	9632
400.708	5193
400.786	6239
400.865	22873
400.944	22358
401.023	10025
401.102	2191
401.180	2251
401.259	3943
401.338	5371
401.416	5647
401.495	5547
401.574	5187
401.652	3564
401.731	6064
401.810	4163
401.888	2856
401.967	1862
402.046	4506
402.124	5899
402.203	6855
402.281	4819
402.360	8258
402.438	28195
402.517	19343
402.596	6685
402.674	5887
402.753	4434
402.831	3602
402.910	4223
402.988	10746
403.066	31916
403.145	18184
403.223	12218
403.302	26034
403.380	18839
403.459	15405
403.537	7834
403.615	5690
403.694	2066
403.772	3075
403.850	2793
403.929	3109
404.007	3475
404.085	6457
404.164	6624
404.242	9400
404.320	38589
404.398	116788
404.477	115293
404.555	140111
404.633	123850
404.711	86384
404.789	57234
404.868	13719
404.946	6080
405.024	3464
405.102	3287
405.180	1875
405.258	1898
405.336	2977
405.415	3687
405.493	8679
405.571	7285
405.649	1439
405.727	2994
405.805	6620
405.883	5361
405.961	5733
406.039	8574
406.117	2868
406.195	6169
406.273	26796
406.351	99300
406.429	59233
406.507	11185
406.585	4403
406.663	3866
406.740	4824
406.818	3626
406.896	2205
406.974	3982
407.052	8500
407.130	57568
407.208	77771
407.285	16060
407.363	2758
407.441	3535
407.519	2337
407.596	4300
407.674	10249
407.752	32032
407.830	36473
407.907	14254
407.985	3646
408.063	3474
408.141	3104
408.218	7553
408.296	5637
408.373	2761
408.451	3083
408.529	2793
408.606	1571
408.684	2126
408.762	1934
408.839	1597
408.917	1659
408.994	2124
409.072	1680
409.149	2348
409.227	3919
409.304	5650
409.382	3990
409.459	3467
409.537	5669
409.614	6167
409.692	4244
409.769	3435
409.846	5540
409.924	9457
410.001	6475
410.079	5657
410.156	4604
410.233	4734
410.311	3778
410.388	2293
410.465	4441
410.543	4430
410.620	3655
410.697	2910
410.775	3333
410.852	1253
410.929	4407
411.006	6084
411.083	3526
411.161	10964
411.238	11335
411.315	6233
411.392	2411
411.469	5150
411.547	5951
411.624	2511
411.701	2184
411.778	3063
411.855	7159
411.932	4319
412.009	1287
412.086	2545
412.163	3797
412.240	5134
412.317	6684
412.394	5785
412.471	2361
412.548	1686
412.625	1429
412.702	3621
412.779	8403
412.856	6001
412.933	2145
413.010	1575
413.087	5473
413.164	20715
413.241	29760
413.318	7146
413.395	5058
413.471	6912
413.548	3490
413.625	2481
413.702	3926
413.779	3310
413.855	964
413.932	939
414.009	783
414.086	800
414.162	1017
414.239	4202
414.316	20154
414.393	44360
414.469	14885
414.546	2492
414.623	1770
414.699	1420
414.776	1750
414.853	1852
414.929	2261
415.006	2513
415.082	3969
415.159	3126
415.236	2410
415.312	2407
415.389	3786
415.465	5836
415.542	3573
415.618	1859
415.695	3465
415.771	2436
415.848	2472
415.924	3635
416.000	1806
416.077	2799
416.153	79
416.230	-24
416.306	794
416.383	1575
416.459	1596
416.535	784
416.612	2051
416.688	2047
416.764	1717
416.841	1111
416.917	1861
416.993	2022
417.069	3012
417.146	6006
417.222	10902
417.298	5045
417.374	2291
417.451	2297
417.527	2723
417.603	3038
417.679	2470
417.755	1649
417.831	1272
417.908	1494
417.984	1051
418.060	946
418.136	4616
418.212	6740
418.288	2578
418.364	1951
418.440	1411
418.516	3824
418.592	8072
418.668	11985
418.744	12443
418.820	9013
418.896	2526
418.972	1633
419.048	1701
419.124	6679
419.200	3546
419.276	1815
419.352	437
419.428	1224
419.504	1248
419.579	2530
419.655	2148
419.731	2418
419.807	8046
419.883	14085
419.959	9752
420.034	3601
420.110	7687
420.186	28648
420.262	21273
420.337	4158
420.413	3025
420.489	1637
420.565	1889
420.640	1896
420.716	2192
420.792	1175
420.867	1995
420.943	1614
421.019	3812
421.094	3154
421.170	2063
421.245	1377
421.321	2156
421.397	2838
421.472	6356
421.548	16551
421.623	11806
421.699	4491
421.774	4362
421.850	4354
421.925	7272
422.001	6123
422.076	6013
422.152	6388
422.227	10587
422.302	13081
422.378	18771
422.453	37158
422.529	97483
422.604	302142
422.679	485901
422.755	303877
422.830	98915
422.905	37671
422.981	19282
423.056	13457
423.131	10075
423.207	8153
423.282	7322
423.357	10669
423.432	7297
423.508	7136
423.583	12783
423.658	10409
423.733	4475
423.808	5640
423.883	5166
423.959	5332
424.034	3767
424.109	4569
424.184	2376
424.259	2299
424.334	1621
424.409	2258
424.484	1151
424.559	1982
424.634	1551
424.709	2896
424.784	2798
424.859	2195
424.934	5083
425.009	16692
425.084	30606
425.159	10762
425.234	2612
425.309	1970
425.384	12607
425.459	22269
425.534	6625
425.609	2373
425.683	2105
425.758	1299
425.833	2080
425.908	3968
425.983	10838
426.058	30386
426.132	13422
426.207	4315
426.282	7313
426.357	6789
426.431	1798
426.506	2454
426.581	1745
426.655	2210
426.730	1659
426.805	1577
426.879	2834
426.954	2566
427.029	5629
427.103	31655
427.178	80307
427.253	35076
427.327	5054
427.402	9380
427.476	25557
427.551	11791
427.625	3015
427.700	3638
427.774	1970
427.849	3755
427.923	2029
427.998	1917
428.072	2045
428.147	8015
428.221	29984
428.296	87544
428.370	43275
428.444	5860
428.519	9706
428.593	20229
428.667	17586
428.742	21581
428.816	19389
428.890	64703
428.965	95549
429.039	33777
429.113	24311
429.188	8609
429.262	3327
429.336	5813
429.410	13937
429.485	11120
429.559	17359
429.633	13605
429.707	3262
429.781	13944
429.855	70557
429.930	93863
430.004	56352
430.078	94364
430.152	82460
430.226	126926
430.300	121430
430.374	18155
430.448	6986
430.522	32043
430.596	90504
430.670	51932
430.744	94256
430.818	128098
430.892	23380
430.966	3848
431.040	2938
431.114	1109
431.188	1240
431.262	2180
431.336	1432
431.410	9501
431.484	23470
431.557	13103
431.631	2442
431.705	2805
431.779	16767
431.853	75832
431.927	49662
432.000	5611
432.074	2194
432.148	3965
432.222	3125
432.295	1424
432.369	1169
432.443	4814
432.516	34710
432.590	81746
432.664	28490
432.737	3369
432.811	394
432.885	530
432.958	1093
433.032	879
433.106	490
433.179	741
433.253	465
433.326	785
433.400	426
433.473	1790
433.547	245
433.620	810
433.694	2848
433.767	3861
433.841	874
433.914	1110
433.988	1124
434.061	1239
434.134	1676
434.208	183
434.281	478
434.355	691
434.428	1018
434.501	62
434.575	820
434.648	1251
434.721	670
434.795	508
434.868	210
434.941	227
435.014	393
435.088	1119
435.161	2868
435.234	4078
435.307	4128
435.381	2358
435.454	1734
435.527	2182
435.600	2195
435.673	1633
435.746	1740
435.819	1275
435.892	409
435.966	1883
436.039	369
436.112	1778
436.185	609
436.258	225
436.331	-816
436.404	-116
436.477	-117
436.550	301
436.623	85
436.696	705
436.769	983
436.842	975
436.915	1627
436.987	2298
437.060	976
437.133	374
437.206	-71
437.279	1183
437.352	-118
437.425	602
437.498	1078
437.570	3491
437.643	3730
437.716	833
437.789	1314
437.861	4894
437.934	14332
438.007	6469
438.080	464
438.152	1791
438.225	5083
438.298	44496
438.370	116490
438.443	45216
438.516	11518
438.588	2763
438.661	837
438.734	563
438.806	1411
438.879	1711
438.951	2950
439.024	7379
439.096	1847
439.169	303
439.241	302
439.314	1099
439.386	3307
439.459	4644
439.531	7505
439.604	1643
439.676	1058
439.749	-359
439.821	-52
439.893	966
439.966	713
440.038	2205
440.110	2442
440.183	1441
440.255	669
440.327	3129
440.400	18110
440.472	71356
440.544	40081
440.617	5148
440.689	4444
440.761	6693
440.833	10817
440.905	6104
440.978	1150
441.050	-144
441.122	720
441.194	84
441.266	682
441.338	1478
441.411	3253
441.483	19820
441.555	25916
441.627	5715
441.699	5354
441.771	5286
441.843	1858
441.915	589
441.987	133
442.059	313
442.131	2848
442.203	4232
442.275	3952
442.347	4546
442.419	5949
442.491	30286
442.563	71055
442.635	29111
442.706	22402
442.778	15200
442.850	2402
442.922	1384
442.994	2699
443.066	4262
443.137	3770
443.209	2982
443.281	3684
443.353	9926
443.425	44021
443.496	140171
443.568	119109
443.640	37275
443.711	7317
443.783	2715
443.855	1857
443.926	1434
443.998	1961
444.070	3892
444.141	2925
444.213	3818
444.285	3590
444.356	4087
444.428	3311
444.499	1014
444.571	117
444.642	1070
444.714	1590
444.785	3533
444.857	7038
444.928	16582
445.000	8415
445.071	10581
445.143	11615
445.214	5198
445.285	11828
445.357	36408
445.428	103572
445.500	219301
445.571	119004
445.642	54155
445.714	25603
445.785	26529
445.856	5898
445.928	4934
445.999	4591
446.070	3704
446.141	3402
446.213	4117
446.284	2466
446.355	3560
446.426	2012
446.497	1448
446.569	4648
446.640	6555
446.711	2669
446.782	689
446.853	2291
446.924	2931
446.995	298
447.066	2131
447.138	6000
447.209	3165
447.280	192
447.351	-241
447.422	307
447.493	2509
447.564	2310
447.635	1996
447.706	300
447.777	16
447.847	198
447.918	790
447.989	2231
448.060	3642
448.131	11148
448.202	7077
448.273	3727
448.344	2027
448.414	726
448.485	586
448.556	571
448.627	-218
448.698	1247
448.768	393
448.839	179
448.910	4753
448.981	4196
449.051	1157
449.122	323
449.193	699
449.263	235
449.334	624
449.405	918
449.475	4732
449.546	3683
449.616	6654
449.687	4456
449.758	1326
449.828	981
449.899	-55
449.969	801
450.040	657
450.110	958
450.181	1452
450.251	485
450.322	900
450.392	1185
450.463	548
450.533	475
450.604	862
450.674	434
450.744	1161
450.815	508
450.885	875
450.955	679
451.026	1123
451.096	757
451.166	1244
451.237	6674
451.307	16889
451.377	4409
451.447	347
451.518	577
451.588	768
451.658	1843
451.728	4185
451.799	18646
451.869	18810
451.939	2571
452.009	807
452.079	1193
452.149	1353
452.219	5958
452.289	22904
452.360	12112
452.430	1763
452.500	1378
452.570	2153
452.640	3810
452.710	13377
452.780	19717
452.850	9610
452.920	6957
452.990	2513
453.060	1984
453.129	2451
453.199	4486
453.269	24338
453.339	44341
453.409	64393
453.479	74252
453.549	105797
453.619	108747
453.688	32656
453.758	4891
453.828	3435
453.898	2227
453.968	2013
454.037	1470
454.087	1738
454.107	1839
454.168	502
454.177	294
454.247	1395
454.249	1378
454.316	468
454.330	883
454.386	2422
454.411	5120
454.456	9539
454.492	11859
454.525	13953
454.574	6677
454.595	3503
454.655	1292
454.665	944
454.734	2024
454.736	2120
454.804	4784
454.817	7416
454.873	18053
454.898	17999
454.943	17765
454.979	10890
455.013	4739
455.060	2683
455.082	1859
455.141	3314
455.152	3574
455.221	13497
455.222	13680
455.291	25398
455.303	25723
455.360	26118
455.384	37609
455.430	57540
455.465	41037
455.499	25559
455.546	20580
455.569	18255
455.627	10043
455.638	8567
455.707	1932
455.708	1947
455.777	2493
455.789	2405
455.846	1950
455.869	1778
455.916	1274
455.950	1474
455.985	1775
456.031	1561
456.054	1332
456.112	1139
456.124	1158
456.193	1785
456.193	1771
456.262	1581
456.274	1897
456.332	3454
456.355	3157
456.401	2316
456.436	1867
456.470	1482
456.516	1078
456.540	863
456.597	1005
456.609	1032
456.678	1514
456.678	1503
456.747	1031
456.759	986
456.817	929
456.840	818
456.886	659
456.920	1117
456.955	1472
457.001	1980
457.024	2245
457.082	2016
457.093	1961
457.162	2871
457.163	2888
457.232	3485
457.243	3294
457.301	2512
457.324	2004
457.370	1058
457.405	1267
457.439	1561
457.485	1696
457.508	1707
457.566	2182
457.577	2274
457.646	2728
457.647	2745
457.715	3459
457.727	3577
457.784	4218
457.808	5303
457.853	7249
457.889	8711
457.922	9294
457.969	7145
457.991	6613
458.050	6774
458.060	6854
458.129	10551
458.130	10665
458.198	13543
458.211	12581
458.267	7150
458.292	5428
458.336	3659
458.372	3212
458.405	3602
458.453	4926
458.474	5789
458.533	9901
458.543	10414
458.611	18983
458.614	19061
458.680	14694
458.694	12389
458.749	5763
458.775	4565
458.818	2947
458.855	2583
458.887	2537
458.936	2381
458.955	2288
459.016	1910
459.024	1908
459.093	3117
459.097	3114
459.162	2332
459.177	2447
459.230	3437
459.257	3367
459.299	2905
459.338	3309
459.368	3683
459.418	4335
459.437	4339
459.499	3235
459.505	3200
459.574	3210
459.579	3226
459.643	2626
459.659	2486
459.711	2715
459.740	2931
459.780	3018
459.820	3108
459.849	3113
459.900	3009
459.917	3068
459.981	3756
459.986	3762
460.054	3131
460.061	3153
460.123	3328
460.141	3335
460.191	4070
460.222	4261
460.260	3933
460.302	4661
460.328	5088
460.382	4204
460.397	3982
460.462	3556
460.465	3618
460.534	5809
460.543	6056
460.602	13738
460.623	17002
460.671	23308
460.703	32181
460.739	34984
460.783	29891
460.808	25049
460.864	6716
460.876	4749
460.944	3393
460.945	3382
461.013	3805
461.024	3886
461.081	3634
461.104	3495
461.150	3179
461.184	3127
461.218	3437
461.264	3618
461.286	3689
461.345	3563
461.355	3410
461.423	3488
461.425	3464
461.491	3687
461.505	3872
461.559	6239
461.585	7279
461.628	10392
461.665	14275
461.696	16321
461.745	21821
461.764	20682
461.825	7870
461.832	7266
461.901	4162
461.905	4114
461.969	3588
461.985	3518
462.037	4175
462.065	4517
462.105	4423
462.145	4135
462.173	5547
462.225	8730
462.241	9436
462.305	13448
462.310	13242
462.378	9071
462.385	8202
462.446	4653
462.465	4243
462.514	3974
462.545	3938
462.582	4108
462.625	4379
462.650	4270
462.705	3952
462.718	4052
462.785	4301
462.786	4315
462.854	5164
462.865	5415
462.922	7181
462.945	7929
462.990	6790
463.025	4901
463.058	4424
463.104	4322
463.126	4077
463.184	3695
463.194	3761
463.262	3776
463.264	3797
463.330	3931
463.344	3926
463.398	5234
463.424	5760
463.466	5290
463.504	5047
463.533	5175
463.583	5086
463.601	4912
463.663	4310
463.669	4431
463.737	6212
463.743	6352
463.805	9981
463.823	11052
463.873	14971
463.903	17801
463.940	19148
463.982	21158
464.008	18320
464.062	8981
464.076	8171
464.142	5029
464.144	4986
464.211	4479
464.221	4413
464.279	4977
464.301	5052
464.347	5173
464.381	5641
464.414	5915
464.461	6008
464.482	6468
464.540	7816
464.550	7660
464.617	6222
464.620	6168
464.685	7246
464.699	7456
464.753	8744
464.779	9486
464.820	10623
464.859	11620
464.888	11197
464.938	10343
464.956	10428
465.018	10656
465.023	10519
465.091	8476
465.098	8243
465.158	8276
465.177	8399
465.226	8497
465.257	8369
465.293	8175
465.336	7955
465.361	8539
465.416	9924
465.428	10405
465.495	12915
465.496	12975
465.563	19303
465.575	20478
465.631	25056
465.654	27180
465.698	18983
465.734	10974
465.765	9549
465.813	7855
465.833	7691
465.893	7629
465.900	7662
465.968	7790
465.972	7777
466.035	7497
466.052	7443
466.102	7504
466.131	7580
466.170	7537
466.210	7289
466.237	7367
466.290	7676
466.304	7765
466.369	7901
466.372	7934
466.439	8601
466.449	8674
466.506	8734
466.528	8711
466.573	11761
466.607	14082
466.641	19186
466.687	26242
466.708	28727
466.766	35817
466.775	33313
466.842	13638
466.845	12681
466.909	9618
466.925	8977
466.977	8988
467.004	9008
467.044	9892
467.083	10724
467.111	11538
467.163	13021
467.178	13550
467.242	15670
467.245	15615
467.312	13915
467.321	13668
467.379	13740
467.400	13729
467.446	13648
467.480	13544
467.559	13524
467.638	11823
467.717	12126
467.796	11957
467.875	11814
467.955	12751
468.034	17584
468.113	35190
468.192	46963
468.271	18622
468.350	11849
468.429	11676
468.508	11830
468.588	10773
468.667	11598
468.746	12228
468.825	12935
468.904	11079
468.983	11914
469.062	15530
469.141	19502
469.220	10773
469.299	11437
469.378	13140
469.456	15185
469.535	14011
469.614	13154
469.693	12581
469.772	16560
469.851	18124
469.930	15619
470.009	11880
470.088	11712
470.166	11871
470.245	13917
470.324	14738
470.403	13119
470.482	12422
470.560	10851
470.639	11029
470.718	12737
470.797	10983
470.875	13138
470.954	15237
471.033	17472
471.111	10890
471.190	11153
471.269	9486
471.347	9587
471.426	10150
471.505	12716
471.583	13570
471.662	13507
471.740	11254
471.819	11107
471.898	11256
471.976	11258
472.055	10822
472.133	11979
472.212	15291
472.290	14388
472.369	11556
472.447	10666
472.526	10294
472.604	11400
472.683	10928
472.761	10516
472.839	10108
472.918	10989
472.996	10620
473.075	12864
473.153	11673
473.231	10045
473.310	11337
473.388	11594
473.466	11248
473.545	12928
473.623	13645
473.701	12633
473.780	10887
473.858	9886
473.936	13155
474.014	10879
474.093	10907
474.171	13994
474.249	18364
474.327	14613
474.405	9836
474.484	9365
474.562	9680
474.640	10388
474.718	9038
474.796	9913
474.874	9312
474.952	8822
475.030	9893
475.108	9452
475.187	9465
475.265	9472
475.343	11489
475.421	11508
475.499	10585
475.577	10668
475.655	11840
475.733	20527
475.811	33621
475.889	29516
475.966	23269
476.044	10913
476.122	9752
476.200	10880
476.278	10457
476.356	10209
476.434	10735
476.512	10610
476.590	11622
476.667	11527
476.745	9170
476.823	11229
476.901	9825
476.979	10810
477.056	10105
477.134	11708
477.212	10677
477.290	9776
477.367	8976
477.445	9429
477.523	9401
477.601	9225
477.678	9414
477.756	10813
477.834	12234
477.911	9748
477.989	9732
478.066	9070
478.144	10359
478.222	11354
478.299	10167
478.377	10201
478.454	9322
478.532	9552
478.609	8288
478.687	10539
478.764	8038
478.842	9902
478.919	9447
478.997	9454
479.074	8420
479.152	10013
479.229	11335
479.307	10596
479.384	8475
479.461	8671
479.539	8465
479.616	10557
479.694	9249
479.771	10431
479.848	9931
479.926	11049
480.003	13629
480.080	8663
480.157	8258
480.235	8220
480.312	8345
480.389	9210
480.467	13994
480.544	17115
480.621	11758
480.698	9935
480.775	11360
480.853	10621
480.930	10311
481.007	9665
481.084	10720
481.161	11683
481.238	12179
481.315	9001
481.392	9310
481.470	9955
481.547	10220
481.624	9449
481.701	8532
481.778	9113
481.855	9369
481.932	13740
482.009	19482
482.086	16269
482.163	8384
482.240	9985
482.317	9924
482.393	9680
482.470	9755
482.547	10142
482.624	8530
482.701	8940
482.778	9405
482.855	8787
482.932	7716
483.009	7886
483.085	8839
483.162	9963
483.239	10003
483.316	9170
483.393	8425
483.469	8472
483.546	8702
483.623	10637
483.699	8439
483.776	9313
483.853	9960
483.930	12968
484.006	29439
484.083	49725
484.160	37050
484.236	50257
484.313	41908
484.389	31980
484.466	27765
484.543	25816
484.619	25564
484.696	27502
484.772	27018
484.849	28836
484.925	25877
485.002	25012
485.078	26494
485.155	26252
485.231	23862
485.308	23347
485.384	24449
485.461	28040
485.537	35729
485.614	44752
485.690	25392
485.766	22050
485.843	23438
485.919	24661
485.995	25875
486.072	22647
486.148	22014
486.224	21395
486.301	22246
486.377	23940
486.453	24250
486.530	25201
486.606	31209
486.682	35925
486.758	35922
486.835	39734
486.911	32530
486.987	43276
487.063	43493
487.139	39983
487.215	34856
487.292	26740
487.368	24444
487.444	26204
487.520	26992
487.596	27290
487.672	31923
487.748	51178
487.824	69859
487.900	46715
487.976	27357
488.052	25419
488.128	27549
488.204	24250
488.280	22459
488.356	25298
488.432	39567
488.508	58568
488.584	27949
488.660	20103
488.736	20955
488.812	20556
488.888	23848
488.964	26470
489.039	34751
489.115	47727
489.191	37348
489.267	22003
489.343	20711
489.418	19767
489.494	18867
489.570	17305
489.646	19599
489.722	18797
489.797	19304
489.873	25270
489.949	42682
490.024	43374
490.100	18173
490.176	18566
490.251	19401
490.327	21135
490.403	17141
490.478	16806
490.554	14587
490.629	15690
490.705	15409
490.781	17042
490.856	15832
490.932	17065
491.007	16210
491.083	16984
491.158	16824
491.234	19533
491.309	33508
491.385	38473
491.460	16929
491.536	16788
491.611	16117
491.686	14949
491.762	17627
491.837	23243
491.913	36283
491.988	46857
492.063	56293
492.139	29132
492.214	22160
492.289	15068
492.365	13495
492.440	15264
492.515	14604
492.590	16759
492.666	12892
492.741	15671
492.816	22659
492.891	17410
492.967	14306
493.042	12720
493.117	14072
493.192	15555
493.267	24574
493.342	72501
493.418	109183
493.493	26591
493.568	12218
493.643	12531
493.718	14700
493.793	17064
493.868	18459
493.943	13150
494.018	12341
494.093	11817
494.168	13156
494.243	11901
494.318	10928
494.393	11812
494.468	11356
494.543	10423
494.618	11751
494.693	12142
494.768	10418
494.842	12990
494.917	10352
494.992	11360
495.067	11342
495.142	10340
495.217	11639
495.292	11637
495.366	12119
495.441	13363
495.516	15676
495.591	17811
495.665	39217
495.740	81313
495.815	51428
495.890	16581
495.964	13039
496.039	15901
496.114	14657
496.188	15298
496.263	16697
496.338	12913
496.412	14753
496.487	17332
496.561	15180
496.636	16765
496.710	15238
496.785	14841
496.860	16859
496.934	13916
497.009	13059
497.083	14827
497.158	13277
497.232	16077
497.307	18026
497.381	16368
497.455	16035
497.530	21271
497.604	16562
497.679	15800
497.753	21386
497.827	26136
497.902	18780
497.976	25245
498.050	60071
498.125	218958
498.199	280727
498.273	36881
498.348	18294
498.422	16562
498.496	16956
498.570	17415
498.645	14462
498.719	14059
498.793	17737
498.867	24165
498.941	36357
499.016	96990
499.090	258500
499.164	133410
499.238	17416
499.312	14540
499.386	15555
499.460	16093
499.534	14268
499.609	16962
499.683	23663
499.757	25103
499.831	45378
499.905	166135
499.979	203716
500.053	33764
500.127	28483
500.201	18528
500.275	14588
500.349	14668
500.422	15662
500.496	18954
500.570	32138
500.644	93624
500.718	193961
500.792	66322
500.866	16406
500.940	19713
501.013	18123
501.087	15200
501.161	20624
501.235	27746
501.309	59954
501.382	162390
501.456	181068
501.530	38037
501.603	57755
501.677	33323
501.751	11638
501.825	15783
501.898	25572
501.972	67928
502.046	58964
502.119	13995
502.193	30982
502.266	72889
502.340	51525
502.413	34419
502.487	69044
502.561	43861
502.634	17899
502.708	12497
502.781	10731
502.855	11540
502.928	9850
503.002	10585
503.075	9330
503.149	10594
503.222	10789
503.295	11794
503.369	13493
503.442	17531
503.516	49409
503.589	129497
503.662	102751
503.736	31236
503.809	57216
503.882	60514
503.956	67024
504.029	80054
504.102	33507
504.175	39773
504.249	23594
504.322	17792
504.395	15398
504.468	11302
504.542	10883
504.615	10877
504.688	10112
504.761	8073
504.834	11008
504.907	11679
504.980	13685
505.053	11095
505.127	10009
505.200	15883
505.273	14636
505.346	11646
505.419	8621
505.492	10968
505.565	7992
505.638	8797
505.711	8699
505.784	8766
505.857	7742
505.930	10700
506.003	7763
506.076	10841
506.149	10391
506.221	13028
506.294	13208
506.367	27717
506.440	92051
506.513	70096
506.586	14304
506.659	10384
506.731	8686
506.804	9091
506.877	11753
506.950	10940
507.022	9944
507.095	9407
507.168	13656
507.241	10671
507.313	7227
507.386	8215
507.459	10323
507.531	8504
507.604	7163
507.677	8890
507.749	6563
507.822	12142
507.894	17221
507.967	26089
508.040	17201
508.112	14499
508.185	14551
508.257	12280
508.330	15208
508.402	13864
508.475	13887
508.547	14465
508.620	14175
508.692	18927
508.765	15526
508.837	12232
508.909	12356
508.982	11432
509.054	12376
509.127	11860
509.199	11178
509.271	10878
509.344	10369
509.416	11224
509.488	11029
509.560	12513
509.633	11487
509.705	13659
509.777	13888
509.849	15312
509.922	14577
509.994	14558
510.066	15013
510.138	15720
510.210	27555
510.283	26261
510.355	21639
510.427	18468
510.499	16857
510.571	17077
510.643	15472
510.715	19735
510.787	17116
510.859	16397
510.931	16889
511.003	19157
511.076	19199
511.148	15623
511.219	15437
511.291	21475
511.363	25889
511.435	17080
511.507	14026
511.579	16271
511.651	15449
511.723	14654
511.795	13515
511.867	14197
511.939	15299
512.010	23128
512.082	22694
512.154	13081
512.226	13926
512.298	20073
512.369	27129
512.441	22914
512.513	18384
512.585	15870
512.656	16782
512.728	15425
512.800	15624
512.871	14905
512.943	14630
513.015	13760
513.086	14465
513.158	14089
513.230	14337
513.301	16141
513.373	17004
513.444	13053
513.516	12877
513.588	13494
513.659	13533
513.731	14195
513.802	12612
513.874	19494
513.945	24768
514.016	15837
514.088	12763
514.159	12398
514.231	15914
514.302	22220
514.374	20446
514.445	16926
514.516	27715
514.588	24097
514.659	16904
514.730	24372
514.802	23365
514.873	12907
514.944	15915
515.016	14937
515.087	15208
515.158	18677
515.229	25616
515.301	14239
515.372	14458
515.443	13380
515.514	12603
515.585	11768
515.656	13889
515.728	13211
515.799	11653
515.870	13588
515.941	13002
516.012	13409
516.083	18031
516.154	18298
516.225	19772
516.296	18794
516.367	17088
516.438	16628
516.509	19787
516.580	25639
516.651	61927
516.722	193463
516.793	132455
516.864	31052
516.935	28495
517.006	29443
517.077	34806
517.148	66907
517.219	212061
517.289	413635
517.360	165533
517.431	68712
517.502	21335
517.573	20141
517.643	19711
517.714	21713
517.785	23525
517.856	21342
517.926	24014
517.997	25593
518.068	27509
518.138	34240
518.209	47475
518.280	149307
518.350	530508
518.421	315430
518.492	46132
518.562	26403
518.633	25022
518.703	23391
518.774	31772
518.845	49820
518.915	54270
518.986	30596
519.056	24190
519.127	29031
519.197	42697
519.268	104195
519.338	95114
519.408	23880
519.479	22275
519.549	18371
519.620	16255
519.690	14611
519.760	14458
519.831	13755
519.901	14502
519.971	13652
520.042	14949
520.112	14988
520.182	16674
520.253	17168
520.323	15427
520.393	18171
520.463	30553
520.534	19545
520.604	38964
520.674	23748
520.744	18463
520.814	36726
520.885	41221
520.955	39022
521.025	127622
521.095	77768
521.165	17449
521.235	14137
521.305	13123
521.375	13167
521.445	13699
521.515	13687
521.585	16256
521.655	14401
521.725	14378
521.795	15132
521.865	11247
521.935	18812
522.005	17129
522.075	12891
522.145	12899
522.215	12590
522.285	17568
522.355	21129
522.424	36721
522.494	35384
522.564	19472
522.634	23090
522.704	49637
522.774	30628
522.843	11965
522.913	11543
522.983	12452
523.053	11299
523.122	11829
523.192	12815
523.262	25269
523.331	29567
523.401	14320
523.471	9633
523.540	10745
523.610	9957
523.680	9673
523.749	11452
523.819	12665
523.888	13101
523.958	10291
524.027	12001
524.097	12647
524.166	11636
524.236	10799
524.305	13057
524.375	9907
524.444	9037
524.514	12454
524.583	10987
524.653	13878
524.722	16244
524.791	11060
524.861	11735
524.930	9875
524.999	10001
525.069	13460
525.138	12124
525.207	13570
525.277	12526
525.346	10104
525.415	10807
525.484	10827
525.554	11501
525.623	11674
525.692	12560
525.761	12228
525.830	13315
525.900	12517
525.969	17149
526.038	24183
526.107	35425
526.176	98359
526.245	102137
526.314	39553
526.383	55190
526.452	83715
526.522	113460
526.591	155155
526.660	46280
526.729	24499
526.797	23833
526.867	41442
526.935	156912
527.004	285693
527.073	211328
527.142	29461
527.211	14338
527.280	13419
527.349	12008
527.418	9305
527.487	11280
527.555	8490
527.624	9437
527.693	8652
527.762	10045
527.831	7118
527.899	8878
527.968	9798
528.037	8090
528.106	10029
528.174	13566
528.243	14055
528.312	16185
528.380	19566
528.449	10356
528.518	10298
528.586	7897
528.655	8185
528.723	8556
528.792	8819
528.861	8922
528.929	9143
528.998	8948
529.066	8486
529.135	11591
529.203	10352
529.272	11470
529.340	13341
529.409	14737
529.477	11723
529.545	14029
529.614	17445
529.682	16245
529.751	20783
529.819	21279
529.887	20516
529.956	15952
530.024	15541
530.092	13778
530.161	15075
530.229	16901
530.297	15874
530.365	16226
530.434	15027
530.502	15882
530.570	15078
530.638	12509
530.707	13314
530.775	14519
530.843	13888
530.911	14596
530.979	14353
531.047	15861
531.115	16060
531.183	14415
531.252	13668
531.320	13657
531.388	14237
531.456	15396
531.524	13440
531.592	16963
531.660	17983
531.728	15257
531.796	14712
531.864	15070
531.932	16396
532.000	14711
532.067	16156
532.135	17645
532.203	19334
532.271	20738
532.339	24137
532.407	34991
532.475	29854
532.542	23168
532.610	21980
532.678	23763
532.746	49951
532.814	119534
532.881	48218
532.949	20727
533.017	18195
533.084	18517
533.152	17687
533.220	16418
533.287	16919
533.355	18534
533.423	17171
533.490	18004
533.558	18274
533.625	18420
533.693	19043
533.761	19745
533.828	19648
533.896	18882
533.963	27384
534.031	32972
534.098	35329
534.166	28364
534.233	23191
534.300	24907
534.368	23781
534.435	21957
534.503	22567
534.570	22740
534.637	21256
534.705	21008
534.772	21276
534.840	23872
534.907	54305
534.974	85026
535.041	25278
535.109	19652
535.176	15149
535.243	15340
535.310	15816
535.378	14708
535.445	14627
535.512	14573
535.579	15401
535.646	13677
535.714	15641
535.781	18643
535.848	19539
535.915	21247
535.982	22440
536.049	23762
536.116	23015
536.183	21604
536.250	20078
536.317	19129
536.384	18247
536.451	19449
536.518	18538
536.585	17812
536.652	19379
536.719	20145
536.786	15810
536.853	15476
536.920	18583
536.987	22556
537.053	21251
537.120	55143
537.187	63130
537.254	15275
537.321	13808
537.388	13807
537.454	11505
537.521	11348
537.588	10518
537.654	13707
537.721	14714
537.788	15385
537.855	13021
537.921	12840
537.988	12525
538.055	13058
538.121	11076
538.188	12612
538.254	14044
538.321	18758
538.388	15858
538.454	13115
538.521	12413
538.587	11911
538.654	11622
538.720	11799
538.787	11519
538.853	11962
538.920	13208
538.986	12673
539.053	12559
539.119	12985
539.185	10980
539.252	13602
539.318	14218
539.385	15661
539.451	14210
539.517	15296
539.583	15434
539.650	20788
539.716	49044
539.782	23789
539.849	11748
539.915	12486
539.981	12159
540.047	12602
540.114	12399
540.180	12963
540.246	11076
540.312	13071
540.378	17227
540.444	19695
540.510	20891
540.576	50484
540.643	25651
540.709	10566
540.775	10995
540.841	12636
540.907	14918
540.973	23645
541.039	18465
541.105	15597
541.171	12684
541.237	10928
541.303	12634
541.369	14361
541.435	14194
541.500	17379
541.566	12697
541.632	10687
541.698	10768
541.764	12095
541.830	11384
541.896	10572
541.961	12186
542.027	10566
542.093	10550
542.159	12092
542.224	12339
542.290	16518
542.356	18104
542.421	19913
542.487	15513
542.553	13666
542.618	13943
542.684	12804
542.750	11241
542.815	13762
542.881	17456
542.947	42722
543.012	41894
543.078	12378
543.143	11437
543.209	12571
543.274	10307
543.340	13167
543.405	19949
543.471	33245
543.536	15212
543.602	12103
543.667	10869
543.732	11903
543.798	9910
543.863	12253
543.928	10627
543.994	10585
544.059	11560
544.124	11290
544.190	10677
544.255	11640
544.320	11484
544.386	10616
544.451	14050
544.516	13995
544.581	14541
544.646	28882
544.712	51305
544.777	19653
544.842	16186
544.907	16381
544.972	14621
545.037	14017
545.102	14978
545.168	14948
545.233	15353
545.298	17013
545.363	18296
545.428	18350
545.493	21911
545.558	39096
545.623	25460
545.688	15827
545.753	15514
545.818	15342
545.883	15768
545.947	15478
546.012	15897
546.077	16519
546.142	16186
546.207	15481
546.272	17180
546.337	17597
546.401	17388
546.466	17410
546.531	15381
546.596	17934
546.661	16814
546.725	16926
546.790	15150
546.855	16850
546.919	15224
546.984	17335
547.049	17832
547.113	19421
547.178	19586
547.243	20563
547.307	22253
547.372	24593
547.436	26837
547.501	23058
547.565	22848
547.630	23521
547.695	23281
547.759	26544
547.823	25553
547.888	22501
547.952	22248
548.017	23859
548.081	25530
548.146	29708
548.210	28978
548.274	23731
548.339	23528
548.403	22894
548.468	21722
548.532	20552
548.596	22779
548.660	22182
548.725	23122
548.789	24654
548.853	28784
548.917	24742
548.982	27627
549.046	29875
549.110	21221
549.174	20877
549.238	22290
549.303	23065
549.367	24538
549.431	23299
549.495	22659
549.559	21479
549.623	23671
549.687	27140
549.751	30268
549.815	29715
549.879	30141
549.943	27503
550.007	29439
550.071	30571
550.135	30408
550.199	28134
550.263	26750
550.327	27511
550.391	31385
550.455	29664
550.519	28341
550.582	31577
550.646	33413
550.710	37417
550.774	33153
550.838	32582
550.901	34002
550.965	36064
551.029	36836
551.093	40984
551.156	46647
551.220	65203
551.284	75701
551.347	48474
551.411	64520
551.475	79483
551.538	38271
551.602	33188
551.666	30825
551.729	28806
551.793	29311
551.856	29817
551.920	30744
551.983	29655
552.047	28447
552.110	28843
552.174	27512
552.237	28618
552.301	27095
552.364	26694
552.428	26176
552.491	27251
552.554	27525
552.618	27340
552.681	28235
552.745	28460
552.808	33435
552.871	40277
552.934	34749
552.998	29439
553.061	30570
553.124	29176
553.187	28849
553.251	30711
553.314	33306
553.377	34931
553.440	49014
553.503	118008
553.567	244993
553.630	69234
553.693	31370
553.756	29323
553.819	27284
553.882	26581
553.945	26707
554.008	26129
554.071	26486
554.134	26906
554.197	25325
554.260	24351
554.323	26297
554.386	26439
554.449	26061
554.512	27100
554.575	24288
554.638	25888
554.701	24736
554.764	24773
554.827	24963
554.889	23679
554.952	23030
555.015	22093
555.078	21406
555.141	23227
555.203	21802
555.266	22972
555.329	23040
555.391	23124
555.454	20863
555.517	21768
555.580	21634
555.642	20954
555.705	20473
555.768	21099
555.830	20224
555.893	19500
555.955	20155
556.018	19962
556.080	19420
556.143	19312
556.206	17695
556.268	18984
556.330	20433
556.393	20359
556.455	19887
556.518	23180
556.580	24631
556.643	19067
556.705	17451
556.767	16629
556.830	18791
556.892	18239
556.955	20056
557.017	19784
557.079	17021
557.142	17222
557.204	16908
557.266	23338
557.328	23130
557.391	16573
557.453	15882
557.515	16430
557.577	17835
557.639	18571
557.701	16639
557.764	15655
557.826	16543
557.888	18376
557.950	17740
558.012	18019
558.074	22013
558.136	38791
558.198	95906
558.260	51613
558.322	21321
558.384	20688
558.446	22636
558.508	23553
558.570	27048
558.632	35470
558.694	49130
558.756	63688
558.818	159182
558.880	467957
558.942	207996
559.003	104284
559.065	67145
559.127	27057
559.189	25322
559.251	28510
559.312	37749
559.374	78289
559.436	266147
559.498	192172
559.559	33935
559.621	25297
559.683	28954
559.744	45105
559.806	117955
559.868	223091
559.929	62066
559.991	29241
560.052	36493
560.114	88921
560.176	77770
560.237	51004
560.299	95074
560.360	34181
560.422	18166
560.483	16592
560.545	16286
560.606	15764
560.667	15180
560.729	14220
560.790	14649
560.852	14940
560.913	14914
560.974	14257
561.036	13872
561.097	14641
561.158	14372
561.220	15510
561.281	13259
561.342	13947
561.403	15640
561.465	16676
561.526	25073
561.587	32164
561.648	16719
561.709	14600
561.771	14326
561.832	13847
561.893	13375
561.954	13841
562.015	13288
562.076	14181
562.137	13689
562.198	13323
562.259	14956
562.320	13373
562.381	13514
562.442	16622
562.503	15825
562.564	14233
562.625	12980
562.686	13156
562.747	13932
562.808	13762
562.869	13454
562.930	17683
562.991	17171
563.051	16516
563.112	14818
563.173	13329
563.234	13157
563.294	14266
563.355	12721
563.416	14029
563.477	13238
563.537	14256
563.598	14607
563.659	14503
563.720	13739
563.780	14733
563.841	13452
563.901	14426
563.962	14226
564.023	14178
564.083	13193
564.144	14185
564.204	13126
564.265	14042
564.325	16067
564.386	25019
564.446	26225
564.507	13907
564.567	13219
564.628	13079
564.688	12320
564.749	13197
564.809	14394
564.869	16552
564.930	14430
564.990	13226
565.050	12897
565.111	13541
565.171	12393
565.231	12378
565.292	13015
565.352	12125
565.412	12505
565.472	12960
565.532	12854
565.593	13074
565.653	12744
565.713	12862
565.773	13177
565.833	13333
565.893	15802
565.953	13277
566.013	12579
566.074	13603
566.134	16763
566.194	22917
566.254	24645
566.314	18159
566.374	13385
566.434	13406
566.494	13995
566.554	12966
566.614	13652
566.673	13233
566.733	13343
566.793	14204
566.853	14065
566.913	13226
566.973	13624
567.033	14353
567.092	15143
567.152	14264
567.212	14220
567.272	14343
567.331	14350
567.391	14324
567.451	15196
567.511	18605
567.570	19288
567.630	14575
567.690	13350
567.749	12218
567.809	12452
567.868	14104
567.928	13764
567.988	14015
568.047	14479
568.107	13491
568.166	15222
568.226	15420
568.285	16318
568.345	17039
568.404	17397
568.464	17521
568.523	16547
568.582	16465
568.642	16916
568.701	18637
568.761	19151
568.820	20890
568.879	23346
568.939	25018
568.998	20661
569.057	18307
569.116	17481
569.176	16079
569.235	14868
569.294	13770
569.353	13683
569.413	13158
569.472	13863
569.531	12824
569.590	12005
569.649	12550
569.708	12803
569.767	13476
569.827	13680
569.886	13937
569.945	12223
570.004	13439
570.063	11112
570.122	12579
570.181	12779
570.240	13596
570.299	14039
570.358	14468
570.417	12329
570.475	11545
570.534	12127
570.593	12436
570.652	11318
570.711	12589
570.770	12003
570.829	13644
570.887	11533
570.946	12098
571.005	10747
571.064	11276
571.122	11382
571.181	12427
571.240	12495
571.299	11828
571.357	11545
571.416	12695
571.475	12384
571.533	13789
571.592	12010
571.650	11066
571.709	10373
571.768	11213
571.826	11267
571.885	11084
571.943	10759
572.002	9733
572.060	11161
572.119	10655
572.177	9954
572.236	10672
572.294	8769
572.352	9940
572.411	9090
572.469	9711
572.528	10217
572.586	10381
572.644	11468
572.703	15001
572.761	11770
572.819	10631
572.877	9667
572.936	9351
572.994	9522
573.052	9652
573.110	9523
573.169	10246
573.227	9652
573.285	9331
573.343	9177
573.401	9545
573.459	9107
573.517	9570
573.576	10642
573.634	9595
573.692	10622
573.750	9873
573.808	9761
573.866	10512
573.924	11985
573.982	12701
574.040	10661
574.098	9932
574.155	9314
574.213	9742
574.271	8603
574.329	10456
574.387	8868
574.445	9367
574.503	8766
574.560	8499
574.618	8403
574.676	8772
574.734	8596
574.792	8742
574.849	9151
574.907	8207
574.965	7322
575.022	7746
575.080	9020
575.138	8789
575.195	9308
575.253	8269
575.311	8563
575.368	8458
575.426	7651
575.483	10216
575.541	8617
575.598	8431
575.656	8142
575.713	8809
575.771	7968
575.828	8788
575.886	8106
575.943	9181
576.001	9321
576.058	8812
576.115	9227
576.173	11570
576.230	11662
576.287	11566
576.345	10795
576.402	9700
576.459	10048
576.517	9804
576.574	10668
576.631	10719
576.688	9256
576.746	9556
576.803	8567
576.860	8517
576.917	9662
576.974	9161
577.031	9507
577.089	9247
577.146	10461
577.203	9768
577.260	9401
577.317	10557
577.374	10880
577.431	10948
577.488	9782
577.545	10472
577.602	9183
577.659	11383
577.716	11496
577.773	12684
577.830	12328
577.886	11810
577.943	10590
578.000	11829
578.057	12410
578.114	15342
578.171	18406
578.227	24271
578.284	28208
578.341	27202
578.398	23288
578.454	18986
578.511	17890
578.568	17089
578.625	13682
578.681	12894
578.738	11579
578.794	11925
578.851	11273
578.908	9764
578.964	9786
579.021	10784
579.077	8723
579.134	10583
579.190	9040
579.247	9648
579.303	9002
579.360	9229
579.416	9555
579.473	8638
579.529	9906
579.586	10141
579.642	10167
579.698	11599
579.755	11674
579.811	11754
579.867	13156
579.924	13735
579.980	15112
580.036	19326
580.093	24509
580.149	35670
580.205	46097
580.261	43434
580.317	35391
580.374	28876
580.430	23896
580.486	20660
580.542	17857
580.598	16412
580.619	16138
580.654	15673
580.692	13998
580.710	13186
580.765	13309
580.767	13322
580.823	12317
580.838	12158
580.879	11765
580.911	11441
580.935	11212
580.984	11714
580.991	11798
581.047	13916
581.057	13873
581.103	13732
581.130	14753
581.159	15833
581.203	16873
581.215	17141
581.270	18800
581.276	18662
581.326	17447
581.349	16739
581.382	15701
581.422	14621
581.438	14177
581.494	14148
581.494	14128
581.550	12580
581.567	12675
581.606	12852
581.640	12813
581.661	12796
581.713	12412
581.717	12386
581.773	11424
581.786	11438
581.829	11531
581.859	11567
581.885	11568
581.932	10816
581.940	10690
581.996	11631
582.004	11573
582.052	11288
582.077	10733
582.107	10065
582.150	11184
582.163	11528
582.219	11194
582.223	11211
582.274	11432
582.296	11432
582.330	11406
582.368	11588
582.386	11703
582.441	11617
582.441	11617
582.497	12122
582.514	12495
582.552	13464
582.587	14152
582.608	14461
582.659	13663
582.663	13593
582.719	13057
582.732	12858
582.774	12388
582.805	13026
582.830	13624
582.877	14101
582.885	14166
582.941	15258
582.950	15265
582.996	15404
583.023	16831
583.052	18586
583.095	20664
583.107	21342
583.162	24372
583.168	24927
583.218	29308
583.240	28541
583.273	26849
583.313	24918
583.328	24161
583.384	22090
583.385	22007
583.439	19699
583.458	18967
583.494	17710
583.531	16742
583.549	16244
583.603	15239
583.605	15219
583.660	14601
583.676	14498
583.715	14048
583.748	14058
583.770	14255
583.820	14735
583.825	14722
583.881	13744
583.893	13294
583.936	12273
583.965	12846
583.991	13172
584.038	12872
584.046	12853
584.101	13677
584.110	13573
584.156	13115
584.183	13045
584.211	12746
584.255	12459
584.266	12517
584.321	13274
584.328	13355
584.376	13618
584.400	13420
584.431	13420
584.472	13358
584.486	13205
584.541	13713
584.545	13675
584.596	13358
584.617	13472
584.651	14106
584.689	14883
584.706	14949
584.761	14628
584.762	14624
584.816	15334
584.834	15435
584.871	15554
584.906	15620
584.926	15647
584.978	15877
584.980	15909
585.035	16171
585.051	16444
585.090	16934
585.123	16902
585.145	17020
585.195	17533
585.200	17660
585.254	19015
585.267	19612
585.309	22455
585.340	24655
585.364	25357
585.412	24139
585.419	23969
585.473	24510
585.484	24698
585.528	28042
585.556	31838
585.583	39346
585.628	53960
585.637	61063
585.692	113807
585.700	124605
585.747	169264
585.772	164327
585.801	119559
585.845	52631
585.856	44645
585.910	26805
585.917	25049
585.965	22155
585.989	21044
586.019	20537
586.061	19947
586.074	19862
586.128	19496
586.133	19485
586.183	20113
586.205	20519
586.237	20862
586.277	20214
586.292	19919
586.346	19391
586.349	19366
586.401	19771
586.421	19735
586.455	20106
586.493	21064
586.509	22876
586.564	29318
586.565	29515
586.618	43545
586.637	45910
586.672	37955
586.709	26969
586.727	24113
586.781	20852
586.781	20878
586.835	20003
586.853	19723
586.889	19499
586.925	19073
586.944	19064
586.996	19426
586.998	19468
587.052	19924
587.068	19934
587.106	20057
587.140	20270
587.161	20254
587.212	19713
587.215	19772
587.269	21042
587.284	21202
587.323	21052
587.356	21097
587.377	21271
587.427	22058
587.431	22185
587.485	22079
587.499	22302
587.539	23068
587.571	23647
587.593	24218
587.643	25297
587.648	25412
587.702	25499
587.715	25842
587.755	27936
587.786	28773
587.810	28561
587.858	28052
587.864	28329
587.917	30942
587.930	31453
587.971	33796
588.001	35800
588.025	36600
588.073	37320
588.079	37750
588.133	41067
588.145	41855
588.187	44769
588.217	47009
588.241	49999
588.288	55084
588.295	55966
588.348	63067
588.360	64558
588.402	71860
588.431	76725
588.456	82181
588.503	92995
588.510	94960
588.564	110148
588.575	113487
588.617	131138
588.646	144171
588.671	160981
588.718	196038
588.725	206060
588.778	290070
588.789	309816
588.832	486960
588.861	618852
588.886	845240
588.932	1299097
588.939	1335978
588.993	1537975
589.004	1554578
589.047	1065235
589.075	717030
589.100	550700
589.147	282484
589.154	271020
589.207	202168
589.218	189365
589.261	180508
589.290	177028
589.314	186466
589.361	208877
589.368	219331
589.421	310559
589.433	332261
589.475	576628
589.504	762034
589.528	974289
589.576	1380811
589.582	1344474
589.635	883317
589.647	775330
589.689	430498
589.718	210629
589.742	171381
589.790	106384
589.795	104071
589.849	84585
589.861	80511
589.902	77044
589.932	73922
589.955	66394
590.004	49251
590.009	48722
590.062	43587
590.075	42249
590.115	40268
590.146	38662
590.168	37999
590.218	36484
590.222	36453
590.275	34839
590.289	34315
590.328	34350
590.360	34366
590.381	33556
590.431	31257
590.435	31330
590.488	31265
590.503	31209
590.541	30532
590.574	29771
590.594	29929
590.645	30353
590.647	30414
590.700	29503
590.716	29228
590.753	28947
590.787	28572
590.806	28551
590.859	28267
590.859	28346
590.912	28491
590.930	28496
590.965	28677
591.001	28680
591.018	28610
591.071	28201
591.072	28118
591.124	27493
591.143	27203
591.177	27630
591.214	27973
591.230	28413
591.283	29677
591.285	29635
591.336	30067
591.356	30135
591.389	29602
591.427	28637
591.442	28412
591.495	27459
591.498	27301
591.547	27172
591.569	27032
591.600	27063
591.640	26850
591.653	26981
591.706	27325
591.711	27279
591.759	28791
591.782	29464
591.811	30947
591.853	32861
591.864	32495
591.917	30020
591.924	29571
591.969	29009
591.995	28640
592.022	29099
592.066	29567
592.075	30121
592.127	32970
592.137	33418
592.180	36083
592.208	37607
592.233	35397
592.279	30761
592.285	30684
592.338	29396
592.350	29018
592.390	29241
592.421	29255
592.443	29394
592.491	29416
592.495	29445
592.548	28633
592.562	28324
592.600	28781
592.633	29020
592.653	29049
592.704	28738
592.705	28910
592.775	29234
592.846	29108
592.916	29617
592.987	29371
593.058	30341
593.128	28601
593.199	27798
593.270	27615
593.341	27937
593.411	28142
593.482	27837
593.553	28371
593.623	28927
593.694	29045
593.764	31638
593.835	29655
593.906	28336
593.976	28488
594.047	30503
594.117	34171
594.188	35303
594.258	29803
594.329	28669
594.399	29346
594.470	30072
594.540	29749
594.611	30446
594.681	29814
594.751	30578
594.822	32228
594.892	33349
594.963	34232
595.033	33373
595.103	34510
595.174	36354
595.244	45518
595.314	55784
595.384	36428
595.455	34344
595.525	35346
595.595	35955
595.665	36413
595.736	36268
595.806	35366
595.876	35811
595.946	35109
596.016	34916
596.087	35574
596.157	36297
596.227	36844
596.297	39042
596.367	39858
596.437	43492
596.507	49910
596.577	58750
596.647	42979
596.717	39697
596.787	42069
596.857	41533
596.927	41580
596.997	41571
597.067	44822
597.137	48150
597.207	46635
597.277	43265
597.347	42927
597.417	42345
597.487	42601
597.557	44173
597.626	43769
597.696	44885
597.766	50632
597.836	58867
597.906	45773
597.975	41029
598.045	40538
598.115	41943
598.185	42921
598.254	46968
598.324	49809
598.394	49119
598.464	49031
598.533	48021
598.603	46321
598.672	46133
598.742	46154
598.812	47074
598.881	47765
598.951	47233
599.020	46944
599.090	48769
599.159	49698
599.229	48867
599.299	47783
599.368	48407
599.437	48300
599.507	48206
599.576	49593
599.646	51151
599.715	52966
599.785	48705
599.854	49632
599.924	51715
599.993	50379
600.062	48571
600.132	49942
600.201	50733
600.270	55753
600.340	57080
600.409	55016
600.478	55676
600.547	56022
600.617	55577
600.686	49885
600.755	50504
600.824	50318
600.894	50640
600.963	49821
601.032	48324
601.101	50330
601.170	50740
601.239	49974
601.308	51771
601.378	51297
601.447	53002
601.516	52082
601.585	53392
601.654	55191
601.723	56343
601.792	58228
601.861	60931
601.930	68477
601.999	65274
602.068	62432
602.137	62014
602.206	63127
602.275	62733
602.343	65651
602.412	65624
602.481	63689
602.550	62923
602.619	63652
602.688	65200
602.756	65482
602.825	63784
602.894	66585
602.963	64647
603.032	65787
603.100	65014
603.169	65007
603.238	67180
603.307	64572
603.375	64789
603.444	67016
603.513	63035
603.581	64847
603.650	68152
603.719	59677
603.787	56856
603.856	58965
603.924	60630
603.993	62090
604.061	61289
604.130	64784
604.198	63898
604.267	65561
604.335	65601
604.404	65783
604.472	67536
604.541	68823
604.609	70320
604.678	70694
604.746	71842
604.815	75280
604.883	73109
604.951	70376
605.020	71648
605.088	69000
605.156	65131
605.225	65916
605.293	65912
605.361	65271
605.429	64700
605.498	67474
605.566	67029
605.634	68458
605.702	67671
605.771	68270
605.839	70918
605.907	65889
605.975	67724
606.043	65594
606.111	64620
606.180	70260
606.248	70118
606.316	70782
606.384	67372
606.452	60900
606.520	56017
606.588	51821
606.656	48492
606.724	48528
606.792	46785
606.860	43798
606.928	40789
606.996	39732
607.064	40163
607.132	39112
607.200	42098
607.267	43035
607.335	43345
607.403	43138
607.471	42411
607.539	42606
607.607	41704
607.674	37770
607.742	38975
607.810	40182
607.878	38859
607.946	39426
608.013	40184
608.081	39769
608.149	41237
608.216	40325
608.284	42315
608.352	42720
608.419	43436
608.487	49833
608.555	42786
608.622	41341
608.690	41511
608.757	44678
608.825	45858
608.893	45200
608.960	46589
609.028	48619
609.095	51459
609.163	43341
609.230	38998
609.298	38086
609.365	37494
609.432	39511
609.500	42341
609.567	46488
609.635	51262
609.702	54557
609.769	54383
609.837	49061
609.904	46614
609.971	50514
610.039	62787
610.106	84637
610.173	155167
610.241	351988
610.308	308320
610.375	146665
610.442	62724
610.509	47619
610.577	43658
610.644	42796
610.711	42636
610.778	42217
610.845	44262
610.912	47477
610.980	51928
611.047	63464
611.114	53068
611.181	45508
611.248	42664
611.315	46463
611.382	45790
611.449	46999
611.516	48971
611.583	47453
611.650	49066
611.717	51063
611.784	54586
611.851	60268
611.918	72657
611.984	90931
612.051	135840
612.118	269010
612.185	677284
612.252	470931
612.319	102595
612.386	70157
612.452	61340
612.519	58578
612.586	64268
612.653	58158
612.719	54643
612.786	52787
612.853	48231
612.919	46795
612.986	48211
613.053	45065
613.120	43572
613.186	42042
613.253	44356
613.319	42136
613.386	43057
613.453	44375
613.519	46359
613.586	48189
613.652	55228
613.719	49665
613.785	48582
613.852	46483
613.918	46020
613.985	51079
614.051	66194
614.118	113180
614.184	113302
614.250	49635
614.317	46924
614.383	43124
614.449	44259
614.516	43362
614.582	43584
614.648	43595
614.715	43014
614.781	41790
614.847	43298
614.914	43199
614.980	41386
615.046	41448
615.112	41628
615.179	42272
615.245	43168
615.311	42891
615.377	44988
615.443	46155
615.509	46746
615.575	47420
615.642	47652
615.708	51789
615.774	57319
615.840	67958
615.906	83651
615.972	111012
616.038	172211
616.104	351276
616.170	861615
616.236	815366
616.302	170708
616.368	99379
616.434	74225
616.500	65860
616.565	69882
616.631	85170
616.697	74933
616.763	74947
616.829	104085
616.895	178739
616.961	186488
617.026	87612
617.092	55482
617.158	48925
617.224	47004
617.289	44456
617.355	42435
617.421	41999
617.487	42696
617.552	39769
617.618	39452
617.684	37845
617.749	40009
617.815	37148
617.880	37392
617.946	37140
618.012	37634
618.077	38097
618.143	37478
618.208	37439
618.274	39532
618.339	40112
618.405	34894
618.470	36397
618.536	35796
618.601	37865
618.667	34969
618.732	32952
618.798	33957
618.863	32741
618.928	32861
618.994	35072
619.059	37196
619.124	42401
619.190	37091
619.255	34084
619.320	32870
619.386	33145
619.451	32005
619.516	32115
619.581	32907
619.647	31983
619.712	32994
619.777	31788
619.842	33122
619.907	33361
619.972	31647
620.038	33005
620.103	31307
620.168	31658
620.233	32371
620.298	30420
620.363	31466
620.428	32811
620.493	32530
620.558	32356
620.623	32890
620.688	32900
620.753	33004
620.818	32836
620.883	33490
620.948	33155
621.013	34375
621.078	33488
621.143	33196
621.207	37169
621.272	34658
621.337	35949
621.402	37378
621.467	41963
621.532	43839
621.596	37973
621.661	36841
621.726	34611
621.791	35517
621.855	35460
621.920	35723
621.985	38716
622.049	41522
622.114	40546
622.179	38251
622.243	38924
622.308	38239
622.373	39849
622.437	38950
622.502	37556
622.566	36482
622.631	35530
622.695	38399
622.760	38511
622.824	37172
622.889	38099
622.953	38339
623.018	47125
623.082	47895
623.147	39008
623.211	37627
623.276	37015
623.340	35537
623.404	34383
623.469	35429
623.533	35863
623.597	33622
623.662	34342
623.726	32662
623.790	31150
623.854	31777
623.919	32565
623.983	33334
624.047	32422
624.111	32272
624.176	33133
624.240	34559
624.304	37738
624.368	32941
624.432	32715
624.496	32999
624.560	35049
624.625	37345
624.689	34324
624.753	34264
624.817	33088
624.881	31983
624.945	32608
625.009	30742
625.073	31115
625.137	31746
625.201	36804
625.265	35878
625.329	32305
625.393	33447
625.456	34223
625.520	35474
625.584	36971
625.648	43496
625.712	55536
625.776	103551
625.839	119580
625.903	56918
625.967	33484
626.031	47317
626.095	74235
626.158	37070
626.222	26543
626.286	26388
626.349	24268
626.413	23857
626.477	25606
626.540	23641
626.604	23846
626.668	24444
626.731	23059
626.795	23994
626.858	24795
626.922	22696
626.986	23832
627.049	22750
627.113	23928
627.176	24735
627.240	22094
627.303	22445
627.366	22013
627.430	22994
627.493	22339
627.557	22727
627.620	23290
627.684	23028
627.747	22718
627.810	20707
627.874	21812
627.937	19474
628.000	22229
628.064	22645
628.127	18086
628.190	19485
628.253	19139
628.317	17306
628.380	18776
628.443	18874
628.506	18996
628.569	17764
628.632	17088
628.696	17348
628.759	17348
628.822	16913
628.885	16298
628.948	18199
629.011	17472
629.074	16574
629.137	15925
629.200	15888
629.263	17988
629.326	16513
629.389	16302
629.452	16212
629.515	15984
629.578	16599
629.641	18250
629.704	15717
629.767	17391
629.830	15632
629.892	16516
629.955	15357
630.018	17596
630.081	16161
630.144	18592
630.207	16022
630.269	17616
630.332	17568
630.395	16309
630.458	14751
630.520	13754
630.583	15311
630.646	15052
630.708	14653
630.771	13926
630.834	15503
630.896	14291
630.959	14370
631.021	14698
631.084	15408
631.146	15716
631.209	18347
631.272	14873
631.334	14415
631.397	14416
631.459	13998
631.522	14701
631.584	15199
631.646	15485
631.709	16823
631.771	19069
631.834	16478
631.896	15168
631.958	13579
632.021	15587
632.083	14310
632.145	14579
632.208	13282
632.270	15020
632.332	13279
632.395	12933
632.457	14232
632.519	13048
632.581	14598
632.643	13173
632.706	13552
632.768	12775
632.830	13392
632.892	13692
632.954	13376
633.016	14483
633.078	12483
633.141	13336
633.203	12820
633.265	12529
633.327	12845
633.389	12775
633.451	15215
633.513	16726
633.575	16790
633.637	15268
633.698	14489
633.760	14631
633.822	14069
633.884	13879
633.946	14192
634.008	14597
634.070	16009
634.132	19303
634.193	18962
634.255	16282
634.317	15750
634.379	16715
634.441	14498
634.502	14150
634.564	14032
634.626	13276
634.687	13886
634.749	13337
634.811	12853
634.873	12189
634.934	12762
634.996	12913
635.057	12160
635.119	12203
635.181	12452
635.242	13076
635.304	11042
635.365	14140
635.427	12887
635.488	13489
635.550	12082
635.611	12963
635.673	11368
635.734	15147
635.796	13857
635.857	15726
635.918	14272
635.980	16140
636.041	15605
636.102	16561
636.164	16574
636.225	15475
636.286	15136
636.348	15610
636.409	14298
636.470	12247
636.531	13416
636.593	13000
636.654	14376
636.715	11708
636.776	10936
636.838	10659
636.899	11409
636.960	10382
637.021	10662
637.082	11741
637.143	11997
637.204	9946
637.265	10384
637.326	10695
637.387	11330
637.448	9647
637.509	11081
637.570	10456
637.631	11458
637.692	9338
637.753	8510
637.814	10165
637.875	9923
637.936	10462
637.997	10324
638.058	11024
638.119	10917
638.179	9705
638.240	10430
638.301	10302
638.362	9976
638.423	9754
638.483	11164
638.544	8404
638.605	10480
638.666	8958
638.726	10351
638.787	10421
638.848	9627
638.908	9752
638.969	10316
639.030	10083
639.090	8141
639.151	9813
639.211	10572
639.272	12438
639.332	16968
639.393	11871
639.453	9328
639.514	10389
639.574	10081
639.635	9353
639.695	9788
639.756	8980
639.816	10205
639.877	10708
639.937	15593
639.997	17998
640.058	10332
640.118	8501
640.178	9668
640.239	8831
640.299	9078
640.359	8196
640.420	9152
640.480	9603
640.540	9946
640.600	10267
640.661	11142
640.721	9269
640.781	12523
640.841	11005
640.901	10397
640.961	9273
641.021	9986
641.082	10069
641.142	13171
641.202	10612
641.262	8292
641.322	9933
641.382	7937
641.442	8852
641.502	8341
641.562	10265
641.622	8524
641.682	9486
641.742	9340
641.802	9017
641.861	10279
641.921	9469
641.981	10688
642.041	10629
642.101	10965
642.161	9721
642.221	9095
642.280	8268
642.340	7798
642.400	6902
642.460	8863
642.519	8312
642.579	8512
642.639	9616
642.698	7414
642.758	10194
642.818	8835
642.877	8144
642.937	8669
642.997	9683
643.056	12494
643.116	8889
643.175	9542
643.235	8019
643.294	10450
643.354	10800
643.414	12735
643.473	15357
643.532	19787
643.592	27119
643.651	43112
643.711	67053
643.770	115814
643.830	249046
643.889	598535
643.948	187483
644.008	30595
644.067	17608
644.126	13862
644.186	12388
644.245	11680
644.304	8914
644.363	11993
644.423	8642
644.482	10086
644.541	10853
644.600	9804
644.659	13602
644.719	14261
644.778	20297
644.837	28212
644.896	51382
644.955	120026
645.014	56872
645.073	17044
645.132	10914
645.191	11351
645.250	9375
645.309	11266
645.368	10855
645.427	12248
645.486	15889
645.545	26905
645.604	12964
645.663	10232
645.722	9844
645.781	11375
645.840	14400
645.898	18617
645.957	27054
646.016	36387
646.075	59443
646.134	102525
646.192	243671
646.251	436006
646.310	86152
646.369	20293
646.427	15308
646.486	11264
646.545	11163
646.603	9991
646.662	9892
646.721	9554
646.779	8459
646.838	9109
646.896	11776
646.955	14186
647.014	19317
647.072	28532
647.131	73532
647.189	48684
647.248	10117
647.306	8576
647.365	8582
647.423	6596
647.481	7912
647.540	5908
647.598	6883
647.657	6979
647.715	7162
647.773	6829
647.832	7310
647.890	6368
647.948	7176
648.007	7302
648.065	6666
648.123	7178
648.181	10068
648.240	10696
648.298	10044
648.356	7027
648.414	7864
648.472	6980
648.531	7287
648.589	6915
648.647	6624
648.705	6886
648.763	7490
648.821	8427
648.879	7257
648.937	9690
648.995	11298
649.053	15265
649.111	20297
649.169	29031
649.227	42849
649.285	78397
649.343	215028
649.401	150173
649.459	33654
649.516	24893
649.574	21106
649.632	40636
649.690	54544
649.748	24725
649.806	23626
649.863	42454
649.921	56240
649.979	46928
650.037	11727
650.094	6826
650.152	7943
650.210	6475
650.268	7301
650.325	6737
650.383	7601
650.440	5906
650.498	6766
650.556	6537
650.613	5025
650.671	6173
650.728	6425
650.786	6938
650.843	6529
650.901	4707
650.958	6203
651.016	5732
651.073	6094
651.131	5603
651.188	5111
651.246	6131
651.303	4791
651.360	6589
651.418	5601
651.475	5921
651.532	4639
651.590	6217
651.647	5478
651.704	5728
651.762	6105
651.819	6823
651.876	4947
651.933	5100
651.990	6386
652.048	4840
652.105	4954
652.162	6185
652.219	4231
652.276	5586
652.333	5665
652.390	4535
652.448	6215
652.505	6264
652.562	6642
652.619	8633
652.676	11804
652.733	15485
652.790	6608
652.847	4295
652.904	5337
652.961	5100
653.017	4954
653.074	5420
653.131	5761
653.188	3898
653.245	4647
653.302	5130
653.359	4994
653.415	6534
653.472	5979
653.529	6381
653.586	4708
653.642	4345
653.699	5769
653.756	3842
653.813	5065
653.869	5151
653.926	4492
653.983	5358
654.039	5063
654.096	4432
654.152	6106
654.209	3687
654.266	5735
654.322	5288
654.379	5967
654.435	6933
654.492	6357
654.548	6934
654.605	11132
654.661	7438
654.717	5257
654.774	5796
654.830	5596
654.887	5441
654.943	5806
655.000	6175
655.056	6576
655.112	6555
655.168	5144
655.225	5920
655.281	7296
655.337	7989
655.394	10874
655.450	10147
655.506	7799
655.562	11777
655.618	13140
655.675	5225
655.731	5465
655.787	4916
655.843	6181
655.899	4558
655.955	5883
656.011	5669
656.067	4900
656.123	5669
656.179	6672
656.235	6730
656.291	5271
656.347	6934
656.403	5837
656.459	5915
656.515	6621
656.571	6944
656.627	6084
656.683	5304
656.739	5600
656.795	5754
656.850	5611
656.906	6815
656.962	6296
657.018	5093
657.074	5534
657.129	6124
657.185	6297
657.241	9333
657.297	8824
657.352	5995
657.408	4213
657.464	7031
657.519	5290
657.575	4587
657.630	5187
657.686	5455
657.742	4717
657.797	5236
657.853	4295
657.908	7288
657.964	4712
658.019	5079
658.075	5901
658.130	5776
658.186	3566
658.241	4767
658.297	4343
658.352	4485
658.407	5020
658.463	3794
658.518	5468
658.573	5671
658.629	4268
658.684	4328
658.739	4475
658.795	4863
658.850	4290
658.905	4096
658.960	5154
659.016	4340
659.071	4236
659.126	5454
659.181	5342
659.236	7641
659.291	8525
659.346	6207
659.401	7295
659.457	8543
659.512	12023
659.567	8866
659.622	5683
659.677	4210
659.732	4649
659.787	5154
659.842	5668
659.897	7623
659.952	5654
660.007	5114
660.061	4920
660.116	4678
660.171	4569
660.226	4489
660.281	5192
660.336	4115
660.391	5360
660.445	4616
660.500	5161
660.555	5382
660.610	4722
660.664	4685
660.719	4446
660.774	5752
660.828	4876
660.883	4670
660.938	4849
660.992	4402
661.047	5060
661.101	4953
661.156	4740
661.211	4401
661.265	5759
661.320	4715
661.374	4813
661.429	4786
661.483	5566
661.538	4675
661.592	4851
661.647	5549
661.701	5756
661.755	5195
661.810	4452
661.864	4333
661.919	4612
661.973	5857
662.027	5005
662.081	4857
662.136	4393
662.190	5399
662.244	5708
662.299	5135
662.353	5478
662.407	4362
662.461	4590
662.515	5846
662.569	5058
662.624	6018
662.678	5105
662.732	5249
662.786	4237
662.840	5726
662.894	5083
662.948	4407
663.002	4493
663.056	5294
663.110	4369
663.164	4620
663.218	5332
663.272	5212
663.326	5168
663.380	5121
663.434	5125
663.488	4561
663.542	4605
663.595	5045
663.649	5505
663.703	5617
663.757	4814
663.811	5325
663.864	5043
663.918	5654
663.972	4743
664.026	5084
664.079	4688
664.133	4875
664.187	5483
664.240	5166
664.294	4370
664.348	5070
664.401	4982
664.455	4776
664.508	5194
664.562	5308
664.615	5319
664.669	4892
664.722	4836
664.776	5173
664.829	5106
664.883	4517
664.936	5133
664.990	5615
665.043	5880
665.097	5419
665.150	6556
665.203	6022
665.257	6018
665.310	5041
665.363	5573
665.417	5547
665.470	6139
665.523	4554
665.576	5762
665.630	5193
665.683	5002
665.736	5633
665.789	5521
665.842	5047
665.895	4922
665.949	5409
666.002	5366
666.055	5782
666.108	5418
666.161	6474
666.214	5563
666.267	5813
666.320	6669
666.373	5857
666.426	6003
666.479	5498
666.532	5899
666.585	6388
666.638	6968
666.691	7114
666.744	6905
666.796	6465
666.849	6218
666.902	6662
666.955	5440
667.008	5174
667.060	5345
667.113	4141
667.166	5713
667.219	5585
667.271	5541
667.324	6097
667.377	6025
667.430	5826
667.482	6929
667.535	7749
667.587	6796
667.640	6822
667.693	6044
667.745	7978
667.798	8732
667.850	6430
667.903	5425
667.955	5828
668.008	6174
668.060	6000
668.113	6341
668.165	7231
668.218	6225
668.270	5888
668.322	6579
668.375	6095
668.427	6274
668.479	5595
668.532	5464
668.584	6366
668.636	5378
668.689	5853
668.741	6016
668.793	6732
668.845	6143
668.898	6709
668.950	6390
669.002	6333
669.054	6365
669.106	6083
669.158	7358
669.211	6472
669.263	7419
669.315	8436
669.367	10183
669.419	8488
669.471	9034
669.523	9835
669.575	11856
669.627	10213
669.679	8419
669.731	7781
669.783	8565
669.835	9580
669.886	9116
669.938	9143
669.990	8856
670.042	8644
670.094	9418
670.146	10817
670.197	12538
670.249	15892
670.301	20113
670.353	27970
670.404	38864
670.456	56115
670.508	78843
670.560	115422
670.611	169896
670.663	271759
670.715	555184
670.766	937486
670.818	457498
670.869	111292
670.921	46764
670.972	30654
671.024	21393
671.075	16713
671.127	14442
671.178	12317
671.230	11923
671.281	10320
671.333	10334
671.384	11007
671.436	11194
671.487	12201
671.538	12552
671.590	13601
671.641	16275
671.692	23641
671.744	35433
671.795	34193
671.846	20056
671.897	12375
671.949	9837
672.000	9183
672.051	7798
672.102	8143
672.153	7327
672.204	6902
672.256	6624
672.307	6525
672.358	7280
672.409	5877
672.460	7127
672.511	6843
672.562	5688
672.613	6008
672.664	5853
672.715	6578
672.766	6656
672.817	5548
672.868	6314
672.919	5935
672.970	6831
673.021	6263
673.071	5510
673.122	5756
673.173	5679
673.224	5825
673.275	5880
673.326	6661
673.376	5711
673.427	6107
673.478	5980
673.528	5990
673.579	5488
673.630	6150
673.680	5855
673.731	5410
673.782	5200
673.832	5565
673.883	5728
673.934	5730
673.984	5114
674.035	5768
674.085	5931
674.136	6380
674.186	6721
674.237	6508
674.287	9322
674.338	8768
674.388	5694
674.438	5093
674.489	5600
674.539	5724
674.589	5333
674.640	5758
674.690	5403
674.740	5747
674.791	6755
674.841	5919
674.891	6170
674.942	6457
674.992	5698
675.042	5843
675.092	5003
675.142	5543
675.193	4855
675.243	5611
675.293	5111
675.343	5714
675.393	5366
675.443	6144
675.493	5554
675.543	4538
675.593	5682
675.643	6143
675.693	4620
675.743	5461
675.793	5101
675.843	4683
675.893	6013
675.943	5769
675.993	4719
676.043	5715
676.093	5425
676.142	4730
676.192	5484
676.242	4784
676.292	4068
676.341	5539
676.391	5472
676.441	4728
676.491	4789
676.540	4516
676.590	5688
676.640	4937
676.689	5026
676.739	4444
676.789	4788
676.838	4072
676.888	5282
676.937	4490
676.987	4484
677.037	4305
677.086	4014
677.136	4925
677.185	5220
677.235	4366
677.284	4829
677.333	4252
677.383	4390
677.432	4718
677.482	4700
677.531	4545
677.580	4578
677.630	4023
677.679	3900
677.728	4507
677.778	4532
677.827	4237
677.876	4633
677.925	3051
677.975	4820
678.024	4737
678.073	4684
678.122	4438
678.171	4356
678.220	4726
678.269	5529
678.319	5915
678.368	4966
678.417	4821
678.466	5672
678.515	5062
678.564	5310
678.613	4570
678.662	4434
678.711	5738
678.760	4523
678.809	4596
678.857	4931
678.906	4406
678.955	5036
679.004	5342
679.053	4917
679.102	4799
679.151	4537
679.199	4805
679.248	4483
679.297	4385
679.346	5241
679.394	4236
679.443	5064
679.492	4647
679.540	4923
679.589	4965
679.638	4865
679.686	3869
679.735	5290
679.784	4495
679.832	4761
679.881	3917
679.929	3809
679.978	4196
680.026	4226
680.075	4750
680.123	4609
680.172	4408
680.220	3345
680.268	3963
680.317	4086
680.365	4007
680.414	3482
680.462	4104
680.510	4255
680.559	3697
680.607	3939
680.655	4158
680.703	4892
680.752	4169
680.800	4711
680.848	4013
680.896	3600
680.945	3100
680.993	3758
681.041	3844
681.089	4171
681.137	4434
681.185	3105
681.233	3443
681.258	3568
681.281	3682
681.329	4062
681.377	4032
681.380	4023
681.425	3804
681.473	4687
681.502	4370
681.521	4144
681.569	4470
681.617	3721
681.624	3778
681.665	4118
681.713	4258
681.745	4208
681.761	4175
681.809	3454
681.857	4501
681.867	4216
681.904	3204
681.952	4251
681.989	4281
682.000	4292
682.048	4416
682.096	4256
682.111	4062
682.143	3598
682.191	4075
682.233	4763
682.239	4868
682.286	3631
682.334	4083
682.354	4110
682.382	4124
682.430	4060
682.476	4280
682.477	4282
682.525	3405
682.572	3386
682.598	3665
682.620	3888
682.667	3520
682.715	3882
682.720	3897
682.763	4003
682.810	3789
682.841	3996
682.857	4102
682.905	3333
682.952	3550
682.963	3571
683.000	3570
683.047	4045
683.085	4715
683.095	4904
683.142	3429
683.190	3313
683.206	3352
683.237	3439
683.284	3929
683.328	3647
683.332	3615
683.379	3058
683.426	3277
683.449	3594
683.473	3940
683.521	3652
683.568	3770
683.571	3760
683.615	3461
683.662	3950
683.693	3861
683.709	3828
683.757	3576
683.804	3846
683.814	3756
683.851	3473
683.898	4168
683.936	3787
683.945	3676
683.992	3648
684.039	3483
684.057	3613
684.086	3779
684.133	3503
684.179	3739
684.180	3748
684.227	4114
684.274	3906
684.300	4180
684.321	4336
684.368	2969
684.415	3910
684.422	3914
684.462	4047
684.509	4266
684.543	4179
684.556	4115
684.603	3689
684.649	3132
684.665	3270
684.696	3623
684.743	4348
684.786	4196
684.790	4171
684.837	3763
684.883	4471
684.908	4455
684.930	4480
684.977	4870
685.023	3901
685.029	3925
685.070	3937
685.117	4229
685.150	3809
685.164	3703
685.210	4343
685.257	4836
685.272	4642
685.303	4105
685.350	3981
685.393	4163
685.396	4185
685.443	4188
685.490	4672
685.514	4273
685.536	3869
685.583	4649
685.629	4366
685.636	4324
685.675	4052
685.722	4097
685.757	4044
685.768	4035
685.815	4147
685.861	4402
685.878	4620
685.908	5042
685.954	4660
686.000	4401
686.000	4395
686.047	5146
686.093	5881
686.121	5857
686.139	5753
686.185	5266
686.232	4548
686.242	4532
686.278	4499
686.324	4211
686.363	4149
686.370	4161
686.416	4323
686.463	4574
686.484	4552
686.509	4430
686.555	4579
686.601	4608
686.606	4591
686.647	4489
686.693	4157
686.727	4182
686.739	4217
686.785	4086
686.831	4300
686.848	4389
686.877	4452
686.923	3848
686.969	4104
686.969	4106
687.015	4251
687.061	4076
687.090	4201
687.107	4220
687.153	4662
687.199	4245
687.211	4209
687.245	4166
687.291	3777
687.332	4686
687.336	4779
687.382	4553
687.428	4755
687.453	4582
687.474	4349
687.520	4216
687.565	4730
687.574	4615
687.611	4347
687.657	4347
687.695	4564
687.702	4591
687.748	4712
687.794	4788
687.816	5076
687.839	5338
687.885	4912
687.931	4157
687.937	4209
687.976	4462
688.022	3819
688.058	4334
688.067	4493
688.113	4201
688.158	4396
688.179	4455
688.204	4540
688.249	4861
688.295	5011
688.300	5011
688.340	4879
688.386	5461
688.421	4870
688.431	4692
688.477	4233
688.522	4584
688.542	4525
688.567	4638
688.613	4536
688.658	4647
688.663	4700
688.703	4861
688.749	4425
688.784	4564
688.794	4648
688.839	4459
688.884	4609
688.905	4438
688.930	4180
688.975	4739
689.020	4337
689.026	4333
689.065	4306
689.110	4692
689.146	4481
689.155	4439
689.201	4502
689.246	4012
689.267	4298
689.291	4729
689.336	4796
689.381	5108
689.388	5161
689.426	5224
689.471	5011
689.509	5086
689.516	5111
689.561	4654
689.606	4736
689.630	4481
689.651	4214
689.696	4563
689.741	4365
689.750	4410
689.785	4810
689.830	4860
689.871	4606
689.875	4548
689.920	4637
689.965	4497
689.992	4303
690.010	4357
690.054	4744
690.099	4924
690.112	5064
690.144	5220
690.189	5077
690.233	5157
690.233	5162
690.278	5187
690.323	5606
690.354	5384
690.367	5287
690.412	5533
690.457	5925
690.474	6054
690.501	6254
690.546	6030
690.590	6249
690.595	6303
690.635	6944
690.680	7919
690.716	7710
690.724	7860
690.769	10096
690.813	12294
690.836	13317
690.857	15019
690.902	18763
690.946	22842
690.957	24084
690.991	33008
691.035	45721
691.077	60709
691.080	60904
691.124	58975
691.168	50813
691.198	44732
691.213	40397
691.257	29448
691.301	19938
691.318	16487
691.346	14620
691.390	11832
691.434	9737
691.439	9444
691.478	8465
691.522	8252
691.559	7425
691.567	7273
691.611	7475
691.655	6735
691.680	6222
691.699	5953
691.743	5919
691.787	5560
691.800	5557
691.831	5707
691.875	5523
691.919	5467
691.921	5457
691.964	5454
692.008	5512
692.041	5733
692.052	5839
692.096	6087
692.139	6505
692.162	6648
692.183	6585
692.227	6144
692.271	5909
692.282	5855
692.315	5769
692.359	5804
692.402	5275
692.403	5280
692.447	5748
692.490	5740
692.523	5944
692.534	6003
692.578	5841
692.622	5900
692.643	5973
692.666	5980
692.709	5964
692.753	5816
692.763	5743
692.797	5711
692.840	5909
692.884	6147
692.884	6159
692.928	6343
692.971	6969
693.004	7192
693.015	7168
693.059	7106
693.102	6875
693.124	6757
693.146	6813
693.189	7623
693.233	7673
693.245	7808
693.276	8478
693.320	9089
693.363	9867
693.365	9881
693.407	10885
693.450	12135
693.485	13183
693.493	13834
693.537	17630
693.580	21194
693.605	23528
693.624	27665
693.667	37459
693.710	47702
693.725	51359
693.753	66940
693.797	93249
693.840	122519
693.845	125500
693.883	118883
693.926	103759
693.966	89130
693.970	86926
694.013	64537
694.056	43604
694.086	29850
694.099	27993
694.142	22409
694.185	17423
694.206	15069
694.229	14220
694.272	12387
694.315	11180
694.326	10799
694.358	10205
694.401	9438
694.444	8795
694.446	8748
694.487	8461
694.530	8087
694.566	8004
694.573	7997
694.616	7581
694.659	7074
694.686	6951
694.702	6933
694.745	6645
694.787	6454
694.806	6340
694.830	6379
694.873	6612
694.916	6640
694.926	6657
694.959	6462
695.002	6042
695.044	5642
695.046	5620
695.087	5809
695.130	5878
695.166	6135
695.172	6167
695.215	6145
695.258	6054
695.286	6015
695.301	6088
695.343	6400
695.386	6621
695.406	6584
695.428	6354
695.471	6235
695.514	5969
695.526	5896
695.556	6054
695.599	6453
695.641	6471
695.646	6488
695.684	6384
695.726	6187
695.766	5954
695.769	5961
695.811	6005
695.854	5891
695.886	5906
695.896	5931
695.938	5787
695.981	5743
696.005	5790
696.023	5942
696.065	6082
696.108	6453
696.125	6502
696.150	6487
696.192	6526
696.235	6695
696.245	6665
696.277	6487
696.319	6433
696.361	6031
696.365	6023
696.404	6515
696.446	6796
696.485	6937
696.488	6929
696.530	6782
696.572	6686
696.604	6526
696.614	6460
696.656	6082
696.698	5776
696.724	5551
696.740	5593
696.783	5632
696.825	5789
696.844	5830
696.867	5766
696.909	5639
696.951	5409
696.964	5347
696.992	5538
697.034	5828
697.076	6039
697.083	6072
697.118	6237
697.160	6520
697.202	6606
697.203	6595
697.244	6451
697.286	6438
697.323	6242
697.327	6216
697.369	5927
697.411	5544
697.442	5366
697.453	5430
697.494	5561
697.536	5716
697.562	5768
697.578	5740
697.620	5634
697.661	5577
697.682	5510
697.703	5700
697.744	6160
697.786	6595
697.801	6697
697.828	6648
697.869	6609
697.911	6532
697.921	6514
697.952	6527
697.994	6489
698.035	6474
698.040	6454
698.077	6209
698.118	5963
698.160	5714
698.160	5701
698.201	5822
698.243	5978
698.279	6135
698.284	6161
698.325	6257
698.367	6359
698.399	6396
698.408	6385
698.449	6287
698.491	6167
698.518	6112
698.532	6201
698.573	6410
698.614	6611
698.638	6705
698.656	6673
698.697	6575
698.738	6479
698.757	6415
698.779	6477
698.820	6580
698.862	6667
698.877	6689
698.903	6810
698.944	6978
698.985	7139
698.996	7170
699.026	6811
699.067	6289
699.116	5654
699.235	6150
699.354	7091
699.474	6906
699.593	6187
699.713	7257
699.832	6621
699.951	7456
700.070	5996
700.190	7273
700.309	6542
700.428	6898
700.547	6908
700.667	7363
700.786	6821
700.905	6504
701.024	6680
701.143	6336
701.262	5672
701.381	4981
701.500	5687
701.619	6242
701.738	5937
701.857	6416
701.976	6015
702.095	6120
702.214	5490
702.333	6312
702.452	5886
702.571	5687
702.690	5932
702.809	5980
702.928	5665
703.047	6316
703.165	5872
703.284	5821
703.403	5076
703.522	7052
703.640	5560
703.759	8167
703.878	8259
703.997	5891
704.115	4384
704.234	6074
704.353	6131
704.471	6003
704.590	5278
704.708	5709
704.827	5869
704.946	6383
705.064	6283
705.183	6183
705.301	7283
705.420	10256
705.538	8931
705.656	8342
705.775	10019
705.893	22112
706.012	20373
706.130	8704
706.249	8368
706.367	8221
706.485	8426
706.604	8251
706.722	7728
706.840	9525
706.958	10449
707.077	7471
707.195	7227
707.313	7142
707.431	7327
707.549	6195
707.668	6935
707.786	7876
707.904	7087
708.022	6425
708.140	7137
708.258	7411
708.376	7512
708.494	7623
708.612	8264
708.730	10729
708.848	9875
708.966	8786
709.084	8147
709.202	8455
709.320	9238
709.438	9323
709.556	9107
709.674	9821
709.791	9087
709.909	8775
710.027	9361
710.145	8098
710.263	8372
710.380	8271
710.498	7981
710.616	9166
710.733	8662
710.851	9090
710.969	8318
711.086	8548
711.204	7942
711.322	8259
711.439	7843
711.557	8796
711.674	8631
711.792	8074
711.909	9513
712.027	10898
712.144	7773
712.262	8689
712.379	9659
712.497	12612
712.614	12399
712.732	10403
712.849	9796
712.966	10794
713.084	11748
713.201	10872
713.318	10570
713.436	10375
713.553	9821
713.670	11074
713.787	11417
713.905	10683
714.022	10026
714.139	10304
714.256	10519
714.373	13919
714.490	20086
714.608	47555
714.725	182984
714.842	113424
714.959	13562
715.076	10293
715.193	9859
715.310	9596
715.427	9575
715.544	9277
715.661	8484
715.778	9324
715.895	9951
716.011	9607
716.128	8860
716.245	9518
716.362	9127
716.479	9246
716.596	9403
716.713	9511
716.829	8527
716.946	9381
717.063	7725
717.180	7842
717.296	7194
717.413	8980
717.530	7958
717.646	8033
717.763	7992
717.880	8084
717.996	7561
718.113	7866
718.229	8011
718.346	7715
718.462	7849
718.579	9303
718.695	10785
718.812	10323
718.928	10289
719.045	8484
719.161	6576
719.277	7788
719.394	7952
719.510	8586
719.626	7985
719.743	9501
719.859	10242
719.975	17393
720.092	56461
720.208	80001
720.324	12849
720.440	8414
720.557	8653
720.673	12004
720.789	16966
720.905	30408
721.021	10844
721.137	7464
721.253	8171
721.369	7500
721.486	9425
721.602	11365
721.718	7594
721.834	6661
721.950	6523
722.066	6976
722.181	5760
722.297	8097
722.413	6219
722.529	7228
722.645	7081
722.761	7211
722.877	6699
722.993	6441
723.108	7829
723.224	7395
723.340	6273
723.456	7277
723.571	6473
723.687	6098
723.803	7062
723.918	6418
724.034	6792
724.150	6936
724.265	7535
724.381	15242
724.497	12923
724.612	6670
724.728	6052
724.843	6052
724.959	7798
725.074	14502
725.190	13381
725.305	6272
725.421	5864
725.536	5960
725.651	5399
725.767	6254
725.882	6071
725.997	5934
726.113	5339
726.228	5207
726.343	5886
726.459	5655
726.574	5591
726.689	5374
726.804	4744
726.920	5800
727.035	5660
727.150	5477
727.265	5759
727.380	6271
727.495	5417
727.610	5320
727.725	6142
727.841	7986
727.956	18183
728.071	10713
728.186	4980
728.301	4932
728.416	5246
728.531	5841
728.645	4008
728.760	6700
728.875	5367
728.990	5510
729.105	4957
729.220	4554
729.335	5600
729.449	5253
729.564	4971
729.679	4703
729.794	4744
729.908	5437
730.023	5253
730.138	4169
730.253	4726
730.367	4877
730.482	5234
730.596	4403
730.711	4837
730.826	5337
730.940	5752
731.055	5341
731.169	4885
731.284	4688
731.398	4631
731.513	5910
731.627	5386
731.742	6685
731.856	6045
731.970	5410
732.085	6132
732.199	6837
732.313	10674
732.428	23230
732.542	57615
732.656	23131
732.771	7920
732.885	4562
732.999	5240
733.113	5289
733.227	5507
733.342	5375
733.456	4966
733.570	5322
733.684	4707
733.798	4430
733.912	4913
734.026	4065
734.140	5645
734.254	5348
734.368	8428
734.482	9474
734.596	4238
734.710	4596
734.824	4595
734.938	5150
735.052	4571
735.166	5061
735.280	5285
735.393	4299
735.507	5132
735.621	6345
735.735	9620
735.849	5371
735.962	4704
736.076	5215
736.190	4749
736.303	6334
736.417	6956
736.531	5094
736.644	4206
736.758	3633
736.872	4632
736.985	4681
737.099	3917
737.212	4130
737.326	4600
737.439	4144
737.553	4134
737.666	4688
737.780	3312
737.893	3740
738.007	4378
738.120	4518
738.233	4052
738.347	4551
738.460	4476
738.573	4527
738.687	3997
738.800	4404
738.913	4908
739.026	4987
739.140	5305
739.253	4827
739.366	4217
739.479	3889
739.592	4359
739.705	4058
739.818	4250
739.932	4105
740.045	4381
740.158	4776
740.271	4609
740.384	4634
740.497	4699
740.610	4350
740.723	3823
740.836	4923
740.949	4595
741.062	5839
741.174	4769
741.287	4696
741.400	3742
741.513	5144
741.626	5142
741.739	4803
741.851	4215
741.964	3894
742.077	4165
742.189	4129
742.302	4670
742.415	5244
742.527	4038
742.640	3988
742.753	3815
742.865	4445
742.978	4192
743.090	4863
743.203	3924
743.316	4126
743.428	3342
743.541	4510
743.653	3311
743.766	4403
743.878	3810
743.990	4403
744.103	5623
744.215	4927
744.327	3646
744.440	5136
744.552	5903
744.664	3986
744.777	3989
744.889	3519
745.001	3768
745.113	4496
745.226	2576
745.338	4611
745.450	3703
745.562	3754
745.674	3964
745.786	4460
745.898	4258
746.010	4802
746.122	4114
746.234	4101
746.347	4383
746.459	3604
746.570	4111
746.682	4665
746.794	5758
746.906	3943
747.018	3507
747.130	4292
747.242	3952
747.354	3728
747.466	3985
747.577	4227
747.689	4158
747.801	4601
747.913	3446
748.024	3856
748.136	2954
748.248	3395
748.359	4341
748.471	4282
748.583	3691
748.694	5223
748.806	5558
748.918	5320
749.029	3581
749.141	4282
749.252	4829
749.364	4646
749.475	6171
749.587	5688
749.698	4270
749.809	4207
749.921	3942
750.032	3619
750.144	4005
750.255	3990
750.366	3246
750.478	4108
750.589	3866
750.700	3801
750.811	3492
750.923	4912
751.034	6593
751.145	5240
751.256	4115
751.367	3645
751.479	3853
751.590	3784
751.701	3594
751.812	4507
751.923	4082
752.034	4551
752.145	3227
752.256	4068
752.367	3975
752.478	4151
752.589	4401
752.700	4094
752.811	3992
752.922	4379
753.032	4499
753.143	4895
753.254	3303
753.365	4078
753.476	4055
753.586	3986
753.697	3862
753.808	4030
753.919	3352
754.029	4945
754.140	3922
754.251	4920
754.361	3901
754.472	3943
754.582	4187
754.693	4952
754.804	4861
754.914	3242
755.025	4538
755.135	4337
755.246	4232
755.356	3892
755.466	5128
755.577	4981
755.687	4655
755.798	5371
755.908	4155
756.018	4383
756.129	4979
756.239	5737
756.349	4453
756.460	5033
756.570	4361
756.680	4906
756.790	5491
756.900	5667
757.011	4906
757.121	5967
757.231	5129
757.341	6041
757.451	4579
757.561	5856
757.671	5499
757.781	5248
757.891	5510
758.001	6229
758.111	5062
758.221	5735
758.331	6461
758.441	6080
758.551	5873
758.661	6264
758.771	6537
758.880	6766
758.990	6861
759.100	6993
759.210	7061
759.320	7100
759.429	6737
759.539	7466
759.649	6957
759.758	8125
759.868	7955
759.978	7495
760.087	8589
760.197	8857
760.307	8457
760.416	8584
760.526	8109
760.635	10253
760.745	8957
760.854	10138
760.964	9591
761.073	10587
761.182	10164
761.292	10905
761.401	11576
761.511	10554
761.620	10776
761.729	11537
761.839	11901
761.948	12573
762.057	11992
762.166	12910
762.276	12490
762.385	13416
762.494	13779
762.603	13966
762.712	15573
762.822	15729
762.931	16485
763.040	17256
763.149	16794
763.258	19565
763.367	19267
763.476	20266
763.585	20961
763.694	23300
763.803	24364
763.912	26376
764.021	27778
764.130	29481
764.238	31312
764.347	33905
764.456	35836
764.565	39989
764.674	43198
764.783	49050
764.891	52586
765.000	62334
765.109	68446
765.217	81050
765.326	93392
765.435	111691
765.543	137064
765.652	170660
765.761	221174
765.869	294416
765.978	407175
766.086	579125
766.195	808957
766.303	986405
766.412	812827
766.520	970111
766.629	1007239
766.737	683995
766.846	463322
766.954	327359
767.062	241930
767.171	186382
767.279	144610
767.387	118540
767.496	98143
767.604	84260
767.712	73355
767.820	65943
767.928	60349
768.037	56742
768.145	54098
768.253	51634
768.361	50242
768.469	49427
768.577	50956
768.685	55406
768.793	59247
768.901	66218
769.009	77567
769.117	95144
769.225	123884
769.333	173212
769.441	256960
769.549	411948
769.657	665956
769.765	864710
769.873	829650
769.981	885258
770.088	533762
770.196	319784
770.304	213016
770.412	153527
770.519	118182
770.627	93999
770.735	77221
770.842	65685
770.950	56195
771.058	49034
771.165	44171
771.273	38686
771.380	35662
771.488	32393
771.595	28923
771.703	27293
771.810	24683
771.918	23558
772.025	23071
772.133	20896
772.240	19391
772.348	19054
772.455	18461
772.562	16068
772.670	16799
772.777	15979
772.884	14641
772.991	14633
773.099	13881
773.206	13059
773.313	12621
773.420	12317
773.528	11175
773.635	11965
773.742	11577
773.849	11506
773.956	10384
774.063	11915
774.170	9319
774.277	10061
774.384	9675
774.491	8773
774.598	8736
774.705	8841
774.812	9054
774.919	9335
775.026	8372
775.133	8738
775.239	7834
775.346	8426
775.453	7795
775.560	7174
775.667	8085
775.773	7796
775.880	7889
775.987	7680
776.093	7763
776.200	7119
776.307	6252
776.413	6042
776.520	6716
776.627	7155
776.733	6859
776.840	5658
776.946	7118
777.053	7468
777.159	8474
777.266	6311
777.372	8592
777.478	7248
777.585	5746
777.691	5460
777.798	5242
777.904	6864
778.010	7708
778.117	6051
778.223	5130
778.329	4667
778.435	4312
778.542	4852
778.648	4003
778.754	3969
778.860	5080
778.966	4919
779.072	4582
779.178	5498
779.284	5036
779.391	4793
779.497	4823
779.603	9881
779.708	14171
779.815	37508
779.920	133338
780.026	165590
780.132	21885
780.238	7322
780.344	6273
780.450	5823
780.556	4883
780.661	4555
780.767	3558
780.873	4176
780.979	3873
781.085	3459
781.190	4193
781.296	3938
781.402	3180
781.507	3424
781.613	3584
781.719	2325
781.824	3192
781.930	3825
782.035	3687
782.141	3461
782.246	3592
782.352	3001
782.457	3060
782.563	3422
782.668	2916
782.773	3328
782.879	2708
782.984	3948
783.090	3806
783.195	4393
783.300	2775
783.405	3505
783.511	3108
783.616	3435
783.721	3806
783.826	3729
783.932	3773
784.037	3155
784.142	3455
784.247	2183
784.352	3049
784.457	3433
784.562	3338
784.667	2940
784.772	2734
784.877	2606
784.982	3356
785.087	1958
785.192	3153
785.297	2304
785.402	2187
785.507	2803
785.611	2488
785.716	2533
785.821	1960
785.926	2802
786.031	2326
786.135	2575
786.240	1765
786.345	1653
786.450	3135
786.554	2250
786.659	2121
786.763	1618
786.868	3116
786.973	2915
787.077	2248
787.182	2194
787.286	2749
787.391	2332
787.495	1026
787.600	2044
787.704	1542
787.809	2394
787.913	1775
788.017	2266
788.122	2142
788.226	1818
788.330	1174
788.435	1879
788.539	2212
788.643	1541
788.747	1673
788.852	1631
788.956	1971
789.060	2033
789.164	2351
789.268	1802
789.372	1933
789.476	1636
789.580	1693
789.684	1376
789.788	1495
789.892	957
789.996	1857
790.100	1406
790.204	2170
790.308	2000
790.412	1625
790.516	2289
790.620	1633
790.724	1395
790.828	1567
790.931	1215
791.035	2919
791.139	2785
791.242	913
791.346	2322
791.450	1089
791.554	1215
791.657	895
791.761	2055
791.864	1958
791.968	2295
792.072	2002
792.175	1558
792.279	932
792.382	2039
792.486	1846
792.589	2055
792.693	1212
792.796	173
792.899	1100
793.003	1578
793.106	785
793.209	1054
793.313	2017
793.416	-40
793.519	2751
793.623	2341
793.726	1583
793.829	1724
793.932	1770
794.035	530
794.138	3088
794.242	2264
794.345	3486
794.448	8338
794.551	19354
794.654	70771
794.757	92671
794.860	12877
794.963	3002
795.066	2167
795.169	2594
795.272	1116
795.375	1991
795.477	466
795.580	1694
795.683	733
795.786	952
795.889	-76
795.991	1814
796.094	1831
796.197	238
796.300	2363
796.402	723
796.505	878
796.608	1023
796.710	1040
796.813	351
796.915	-119
797.018	984
797.120	739
797.223	318
797.326	1592
797.428	1000
797.530	322
797.633	1007
797.735	2302
797.838	2403
797.940	2616
798.042	619
798.145	1466
798.247	1446
798.349	-111
798.452	1951
798.554	1017
798.656	509
798.758	1758
798.860	705
798.962	421
799.065	988
799.167	-60
799.269	937
799.371	1750
799.473	1472
799.575	876
799.677	840
799.779	2438
799.881	18
799.983	1422
800.085	290
800.187	1255
800.289	512
800.390	217
800.492	785
800.594	1284
800.696	912
800.798	841
800.899	-219
801.001	617
801.103	673
801.205	884
801.306	563
801.408	529
801.509	513
801.611	968
801.713	741
801.814	-57
801.916	417
802.017	278
802.119	-363
802.220	202
802.322	-559
802.423	2551
802.525	-1283
802.626	165
802.727	425
802.829	196
802.930	-1620
803.031	2190
803.133	604
803.234	-415
803.335	417
803.436	-213
803.538	-115
803.639	-244
803.740	308
803.841	-355
803.942	7
804.043	222
804.144	382
804.245	323
804.346	311
804.447	481
804.548	456
804.649	942
804.750	110
804.851	88
804.952	-661
805.053	613
805.154	-626
805.255	1279
805.355	-401
805.456	-443
805.557	-544
805.658	-753
805.758	689
805.859	-23
805.960	292
806.061	-1116
806.161	556
806.262	514
806.362	-756
806.463	-170
806.564	326
806.664	293
806.765	624
806.865	277
806.966	70
807.066	734
807.166	150
807.267	487
807.367	-497
807.468	1412
807.568	-1447
807.668	1365
807.769	188
807.869	448
807.969	611
808.069	591
808.170	716
808.270	-171
808.370	-194
808.470	480
808.570	-1191
808.670	-240
808.770	-109
808.870	-273
808.970	229
809.070	-399
809.170	-6
809.271	44
809.370	130
809.470	-15
809.570	-898
809.670	-390
809.770	-97
809.870	410
809.970	215
810.070	289
810.169	-61
810.269	-1349
810.369	791
810.469	-762
810.568	-506
810.668	-220
810.768	-405
810.867	-64
810.967	-406
811.066	-98
811.166	-468
811.265	54
811.365	-846
811.464	383
811.564	-102
811.663	-307
811.763	-1449
811.862	570
811.962	7
812.061	228
812.160	-492
812.260	36
812.359	352
812.458	1856
812.557	4583
812.657	4503
812.756	444
812.855	-1079
812.954	-186
813.053	-378
813.153	-103
813.252	-151
813.351	-63
813.450	-358
813.549	-753
813.648	-473
813.747	-653
813.846	171
813.945	-959
814.044	-238
814.143	-149
814.242	149
814.341	-993
814.439	-39
814.538	-93
814.637	594
814.736	-600
814.835	311
814.933	-405
815.032	864
815.131	156
815.229	38
815.328	235
815.427	-343
815.525	-770
815.624	143
815.722	-877
815.821	-210
815.919	-384
816.018	-536
816.116	937
816.215	-671
816.313	-819
816.412	154
816.510	-404
816.609	1378
816.707	-313
816.805	-547
816.904	-398
817.002	152
817.100	724
817.198	588
817.296	-296
817.395	-313
817.493	996
817.591	-99
817.689	601
817.787	144
817.885	1283
817.983	3216
818.081	6426
818.179	15055
818.277	36468
818.375	22729
818.473	4182
818.571	2047
818.669	928
818.767	1567
818.865	1334
818.963	1619
819.061	2323
819.158	6191
819.256	15016
819.354	35556
819.452	71919
819.549	31567
819.647	6843
819.745	2411
819.842	2583
819.940	960
820.038	375
820.135	-189
820.233	1271
820.330	386
820.428	-705
820.525	1103
820.623	26
820.720	-247
820.818	-288
820.915	249
821.012	542
821.110	-839
821.207	497
821.304	-655
821.402	256
821.499	1911
821.596	1157
821.693	265
821.791	-66
821.888	828
821.985	1403
822.082	831
822.179	317
822.276	24
822.373	872
822.470	289
822.567	-73
822.664	-284
822.761	735
822.858	-836
822.955	302
823.052	211
823.149	-804
823.246	-731
823.343	-523
823.440	-277
823.536	-1070
823.633	150
823.730	-25
823.827	-187
823.923	-184
824.020	673
824.117	-413
824.213	-1153
824.310	26
824.407	791
824.503	678
824.600	246
824.696	-200
824.793	610
824.889	-919
824.986	-187
825.082	-189
825.179	450
825.275	-307
825.371	-385
825.468	-135
825.564	-1451
825.660	-296
825.757	345
825.853	9
825.949	-1217
826.045	-361
826.142	-514
826.238	261
826.334	45
826.430	-1212
826.526	-242
826.622	-34
826.718	-352
826.814	-910
826.910	516
827.006	-638
827.102	-479
827.198	148
827.294	393
827.390	-615
827.486	-260
827.582	-1372
827.678	-670
827.774	430
827.869	-1628
827.965	-509
828.061	-1289
828.157	-1119
828.252	-587
828.348	-837
828.444	396
828.539	-1055
828.635	-845
828.731	456
828.826	-634
828.922	75
829.017	-632
829.113	-75
829.208	-433
829.304	-1015
829.399	181
829.495	-833
829.590	646
829.685	-1090
829.781	-207
829.876	-1893
829.971	-572
830.066	-1164
830.162	-717
830.257	-792
830.352	-1166
830.447	745
830.543	-363
830.638	-2031
830.733	370
830.828	-1183
830.923	209
831.018	47
831.113	-374
831.208	-1106
831.303	-916
831.398	-564
831.493	496
831.588	135
831.683	-655
831.778	-526
831.873	312
831.967	-212
832.062	-1174
832.157	-740
832.252	230
832.346	-279
832.441	-18
832.536	-513
832.631	869
832.725	200
832.820	-501
832.914	-843
833.009	-352
833.104	-1432
833.198	27
833.293	-1312
833.387	303
833.482	-621
833.576	-800
833.670	162
833.765	-955
833.859	-343
833.954	-277
834.048	-580
834.142	-756
834.237	-1109
834.331	-752
834.425	-614
834.519	-1452
834.613	-64
834.708	-578
834.802	-393
834.896	-1000
834.990	-1157
835.084	-318
835.178	-1048
835.272	-1272
835.366	-635
835.460	-841
835.554	-865
835.648	-244
835.742	-1042
835.836	-966
835.930	-1564
836.024	-811
836.117	-234
836.211	-1213
836.305	309
836.399	806
836.493	-1809
836.586	521
836.680	-1469
836.774	-986
836.867	280
836.961	-1658
837.055	-1330
837.148	-777
837.242	-447
837.335	-1057
837.429	-730
837.522	-249
837.616	-484
837.709	339
837.803	-44
837.896	-23
837.989	-153
838.083	765
838.176	589
838.269	-631
838.363	-741
838.456	-166
838.549	-569
838.642	286
838.735	474
838.829	645
838.922	-1548
839.015	-709
839.108	-1383
839.201	-701
839.294	-974
839.387	133
839.480	-1648
839.573	-890
839.666	-72
839.759	-771
839.852	-1664
839.945	-297
840.038	-1083
840.131	-531
840.223	-599
840.316	-762
840.409	-1137
840.502	-787
840.594	-245
840.687	-2187
840.780	-63
840.873	-566
840.965	-191
841.058	803
841.150	643
841.243	743
841.336	-376
841.428	-690
841.521	-1374
841.613	-2184
841.706	-348
841.798	193
841.890	-571
841.983	-1271
842.075	243
842.167	-875
842.260	-461
842.352	591
842.444	479
842.537	2364
842.629	2462
842.721	-618
842.813	-461
842.905	-1783
842.997	-271
843.090	-588
843.182	-224
843.274	808
843.366	4964
843.458	8141
843.550	4276
843.642	-1060
843.734	-437
843.826	19
843.918	-466
844.009	-481
844.101	-497
844.193	-528
844.285	-567
844.377	-698
844.469	-585
844.560	-557
844.652	0
844.744	-103
844.835	-542
844.927	-981
845.019	-832
845.110	5
845.202	-620
845.293	-935
845.385	-1411
845.476	271
845.568	-181
845.659	-338
845.751	-55
845.842	-1405
845.934	-787
846.025	-1466
846.116	-671
846.208	-1144
846.299	-647
846.390	-1113
846.482	-814
846.573	-368
846.664	-475
846.755	-786
846.846	-352
846.937	-2073
847.029	-660
847.120	-965
847.211	-1338
847.302	141
847.393	-1853
847.484	-1079
847.575	-1369
847.666	-937
847.757	-1697
847.847	-888
847.938	-312
848.029	-675
848.120	-2223
848.211	-271
848.302	-42
848.392	-648
848.483	13
848.574	-1305
848.664	-1009
848.755	-986
848.846	-1325
848.936	-748
849.027	-269
849.118	-325
849.208	-968
849.299	-1023
849.389	-899
849.480	905
849.570	2085
849.661	4492
849.751	7001
849.841	527
849.932	-680
850.022	-890
850.112	-426
850.203	-1271
850.293	-1068
850.383	141
850.474	-1663
850.564	-893
850.654	-782
850.744	-887
850.834	-861
850.924	-565
851.014	-1264
851.104	-1264
851.194	-801
851.284	-460
851.374	-165
851.464	-1031
851.554	-507
851.644	-403
851.734	119
851.824	-160
851.914	-639
852.004	1541
852.094	440
852.183	-1529
852.273	-795
852.363	-761
852.452	-957
852.542	-719
852.632	-828
852.721	-860
852.811	-887
852.901	-487
852.990	-340
853.080	-267
853.169	-1801
853.259	-652
853.348	-668
853.438	-638
853.527	-542
853.617	-398
853.706	1209
853.795	4119
853.885	10265
853.974	19936
854.063	37183
854.152	53696
854.242	14017
854.331	1619
854.420	-101
854.509	-132
854.598	-40
854.687	-67
854.777	-641
854.866	-863
854.955	-401
855.044	-796
855.133	-1389
855.222	-1264
855.311	-820
855.400	-1013
855.488	-425
855.577	-726
855.666	-764
855.755	-335
855.844	-766
855.933	113
856.021	-599
856.110	-1137
856.199	-1538
856.288	-972
856.376	-1012
856.465	-1605
856.554	-306
856.642	-1434
856.731	-2212
856.819	-651
856.908	-1511
856.996	-947
857.085	-827
857.173	-827
857.262	-1045
857.350	-1162
857.438	-1310
857.527	8
857.615	-1696
857.703	62
857.792	-795
857.880	-1181
857.968	-1351
858.056	-1131
858.145	-1360
858.233	-1373
858.321	-970
858.409	-1425
858.497	-1731
858.585	-2138
858.673	-1496
858.761	-1231
858.849	-1880
858.937	-1301
859.025	-1879
859.113	-486
859.201	-1563
859.289	-353
859.377	-976
859.465	-989
859.552	-1201
859.640	-1098
859.728	-1108
859.816	-1017
859.903	-1170
859.991	-1452
860.079	-1652
860.166	-1598
860.254	-916
860.342	-1407
860.429	-771
860.517	-1664
860.604	-1098
860.692	-338
860.779	-1559
860.867	-1233
860.954	-1477
861.042	-920
861.129	-1291
861.216	-1188
861.304	-607
861.391	-1728
861.478	-1225
861.565	-1752
861.653	-74
861.740	-1712
861.827	-769
861.914	-744
862.001	-2046
862.089	-700
862.176	-1267
862.263	-1247
862.350	-1232
862.437	-1746
862.524	-1328
862.611	-1165
862.698	-1500
862.785	-1267
862.871	-154
862.958	-1675
863.045	-1473
863.132	-1955
863.219	-980
863.306	-1569
863.392	-940
863.479	-955
863.566	-1385
863.652	-409
863.739	-1256
863.826	-634
863.912	-1383
863.999	-1279
864.086	-1278
864.172	-1657
864.259	-1581
864.345	-775
864.432	-784
864.518	-1383
864.604	-1447
864.691	-1141
864.777	-562
864.863	-469
864.950	-253
865.036	-1713
865.122	-1148
865.209	-836
865.295	-850
865.381	-835
865.467	-767
865.553	81
865.639	92
865.726	641
865.812	3417
865.898	8003
865.984	11759
866.070	24210
866.156	23403
866.242	2875
866.328	126
866.414	-266
866.499	-349
866.585	-915
866.671	-1072
866.757	-390
866.843	-361
866.928	-873
867.014	-1448
867.100	-371
867.186	-1724
867.271	-1215
867.357	-774
867.442	-605
867.528	-1100
867.614	-1616
867.699	-1125
867.785	-849
867.870	-659
867.956	-609
868.041	-417
868.127	-842
868.212	-755
868.297	-663
868.383	-1197
868.468	-253
868.553	-557
868.639	-281
868.724	59
868.809	449
868.894	159
868.979	-1118
869.065	-918
869.150	-1795
869.235	-1336
869.320	-561
869.405	-1300
869.490	-1282
869.575	-1427
869.660	-1345
869.745	-746
869.830	-680
869.915	-1431
870.000	-1081
870.085	-1687
870.169	-1152
870.254	-1664
870.339	-1206
870.424	-1321
870.509	-772
870.593	-1169
870.678	-1148
870.763	-1549
870.847	-643
870.932	-1806
871.016	-702
871.101	-1495
871.186	-1007
871.270	-598
871.355	-1034
871.439	-1451
871.523	-821
871.608	-1385
871.692	-243
871.777	-1701
871.861	-851
871.945	-1038
872.030	-731
872.114	-948
872.198	-1559
872.282	-1290
872.367	-732
872.451	-2094
872.535	-1323
872.619	-1508
872.703	-1018
872.787	-767
872.871	-1787
872.955	-689
873.039	-835
873.123	-1655
873.207	-1195
873.291	-1121
873.375	-943
873.459	-1362
873.543	-720
873.627	-577
873.711	-1670
873.794	-944
873.878	-1846
873.962	-1144
874.045	-935
874.129	-1852
874.137	-1791
874.213	-1183
874.245	-1492
874.296	-2004
874.352	-1381
874.380	-1075
874.460	-2153
874.464	-2197
874.547	-1941
874.568	-1770
874.631	-1262
874.676	-1146
874.714	-1065
874.784	-1438
874.798	-1506
874.881	214
874.892	120
874.965	-551
874.999	-737
875.048	-987
875.107	-1669
875.131	-1953
875.215	-866
875.215	-866
875.298	-1362
875.323	-1352
875.381	-1375
875.430	-1317
875.465	-1248
875.538	-1036
875.548	-1015
875.631	-1819
875.646	-1808
875.714	-1711
875.753	-1414
875.798	-1076
875.861	-1167
875.881	-1201
875.964	-965
875.968	-961
876.047	-925
876.076	-1075
876.130	-1322
876.183	-1477
876.213	-1545
876.291	-1009
876.296	-978
876.379	-871
876.398	-891
876.462	-944
876.506	-1072
876.545	-1143
876.613	-915
876.628	-882
876.711	-709
876.721	-757
876.794	-1074
876.828	-899
876.877	-665
876.935	-685
876.960	-664
877.043	-338
877.043	-339
877.125	-417
877.150	-274
877.208	36
877.258	-139
877.291	-254
877.365	-28
877.374	5
877.456	-124
877.472	-182
877.539	-538
877.579	-508
877.622	-381
877.687	183
877.704	276
877.787	-778
877.794	-785
877.869	-475
877.901	-165
877.952	150
878.008	-90
878.034	-174
878.115	-1111
878.117	-1126
878.199	-517
878.222	-404
878.282	-175
878.329	-420
878.364	-609
878.437	-610
878.447	-588
878.529	-698
878.544	-603
878.611	-206
878.651	-111
878.694	52
878.758	-39
878.776	-141
878.858	-612
878.865	-642
878.941	-772
878.972	-843
879.023	-864
879.078	-611
879.105	-480
879.185	-176
879.187	-170
879.269	-99
879.292	-134
879.351	-247
879.399	-445
879.433	-650
879.506	-413
879.516	-300
879.598	-56
879.613	9
879.680	-307
879.720	-376
879.762	-213
879.827	-572
879.844	-724
879.926	-367
879.933	-346
880.007	121
880.040	-46
880.089	-468
880.147	-259
880.171	-51
880.253	784
880.254	783
880.335	902
880.360	1011
880.417	1945
880.467	3430
880.499	4225
880.574	4782
880.580	4646
880.662	1416
880.680	892
880.744	153
880.787	-36
880.825	-219
880.893	-157
880.907	-111
880.989	-557
881.000	-566
881.070	-328
881.106	-175
881.152	-59
881.213	177
881.233	260
881.315	315
881.319	306
881.396	-37
881.426	-318
881.478	-471
881.532	-235
881.559	-223
881.639	61
881.641	74
881.722	-274
881.745	-222
881.803	-34
881.852	43
881.885	138
881.958	137
881.966	105
882.047	-191
882.064	-84
882.129	551
882.171	417
882.210	499
882.277	545
882.291	465
882.372	-36
882.383	8
882.454	51
882.489	-130
882.535	38
882.596	496
882.616	538
882.697	-197
882.702	-220
882.778	-88
882.808	132
882.859	357
882.914	385
882.940	395
883.020	-19
883.021	-16
883.102	160
883.127	105
883.183	76
883.233	403
883.264	490
883.339	57
883.345	66
883.426	160
883.445	285
883.507	241
883.551	29
883.587	74
883.657	221
883.668	234
883.749	641
883.763	618
883.830	499
883.869	524
883.910	455
883.975	242
883.991	318
884.072	692
884.081	699
884.152	531
884.187	552
884.233	401
884.292	208
884.314	267
884.394	471
884.398	466
884.475	155
884.504	81
884.555	307
884.610	543
884.636	543
884.716	720
884.716	730
884.797	936
884.821	955
884.877	1031
884.927	1114
884.958	865
885.033	126
885.038	164
885.118	1147
885.139	1250
885.199	898
885.244	703
885.279	750
885.350	1125
885.359	1150
885.439	893
885.456	801
885.520	633
885.561	706
885.600	714
885.667	836
885.680	876
885.760	665
885.773	670
885.840	959
885.878	981
885.920	887
885.984	844
886.000	830
886.080	518
886.089	525
886.160	707
886.195	672
886.240	629
886.300	585
886.320	632
886.400	734
886.406	731
886.480	776
886.511	811
886.560	859
886.616	870
886.640	1051
886.720	1642
886.722	1646
886.800	962
886.827	657
886.879	691
886.932	953
886.959	1168
887.038	1671
887.039	1678
887.119	1244
887.143	1148
887.198	1778
887.248	2452
887.278	1983
887.354	493
887.358	522
887.437	1014
887.459	1151
887.517	1160
887.564	1199
887.596	1357
887.669	1461
887.676	1413
887.755	1012
887.774	846
887.835	1596
887.880	2244
887.914	2029
887.985	1344
887.994	1373
888.073	1725
888.090	1761
888.153	1482
888.195	1356
888.232	1604
888.300	1933
888.311	1867
888.391	1362
888.405	1266
888.470	1233
888.510	1158
888.549	1463
888.615	2037
888.628	2035
888.708	1909
888.720	1879
888.787	1390
888.825	1097
888.866	1297
888.930	1567
888.945	1665
889.024	2219
889.035	2275
889.103	1962
889.140	1760
889.182	1462
889.245	1068
889.261	1236
889.340	1953
889.349	2027
889.419	1603
889.454	1388
889.498	1738
889.559	2202
889.577	2194
889.656	2120
889.664	2106
889.735	2263
889.768	2325
889.814	2086
889.873	1754
889.978	1852
890.083	1929
890.187	1961
890.292	1836
890.397	1813
890.501	1269
890.606	2299
890.710	1954
890.815	1733
890.919	1500
891.024	1948
891.128	1905
891.233	2568
891.337	1502
891.442	1508
891.546	1512
891.650	2522
891.755	1059
891.859	2869
891.963	857
892.068	2164
892.172	1181
892.276	1601
892.380	2126
892.484	1449
892.589	1398
892.693	1518
892.797	1420
892.901	2709
893.005	1633
893.109	1336
893.213	2019
893.317	1824
893.421	1058
893.525	1302
893.629	1362
893.733	1329
893.837	774
893.941	1816
894.045	2535
894.148	2633
894.252	6205
894.356	3353
894.460	2086
894.564	2338
894.667	582
894.771	1306
894.875	509
894.978	1174
895.082	47
895.186	1601
895.289	1533
895.393	1550
895.496	882
895.600	979
895.703	1082
895.807	1733
895.910	726
896.014	613
896.117	480
896.221	1936
896.324	1140
896.427	1749
896.531	561
896.634	948
896.737	1509
896.840	995
896.944	1601
897.047	940
897.150	653
897.253	528
897.356	1133
897.460	58
897.563	1165
897.666	869
897.769	115
897.872	700
897.975	-238
898.078	1541
898.181	905
898.284	957
898.387	439
898.490	788
898.593	861
898.695	1259
898.798	611
898.901	1910
899.004	1246
899.107	1274
899.209	631
899.312	1759
899.415	588
899.518	453
899.620	1175
899.723	1485
899.826	1933
899.928	1226
900.031	305
900.133	1041
900.236	743
900.338	216
900.441	427
900.543	909
900.646	506
900.748	241
900.851	1210
900.953	910
901.055	797
901.158	1717
901.260	903
901.362	847
901.465	815
901.567	1171
901.669	1278
901.771	620
901.873	224
901.976	1017
902.078	736
902.180	663
902.282	538
902.384	458
902.486	1417
902.588	1677
902.690	540
902.792	130
902.894	1140
902.996	870
903.098	767
903.200	926
903.302	846
903.404	563
903.505	9
903.607	1476
903.709	1276
903.811	1694
903.913	1141
904.014	869
904.116	-275
904.218	839
904.319	1446
904.421	1529
904.523	1645
904.624	1010
904.726	686
904.827	537
904.929	828
905.030	1441
905.132	-155
905.233	1680
905.335	1183
905.436	1060
905.537	192
905.639	1152
905.740	1423
905.841	116
905.943	1323
906.044	709
906.145	505
906.247	851
906.348	465
906.449	652
906.550	1721
906.651	902
906.752	756
906.854	546
906.955	517
907.056	1360
907.157	804
907.258	1335
907.359	178
907.460	876
907.561	1274
907.662	569
907.762	958
907.863	471
907.964	533
908.065	1218
908.166	1389
908.267	1248
908.367	517
908.468	52
908.569	1160
908.670	1811
908.770	1286
908.871	1161
908.971	594
909.072	1845
909.173	727
909.273	884
909.374	-170
909.474	760
909.575	1350
909.675	134
909.776	553
909.876	781
909.977	582
910.077	1097
910.177	1092
910.278	908
910.378	428
910.478	651
910.579	579
910.679	929
910.779	958
910.879	274
910.980	224
911.080	841
911.180	161
911.280	801
911.380	652
911.480	280
911.580	939
911.680	1057
911.780	1344
911.880	936
911.980	93
912.080	975
912.180	438
912.280	996
912.380	395
912.480	760
912.580	487
912.679	565
912.779	955
912.879	1509
912.979	609
913.078	381
913.178	45
913.278	669
913.377	87
913.477	191
913.577	19
913.676	1289
913.776	84
913.875	619
913.975	868
914.074	839
914.174	402
914.273	43
914.373	1118
914.472	829
914.572	48
914.671	674
914.770	475
914.870	-50
914.969	273
915.068	988
915.167	252
915.267	818
915.366	-192
915.465	422
915.564	336
915.663	216
915.763	-308
915.862	328
915.961	529
916.060	-110
916.159	641
916.258	647
916.357	211
916.456	961
916.555	253
916.654	383
916.752	1129
916.851	824
916.950	274
917.049	472
917.148	705
917.247	1487
917.345	314
917.444	1189
917.543	146
917.642	970
917.740	-516
917.839	1144
917.937	270
918.036	1010
918.135	-133
918.233	352
918.332	531
918.430	784
918.529	95
918.627	680
918.726	-88
918.824	992
918.923	490
919.021	1187
919.119	239
919.218	535
919.316	519
919.414	611
919.512	-164
919.611	-36
919.709	193
919.807	696
919.905	55
920.003	746
920.102	680
920.200	490
920.298	479
920.396	562
920.494	957
920.592	489
920.690	603
920.788	817
920.886	566
920.984	1349
921.082	104
921.180	1369
921.277	555
921.375	719
921.473	340
921.571	424
921.669	703
921.766	-13
921.864	966
921.962	670
922.060	581
922.157	1323
922.255	462
922.352	921
922.450	741
922.548	1042
922.645	809
922.743	1566
922.840	1363
922.938	1852
923.035	1225
923.133	998
923.230	1437
923.327	1037
923.425	1284
923.522	1855
923.619	269
923.717	599
923.814	940
923.911	1281
924.008	1166
924.106	1611
924.203	850
924.300	579
924.397	510
924.494	2056
924.591	1108
924.688	834
924.786	1194
924.883	1489
924.979	1415
925.077	1705
925.173	813
925.270	747
925.367	847
925.464	2102
925.561	1184
925.658	1478
925.755	1058
925.852	1495
925.948	1281
926.045	1810
926.142	1453
926.239	789
926.335	849
926.432	945
926.529	919
926.625	1558
926.722	1105
926.818	1562
926.915	1128
927.011	393
927.108	1315
927.204	887
927.301	1364
927.397	1108
927.494	228
927.590	431
927.687	791
927.783	1591
927.879	1268
927.976	797
928.072	507
928.168	1202
928.264	858
928.361	954
928.457	469
928.553	808
928.649	528
928.745	809
928.841	694
928.937	1291
929.033	958
929.129	1458
929.225	1303
929.321	533
929.417	427
929.513	1057
929.609	797
929.705	427
929.801	819
929.897	523
929.993	631
930.089	952
930.184	842
930.280	1122
930.376	973
930.471	1081
930.567	219
930.663	772
930.758	340
930.854	498
930.950	698
931.045	463
931.141	683
931.236	1368
931.332	270
931.427	1151
931.523	879
931.618	354
931.714	242
931.809	590
931.905	786
932.000	24
932.095	-312
932.191	1585
932.286	1275
932.381	719
932.476	405
932.572	689
932.667	-95
932.762	587
932.857	721
932.952	217
933.047	658
933.142	939
933.237	-663
933.332	226
933.427	483
933.522	846
933.617	1159
933.712	592
933.807	1041
933.902	887
933.997	1788
934.092	384
934.187	550
934.282	753
934.376	319
934.471	1489
934.566	110
934.661	234
934.755	920
934.850	1160
934.945	896
935.039	928
935.134	491
935.228	280
935.323	214
935.417	-4
935.512	-22
935.606	751
935.701	793
935.795	447
935.890	-7
935.984	864
936.079	66
936.173	579
936.267	615
936.362	99
936.456	423
936.550	667
936.644	313
936.738	763
936.833	-7
936.927	1336
937.021	816
937.115	494
937.209	-609
937.303	1020
937.397	34
937.491	723
937.585	134
937.679	431
937.773	459
937.867	-105
937.961	234
938.055	1091
938.149	777
938.243	680
938.337	-71
938.430	1031
938.524	1054
938.618	1032
938.712	808
938.805	-80
938.899	558
938.993	835
939.086	241
939.180	633
939.274	953
939.367	456
939.461	378
939.554	846
939.648	-228
939.741	925
939.835	100
939.928	-145
940.022	641
940.115	378
940.208	556
940.302	998
940.395	294
940.488	-206
940.582	254
940.675	229
940.768	215
940.861	556
940.954	2
941.048	-273
941.141	-115
941.234	241
941.327	296
941.420	2227
941.513	-55
941.606	-77
941.699	424
941.792	-811
941.885	-12
941.978	243
942.071	50
942.164	-244
942.257	-211
942.349	311
942.442	30
942.535	-540
942.628	-414
942.721	841
942.813	-665
942.906	918
942.999	323
943.091	44
943.184	-243
943.277	653
943.369	-21
943.462	178
943.554	98
943.647	-97
943.739	169
943.832	-506
943.924	-309
944.017	491
944.109	-797
944.201	-240
944.294	44
944.386	-183
944.478	22
944.571	459
944.663	-435
944.755	381
944.847	905
944.940	96
945.032	-1382
945.124	-637
945.216	235
945.308	-330
945.400	-607
945.492	-675
945.584	-399
945.676	370
945.768	-115
945.860	834
945.952	-652
946.044	602
946.136	-607
946.228	-633
946.320	-413
946.412	-364
946.503	388
946.595	1173
946.687	-728
946.779	-585
946.870	-236
946.962	-375
947.054	-39
947.145	106
947.237	-875
947.329	482
947.420	-620
947.512	86
947.603	-457
947.695	383
947.786	-734
947.878	-1
947.969	-420
948.061	-417
948.152	-657
948.243	97
948.335	361
948.426	-931
948.517	-519
948.609	-286
948.700	-578
948.791	-661
948.882	-769
948.973	-675
949.065	-94
949.156	62
949.247	-204
949.338	277
949.429	-344
949.520	-575
949.611	-1161
949.702	41
949.793	-220
949.884	-638
949.975	53
950.066	-567
950.157	324
950.247	349
950.338	12
950.429	-380
950.520	-206
950.611	-435
950.701	445
950.792	-94
950.883	535
950.973	483
951.064	825
951.155	311
951.245	-35
951.336	213
951.427	-878
951.517	293
951.608	-658
951.698	119
951.788	-613
951.879	193
951.969	-396
952.060	-79
952.150	-378
952.240	234
952.331	-1455
952.421	1232
952.511	-1019
952.602	-23
952.692	-1035
952.782	400
952.872	-346
952.962	88
953.052	-793
953.143	234
953.233	-88
953.323	188
953.413	-809
953.503	388
953.593	-229
953.683	311
953.773	-716
953.863	445
953.953	-539
954.042	118
954.132	-853
954.222	-420
954.312	-336
954.402	186
954.492	257
954.581	450
954.671	-661
954.761	-603
954.850	-439
954.940	489
955.030	-527
955.119	258
955.209	-358
955.298	-129
955.388	-503
955.477	594
955.567	-1183
955.656	356
955.746	340
955.835	-132
955.925	-432
956.014	330
956.103	-124
956.193	673
956.282	338
956.371	695
956.461	-409
956.550	402
956.639	-341
956.728	224
956.817	353
956.906	372
956.995	838
957.085	677
957.174	175
957.263	-374
957.352	-47
957.441	286
957.530	-496
957.619	67
957.708	-516
957.796	647
957.885	1042
957.974	-222
958.063	294
958.152	65
958.241	478
958.329	723
958.418	106
958.507	282
958.596	1320
958.684	537
958.773	695
958.861	707
958.950	1584
959.039	932
959.127	1151
959.216	1046
959.304	1220
959.393	1593
959.481	1344
959.570	2020
959.658	330
959.746	1173
959.835	2167
959.923	2084
960.011	999
960.100	1707
960.188	1156
960.276	441
960.365	439
960.453	1198
960.541	-445
960.629	1639
960.717	-21
960.805	-201
960.893	537
960.981	-369
961.069	346
961.158	400
961.245	414
961.333	934
961.421	-130
961.509	470
961.597	97
961.685	-17
961.773	-935
961.861	-430
961.949	338
962.036	-796
962.124	538
962.212	70
962.299	-274
962.387	156
962.475	-366
962.562	-1108
962.650	-85
962.738	764
962.825	-608
962.913	590
963.000	339
963.088	123
963.175	501
963.263	28
963.350	-184
963.438	-158
963.525	-115
963.612	2131
963.700	4429
963.787	6371
963.874	1389
963.962	381
964.049	-802
964.136	208
964.223	-466
964.310	-832
964.398	-274
964.485	-490
964.572	445
964.659	482
964.746	-200
964.833	595
964.920	-1065
965.007	-655
965.094	-507
965.181	-723
965.268	-631
965.355	-317
965.441	-787
965.528	-453
965.615	-307
965.702	-722
965.789	-1282
965.875	174
965.962	-769
966.049	-563
966.136	-923
966.222	-386
966.309	-628
966.395	-520
966.482	303
966.569	-1042
966.655	-296
966.742	-984
966.828	-777
966.915	-361
967.001	-1068
967.087	-1226
967.174	-244
967.260	980
967.347	384
967.433	3212
967.519	3100
967.605	-591
967.692	-1305
967.778	-357
967.864	-635
967.950	-451
968.036	-1691
968.123	-855
968.209	-877
968.295	-2031
968.381	-511
968.467	-62
968.553	-1526
968.639	483
968.725	-1437
968.811	-361
968.897	-666
968.983	-797
969.069	-1077
969.154	170
969.240	-390
969.326	-918
969.412	-752
969.497	-723
969.583	-1541
969.669	-869
969.755	-760
969.840	-774
969.926	-384
970.012	-594
970.097	128
970.183	-740
970.268	-570
970.354	-131
970.439	-39
970.525	2428
970.610	-963
970.696	317
970.781	-771
970.866	-1086
970.952	-722
971.037	-1304
971.122	-657
971.208	-519
971.293	-894
971.378	-1241
971.463	-757
971.549	257
971.634	-815
971.719	-157
971.804	177
971.889	-688
971.974	-1138
972.059	-392
972.144	-1710
972.229	-1111
972.314	-1069
972.399	-678
972.484	-440
972.569	-464
972.654	-635
972.739	939
972.824	-105
972.908	-837
972.993	-773
973.078	-851
973.163	-906
973.247	-682
973.332	-1876
973.417	147
973.501	-2408
973.586	-382
973.671	-1308
973.755	-383
973.840	-857
973.924	-355
974.009	-542
974.093	-1289
974.178	483
974.262	-24
974.346	29
974.431	-617
974.515	-1775
974.600	-659
974.684	-857
974.768	-1266
974.852	-42
974.937	-1110
975.021	-995
975.105	-729
975.189	-1129
975.273	-911
975.358	-1166
975.442	-1652
975.526	-995
975.610	-1865
975.694	-2517
975.778	215
975.862	-1379
975.946	-2280
976.030	474
976.114	-1606
976.198	-1026
976.281	-522
976.365	-1161
976.449	-1404
976.533	-1234
976.617	-1373
976.700	-1287
976.784	-575
976.868	-1555
976.951	-73
977.035	-1319
977.119	-760
977.202	-1031
977.286	-861
977.369	-1070
977.453	-141
977.536	-1595
977.620	-1304
977.703	-1312
977.787	-1023
977.870	-143
977.953	-159
978.037	-2016
978.120	428
978.203	-529
978.287	858
978.370	-1124
978.453	-1298
978.536	-1015
978.620	239
978.703	-1320
978.786	-1486
978.869	-2232
978.952	-1239
979.035	84
979.118	-254
979.201	-2416
979.284	-750
979.367	-1606
979.450	-862
979.533	-2311
979.616	-1744
979.699	-1467
979.782	-1639
979.865	-533
979.948	-623
980.030	-1620
980.113	-600
980.196	-1506
980.279	-761
980.361	-1423
980.444	-1687
980.526	-390
980.609	-529
980.692	-1001
980.774	-1197
980.857	-1568
980.939	-312
981.022	-1291
981.104	-942
981.187	-1784
981.269	-144
981.352	-1397
981.434	-1682
981.516	-1825
981.599	-104
981.681	-1357
981.763	-1218
981.846	-1533
981.928	-1449
982.010	-1663
982.092	-1625
982.174	-1859
982.256	-1101
982.339	-1297
982.421	-1222
982.503	-1250
982.585	-2069
982.667	-1531
982.749	-1005
982.831	-1790
982.913	-1578
982.995	-1046
983.077	-899
983.158	-1181
983.240	-2094
983.322	-1281
983.404	-727
983.486	-1359
983.568	-817
983.649	-195
983.731	-1126
983.813	-1683
983.894	-1066
983.976	-1682
984.058	-1054
984.139	-532
984.221	-1445
984.302	-717
984.384	-1152
984.465	-2325
984.547	-1071
984.628	-2051
984.710	-1331
984.791	-2325
984.872	-1325
984.954	-2003
985.035	-956
985.116	-2386
985.198	-2174
985.279	-767
985.360	-950
985.441	-1586
985.522	-753
985.604	-920
985.685	-2703
985.766	-1074
985.847	-917
985.928	-1548
986.009	-1443
986.090	-1779
986.171	-1080
986.252	-1572
986.333	-1250
986.414	-1059
986.495	-1090
986.576	-1558
986.656	-1150
986.737	-1192
986.818	-1207
986.899	-2475
986.980	-901
987.060	-1157
987.141	-1688
987.222	-1394
987.302	-986
987.383	-1064
987.464	-1261
987.544	-1305
987.625	-1441
987.705	-915
987.786	-1027
987.866	-788
987.947	-1582
988.027	-1595
988.108	-1233
988.188	-1155
988.268	-1268
988.349	-1320
988.429	-1049
988.509	-910
988.589	-2217
988.670	-2583
988.750	31
988.830	-1076
988.910	-1127
988.990	-1689
989.070	-1837
989.151	-1606
989.231	-1741
989.311	-1025
989.391	-1363
989.471	-1772
989.551	-1248
989.631	-775
989.711	-237
989.791	-2420
989.870	-1905
989.950	-1153
990.030	-1851
990.110	-1907
990.190	-1986
990.269	-1442
990.349	-1217
990.429	-582
990.509	-467
990.588	-1113
990.668	-888
990.747	-1958
990.827	-1569
990.907	-1495
990.986	-1446
991.066	-1056
991.145	-1589
991.225	-1915
991.304	-1895
991.383	-1198
991.463	-1921
991.542	-778
991.622	-1542
991.701	-1496
991.780	-1479
991.859	-1422
991.939	-1615
992.018	-869
992.097	-1124
992.176	-1530
992.256	-1421
992.335	-1762
992.414	-1358
992.493	-2487
992.572	-1328
992.651	-845
992.730	-1602
992.809	-1885
992.888	-1824
992.967	-927
993.046	-817
993.125	-2497
993.203	-1266
993.282	-1161
993.361	-338
993.440	-1395
993.519	-1687
993.597	-1696
993.676	-1125
993.755	-784
993.834	-1774
993.912	-2573
993.991	-924
994.069	-1886
994.148	-1072
994.226	-1250
994.305	-1044
994.384	-2235
994.462	-991
994.540	-2337
994.619	-1343
994.697	-717
994.776	-1362
994.854	-1763
994.932	-1395
995.011	-1500
995.089	-1491
995.167	-1967
995.245	-1234
995.324	-2196
995.402	-1238
995.480	-1907
995.558	-484
995.636	-2406
995.714	-1304
995.792	-1320
995.870	-1101
995.948	-1182
996.026	-816
996.104	-2313
996.182	-165
996.260	-1117
996.338	-904
996.416	-2668
996.494	-1593
996.572	-864
996.649	-1584
996.727	-1960
996.805	-1296
996.883	-1498
996.960	-1738
997.038	-1037
997.116	-247
997.193	-1923
997.271	-1512
997.348	-1370
997.426	-1279
997.504	-2198
997.581	-1463
997.658	-1084
997.736	-2672
997.813	-2282
997.891	-147
997.968	-2549
998.046	-475
998.123	-1687
998.200	-824
998.277	-2888
998.355	-616
998.432	-2989
998.509	-1640
998.586	-1644
998.663	-1280
998.741	-1907
998.818	-871
998.895	-2361
998.972	-1569
999.049	-2257
999.126	-2580
999.203	-1542
999.280	-1595
999.357	-2193
999.434	-1250
999.511	-1807
999.587	-1857
999.664	-2093
999.741	-1403
999.818	-1216
999.895	-1583
999.971	-2167
1000.048	-1267
1000.125	-1283
1000.202	-1410
1000.278	-2298
1000.355	-1389
1000.431	-1783
1000.508	-2193
1000.584	-1485
1000.661	-1360
1000.738	-2086
1000.814	-1159
1000.890	-1393
1000.967	-1476
1001.043	-2263
1001.120	-2416
1001.196	-1324
1001.272	-1670
1001.349	-2055
1001.425	-1230
1001.501	-2029
1001.577	-2268
1001.654	-1026
1001.730	-2545
1001.806	-2004
1001.882	-1957
1001.958	-1717
1002.034	-950
1002.110	-1583
1002.186	-2153
1002.262	-2090
1002.338	-1707
1002.414	-2053
1002.490	-1808
1002.566	-1765
1002.642	-2280
1002.718	-1146
1002.794	-2505
1002.870	-1910
1002.945	-2009
1003.021	-2175
1003.097	-1356
1003.173	-2313
1003.248	-1845
1003.324	-2592
1003.400	-1780
1003.475	-2086
1003.551	-1955
1003.626	-1818
1003.702	-1792
1003.777	-1870
1003.853	-1938
1003.928	-2944
1004.004	-2056
1004.079	-2168
1004.155	-2464
1004.230	-2638
1004.305	-861
1004.381	-2332
1004.456	-2512
1004.531	-1868
1004.607	-1439
1004.682	-2348
1004.757	-820
1004.832	-2516
1004.907	-1990
1004.982	-1408
1005.057	-1689
1005.133	-2175
1005.208	-1759
1005.283	-1480
1005.358	-1756
1005.433	-2359
1005.508	-2254
1005.583	-2724
1005.657	-2546
1005.732	-1458
1005.807	-1698
1005.882	-2210
1005.957	-1613
1006.032	-1402
1006.106	-1964
1006.181	-1927
1006.256	-2085
1006.331	-2976
1006.405	-1660
1006.480	-2173
1006.554	-1594
1006.629	-1740
1006.704	-1725
1006.778	-2031
1006.853	-1331
1006.927	-2631
1007.002	-2285
1007.076	-2048
1007.150	-2088
1007.225	-1768
1007.299	-2255
1007.373	-2882
1007.448	-1666
1007.522	-1204
1007.596	-1669
1007.671	-2244
1007.745	-1222
1007.819	-2240
1007.893	-2283
1007.967	-2238
1008.041	-2309
1008.115	-1590
1008.190	-2090
1008.264	-1744
1008.338	-2870
1008.412	-2183
1008.486	-2265
1008.560	-2684
1008.633	-2294
1008.707	-2351
1008.781	-1071
1008.855	-2329
1008.929	-2185
1009.003	-2546
1009.076	-2210
1009.150	-2525
1009.224	-2319
1009.298	-1898
1009.371	-2444
1009.445	-2121
1009.519	-1773
1009.592	-2376
1009.666	-2113
1009.739	-1297
1009.813	-3080
1009.886	-1783
1009.960	-2616
1010.033	-2263
1010.107	-1137
1010.180	-3356
1010.253	-2315
1010.327	-2552
1010.400	-1613
1010.473	-2473
1010.547	-1260
1010.620	-2345
1010.693	-1827
1010.766	-2406
1010.840	-987
1010.913	-2040
1010.986	-2469
1011.059	-2228
1011.132	-1587
1011.205	-1914
1011.278	-1810
1011.351	-1958
1011.424	-1074
1011.497	-3082
1011.570	-1941
1011.643	-2209
1011.716	-2110
1011.789	-2448
1011.862	-1024
1011.934	-1453
1012.007	-2691
1012.080	-2746
1012.153	-1786
1012.225	-1494
1012.298	-2298
1012.371	-3044
1012.443	-1332
1012.516	-2709
1012.588	-1533
1012.661	-1825
1012.733	-2929
1012.806	-1493
1012.879	-2504
1012.951	-2129
1013.023	-2012
1013.096	-1560
1013.168	-1727
1013.241	-1671
1013.313	-1838
1013.385	-3049
1013.458	-1471
1013.530	-2179
1013.602	-3047
1013.674	-1756
1013.746	-2721
1013.819	-3525
1013.891	-1094
1013.963	-3042
1014.035	-1856
1014.107	-2365
1014.179	-931
1014.251	-2665
1014.323	-1678
1014.395	-1822
1014.467	-1615
1014.539	-2566
1014.611	-2737
1014.683	-2354
1014.754	-1116
1014.826	-2591
1014.898	-2080
1014.970	-2368
1015.042	-1494
1015.113	-2109
1015.185	-1086
1015.257	-2731
1015.328	-1800
1015.400	-2622
1015.471	-1804
1015.543	-2895
1015.615	-1831
1015.686	-2671
1015.757	-2233
1015.829	-2425
1015.901	-2455
1015.972	-1427
1016.043	-2024
1016.115	-2050
1016.186	-1485
1016.257	-2865
1016.328	-912
1016.400	-2176
1016.471	-3180
1016.542	-2606
1016.613	-2463
1016.685	-2075
1016.756	-1810
1016.827	-2011
1016.898	-2495
1016.969	-1026
1017.040	-2133
1017.111	-3379
1017.182	-2417
1017.253	-2055
1017.324	-1846
1017.395	-2574
1017.466	-1846
1017.537	-2766
1017.608	-2681
1017.678	-2373
1017.749	-2260
1017.820	-2903
1017.891	-2422
1017.961	-2447
1018.032	-1311
1018.103	-2016
1018.173	-1491
1018.244	-2033
1018.315	-2742
1018.385	-1732
1018.456	-2058
1018.526	-3030
1018.597	-2332
1018.667	-2388
1018.738	-2167
1018.808	-2582
1018.878	-2499
1018.949	-1595
1019.019	-1601
1019.089	-2008
1019.160	-1741
1019.230	-2859
1019.300	-1206
1019.371	-2496
1019.441	-1407
1019.511	-2447
1019.581	-2994
1019.651	-2156
1019.721	-2060
1019.791	-3300
1019.861	-2468
1019.931	-2435
1020.001	-2101
1020.071	-2652
1020.141	-2938
1020.211	-2492
1020.281	-2803
1020.351	-2348
1020.421	-1875
1020.491	-1822
1020.560	-1931
1020.630	-2649
1020.700	-2312
1020.770	-2826
1020.839	-2330
1020.909	-3399
1020.979	-1956
1021.048	-2443
1021.118	-1968
1021.187	-1989
1021.257	-2531
1021.326	-1398
1021.396	-2188
1021.465	-1785
1021.535	-2119
1021.604	-2586
1021.674	-2333
1021.743	-1957
1021.812	-2909
1021.882	-2048
1021.951	-2869
1022.020	-2743
1022.089	-1901
1022.159	-2688
1022.228	-1972
1022.297	-2591
1022.366	-2127
1022.435	-1837
1022.504	-1684
1022.573	-2223
1022.642	-2585
1022.711	-2477
1022.781	-1446
1022.849	-2482
1022.918	-1785
1022.987	-3036
1023.056	-1853
1023.125	-2748
1023.194	-1754
1023.263	-1366
1023.331	-1779
1023.400	-2093
1023.469	-1900
1023.538	-2472
1023.606	-2671
1023.675	-2503
1023.744	-2285
1023.812	-3078
1023.881	-2697
1023.949	-1941
1024.018	-2155
1024.086	-2358
1024.155	-2242
1024.223	-3223
1024.292	-1723
1024.360	-2155
1024.429	-2212
1024.497	-3174
1024.565	-1627
1024.634	-1907
1024.702	-1122
1024.770	-2935
1024.838	-2477
1024.907	-2147
1024.975	-2308
1025.043	-1973
1025.111	-2882
1025.179	-1375
1025.247	-1167
1025.315	-2107
1025.383	-2516
1025.451	-3062
1025.519	-2069
1025.587	-2807
1025.655	-1581
1025.723	-2776
1025.791	-2257
1025.859	-2127
1025.927	-1155
1025.995	-3317
1026.062	-1664
1026.130	-2941
1026.198	-2568
1026.266	-2162
1026.333	-2262
1026.401	-1819
1026.469	-2213
1026.536	-2750
1026.604	-2891
1026.671	-2601
1026.739	-1872
1026.806	-3083
1026.874	-3229
1026.941	-1955
1027.009	-2272
1027.076	-3147
1027.144	-1417
1027.211	-2259
1027.278	-1772
1027.345	-2594
1027.413	-1717
1027.480	-2084
1027.547	-2415
1027.614	-2968
1027.682	-1187
1027.749	-2488
1027.816	-2705
1027.883	-2411
1027.950	-2659
1028.017	-2920
1028.084	-1870
1028.151	-2608
1028.218	-3054
1028.285	-2010
1028.352	-2716
1028.419	-2959
1028.486	-3181
1028.553	-2294
1028.619	-2378
1028.686	-2223
1028.753	-3189
1028.820	-2229
1028.886	-2848
1028.953	-2048
1029.020	-2053
1029.086	-2831
1029.153	-2071
1029.220	-2727
1029.286	-1461
1029.353	-2286
1029.419	-2167
1029.486	-1975
1029.552	-2539
1029.619	-1827
1029.685	-1926
1029.751	-2840
1029.818	-1898
1029.884	-2223
1029.951	-1561
1030.017	-2786
1030.083	-2027
1030.149	-2248
1030.216	-2337
1030.282	-2063
1030.348	-2391
1030.414	-2921
1030.480	-2328
1030.546	-2259
1030.612	-1617
1030.678	-3064
1030.744	-2188
1030.810	-2459
1030.876	-2502
1030.942	-2034
1031.008	-1813
1031.074	-2804
1031.140	-2167
1031.206	-1845
1031.272	-2405
1031.337	-2985
1031.403	-1729
1031.469	-1918
1031.534	-2234
1031.600	-2001
1031.666	-2583
1031.731	-1338
1031.797	-1507
1031.863	-2816
1031.928	-2147
1031.994	-2928
1032.059	-2458
1032.125	-2646
1032.190	-2269
1032.256	-3070
1032.321	-2646
1032.386	-2188
1032.452	-2324
1032.517	-2674
1032.582	-2203
1032.647	-1746
1032.713	-2469
1032.778	-1606
1032.843	-2562
1032.908	-2915
1032.974	-2451
1033.039	-2394
1033.104	-1595
1033.169	-2496
1033.234	-2636
1033.299	-1623
1033.364	-1597
1033.429	-2233
1033.494	-2516
1033.559	-2295
1033.624	-2279
1033.688	-2674
1033.753	-2152
1033.818	-2223
1033.883	-1950
1033.948	-2782
1034.013	-1905
1034.077	-2324
1034.142	-1831
1034.207	-2431
1034.271	-1942
1034.336	-1606
1034.400	-1985
1034.465	-2738
1034.530	-1788
1034.594	-1887
1034.658	-2022
1034.723	-2268
1034.787	-2705
1034.852	-2503
1034.916	-1801
1034.981	-3264
1035.045	-2086
1035.109	-2364
1035.173	-2029
1035.238	-2720
1035.302	-1564
1035.366	-1792
1035.430	-1966
1035.495	-3102
1035.559	-1287
1035.623	-2676
1035.687	-2528
1035.751	-2965
1035.815	-2788
1035.879	-3244
1035.943	-2334
1036.007	-2824
1036.071	-1870
1036.135	-3056
1036.198	-1502
1036.262	-3163
1036.326	-2261
1036.390	-2585
1036.454	-2047
1036.517	-2459
1036.581	-2471
1036.645	-1528
1036.709	-1888
1036.772	-2707
1036.836	-2478
1036.900	-2912
1036.963	-2641
1037.026	-3360
1037.090	-2486
1037.154	-2774
1037.217	-1884
1037.280	-2652
1037.344	-1533
1037.407	-2948
1037.471	-1734
1037.534	-2478
1037.597	-1730
1037.661	-2673
1037.724	-2071
1037.787	-2017
1037.850	-1964
1037.913	-2886
1037.977	-1852
1038.040	-2555
1038.103	-2835
1038.166	-2682
1038.229	-2314
1038.292	-2580
1038.355	-2046
1038.418	-2240
1038.481	-1374
1038.544	-2259
1038.607	-2524
1038.670	-2258
1038.732	-1737
1038.795	-2638
1038.858	-2638
1038.921	-2617
1038.984	-1894
1039.046	-3355
1039.109	-2791
1039.172	-2477
1039.234	-2447
1039.297	-2815
1039.360	-2219
1039.422	-2137
1039.485	-1693
1039.547	-2560
1039.610	-2003
1039.672	-2761
1039.734	-1862
1039.797	-2568
1039.859	-2410
1039.922	-2495
1039.984	-2122
1040.046	-2918
1040.109	-1398
1040.171	-2874
1040.233	-2808
1040.295	-2660
1040.358	-1882
1040.420	-2761
1040.482	-2058
1040.544	-3029
1040.606	-2810
1040.668	-2822
1040.730	-2718
1040.792	-2636
1040.854	-1732
1040.916	-2785
1040.978	-2388
1041.040	-1262
1041.102	-2066
1041.164	-2343
1041.225	-2253
1041.287	-2149
1041.349	-1446
1041.411	-2138
1041.472	-1535
1041.534	-2156
1041.596	-2580
1041.657	-2770
1041.719	-2038
1041.781	-2649
1041.842	-1862
1041.904	-2777
1041.965	-1909
1042.027	-2002
1042.088	-2205
1042.150	-1788
1042.211	-2918
1042.272	-2573
1042.334	-1728
1042.395	-1972
1042.456	-3011
1042.518	-2553
1042.579	-1623
1042.640	-1977
1042.701	-1997
1042.763	-2501
1042.824	-2436
1042.885	-2946
1042.946	-2228
1043.007	-2669
1043.068	-2150
1043.129	-2255
1043.190	-1918
1043.251	-2531
1043.312	-2258
1043.373	-2534
1043.434	-1804
1043.495	-2893
1043.556	-2832
1043.616	-2284
1043.677	-1922
1043.738	-2874
1043.799	-2212
1043.859	-2061
1043.920	-2991
1043.981	-2468
1044.041	-1806
1044.102	-2640
1044.162	-2069
1044.223	-2837
1044.284	-2727
1044.344	-2695
1044.405	-2270
1044.465	-3121
1044.525	-1867
1044.586	-2123
1044.646	-2309
1044.707	-2318
1044.767	-1917
1044.827	-2863
1044.887	-2124
1044.948	-1774
1045.008	-1903
1045.068	-2644
1045.128	-1836
1045.188	-2531
1045.249	-1163
1045.309	-2332
1045.369	-1687
1045.429	-2637
1045.489	-2333
1045.549	-2437
1045.609	-2611
1045.669	-2282
1045.729	-1767
1045.789	-2476
1045.848	-1844
1045.908	-2537
1045.968	-2656
1046.028	-2299
1046.088	-1074
1046.147	-1976
1046.207	-2542
1046.267	-2413
1046.326	-1556
1046.386	-2222
1046.446	-1258
1046.505	-1186
1046.565	-1917
1046.624	-996
1046.684	-844
1046.743	-1458
1046.803	-1277
1046.862	-1008
1046.922	0
