'Start Wavelength	183.907
'End Wavelength	1046.922
'Gate Delay	5.000
'Gate Width (ms)	1.050
'Laser Output Level	0.000
'X Position	0.000
'Y Position	0.000
'Z Position	0.000
'Grid Point Number	1.000
'Shot Number	100.000
183.907	-149.000
183.977	-523.000
184.047	15
184.116	472
184.186	-614
184.256	-394
184.325	-158
184.395	-850
184.465	-316
184.534	-112
184.604	-669
184.674	854
184.743	-440
184.813	307
184.883	-674
184.952	-62
185.022	-235
185.092	550
185.161	-186
185.231	73
185.301	-547
185.370	285
185.440	-934
185.509	-531
185.579	15
185.649	336
185.718	-141
185.788	516
185.857	-388
185.927	-107
185.996	-500
186.066	401
186.136	381
186.205	31
186.275	-676
186.344	403
186.414	-16
186.483	-499
186.553	306
186.622	513
186.692	-204
186.761	-703
186.831	-219
186.900	156
186.970	25
187.039	709
187.109	520
187.178	-377
187.248	-80
187.317	-562
187.387	-838
187.456	337
187.526	-390
187.595	228
187.664	-508
187.734	594
187.803	-369
187.873	73
187.942	-1125
188.012	234
188.081	-157
188.150	-46
188.220	-247
188.289	278
188.358	-306
188.428	-219
188.497	-620
188.567	-403
188.636	-780
188.705	-321
188.775	261
188.844	-669
188.913	331
188.983	638
189.052	-354
189.121	-245
189.191	-149
189.260	451
189.329	-375
189.399	168
189.468	-271
189.537	-384
189.606	-486
189.676	-62
189.745	-323
189.814	-572
189.883	-390
189.953	-223
190.022	-262
190.091	40
190.161	-373
190.230	146
190.299	-114
190.368	-410
190.437	-570
190.507	166
190.576	249
190.645	459
190.714	-825
190.783	-296
190.853	174
190.922	128
190.991	-400
191.060	628
191.129	-1016
191.198	374
191.268	-227
191.337	287
191.406	674
191.475	117
191.544	-592
191.613	495
191.682	-288
191.752	-257
191.821	-196
191.890	156
191.959	-62
192.028	-113
192.097	27
192.166	576
192.235	-415
192.304	572
192.373	-305
192.442	538
192.511	182
192.580	13
192.650	-440
192.719	169
192.788	-747
192.857	266
192.926	-722
192.995	-251
193.064	-563
193.133	-14
193.202	-463
193.271	470
193.340	-333
193.409	161
193.478	-807
193.547	610
193.615	-519
193.684	-15
193.753	-712
193.822	212
193.891	-597
193.960	614
194.029	-652
194.098	233
194.167	-1124
194.236	548
194.305	18
194.374	-133
194.443	-749
194.512	-127
194.580	-105
194.649	545
194.718	-536
194.787	-194
194.856	-577
194.925	493
194.994	165
195.062	-284
195.131	-328
195.200	779
195.269	326
195.338	282
195.407	152
195.475	175
195.544	100
195.613	629
195.682	-74
195.751	-469
195.819	-407
195.888	-350
195.957	629
196.026	-98
196.094	-822
196.163	-133
196.232	-399
196.301	-826
196.369	-268
196.438	-720
196.507	-243
196.576	258
196.644	-625
196.713	687
196.782	-1136
196.850	651
196.919	-403
196.988	-20
197.056	-824
197.125	-322
197.194	-547
197.262	-620
197.331	-722
197.400	91
197.468	-872
197.537	-616
197.606	-524
197.674	-269
197.743	-417
197.812	-73
197.880	11
197.949	22
198.017	219
198.086	-617
198.155	89
198.223	-381
198.292	30
198.360	77
198.429	-410
198.497	-181
198.566	37
198.635	444
198.703	-707
198.772	169
198.840	-624
198.909	87
198.977	-708
199.046	515
199.114	-725
199.183	-126
199.251	-647
199.320	50
199.388	-266
199.457	-486
199.525	-800
199.594	-207
199.662	-97
199.731	-161
199.799	783
199.867	-473
199.936	-441
200.004	538
200.073	270
200.141	-187
200.210	-1230
200.278	-27
200.346	634
200.415	259
200.483	517
200.552	322
200.620	-398
200.688	-125
200.757	-348
200.825	318
200.893	-718
200.962	316
201.030	-404
201.098	250
201.167	-35
201.235	346
201.303	-1042
201.372	295
201.440	-756
201.508	-816
201.577	-421
201.645	-75
201.713	-228
201.781	860
201.850	-321
201.918	-38
201.986	-202
202.055	287
202.123	-269
202.191	-243
202.259	130
202.327	551
202.396	785
202.464	351
202.532	-656
202.600	-245
202.669	-661
202.737	-209
202.805	-1060
202.873	-37
202.941	-840
203.009	-57
203.078	-564
203.146	322
203.214	-390
203.282	-1134
203.350	-394
203.418	-417
203.487	186
203.555	29
203.623	-873
203.691	-248
203.759	-221
203.827	-35
203.895	-626
203.963	82
204.031	-69
204.099	25
204.168	-512
204.236	104
204.304	493
204.372	-115
204.440	-815
204.508	-248
204.576	-1513
204.644	589
204.712	-603
204.780	-7
204.848	-576
204.916	234
204.984	-722
205.052	4
205.120	-480
205.188	615
205.256	-464
205.324	157
205.392	-320
205.460	326
205.528	-568
205.596	848
205.664	-110
205.732	-862
205.799	-828
205.867	-158
205.935	-429
206.003	1270
206.071	-216
206.139	163
206.207	-487
206.275	-357
206.343	-747
206.411	-288
206.478	301
206.546	321
206.614	-166
206.682	-806
206.750	-342
206.818	788
206.885	3
206.953	-55
207.021	101
207.089	-31
207.157	-12
207.225	-231
207.292	-844
207.360	-13
207.428	-355
207.496	33
207.563	-500
207.631	447
207.699	-583
207.767	-124
207.834	-948
207.902	312
207.970	-392
208.038	271
208.105	118
208.173	-160
208.241	283
208.309	719
208.376	-845
208.444	-820
208.512	-849
208.579	-519
208.647	791
208.715	733
208.782	-383
208.850	-192
208.918	-702
208.985	658
209.053	95
209.120	-61
209.188	-610
209.256	203
209.323	-37
209.391	-136
209.459	20
209.526	480
209.594	-550
209.661	-697
209.729	-190
209.796	26
209.864	-809
209.932	-714
209.999	742
210.067	-247
210.134	-333
210.202	43
210.269	-164
210.337	318
210.404	75
210.472	506
210.539	-395
210.607	-762
210.674	-1096
210.742	293
210.809	248
210.877	69
210.944	349
211.012	-914
211.079	1428
211.146	510
211.214	-470
211.281	-79
211.349	120
211.416	97
211.484	-338
211.551	169
211.618	-287
211.686	-288
211.753	-1025
211.821	744
211.888	-28
211.955	289
212.023	-289
212.090	-360
212.157	-768
212.225	-295
212.292	378
212.359	322
212.427	-124
212.494	577
212.561	-179
212.629	196
212.696	-740
212.763	-130
212.831	-878
212.898	650
212.965	-481
213.032	-586
213.100	384
213.167	-329
213.234	188
213.301	254
213.369	308
213.436	-335
213.503	-643
213.570	-385
213.638	-297
213.705	539
213.772	-712
213.839	-331
213.906	135
213.973	74
214.041	-583
214.108	695
214.175	-311
214.242	-560
214.309	-544
214.376	409
214.444	-359
214.511	-113
214.578	-882
214.645	1025
214.712	-528
214.779	783
214.846	-809
214.913	110
214.980	281
215.048	56
215.115	-506
215.182	335
215.249	55
215.316	397
215.383	18
215.450	405
215.517	-378
215.584	137
215.651	-731
215.718	86
215.785	-581
215.852	-59
215.919	27
215.986	620
216.053	-361
216.120	-533
216.187	-809
216.254	214
216.321	-996
216.388	-163
216.455	396
216.522	68
216.589	-324
216.656	459
216.722	-361
216.789	388
216.856	-673
216.923	203
216.990	-793
217.057	602
217.124	644
217.191	-633
217.258	294
217.324	915
217.391	249
217.458	566
217.525	-426
217.592	73
217.659	-797
217.725	782
217.792	-405
217.859	1211
217.926	-1214
217.993	-899
218.059	207
218.126	-490
218.193	-147
218.260	-35
218.327	-810
218.393	-165
218.460	-117
218.527	-1156
218.594	-455
218.660	-413
218.727	-124
218.794	-46
218.860	-76
218.927	-257
218.994	153
219.061	305
219.127	-971
219.194	-623
219.261	-168
219.327	-93
219.394	290
219.461	-365
219.527	-516
219.594	151
219.661	-178
219.727	-551
219.794	464
219.860	-283
219.927	-162
219.994	497
220.060	790
220.127	449
220.193	626
220.260	-676
220.326	597
220.393	676
220.460	-463
220.526	-38
220.593	-186
220.659	2235
220.726	405
220.792	1221
220.859	667
220.925	1264
220.992	1173
221.058	1252
221.125	979
221.191	1644
221.258	-277
221.324	542
221.391	-581
221.457	-904
221.524	-465
221.590	902
221.657	469
221.723	143
221.789	-208
221.856	541
221.922	-815
221.989	-164
222.055	228
222.121	-537
222.188	1023
222.254	74
222.321	-24
222.387	128
222.453	-1200
222.520	180
222.586	-1243
222.652	-300
222.719	-363
222.785	-10
222.851	-1129
222.918	-128
222.984	269
223.050	-502
223.116	-1621
223.183	143
223.249	-702
223.315	-485
223.382	70
223.448	409
223.514	-899
223.580	-549
223.647	-979
223.713	165
223.779	-335
223.845	-112
223.911	-110
223.978	-319
224.044	-789
224.110	-591
224.176	13
224.242	-152
224.309	-1675
224.375	460
224.441	-905
224.507	-578
224.573	-1309
224.639	259
224.705	-730
224.772	865
224.838	-761
224.904	62
224.970	-352
225.036	-594
225.102	-894
225.168	551
225.234	-472
225.300	-98
225.366	-227
225.432	47
225.499	-795
225.565	234
225.631	-972
225.697	654
225.763	-706
225.829	384
225.895	-549
225.961	-312
226.027	11
226.093	-341
226.159	320
226.225	839
226.291	764
226.357	2619
226.423	825
226.489	1224
226.554	-42
226.620	922
226.686	368
226.752	693
226.818	562
226.884	1850
226.950	2279
227.016	1558
227.082	-19
227.148	162
227.214	84
227.279	527
227.345	-203
227.411	1347
227.477	-111
227.543	611
227.609	270
227.674	1089
227.740	-143
227.806	166
227.872	-1360
227.938	747
228.003	-85
228.069	166
228.135	-594
228.201	214
228.267	-742
228.332	-753
228.398	-1400
228.464	691
228.530	-541
228.595	-316
228.661	-1072
228.727	-291
228.792	-473
228.858	104
228.924	-2224
228.990	1495
229.055	-1409
229.121	287
229.187	-296
229.252	-397
229.318	-455
229.384	-279
229.449	-247
229.515	-1499
229.581	-1573
229.646	898
229.712	-892
229.777	-40
229.843	-514
229.909	362
229.974	-762
230.040	-55
230.105	-307
230.171	-963
230.236	-417
230.302	-329
230.368	-727
230.433	-959
230.499	-589
230.564	360
230.630	-1111
230.695	-439
230.761	306
230.826	-1668
230.892	-436
230.957	-735
231.023	-1208
231.088	-4
231.154	-105
231.219	-12
231.284	-1046
231.350	377
231.415	-724
231.481	-14
231.546	-1021
231.612	-200
231.677	-800
231.742	-1005
231.808	152
231.873	-835
231.939	-1898
232.004	962
232.069	-308
232.135	-115
232.200	-322
232.265	648
232.331	-1097
232.396	-338
232.461	-668
232.527	-233
232.592	-974
232.657	93
232.723	262
232.788	303
232.853	-186
232.918	323
232.984	-1280
233.049	-685
233.114	-904
233.179	-241
233.245	6
233.310	494
233.375	-1835
233.440	29
233.506	-1119
233.571	-634
233.636	-1092
233.701	161
233.766	-516
233.832	25
233.897	-1096
233.962	-379
234.027	552
234.092	850
234.157	-689
234.222	-1010
234.288	-175
234.353	110
234.418	-951
234.483	384
234.548	-503
234.613	156
234.678	-481
234.743	-1343
234.808	1278
234.873	-1240
234.938	-117
235.004	-548
235.069	-649
235.134	-1135
235.199	-378
235.264	-138
235.329	-1887
235.394	626
235.459	203
235.524	-363
235.589	146
235.654	-507
235.719	-1065
235.784	270
235.849	-79
235.913	444
235.978	-435
236.043	-86
236.108	-441
236.173	-1145
236.238	98
236.303	54
236.368	-272
236.433	313
236.498	-921
236.563	-363
236.627	390
236.692	3096
236.757	2708
236.822	1097
236.887	-549
236.952	921
237.017	-1770
237.081	689
237.146	-504
237.211	2391
237.276	3252
237.341	5974
237.405	1731
237.470	352
237.535	585
237.600	295
237.664	726
237.729	-650
237.794	-417
237.859	1404
237.923	195
237.988	-66
238.053	701
238.118	478
238.182	-277
238.247	2044
238.312	-931
238.376	450
238.441	-1673
238.506	681
238.570	-679
238.635	1400
238.700	-763
238.764	-213
238.829	140
238.893	-859
238.958	-253
239.023	-519
239.087	-364
239.152	312
239.216	-1368
239.281	857
239.346	-521
239.410	-500
239.475	-225
239.539	816
239.604	-781
239.668	360
239.733	-389
239.797	1398
239.862	1141
239.926	2469
239.991	685
240.055	126
240.120	-166
240.184	619
240.249	-732
240.313	-117
240.378	-782
240.442	444
240.507	233
240.571	470
240.635	-885
240.700	-2
240.764	-993
240.829	-339
240.893	-1450
240.957	-186
241.022	-81
241.086	1046
241.151	-745
241.215	-884
241.279	55
241.344	-455
241.408	-771
241.472	-676
241.537	435
241.601	-207
241.665	-1390
241.730	-518
241.794	481
241.858	235
241.922	-596
241.987	-251
242.051	-693
242.115	-1464
242.179	-1401
242.244	-315
242.308	-142
242.372	294
242.436	-26
242.501	-213
242.565	-945
242.629	-544
242.693	-325
242.757	-879
242.822	-667
242.886	166
242.950	104
243.014	-1363
243.078	-182
243.142	574
243.206	-614
243.271	706
243.335	-960
243.399	857
243.463	-38
243.527	4227
243.591	-40
243.655	-5
243.719	-874
243.783	672
243.847	-581
243.911	398
243.975	-649
244.040	-1363
244.104	860
244.168	-237
244.232	-417
244.296	-670
244.360	135
244.424	-693
244.488	-278
244.552	935
244.615	-1979
244.679	441
244.743	-758
244.807	-578
244.871	264
244.935	396
244.999	-2165
245.063	-980
245.127	-363
245.191	-169
245.255	-958
245.319	-197
245.383	-1429
245.446	467
245.510	-1152
245.574	-427
245.638	116
245.702	-913
245.766	-272
245.829	905
245.893	-688
245.957	-227
246.021	72
246.085	-638
246.149	429
246.212	984
246.276	125
246.340	-531
246.404	-445
246.467	1071
246.531	-2679
246.595	619
246.659	712
246.722	-1235
246.786	40
246.850	20
246.913	-893
246.977	-1201
247.041	-595
247.104	-400
247.168	255
247.232	636
247.295	115
247.359	632
247.423	-1271
247.486	231
247.550	542
247.614	127
247.677	-313
247.741	379
247.804	-311
247.868	295
247.932	-850
247.995	2245
248.059	-115
248.122	-1009
248.186	317
248.249	311
248.313	1510
248.376	1834
248.440	359
248.503	-918
248.567	1272
248.630	-274
248.694	-449
248.757	1530
248.821	1491
248.884	2131
248.948	12
249.011	2369
249.075	2388
249.138	2444
249.202	636
249.265	-543
249.328	-87
249.392	223
249.455	-44
249.519	266
249.582	-104
249.645	705
249.709	401
249.772	212
249.835	-102
249.899	767
249.962	-128
250.025	-1136
250.089	47
250.152	1527
250.215	-209
250.279	-531
250.342	-90
250.405	-67
250.468	-259
250.532	-189
250.595	357
250.658	2354
250.721	4937
250.785	1394
250.848	795
250.911	-44
250.974	11
251.038	172
251.101	1395
251.164	-77
251.227	927
251.290	621
251.354	636
251.417	5399
251.480	4968
251.543	3186
251.606	8657
251.669	7651
251.732	2017
251.795	1807
251.859	1634
251.922	5218
251.985	2922
252.048	1336
252.111	692
252.174	-1180
252.237	1071
252.300	2536
252.363	2633
252.426	7952
252.489	1119
252.552	835
252.615	-145
252.678	1247
252.741	1845
252.804	2475
252.867	7435
252.930	4349
252.993	702
253.056	1530
253.119	97
253.182	39
253.245	-183
253.308	1716
253.371	-1229
253.434	485
253.497	818
253.559	1207
253.622	-207
253.685	781
253.748	407
253.811	166
253.874	477
253.937	37
254.000	-143
254.062	243
254.125	1700
254.188	2369
254.251	566
254.314	-491
254.376	-101
254.439	1160
254.502	-18
254.565	-440
254.628	1413
254.690	502
254.753	-458
254.816	-189
254.878	-534
254.941	1277
255.004	394
255.067	284
255.129	-236
255.192	-178
255.255	-2076
255.317	-31
255.380	-291
255.443	-389
255.505	-465
255.568	-611
255.631	-427
255.693	52
255.756	-1142
255.819	1039
255.881	-769
255.944	958
256.006	-971
256.069	-889
256.132	-1064
256.194	-805
256.257	-480
256.319	202
256.382	-785
256.444	903
256.507	-589
256.569	-391
256.632	-454
256.694	-40
256.757	2057
256.819	7100
256.882	1434
256.944	1015
257.007	948
257.069	-278
257.132	-709
257.194	383
257.257	-473
257.319	-735
257.381	-796
257.444	1821
257.506	6006
257.569	8681
257.631	2265
257.693	1681
257.756	206
257.818	302
257.880	-173
257.943	481
258.005	-661
258.067	-636
258.130	-804
258.192	-647
258.254	-440
258.317	-1103
258.379	204
258.441	111
258.503	690
258.566	432
258.628	785
258.690	-629
258.753	581
258.815	771
258.877	-1179
258.939	-508
259.001	312
259.064	30
259.126	-1057
259.188	92
259.250	-46
259.312	278
259.375	417
259.437	-582
259.499	-541
259.561	-59
259.623	344
259.685	-514
259.747	-505
259.809	618
259.872	1303
259.934	1601
259.996	2346
260.058	922
260.120	-969
260.182	-607
260.244	-544
260.306	-678
260.368	83
260.430	-218
260.492	-627
260.554	1875
260.616	-824
260.678	796
260.740	129
260.802	-13
260.864	373
260.926	-499
260.988	884
261.050	-212
261.112	-104
261.174	3047
261.236	1075
261.298	89
261.359	-690
261.421	1608
261.483	-1040
261.545	560
261.607	-556
261.669	302
261.731	-398
261.793	1207
261.854	-329
261.916	-177
261.978	-666
262.040	670
262.102	-154
262.164	60
262.225	-515
262.287	171
262.349	-389
262.411	470
262.472	169
262.534	96
262.596	-97
262.658	626
262.719	-1383
262.781	916
262.843	-659
262.904	609
262.966	80
263.028	-433
263.090	1020
263.151	4536
263.213	1397
263.275	868
263.336	-369
263.398	770
263.459	-613
263.521	473
263.583	335
263.644	720
263.706	-799
263.767	-552
263.829	362
263.891	-402
263.952	-337
264.014	52
264.075	-909
264.137	1400
264.198	201
264.260	-977
264.321	-562
264.383	-27
264.444	2197
264.506	137
264.567	-126
264.629	807
264.690	249
264.752	942
264.813	385
264.875	-355
264.936	3
264.998	208
265.059	-512
265.120	-368
265.182	-114
265.243	3468
265.305	3791
265.366	531
265.427	-341
265.489	708
265.550	-1257
265.611	-285
265.673	-256
265.734	-905
265.795	-248
265.857	-856
265.918	-931
265.979	1009
266.040	4748
266.102	5725
266.163	638
266.224	813
266.286	-337
266.347	-552
266.408	-1149
266.469	-724
266.530	-796
266.592	-311
266.653	-573
266.714	724
266.775	-435
266.836	138
266.898	-704
266.959	-633
267.020	-1250
267.081	929
267.142	-1047
267.203	-657
267.264	-888
267.326	534
267.387	-460
267.448	-379
267.509	-1175
267.570	40
267.631	-1094
267.692	-909
267.753	-288
267.814	-742
267.875	176
267.936	425
267.997	45
268.058	325
268.119	-1352
268.180	-500
268.241	-640
268.302	-13
268.363	-1006
268.424	-218
268.485	-710
268.546	-260
268.607	-549
268.668	-234
268.729	-739
268.790	-276
268.851	-541
268.912	-13
268.972	411
269.033	-659
269.094	-1200
269.155	119
269.216	-923
269.277	-388
269.338	-687
269.398	-200
269.459	-315
269.520	82
269.581	-1537
269.642	370
269.702	-1204
269.763	505
269.824	-737
269.885	-1309
269.945	83
270.006	-319
270.067	-1205
270.128	-648
270.188	-1221
270.249	-139
270.310	-999
270.370	227
270.431	-173
270.492	31
270.553	-1214
270.613	-411
270.674	770
270.734	-224
270.795	-649
270.856	-92
270.916	-2167
270.977	476
271.038	-48
271.098	-333
271.159	-213
271.219	-158
271.280	-28
271.340	-419
271.401	-702
271.462	108
271.522	-154
271.583	-581
271.643	-875
271.704	-1013
271.764	-200
271.825	-557
271.885	2051
271.946	2757
272.006	817
272.066	969
272.127	2024
272.187	2403
272.248	385
272.308	30
272.369	856
272.429	1209
272.489	-565
272.550	271
272.610	343
272.671	221
272.731	320
272.791	717
272.852	-1187
272.912	240
272.972	-611
273.033	-204
273.093	-469
273.153	315
273.214	-390
273.274	6
273.334	716
273.394	2647
273.455	519
273.515	989
273.575	1048
273.635	1065
273.696	643
273.756	1381
273.816	207
273.876	452
273.936	-28
273.997	1589
274.057	-771
274.117	123
274.177	-22
274.237	2259
274.297	2690
274.358	1100
274.418	1541
274.478	1589
274.538	22
274.598	-458
274.658	929
274.718	1082
274.778	-93
274.838	-292
274.898	-223
274.958	1457
275.018	1314
275.078	1448
275.138	244
275.198	154
275.258	-127
275.318	-103
275.378	-63
275.438	1308
275.498	95
275.558	1093
275.618	2251
275.678	1203
275.738	226
275.798	228
275.858	-462
275.918	-284
275.978	-820
276.038	85
276.098	-1183
276.157	86
276.217	1581
276.277	1009
276.337	72
276.397	-290
276.457	-93
276.517	235
276.576	-123
276.636	-402
276.696	-893
276.756	194
276.815	704
276.875	481
276.935	-1125
276.995	165
277.055	-739
277.114	320
277.174	-327
277.234	1195
277.293	-246
277.353	30
277.413	291
277.472	-791
277.532	-748
277.592	241
277.651	-102
277.711	1788
277.771	-834
277.830	2910
277.890	1569
277.950	896
278.009	4134
278.069	1794
278.128	1620
278.188	2467
278.248	3
278.307	2240
278.367	2018
278.426	72
278.486	228
278.545	-35
278.605	-852
278.664	-124
278.724	-522
278.783	182
278.843	2508
278.902	37
278.962	-633
279.021	-165
279.081	-529
279.140	109
279.199	-647
279.259	-507
279.318	336
279.378	658
279.437	478
279.496	3344
279.556	12081
279.615	10183
279.675	1893
279.734	960
279.793	1488
279.853	2832
279.912	524
279.971	531
280.031	-127
280.090	1121
280.149	2336
280.208	1006
280.268	7585
280.327	10582
280.386	1096
280.445	1427
280.505	-56
280.564	707
280.623	-211
280.682	-50
280.742	1303
280.801	-55
280.860	51
280.919	20
280.978	-503
281.037	-878
281.097	-563
281.156	-164
281.215	-1094
281.274	420
281.333	1075
281.392	1286
281.451	-13
281.510	-160
281.569	-794
281.628	549
281.688	-62
281.747	59
281.806	-710
281.865	-86
281.924	-710
281.983	-487
282.042	-798
282.101	33
282.160	-1137
282.219	-68
282.278	-808
282.337	1070
282.396	-395
282.454	-268
282.513	-830
282.572	1126
282.631	565
282.690	15
282.749	-723
282.808	450
282.867	-532
282.926	-503
282.985	-56
283.043	376
283.102	-835
283.161	597
283.220	-235
283.279	2904
283.338	-314
283.396	-338
283.455	-70
283.514	-743
283.573	159
283.631	138
283.690	-547
283.749	-333
283.808	836
283.866	774
283.925	223
283.984	168
284.043	-251
284.101	-44
284.160	-1399
284.219	741
284.277	-104
284.336	-115
284.395	2228
284.453	1786
284.512	-201
284.570	632
284.629	165
284.688	354
284.746	-616
284.805	68
284.863	395
284.922	1307
284.981	448
285.039	2119
285.098	3298
285.156	8938
285.215	15132
285.273	15343
285.332	10423
285.390	5488
285.449	2841
285.507	2379
285.566	1198
285.624	639
285.683	21
285.741	953
285.799	470
285.858	833
285.916	-191
285.975	314
286.033	282
286.091	1136
286.150	-915
286.208	-768
286.267	-102
286.325	-345
286.383	-91
286.442	549
286.500	-427
286.558	256
286.616	-443
286.675	1027
286.733	124
286.791	105
286.850	-274
286.908	-175
286.966	532
287.024	600
287.083	-1083
287.141	-265
287.199	666
287.257	-179
287.315	61
287.374	32
287.432	631
287.490	309
287.548	-120
287.606	-223
287.664	473
287.723	60
287.781	904
287.839	-404
287.897	-454
287.955	759
288.013	-768
288.071	809
288.129	5715
288.187	23994
288.245	11247
288.303	3567
288.361	600
288.419	102
288.477	-288
288.535	419
288.593	-660
288.651	-389
288.709	-420
288.767	-113
288.825	-724
288.883	-145
288.941	-86
288.999	117
289.057	-633
289.115	-238
289.173	-1086
289.231	-306
289.289	-350
289.346	-80
289.404	-296
289.462	655
289.520	-290
289.578	389
289.636	-684
289.694	490
289.751	269
289.809	-728
289.867	-604
289.925	-126
289.983	-805
290.040	254
290.098	-569
290.156	122
290.214	-283
290.271	-436
290.329	-652
290.387	129
290.444	-567
290.502	-980
290.560	36
290.617	-47
290.675	-252
290.733	464
290.790	-56
290.848	-282
290.906	-773
290.963	-23
291.021	-286
291.078	11
291.136	-888
291.194	1040
291.251	2079
291.309	83
291.366	-481
291.424	-46
291.481	-179
291.539	-170
291.596	192
291.654	505
291.711	-421
291.769	-279
291.826	-509
291.884	-163
291.941	-52
291.999	-165
292.056	-105
292.114	391
292.171	-505
292.228	520
292.286	250
292.343	-221
292.401	-703
292.458	823
292.515	-1212
292.573	70
292.630	-637
292.687	468
292.745	-720
292.802	216
292.859	626
292.917	2027
292.974	689
293.031	136
293.089	-338
293.146	593
293.203	-623
293.260	-599
293.318	-754
293.375	370
293.432	-652
293.489	-208
293.546	-517
293.604	143
293.661	735
293.718	3832
293.775	2207
293.832	756
293.889	6
293.947	613
294.004	-672
294.061	372
294.118	22
294.175	2840
294.232	3411
294.289	1245
294.346	229
294.403	247
294.460	-225
294.517	-574
294.574	-71
294.631	338
294.688	87
294.745	745
294.802	2919
294.859	5680
294.916	1203
294.973	1034
295.030	-18
295.087	622
295.144	284
295.201	-249
295.258	-656
295.315	579
295.372	803
295.429	2421
295.486	981
295.542	540
295.599	1121
295.656	5133
295.713	2374
295.770	2944
295.827	768
295.883	20
295.940	-295
295.997	661
296.054	175
296.111	-22
296.167	-394
296.224	504
296.281	-1154
296.338	36
296.394	-592
296.451	396
296.508	-126
296.564	2422
296.621	2358
296.678	2760
296.734	3976
296.791	2046
296.848	278
296.904	283
296.961	348
297.018	2610
297.074	1931
297.131	1487
297.187	313
297.244	1600
297.301	2463
297.357	6130
297.414	1997
297.470	750
297.527	-550
297.583	-609
297.640	-434
297.696	-477
297.753	-524
297.809	-385
297.866	-1078
297.922	-133
297.979	170
298.035	259
298.092	-720
298.148	1212
298.204	1806
298.261	171
298.317	1538
298.374	3048
298.430	1583
298.486	764
298.543	-986
298.599	278
298.656	-449
298.712	940
298.768	1706
298.824	2633
298.881	84
298.937	1368
298.993	-269
299.050	-110
299.106	-23
299.162	40
299.218	-111
299.275	554
299.331	265
299.387	443
299.443	2701
299.500	7062
299.556	4576
299.612	1021
299.668	416
299.724	3115
299.780	4514
299.837	2084
299.893	1029
299.949	5495
300.005	7672
300.061	4847
300.117	8604
300.173	4139
300.229	1104
300.285	1087
300.341	1233
300.397	924
300.453	41
300.510	776
300.566	829
300.622	1335
300.678	5835
300.734	11074
300.790	5481
300.845	4485
300.901	4348
300.957	7722
301.013	3817
301.069	1667
301.125	596
301.181	738
301.237	-530
301.293	75
301.349	-331
301.405	52
301.461	183
301.516	436
301.572	-300
301.628	-47
301.684	-554
301.740	1142
301.796	1845
301.851	1859
301.907	1659
301.963	2488
302.019	2354
302.074	8827
302.130	9912
302.186	5342
302.242	1514
302.297	658
302.353	-52
302.409	1658
302.464	1121
302.520	988
302.576	2173
302.631	3841
302.687	1810
302.743	1524
302.798	-130
302.854	-1311
302.910	-746
302.965	-75
303.021	570
303.076	628
303.132	993
303.187	1140
303.243	247
303.299	183
303.354	-116
303.410	799
303.465	-363
303.521	213
303.576	-1092
303.632	261
303.687	-63
303.743	3045
303.798	3037
303.853	1375
303.909	-204
303.964	172
304.020	1099
304.075	1084
304.130	522
304.186	1786
304.241	2439
304.297	1691
304.352	618
304.358	640
304.407	824
304.449	-172
304.463	-506
304.518	-355
304.539	-434
304.573	-590
304.629	89
304.630	85
304.684	-48
304.720	983
304.739	1473
304.794	3678
304.811	3412
304.850	2763
304.902	570
304.905	428
304.960	928
304.992	141
305.015	-438
305.071	731
305.083	530
305.126	-237
305.173	369
305.181	493
305.236	-156
305.264	122
305.292	311
305.347	13
305.354	-6
305.402	21
305.445	692
305.457	838
305.512	214
305.535	270
305.567	459
305.622	620
305.626	669
305.678	1662
305.716	3094
305.733	3575
305.788	3783
305.807	3549
305.843	3278
305.897	2970
305.898	2961
305.953	3996
305.988	2540
306.008	1715
306.063	1301
306.078	1065
306.118	494
306.168	178
306.173	153
306.228	-309
306.259	147
306.283	547
306.338	59
306.349	170
306.393	541
306.440	455
306.448	469
306.503	573
306.530	638
306.558	775
306.613	1525
306.620	1647
306.668	2723
306.711	4096
306.723	4166
306.778	3032
306.801	2215
306.833	1571
306.888	1052
306.892	1024
306.943	521
306.982	-88
306.997	-219
307.052	156
307.072	211
307.107	281
307.162	692
307.163	691
307.217	897
307.253	1293
307.272	1370
307.327	897
307.343	953
307.381	1195
307.434	293
307.436	299
307.491	2486
307.524	3510
307.546	3712
307.600	4261
307.614	3868
307.655	2278
307.704	1147
307.710	1126
307.765	1265
307.795	1610
307.819	2048
307.874	3302
307.885	3435
307.929	3315
307.975	2660
307.984	2729
308.038	4328
308.065	4877
308.093	8187
308.148	18060
308.156	20100
308.202	30292
308.246	37729
308.257	36820
308.312	21907
308.336	15126
308.366	10881
308.421	6115
308.426	5730
308.475	3843
308.517	2774
308.530	2482
308.585	2052
308.607	1765
308.639	1823
308.694	2134
308.697	2165
308.748	3031
308.787	4149
308.803	4267
308.857	3192
308.877	3109
308.912	3295
308.967	2848
308.967	2850
309.021	4552
309.058	5428
309.076	6736
309.130	12364
309.148	14316
309.185	24916
309.238	43168
309.239	43321
309.293	47682
309.328	45399
309.348	39873
309.402	20805
309.418	15659
309.457	10727
309.508	6126
309.511	5994
309.566	5381
309.598	4850
309.620	4799
309.674	5315
309.688	5449
309.729	5271
309.778	4758
309.783	4687
309.837	3372
309.868	3003
309.892	3801
309.946	5815
309.959	6399
310.001	8172
310.049	9539
310.055	9239
310.109	6109
310.139	4148
310.163	3212
310.218	1815
310.229	1501
310.272	1655
310.319	1939
310.326	1856
310.381	1021
310.409	923
310.435	1382
310.489	1704
310.499	1797
310.543	1319
310.589	764
310.598	853
310.652	1646
310.679	1875
310.706	1603
310.760	1150
310.769	1078
310.814	1501
310.859	1917
310.868	1887
310.923	1486
310.948	1420
310.977	1692
311.031	1960
311.038	2018
311.085	1694
311.128	1155
311.139	1241
311.193	1955
311.218	2198
311.247	2017
311.301	1672
311.308	1613
311.356	1887
311.398	2205
311.410	2069
311.464	1296
311.488	969
311.518	783
311.572	423
311.578	385
311.626	1136
311.668	1730
311.680	1803
311.734	2152
311.758	2287
311.788	2216
311.842	2068
311.847	2043
311.896	2235
311.937	2442
311.950	2315
312.004	1692
312.027	1424
312.058	1478
312.112	1571
312.117	1578
312.165	2042
312.207	2431
312.297	2867
312.386	1244
312.476	1672
312.566	1935
312.656	2412
312.745	1621
312.835	2129
312.925	1985
313.015	1887
313.104	2384
313.194	1772
313.284	1203
313.374	1875
313.463	2468
313.553	2153
313.643	1508
313.732	2153
313.822	1908
313.912	2900
314.001	1950
314.091	3171
314.180	2508
314.270	4348
314.360	3187
314.449	2610
314.539	2259
314.628	2407
314.718	2778
314.808	2687
314.897	2920
314.987	3465
315.076	2664
315.166	3170
315.255	2873
315.345	3236
315.434	1979
315.524	3657
315.613	2884
315.703	3018
315.792	6010
315.881	19287
315.971	6238
316.060	4476
316.150	4437
316.239	4129
316.328	2325
316.418	3029
316.507	2620
316.597	3279
316.686	2847
316.775	3267
316.865	4040
316.954	2670
317.043	1630
317.133	2377
317.222	1487
317.311	1915
317.400	852
317.490	3275
317.579	2531
317.668	3326
317.757	3232
317.847	9692
317.936	29991
318.025	11103
318.114	7857
318.203	4518
318.293	3422
318.382	5743
318.471	5190
318.560	6625
318.649	11795
318.738	3642
318.828	2818
318.917	2714
319.006	2638
319.095	4532
319.184	13712
319.273	8228
319.362	4032
319.451	2719
319.540	779
319.629	3077
319.718	4882
319.807	3588
319.896	5062
319.985	17418
320.074	5522
320.163	2920
320.252	2260
320.341	3383
320.430	3559
320.519	3212
320.608	2659
320.697	3295
320.786	2304
320.875	4274
320.964	3949
321.053	5669
321.142	6415
321.230	8287
321.319	6839
321.408	10804
321.497	6802
321.586	6444
321.675	4908
321.764	6212
321.852	4594
321.941	7019
322.030	4769
322.119	5601
322.207	10703
322.296	8990
322.385	6686
322.474	8379
322.562	13773
322.651	9021
322.740	5407
322.829	6684
322.917	5499
323.006	4894
323.095	3464
323.183	3895
323.272	4379
323.361	6232
323.449	12484
323.538	5090
323.626	9383
323.715	6449
323.804	3401
323.892	8706
323.981	4800
324.069	3364
324.158	5193
324.246	5242
324.335	2988
324.424	3477
324.512	2944
324.601	2402
324.689	4217
324.778	7338
324.866	4053
324.954	2250
325.043	2243
325.131	3103
325.220	4050
325.308	4489
325.397	3292
325.485	3226
325.574	1380
325.662	1874
325.750	2268
325.839	2524
325.927	974
326.015	2520
326.104	1450
326.192	3645
326.280	1627
326.369	2287
326.457	2449
326.545	4077
326.634	1771
326.722	1565
326.810	2218
326.898	3096
326.987	1856
327.075	3131
327.163	2967
327.251	2741
327.340	3368
327.428	5395
327.516	2994
327.604	2999
327.692	2171
327.781	2687
327.869	1935
327.957	2785
328.045	1613
328.133	2594
328.221	668
328.309	2550
328.397	1765
328.485	2583
328.574	3189
328.662	8059
328.750	4052
328.838	2850
328.926	2200
329.014	2558
329.102	1350
329.190	5530
329.278	1580
329.366	2157
329.454	1544
329.542	2474
329.630	831
329.718	1356
329.806	1727
329.893	2615
329.981	1249
330.069	2150
330.157	1904
330.245	3426
330.333	1842
330.421	1054
330.509	2606
330.597	6765
330.684	4514
330.772	2820
330.860	2200
330.948	3881
331.036	2023
331.123	1759
331.211	1487
331.299	2038
331.387	2297
331.475	5111
331.562	2029
331.650	2361
331.738	1624
331.825	2433
331.913	1610
332.001	1796
332.089	2240
332.176	3134
332.264	4595
332.352	4041
332.439	1755
332.527	1848
332.614	1451
332.702	2697
332.790	1792
332.877	2414
332.965	4140
333.052	2540
333.140	2411
333.228	4096
333.315	1089
333.403	2467
333.490	3086
333.578	2927
333.665	3556
333.753	2999
333.840	1546
333.928	2857
334.015	5070
334.103	7505
334.190	19168
334.278	8498
334.365	8322
334.452	9126
334.540	4963
334.627	5173
334.715	6061
334.802	9654
334.889	23734
334.977	29233
335.064	13544
335.151	6637
335.239	4698
335.326	5603
335.413	11665
335.501	14341
335.588	3422
335.675	4336
335.762	6136
335.850	9172
335.937	10552
336.024	18390
336.111	37798
336.199	28889
336.286	11660
336.373	6637
336.460	3850
336.547	4210
336.635	3758
336.722	3248
336.809	2284
336.896	3203
336.983	6101
337.070	14126
337.157	18782
337.245	10588
337.332	6979
337.419	3368
337.506	2658
337.593	3088
337.680	5436
337.767	14245
337.854	4409
337.941	5721
338.028	4325
338.115	2352
338.202	3101
338.289	4196
338.376	9344
338.463	4091
338.550	8314
338.637	8735
338.724	2469
338.811	3928
338.898	2218
338.984	1865
339.071	1648
339.158	2920
339.245	3650
339.332	3763
339.419	2635
339.506	3560
339.593	947
339.679	1998
339.766	1286
339.853	2666
339.940	3009
340.027	1838
340.113	2183
340.200	2938
340.287	1427
340.374	1499
340.460	2647
340.547	1406
340.634	2823
340.720	6333
340.807	2842
340.894	2385
340.980	1545
341.067	2375
341.154	1926
341.240	2724
341.327	3806
341.414	3581
341.500	2525
341.587	2818
341.674	1695
341.760	3146
341.847	3016
341.933	2531
342.020	1746
342.106	2146
342.193	2270
342.279	2377
342.366	1346
342.452	2626
342.539	1825
342.625	3617
342.712	6143
342.798	3767
342.885	1241
342.971	2208
343.058	1326
343.144	2006
343.230	1406
343.317	1700
343.403	786
343.490	1869
343.576	867
343.662	2618
343.749	1107
343.835	2115
343.921	2441
344.008	10503
344.094	21478
344.180	6270
344.267	2613
344.353	7539
344.439	6659
344.525	4758
344.612	3398
344.698	2987
344.784	3075
344.870	1924
344.957	928
345.043	3110
345.129	1067
345.215	3769
345.301	1621
345.387	1596
345.474	822
345.560	1347
345.646	1379
345.732	2403
345.818	1498
345.904	2245
345.990	1352
346.076	2512
346.162	1999
346.249	2338
346.335	1214
346.421	1744
346.507	2826
346.593	9597
346.679	1492
346.765	2671
346.851	2954
346.937	2462
347.023	2584
347.108	1978
347.194	1646
347.280	1998
347.366	2212
347.452	7483
347.538	13408
347.624	11048
347.710	7250
347.796	2525
347.882	1894
347.967	2661
348.053	1603
348.139	1707
348.225	2381
348.311	1578
348.397	1921
348.482	2994
348.568	2493
348.654	2808
348.740	7594
348.825	7191
348.911	4492
348.997	6055
349.083	10151
349.168	3591
349.254	2155
349.340	2744
349.425	1927
349.511	3049
349.597	1824
349.682	3384
349.768	7559
349.854	4034
349.939	2427
350.025	2432
350.110	2253
350.196	2136
350.282	1795
350.367	2304
350.453	1966
350.538	2426
350.624	1041
350.709	2607
350.795	1161
350.880	1556
350.966	3129
351.051	2654
351.137	2025
351.222	2198
351.308	2913
351.393	6965
351.479	1687
351.564	1860
351.649	1677
351.735	2107
351.820	942
351.906	1824
351.991	1110
352.076	4658
352.162	6686
352.247	2614
352.332	1137
352.418	2654
352.503	2690
352.588	10634
352.673	6986
352.759	2856
352.844	1469
352.929	2254
353.014	1854
353.100	2164
353.185	2444
353.270	2535
353.355	2884
353.441	2822
353.526	1123
353.611	2469
353.696	2125
353.781	2836
353.866	992
353.952	2067
354.037	1841
354.122	5711
354.207	4342
354.292	3089
354.377	1613
354.462	1442
354.547	1345
354.632	2337
354.717	2270
354.802	2029
354.887	1589
354.972	2472
355.057	1335
355.142	1312
355.227	1829
355.312	2289
355.397	2931
355.482	7078
355.567	3184
355.652	3514
355.737	3596
355.822	8005
355.907	5890
355.991	3030
356.076	984
356.161	2525
356.246	1879
356.331	2007
356.416	1961
356.501	14151
356.585	12043
356.670	2319
356.755	3409
356.840	3311
356.924	8395
357.009	28706
357.094	11878
357.179	3105
357.263	2774
357.348	3686
357.433	2424
357.517	3670
357.602	2367
357.687	3014
357.771	2125
357.856	6125
357.941	3990
358.025	7084
358.110	27878
358.195	14570
358.279	2405
358.364	3733
358.448	6185
358.533	15195
358.617	10091
358.702	11651
358.787	4617
358.871	3834
358.956	2522
359.040	2669
359.125	1859
359.209	2677
359.294	3748
359.378	5385
359.462	3514
359.547	2759
359.631	1116
359.716	1425
359.800	1993
359.885	4516
359.969	1088
360.053	2497
360.138	1396
360.222	3136
360.306	2610
360.391	3445
360.475	4203
360.559	6841
360.644	6047
360.728	4720
360.812	7504
360.896	20075
360.981	8596
361.065	5524
361.149	3754
361.233	3065
361.318	1356
361.402	3220
361.486	2996
361.570	2710
361.654	2731
361.739	3369
361.823	12062
361.907	20209
361.991	4825
362.075	4467
362.159	5718
362.243	10878
362.327	19126
362.411	32816
362.495	12001
362.580	6456
362.664	5024
362.748	5719
362.832	9299
362.916	17183
363.000	48940
363.084	78406
363.168	42891
363.252	12565
363.336	6762
363.420	7595
363.503	13856
363.587	17732
363.671	4585
363.755	3793
363.839	6463
363.923	5086
364.007	5968
364.091	8800
364.175	12076
364.258	39841
364.342	59432
364.426	103133
364.510	56733
364.594	19339
364.677	10626
364.761	18600
364.845	15002
364.929	7212
365.013	5923
365.096	5040
365.180	4695
365.264	6979
365.347	21778
365.431	10071
365.515	3147
365.598	2046
365.682	3234
365.766	3696
365.849	3954
365.933	2328
366.017	4359
366.100	2988
366.184	1775
366.267	3908
366.351	1955
366.435	2994
366.518	2074
366.602	3410
366.685	2396
366.769	3181
366.852	3752
366.936	4389
367.019	2776
367.103	2617
367.186	5251
367.270	3039
367.353	1825
367.436	3845
367.520	1928
367.603	3594
367.687	2011
367.770	4591
367.853	4102
367.937	7809
368.020	9088
368.104	3342
368.187	3396
368.270	4646
368.353	3777
368.437	4290
368.520	6707
368.603	6090
368.687	5865
368.770	11404
368.853	3236
368.936	4986
369.020	4309
369.103	2052
369.186	1525
369.269	2189
369.352	3542
369.436	3624
369.519	2811
369.602	1230
369.685	3349
369.768	1433
369.851	2234
369.934	1723
370.018	1702
370.101	2763
370.184	4532
370.267	3877
370.350	2940
370.433	5006
370.516	10012
370.599	17606
370.682	5611
370.765	8650
370.848	9022
370.931	12639
371.014	7372
371.097	2061
371.180	2343
371.263	2952
371.346	409
371.429	2863
371.511	1536
371.594	3157
371.677	3645
371.760	5091
371.843	2292
371.926	9876
372.009	22726
372.091	10456
372.174	4936
372.257	13269
372.340	4608
372.423	5571
372.505	6950
372.588	3233
372.671	5197
372.754	12357
372.836	6817
372.919	8108
373.002	13147
373.085	4179
373.167	3675
373.250	6275
373.332	12115
373.415	16753
373.498	31093
373.580	14746
373.663	23084
373.746	27614
373.828	6672
373.911	5273
373.993	3665
374.076	12876
374.159	11463
374.241	5874
374.324	11780
374.406	9896
374.489	9743
374.571	27348
374.654	11631
374.736	6230
374.819	15521
374.901	25675
374.983	23218
375.066	7209
375.148	3657
375.231	10367
375.313	19905
375.395	8058
375.478	3432
375.560	4066
375.643	3623
375.725	7578
375.807	19742
375.890	17935
375.972	6493
376.054	4382
376.136	6773
376.219	4698
376.301	6836
376.383	18319
376.465	7228
376.548	6174
376.630	6272
376.712	16249
376.794	8147
376.877	2837
376.959	1271
377.041	2714
377.123	3063
377.205	4612
377.287	1188
377.369	2768
377.452	2006
377.534	2315
377.616	1879
377.698	2391
377.780	1670
377.862	3321
377.944	3187
378.026	2180
378.108	2259
378.190	2573
378.272	2297
378.354	2405
378.436	934
378.518	2288
378.600	5694
378.682	5166
378.764	8451
378.846	7656
378.928	3749
379.010	3528
379.091	3411
379.173	2412
379.255	1763
379.337	1946
379.419	3898
379.501	13522
379.583	4952
379.664	3041
379.746	2635
379.828	10069
379.910	10255
379.991	10847
380.073	1996
380.155	2559
380.237	1886
380.318	2516
380.400	1724
380.482	2953
380.564	2906
380.645	3259
380.727	2864
380.809	3686
380.890	1354
380.972	1094
381.053	1426
381.135	3476
381.217	2441
381.298	9694
381.380	5083
381.461	3938
381.543	13976
381.624	18390
381.706	4315
381.787	3319
381.869	3340
381.951	6647
382.032	22716
382.113	19165
382.195	3334
382.276	5124
382.358	4551
382.439	13400
382.521	14580
382.602	23863
382.684	11128
382.765	19001
382.846	17615
382.928	20489
383.009	11200
383.090	10199
383.172	26674
383.253	41528
383.334	15845
383.416	21226
383.497	11528
383.578	5964
383.659	8099
383.741	23791
383.822	61346
383.903	31554
383.984	13224
384.066	26537
384.147	15087
384.228	4975
384.309	4747
384.390	4695
384.471	3509
384.553	3788
384.634	3885
384.715	4838
384.796	2762
384.877	3425
384.958	8982
385.039	8943
385.120	4379
385.201	4199
385.282	3499
385.363	4724
385.444	3494
385.525	5230
385.606	11931
385.687	10622
385.768	4984
385.849	5196
385.930	13494
386.011	21762
386.092	7063
386.173	5277
386.254	3501
386.335	4532
386.416	3727
386.496	7872
386.577	10463
386.658	5675
386.739	3839
386.820	5762
386.901	3435
386.981	4806
387.062	3383
387.143	5800
387.224	11544
387.304	12514
387.385	7864
387.466	6371
387.547	7733
387.627	6368
387.708	7433
387.789	17859
387.869	18218
387.950	9392
388.031	4328
388.111	3124
388.192	6461
388.273	8786
388.353	5276
388.434	4347
388.514	4356
388.595	13834
388.676	16789
388.756	10932
388.837	8998
388.917	6944
388.998	1177
389.078	3914
389.159	2897
389.239	1702
389.320	4908
389.400	2053
389.480	5027
389.561	10047
389.641	7173
389.722	3884
389.802	4132
389.883	6201
389.963	10982
390.043	8065
390.124	2897
390.204	5359
390.284	10625
390.365	7335
390.445	8605
390.525	15367
390.605	11741
390.686	5734
390.766	4086
390.846	4923
390.927	1732
391.007	2312
391.087	3889
391.167	3703
391.247	2232
391.328	4838
391.408	6459
391.488	4884
391.568	2718
391.648	3631
391.728	4117
391.808	5412
391.888	3907
391.969	7494
392.049	8963
392.129	7475
392.209	6327
392.289	13745
392.369	8899
392.449	9526
392.529	7160
392.609	8289
392.689	8827
392.769	15511
392.849	15345
392.929	17556
393.009	25723
393.089	29972
393.169	45323
393.248	105765
393.328	229685
393.408	240657
393.488	116156
393.568	47701
393.648	24895
393.728	15576
393.807	10302
393.887	10863
393.967	8554
394.047	7949
394.127	6485
394.206	9814
394.286	20054
394.366	78881
394.446	87152
394.525	25216
394.605	8783
394.685	6878
394.764	12035
394.844	18942
394.924	17514
395.003	7881
395.083	4652
395.163	5497
395.242	3348
395.322	5273
395.402	2117
395.481	6339
395.561	7730
395.640	24869
395.720	32335
395.799	26816
395.879	16263
395.958	11955
396.038	30310
396.117	100657
396.197	112279
396.276	42091
396.356	16369
396.435	15129
396.515	14358
396.594	19178
396.673	36693
396.753	99097
396.832	211399
396.912	172072
396.991	58164
397.070	24746
397.150	13361
397.229	13016
397.308	20900
397.388	39495
397.467	19793
397.546	7595
397.625	2555
397.705	7075
397.784	4969
397.863	4505
397.942	3917
398.022	4592
398.101	5435
398.180	14891
398.259	8538
398.338	4978
398.417	2561
398.497	3044
398.576	3710
398.655	2494
398.734	2964
398.813	2504
398.892	5680
398.971	16375
399.050	7863
399.129	2601
399.208	2672
399.287	3894
399.366	1311
399.445	2445
399.524	2505
399.603	1745
399.682	2489
399.761	5158
399.840	16319
399.919	14757
399.998	2589
400.077	2432
400.156	1121
400.235	4929
400.313	1921
400.392	1372
400.471	5149
400.550	8491
400.629	1611
400.708	3404
400.786	1538
400.865	3806
400.944	3940
401.023	4066
401.102	1003
401.180	2162
401.259	1282
401.338	2293
401.416	2679
401.495	2004
401.574	1927
401.652	1657
401.731	1924
401.810	1562
401.888	1571
401.967	1383
402.046	1044
402.124	2580
402.203	1505
402.281	2325
402.360	2022
402.438	5270
402.517	2436
402.596	2530
402.674	795
402.753	2501
402.831	1590
402.910	3073
402.988	3435
403.066	9411
403.145	6034
403.223	4871
403.302	8105
403.380	7161
403.459	6451
403.537	4174
403.615	2703
403.694	1468
403.772	2357
403.850	1602
403.929	1741
404.007	2036
404.085	2761
404.164	2404
404.242	1648
404.320	5417
404.398	13628
404.477	13574
404.555	21679
404.633	20207
404.711	10841
404.789	7996
404.868	2442
404.946	1427
405.024	1349
405.102	1610
405.180	27
405.258	446
405.336	2119
405.415	1018
405.493	2226
405.571	2330
405.649	600
405.727	1356
405.805	2574
405.883	2432
405.961	2295
406.039	1337
406.117	659
406.195	2161
406.273	3585
406.351	16676
406.429	11130
406.507	2304
406.585	838
406.663	1565
406.740	1516
406.818	1223
406.896	1369
406.974	2688
407.052	718
407.130	10610
407.208	13181
407.285	4194
407.363	357
407.441	1585
407.519	1573
407.596	2223
407.674	6014
407.752	26060
407.830	21730
407.907	5827
407.985	1011
408.063	1812
408.141	740
408.218	2692
408.296	541
408.373	1964
408.451	1713
408.529	2576
408.606	1313
408.684	2193
408.762	2032
408.839	1982
408.917	1212
408.994	2853
409.072	1374
409.149	2771
409.227	4552
409.304	7337
409.382	8156
409.459	8518
409.537	11350
409.614	10688
409.692	7712
409.769	7295
409.846	11306
409.924	14566
410.001	8988
410.079	7967
410.156	5712
410.233	4084
410.311	2970
410.388	3595
410.465	2759
410.543	2746
410.620	3214
410.697	3206
410.775	2805
410.852	1602
410.929	3022
411.006	4578
411.083	2382
411.161	3131
411.238	2962
411.315	3027
411.392	1701
411.469	2694
411.547	2767
411.624	1139
411.701	878
411.778	2286
411.855	1715
411.932	2157
412.009	798
412.086	3234
412.163	1132
412.240	1357
412.317	1970
412.394	2034
412.471	1806
412.548	1483
412.625	1111
412.702	2324
412.779	2511
412.856	2996
412.933	1405
413.010	1944
413.087	2123
413.164	4505
413.241	6199
413.318	2265
413.395	2135
413.471	1990
413.548	1827
413.625	2500
413.702	601
413.779	1884
413.855	1486
413.932	1446
414.009	271
414.086	2295
414.162	1262
414.239	1662
414.316	3866
414.393	9675
414.469	3587
414.546	1206
414.623	1218
414.699	1604
414.776	714
414.853	629
414.929	960
415.006	1189
415.082	1117
415.159	1644
415.236	881
415.312	1728
415.389	1204
415.465	1222
415.542	1525
415.618	930
415.695	840
415.771	1172
415.848	681
415.924	1476
416.000	764
416.077	1910
416.153	48
416.230	387
416.306	546
416.383	1268
416.459	1625
416.535	1320
416.612	-553
416.688	570
416.764	223
416.841	687
416.917	339
416.993	1816
417.069	747
417.146	1096
417.222	576
417.298	2069
417.374	239
417.451	1360
417.527	964
417.603	465
417.679	1213
417.755	1558
417.831	-67
417.908	728
417.984	669
418.060	599
418.136	1607
418.212	2137
418.288	950
418.364	1518
418.440	496
418.516	2639
418.592	2142
418.668	3280
418.744	2551
418.820	3268
418.896	1053
418.972	889
419.048	1394
419.124	2867
419.200	428
419.276	1149
419.352	372
419.428	2113
419.504	633
419.579	2342
419.655	432
419.731	1775
419.807	3058
419.883	4121
419.959	3232
420.034	3104
420.110	2306
420.186	7290
420.262	6473
420.337	2193
420.413	2353
420.489	2337
420.565	3280
420.640	2227
420.716	2883
420.792	2013
420.867	3336
420.943	3138
421.019	3598
421.094	4026
421.170	3663
421.245	3617
421.321	4156
421.397	4661
421.472	8867
421.548	20018
421.623	15070
421.699	8171
421.774	8110
421.850	8781
421.925	10152
422.001	12680
422.076	14386
422.152	17303
422.227	23386
422.302	32803
422.378	44839
422.453	69788
422.529	99978
422.604	114834
422.679	94816
422.755	115293
422.830	109730
422.905	75766
422.981	51955
423.056	37775
423.131	27785
423.207	21955
423.282	16128
423.357	15445
423.432	11553
423.508	10900
423.583	9888
423.658	9941
423.733	7258
423.808	6654
423.883	6115
423.959	7626
424.034	6603
424.109	7693
424.184	5640
424.259	4048
424.334	4345
424.409	3658
424.484	2571
424.559	2805
424.634	3021
424.709	3304
424.784	3280
424.859	3075
424.934	2608
425.009	5767
425.084	8051
425.159	3901
425.234	2402
425.309	2191
425.384	1989
425.459	3391
425.534	2711
425.609	1501
425.683	1678
425.758	2789
425.833	1839
425.908	2502
425.983	2593
426.058	7569
426.132	3068
426.207	1919
426.282	3082
426.357	2190
426.431	980
426.506	1771
426.581	859
426.655	2444
426.730	1401
426.805	340
426.879	1392
426.954	2327
427.029	1107
427.103	7062
427.178	14663
427.253	7409
427.327	1686
427.402	1495
427.476	3095
427.551	1719
427.625	1681
427.700	2491
427.774	525
427.849	2017
427.923	968
427.998	1221
428.072	1012
428.147	4910
428.221	16152
428.296	49633
428.370	28243
428.444	5518
428.519	2083
428.593	3593
428.667	3700
428.742	4361
428.816	7175
428.890	30861
428.965	47591
429.039	14729
429.113	5175
429.188	2366
429.262	1861
429.336	1793
429.410	3529
429.485	3147
429.559	3428
429.633	3515
429.707	1928
429.781	6345
429.855	29534
429.930	46392
430.004	16228
430.078	16833
430.152	24945
430.226	62455
430.300	63485
430.374	16355
430.448	4941
430.522	6476
430.596	14873
430.670	14603
430.744	39559
430.818	48000
430.892	10275
430.966	2581
431.040	1806
431.114	297
431.188	180
431.262	571
431.336	814
431.410	2750
431.484	3378
431.557	2961
431.631	898
431.705	3094
431.779	10938
431.853	45902
431.927	32973
432.000	5615
432.074	1875
432.148	1660
432.222	821
432.295	965
432.369	624
432.443	1260
432.516	5679
432.590	13637
432.664	5289
432.737	841
432.811	-510
432.885	82
432.958	196
433.032	371
433.106	-42
433.179	808
433.253	491
433.326	493
433.400	330
433.473	519
433.547	434
433.620	410
433.694	110
433.767	1340
433.841	-347
433.914	509
433.988	9
434.061	700
434.134	-127
434.208	578
434.281	-84
434.355	195
434.428	1132
434.501	850
434.575	-224
434.648	1584
434.721	-739
434.795	353
434.868	-193
434.941	220
435.014	311
435.088	1617
435.161	528
435.234	1781
435.307	818
435.381	1959
435.454	3114
435.527	5312
435.600	5750
435.673	5250
435.746	3147
435.819	2682
435.892	1619
435.966	1691
436.039	561
436.112	1789
436.185	614
436.258	1237
436.331	-256
436.404	864
436.477	166
436.550	394
436.623	487
436.696	239
436.769	-519
436.842	769
436.915	42
436.987	724
437.060	104
437.133	715
437.206	88
437.279	1427
437.352	176
437.425	1409
437.498	120
437.570	1115
437.643	1184
437.716	643
437.789	-430
437.861	859
437.934	614
438.007	1079
438.080	-398
438.152	903
438.225	850
438.298	7318
438.370	19866
438.443	7907
438.516	1286
438.588	826
438.661	702
438.734	358
438.806	323
438.879	598
438.951	156
439.024	1556
439.096	-176
439.169	894
439.241	-160
439.314	86
439.386	-252
439.459	462
439.531	304
439.604	-22
439.676	556
439.749	534
439.821	132
439.893	579
439.966	-516
440.038	1162
440.110	697
440.183	501
440.255	-60
440.327	1709
440.400	3086
440.472	12355
440.544	7763
440.617	1462
440.689	1607
440.761	1327
440.833	1305
440.905	1403
440.978	433
441.050	1059
441.122	1021
441.194	101
441.266	747
441.338	425
441.411	1099
441.483	4996
441.555	5651
441.627	2177
441.699	1547
441.771	1458
441.843	-313
441.915	1519
441.987	320
442.059	2014
442.131	1315
442.203	2311
442.275	2223
442.347	4501
442.419	7736
442.491	37471
442.563	77659
442.635	34337
442.706	9377
442.778	5749
442.850	2477
442.922	2541
442.994	2069
443.066	3228
443.137	2657
443.209	3435
443.281	5600
443.353	13346
443.425	39829
443.496	113215
443.568	119649
443.640	53788
443.711	12551
443.783	5270
443.855	2932
443.926	2935
443.998	1424
444.070	2449
444.141	1959
444.213	2546
444.285	1909
444.356	1681
444.428	939
444.499	1261
444.571	1049
444.642	2444
444.714	1033
444.785	2521
444.857	2229
444.928	4330
445.000	3323
445.071	4808
445.143	5084
445.214	6660
445.285	10705
445.357	27620
445.428	74871
445.500	133837
445.571	111007
445.642	77774
445.714	27939
445.785	12475
445.856	4851
445.928	4025
445.999	2636
446.070	2347
446.141	2409
446.213	2310
446.284	651
446.355	1195
446.426	750
446.497	882
446.569	1387
446.640	1272
446.711	1141
446.782	830
446.853	290
446.924	1343
446.995	-148
447.066	1037
447.138	700
447.209	1150
447.280	-439
447.351	367
447.422	-864
447.493	-43
447.564	234
447.635	649
447.706	821
447.777	501
447.847	285
447.918	297
447.989	919
448.060	588
448.131	1821
448.202	1309
448.273	732
448.344	392
448.414	865
448.485	639
448.556	267
448.627	230
448.698	1266
448.768	369
448.839	-75
448.910	1086
448.981	1279
449.051	511
449.122	-222
449.193	1048
449.263	393
449.334	238
449.405	3
449.475	1341
449.546	709
449.616	1218
449.687	979
449.758	937
449.828	-369
449.899	392
449.969	93
450.040	34
450.110	128
450.181	378
450.251	-490
450.322	611
450.392	350
450.463	615
450.533	-135
450.604	369
450.674	-381
450.744	1148
450.815	-573
450.885	1333
450.955	720
451.026	385
451.096	-298
451.166	904
451.237	1277
451.307	3527
451.377	1736
451.447	1082
451.518	529
451.588	1256
451.658	157
451.728	1402
451.799	3045
451.869	3676
451.939	-19
452.009	1920
452.079	-581
452.149	944
452.219	751
452.289	4278
452.360	1441
452.430	761
452.500	597
452.570	2133
452.640	5092
452.710	13951
452.780	15865
452.850	8698
452.920	4401
452.990	2048
453.060	1043
453.129	1197
453.199	1118
453.269	4452
453.339	8198
453.409	11986
453.479	12172
453.549	16788
453.619	17464
453.688	6786
453.758	1064
453.828	870
453.898	570
453.968	725
454.037	426
454.087	590
454.107	653
454.168	179
454.177	102
454.247	999
454.249	960
454.316	-280
454.330	-61
454.386	748
454.411	901
454.456	1052
454.492	2080
454.525	2999
454.574	846
454.595	-109
454.655	580
454.665	689
454.734	289
454.736	337
454.804	1804
454.817	2149
454.873	3318
454.898	3507
454.943	3860
454.979	2262
455.013	764
455.060	1070
455.082	1286
455.141	1045
455.152	972
455.221	2943
455.222	2979
455.291	4310
455.303	4325
455.360	4220
455.384	5539
455.430	7443
455.465	6040
455.499	4808
455.546	3933
455.569	3453
455.627	2678
455.638	2562
455.707	-21
455.708	-7
455.777	892
455.789	887
455.846	819
455.869	941
455.916	1200
455.950	1197
455.985	1113
456.031	954
456.054	889
456.112	813
456.124	806
456.193	1741
456.193	1734
456.262	868
456.274	1065
456.332	1945
456.355	1513
456.401	589
456.436	950
456.470	1265
456.516	903
456.540	771
456.597	1128
456.609	1158
456.678	869
456.678	860
456.747	1327
456.759	1201
456.817	624
456.840	681
456.886	627
456.920	617
456.955	635
457.001	1509
457.024	1954
457.082	1480
457.093	1408
457.162	1471
457.163	1484
457.232	1173
457.243	1227
457.301	1388
457.324	1123
457.370	606
457.405	1176
457.439	1846
457.485	1649
457.508	1596
457.566	2352
457.577	2522
457.646	3269
457.647	3300
457.715	7450
457.727	8190
457.784	13572
457.808	18637
457.853	24748
457.889	28744
457.922	29161
457.969	19696
457.991	19072
458.050	21896
458.060	22626
458.129	39891
458.130	40409
458.198	42341
458.211	38111
458.267	21186
458.292	14720
458.336	9270
458.372	9019
458.405	12183
458.453	17684
458.474	21774
458.533	38726
458.543	39996
458.611	64837
458.614	65096
458.680	41661
458.694	33168
458.749	14827
458.775	10595
458.818	6086
458.855	4689
458.887	3747
458.936	3430
458.955	3335
459.016	2794
459.024	2761
459.093	3040
459.097	2987
459.162	1494
459.177	1619
459.230	2498
459.257	2592
459.299	2743
459.338	2677
459.368	2478
459.418	2423
459.437	2335
459.499	2613
459.505	2699
459.574	3011
459.579	3008
459.643	2423
459.659	2372
459.711	1936
459.740	1987
459.780	2321
459.820	2098
459.849	1983
459.900	2342
459.917	2463
459.981	2359
459.986	2324
460.054	2340
460.061	2351
460.123	2540
460.141	2678
460.191	3319
460.222	3229
460.260	2871
460.302	3000
460.328	3178
460.382	3174
460.397	3092
460.462	3279
460.465	3442
460.534	7425
460.543	7827
460.602	19995
460.623	25153
460.671	38723
460.703	51261
460.739	46335
460.783	35279
460.808	29840
460.864	8165
460.876	6334
460.944	3119
460.945	3086
461.013	3016
461.024	2996
461.081	2687
461.104	2794
461.150	3063
461.184	2600
461.218	2029
461.264	2403
461.286	2751
461.345	2403
461.355	2329
461.423	3281
461.425	3266
461.491	1962
461.505	1980
461.559	3370
461.585	3610
461.628	4173
461.665	5487
461.696	5974
461.745	6470
461.764	5805
461.825	2857
461.832	2890
461.901	2558
461.905	2627
461.969	2515
461.985	2386
462.037	3016
462.065	3426
462.105	2978
462.145	2254
462.173	2784
462.225	4246
462.241	4390
462.305	5066
462.310	5020
462.378	3858
462.385	3708
462.446	3033
462.465	2881
462.514	3180
462.545	3237
462.582	2590
462.625	2105
462.650	2384
462.705	2731
462.718	2713
462.785	3176
462.786	3191
462.854	3397
462.865	3529
462.922	3683
462.945	3624
462.990	3344
463.025	3031
463.058	2927
463.104	2768
463.126	2671
463.184	2692
463.194	2731
463.262	2555
463.264	2566
463.330	2862
463.344	2826
463.398	2962
463.424	3148
463.466	2919
463.504	2662
463.533	3114
463.583	3779
463.601	3692
463.663	3428
463.669	3424
463.737	3398
463.743	3388
463.805	4589
463.823	4979
463.873	6022
463.903	6603
463.940	6831
463.982	7217
464.008	6104
464.062	3209
464.076	3192
464.142	3524
464.144	3521
464.211	2791
464.221	2808
464.279	3301
464.301	3298
464.347	3462
464.381	3628
464.414	3866
464.461	4225
464.482	3974
464.540	3325
464.550	3279
464.617	2824
464.620	2814
464.685	3719
464.699	3788
464.753	3974
464.779	4335
464.820	4883
464.859	5179
464.888	5126
464.938	5088
464.956	5141
465.018	5250
465.023	5246
465.091	5043
465.098	5002
465.158	4278
465.177	4207
465.226	4737
465.257	4781
465.293	4471
465.336	4196
465.361	4482
465.416	5108
465.428	5104
465.495	5243
465.496	5263
465.563	7038
465.575	7388
465.631	8922
465.654	9514
465.698	7127
465.734	5070
465.765	4693
465.813	4023
465.833	3955
465.893	3844
465.900	3968
465.968	5035
465.972	5105
466.035	4225
466.052	3973
466.102	4108
466.131	4159
466.170	3895
466.210	3576
466.237	3907
466.290	4649
466.304	4649
466.369	4408
466.372	4408
466.439	4350
466.449	4322
466.506	4936
466.528	5164
466.573	6005
466.607	6615
466.641	7861
466.687	9630
466.708	10281
466.766	11984
466.775	11276
466.842	5844
466.845	5574
466.909	5294
466.925	5243
466.977	4944
467.004	4784
467.044	4949
467.083	5113
467.111	5597
467.163	6449
467.178	6588
467.242	7146
467.245	7131
467.312	6566
467.321	6484
467.379	6653
467.400	6690
467.446	6703
467.480	6696
467.559	6595
467.638	6102
467.717	5918
467.796	6242
467.875	6990
467.955	6480
468.034	7288
468.113	13669
468.192	16736
468.271	9736
468.350	10233
468.429	14227
468.508	13874
468.588	9752
468.667	7135
468.746	6096
468.825	6150
468.904	5696
468.983	6176
469.062	8195
469.141	7914
469.220	6037
469.299	5721
469.378	5365
469.456	7502
469.535	7089
469.614	6424
469.693	6832
469.772	6490
469.851	7829
469.930	5902
470.009	6364
470.088	5390
470.166	5497
470.245	6852
470.324	6267
470.403	6246
470.482	6346
470.560	6260
470.639	5371
470.718	6000
470.797	5695
470.875	5692
470.954	6407
471.033	6612
471.111	5071
471.190	5577
471.269	4836
471.347	5585
471.426	4912
471.505	6081
471.583	6549
471.662	5690
471.740	5546
471.819	5769
471.898	5613
471.976	5372
472.055	5781
472.133	6101
472.212	7826
472.290	5711
472.369	4671
472.447	5486
472.526	4951
472.604	5537
472.683	5085
472.761	5215
472.839	5441
472.918	4894
472.996	5510
473.075	5884
473.153	5189
473.231	5217
473.310	5054
473.388	5726
473.466	5665
473.545	6660
473.623	6397
473.701	5640
473.780	6024
473.858	5006
473.936	6494
474.014	5222
474.093	6266
474.171	7944
474.249	8682
474.327	6480
474.405	4417
474.484	5886
474.562	4844
474.640	4605
474.718	4677
474.796	4729
474.874	5339
474.952	4195
475.030	5444
475.108	5033
475.187	4678
475.265	5586
475.343	6145
475.421	6739
475.499	4858
475.577	4741
475.655	5882
475.733	7662
475.811	11222
475.889	9910
475.966	7700
476.044	4664
476.122	5055
476.200	4796
476.278	5250
476.356	4538
476.434	4697
476.512	5385
476.590	6090
476.667	6132
476.745	4553
476.823	5612
476.901	4933
476.979	5294
477.056	5378
477.134	3509
477.212	4734
477.290	5436
477.367	4471
477.445	5564
477.523	4957
477.601	4800
477.678	4790
477.756	4988
477.834	6161
477.911	5006
477.989	5060
478.066	4741
478.144	4645
478.222	5065
478.299	5758
478.377	6259
478.454	4560
478.532	4632
478.609	4469
478.687	5047
478.764	3984
478.842	4410
478.919	4244
478.997	3930
479.074	4352
479.152	4010
479.229	5231
479.307	4365
479.384	4452
479.461	4583
479.539	4459
479.616	4914
479.694	3770
479.771	4148
479.848	5117
479.926	3803
480.003	6137
480.080	5052
480.157	5203
480.235	5086
480.312	4382
480.389	4321
480.467	5766
480.544	5447
480.621	5683
480.698	4984
480.775	4774
480.853	5446
480.930	4065
481.007	5021
481.084	6286
481.161	9410
481.238	7086
481.315	3834
481.392	4111
481.470	4405
481.547	5115
481.624	3799
481.701	3937
481.778	4483
481.855	5146
481.932	5785
482.009	8484
482.086	5984
482.163	5480
482.240	6035
482.317	7494
482.393	5294
482.470	5579
482.547	4755
482.624	4851
482.701	5445
482.778	4198
482.855	4411
482.932	5331
483.009	4286
483.085	6365
483.162	8399
483.239	7987
483.316	5474
483.393	7330
483.469	5044
483.546	6313
483.623	5218
483.699	4117
483.776	4084
483.853	4985
483.930	6179
484.006	9398
484.083	15608
484.160	12214
484.236	18715
484.313	14105
484.389	11264
484.466	11819
484.543	10730
484.619	12314
484.696	13590
484.772	11476
484.849	9806
484.925	9419
485.002	9065
485.078	9781
485.155	9047
485.231	8851
485.308	7636
485.384	8509
485.461	9727
485.537	10645
485.614	13260
485.690	8676
485.766	8151
485.843	8461
485.919	9523
485.995	9065
486.072	8240
486.148	7454
486.224	7475
486.301	7840
486.377	8015
486.453	6778
486.530	9028
486.606	12117
486.682	11971
486.758	12227
486.835	12916
486.911	10838
486.987	14345
487.063	13972
487.139	15574
487.215	15487
487.292	12981
487.368	12199
487.444	12424
487.520	17601
487.596	22073
487.672	46678
487.748	131117
487.824	191385
487.900	60980
487.976	18742
488.052	13155
488.128	11983
488.204	8426
488.280	9330
488.356	9829
488.432	12839
488.508	16185
488.584	8101
488.660	7784
488.736	7038
488.812	7370
488.888	9378
488.964	8813
489.039	12205
489.115	15545
489.191	12174
489.267	7426
489.343	6958
489.418	7016
489.494	6738
489.570	5452
489.646	8031
489.722	7428
489.797	6951
489.873	8768
489.949	12747
490.024	10976
490.100	6445
490.176	6577
490.251	6462
490.327	8267
490.403	6567
490.478	7233
490.554	6788
490.629	5771
490.705	5405
490.781	5807
490.856	5101
490.932	7067
491.007	6669
491.083	5876
491.158	5286
491.234	6248
491.309	9297
491.385	9564
491.460	5409
491.536	5913
491.611	5007
491.686	6107
491.762	5683
491.837	8190
491.913	12628
491.988	14332
492.063	16576
492.139	8003
492.214	6467
492.289	5850
492.365	4982
492.440	6107
492.515	5274
492.590	5574
492.666	4588
492.741	5265
492.816	6461
492.891	4939
492.967	6053
493.042	5110
493.117	4915
493.192	5184
493.267	7741
493.342	16316
493.418	19924
493.493	6235
493.568	5023
493.643	5477
493.718	5922
493.793	5815
493.868	6367
493.943	4688
494.018	5071
494.093	4228
494.168	4512
494.243	3634
494.318	4505
494.393	4167
494.468	4507
494.543	4457
494.618	4110
494.693	3619
494.768	3502
494.842	4213
494.917	4181
494.992	5223
495.067	4638
495.142	4510
495.217	5029
495.292	3981
495.366	4503
495.441	5356
495.516	6280
495.591	6312
495.665	12772
495.740	25703
495.815	11654
495.890	5145
495.964	3249
496.039	6271
496.114	5855
496.188	10176
496.263	6911
496.338	4242
496.412	4519
496.487	5449
496.561	5134
496.636	5703
496.710	4445
496.785	6347
496.860	5316
496.934	4593
497.009	4021
497.083	4215
497.158	4357
497.232	5065
497.307	5612
497.381	5191
497.455	4526
497.530	5743
497.604	6038
497.679	4945
497.753	5756
497.827	6191
497.902	5728
497.976	8753
498.050	19031
498.125	65554
498.199	60224
498.273	7670
498.348	5874
498.422	4897
498.496	5903
498.570	5960
498.645	4610
498.719	4421
498.793	5882
498.867	7918
498.941	10435
499.016	28300
499.090	69949
499.164	21455
499.238	5729
499.312	4743
499.386	5203
499.460	5683
499.534	4967
499.609	5615
499.683	7166
499.757	7970
499.831	13839
499.905	46733
499.979	40088
500.053	8647
500.127	7859
500.201	4754
500.275	5261
500.349	4828
500.422	4998
500.496	6396
500.570	10610
500.644	27190
500.718	45633
500.792	10028
500.866	6179
500.940	6438
501.013	5594
501.087	5130
501.161	6756
501.235	6658
501.309	18109
501.382	41487
501.456	32798
501.530	8507
501.603	13212
501.677	6348
501.751	4536
501.825	6308
501.898	7966
501.972	16589
502.046	11148
502.119	4083
502.193	9322
502.266	17406
502.340	9607
502.413	10016
502.487	16065
502.561	9105
502.634	5082
502.708	4293
502.781	2804
502.855	5250
502.928	2615
503.002	4413
503.075	3472
503.149	3628
503.222	4761
503.295	4580
503.369	5563
503.442	6064
503.516	14528
503.589	29981
503.662	18618
503.736	9457
503.809	18459
503.882	16688
503.956	26002
504.029	35104
504.102	71879
504.175	100628
504.249	35518
504.322	14924
504.395	8637
504.468	6632
504.542	5632
504.615	3967
504.688	5428
504.761	2911
504.834	5058
504.907	4540
504.980	5145
505.053	4023
505.127	3116
505.200	6562
505.273	4196
505.346	3059
505.419	2696
505.492	4312
505.565	2679
505.638	2909
505.711	3533
505.784	2872
505.857	2840
505.930	4383
506.003	2195
506.076	4550
506.149	2882
506.221	2840
506.294	5624
506.367	8067
506.440	22485
506.513	10666
506.586	4760
506.659	3027
506.731	3144
506.804	3071
506.877	3377
506.950	3129
507.022	3574
507.095	2292
507.168	4514
507.241	4655
507.313	2469
507.386	2573
507.459	3187
507.531	4026
507.604	2027
507.677	3500
507.749	1525
507.822	4247
507.894	6036
507.967	7609
508.040	5869
508.112	4632
508.185	4395
508.257	3018
508.330	5638
508.402	4001
508.475	3880
508.547	4849
508.620	3675
508.692	5139
508.765	5143
508.837	3343
508.909	4329
508.982	3461
509.054	4184
509.127	3467
509.199	4652
509.271	3165
509.344	3911
509.416	3256
509.488	3054
509.560	3448
509.633	3678
509.705	3560
509.777	4276
509.849	4779
509.922	3308
509.994	4368
510.066	4976
510.138	3835
510.210	8314
510.283	5791
510.355	5806
510.427	5074
510.499	4752
510.571	4426
510.643	4047
510.715	6440
510.787	3437
510.859	5151
510.931	5248
511.003	5480
511.076	5625
511.148	4131
511.219	4710
511.291	6276
511.363	6634
511.435	5229
511.507	3236
511.579	4200
511.651	4833
511.723	3985
511.795	3686
511.867	3611
511.939	4981
512.010	4860
512.082	5579
512.154	2896
512.226	4239
512.298	6224
512.369	7415
512.441	5990
512.513	6590
512.585	3269
512.656	6150
512.728	4207
512.800	3460
512.871	4685
512.943	5499
513.015	3611
513.086	5378
513.158	5282
513.230	3702
513.301	4433
513.373	5780
513.444	4110
513.516	4294
513.588	3508
513.659	4628
513.731	4141
513.802	2761
513.874	6545
513.945	7745
514.016	3587
514.088	3910
514.159	2782
514.231	6070
514.302	6123
514.374	6161
514.445	3685
514.516	9212
514.588	5509
514.659	4467
514.730	5353
514.802	5821
514.873	2743
514.944	6730
515.016	4944
515.087	3441
515.158	4552
515.229	7458
515.301	3975
515.372	4719
515.443	2947
515.514	4286
515.585	3032
515.656	4779
515.728	4709
515.799	4459
515.870	5053
515.941	4571
516.012	3673
516.083	6233
516.154	4308
516.225	6228
516.296	5883
516.367	4340
516.438	3234
516.509	5593
516.580	6599
516.651	15066
516.722	36322
516.793	18070
516.864	6118
516.935	6717
517.006	7561
517.077	8859
517.148	14877
517.219	41488
517.289	55785
517.360	25601
517.431	11862
517.502	4438
517.573	5914
517.643	5386
517.714	5889
517.785	5889
517.856	4914
517.926	7702
517.997	7406
518.068	6584
518.138	9697
518.209	11010
518.280	30749
518.350	96753
518.421	34498
518.492	12673
518.562	12507
518.633	15965
518.703	20612
518.774	51767
518.845	126052
518.915	112104
518.986	31580
519.056	14395
519.127	12509
519.197	13518
519.268	26147
519.338	18833
519.408	6240
519.479	7239
519.549	4929
519.620	6542
519.690	4837
519.760	5398
519.831	4415
519.901	4796
519.971	4796
520.042	3990
520.112	4356
520.182	6099
520.253	5133
520.323	4402
520.393	4431
520.463	7098
520.534	2529
520.604	8771
520.674	6263
520.744	5110
520.814	7262
520.885	8086
520.955	10022
521.025	28152
521.095	11140
521.165	5824
521.235	4426
521.305	3609
521.375	4547
521.445	5703
521.515	3962
521.585	5269
521.655	3770
521.725	4709
521.795	4671
521.865	2568
521.935	6400
522.005	4141
522.075	4241
522.145	5092
522.215	3787
522.285	5803
522.355	5831
522.424	10045
522.494	7622
522.564	5230
522.634	7680
522.704	14854
522.774	6174
522.843	5095
522.913	4519
522.983	4107
523.053	4283
523.122	4960
523.192	4397
523.262	7883
523.331	6578
523.401	5432
523.471	4531
523.540	4548
523.610	3017
523.680	4552
523.749	3962
523.819	5708
523.888	4537
523.958	4310
524.027	4357
524.097	4369
524.166	4443
524.236	4080
524.305	6654
524.375	4229
524.444	3233
524.514	6201
524.583	4522
524.653	3795
524.722	4714
524.791	3612
524.861	5920
524.930	3971
524.999	4490
525.069	6186
525.138	4817
525.207	5143
525.277	5404
525.346	5625
525.415	6451
525.484	6246
525.554	6681
525.623	8422
525.692	10875
525.761	10557
525.830	11705
525.900	14444
525.969	23255
526.038	41447
526.107	90055
526.176	242838
526.245	174795
526.314	53980
526.383	124343
526.452	156667
526.522	243886
526.591	200010
526.660	35284
526.729	20005
526.797	25014
526.867	38800
526.935	130066
527.004	377204
527.073	203552
527.142	27299
527.211	12443
527.280	10138
527.349	8319
527.418	6315
527.487	7024
527.555	4976
527.624	5347
527.693	3429
527.762	5672
527.831	3295
527.899	4773
527.968	5112
528.037	3260
528.106	5315
528.174	6317
528.243	5855
528.312	4640
528.380	5120
528.449	3513
528.518	5098
528.586	1844
528.655	5925
528.723	4027
528.792	3766
528.861	3934
528.929	2840
528.998	5446
529.066	6161
529.135	8102
529.203	7355
529.272	8508
529.340	11476
529.409	12186
529.477	9592
529.545	9403
529.614	12588
529.682	12281
529.751	13617
529.819	17051
529.887	16951
529.956	14758
530.024	14890
530.092	13030
530.161	15046
530.229	14067
530.297	15412
530.365	15459
530.434	15729
530.502	14164
530.570	15065
530.638	11414
530.707	13627
530.775	13017
530.843	12018
530.911	13711
530.979	13560
531.047	14077
531.115	13870
531.183	13413
531.252	13890
531.320	12261
531.388	11740
531.456	14813
531.524	12741
531.592	15681
531.660	18472
531.728	14291
531.796	14280
531.864	14543
531.932	14688
532.000	13604
532.067	15816
532.135	16291
532.203	18839
532.271	17878
532.339	19196
532.407	20696
532.475	18723
532.542	16813
532.610	17595
532.678	17485
532.746	28907
532.814	41271
532.881	21147
532.949	17329
533.017	16440
533.084	15577
533.152	15689
533.220	15230
533.287	14911
533.355	15403
533.423	16047
533.490	16698
533.558	16301
533.625	14895
533.693	14645
533.761	14472
533.828	15743
533.896	13311
533.963	18749
534.031	19229
534.098	19133
534.166	16138
534.233	15296
534.300	18008
534.368	16158
534.435	14504
534.503	16141
534.570	16632
534.637	17398
534.705	18876
534.772	21184
534.840	32744
534.907	116097
534.974	125441
535.041	22390
535.109	15230
535.176	12567
535.243	13293
535.310	13674
535.378	12108
535.445	12555
535.512	12448
535.579	11804
535.646	11225
535.714	11679
535.781	13001
535.848	13628
535.915	13074
535.982	13005
536.049	12896
536.116	12406
536.183	11525
536.250	11414
536.317	10400
536.384	12029
536.451	12325
536.518	12146
536.585	10223
536.652	12790
536.719	12583
536.786	10160
536.853	11059
536.920	12330
536.987	12148
537.053	11144
537.120	23166
537.187	19871
537.254	10175
537.321	10915
537.388	11835
537.454	9766
537.521	9968
537.588	10492
537.654	10312
537.721	11162
537.788	11776
537.855	10238
537.921	9987
537.988	10308
538.055	10766
538.121	9125
538.188	9117
538.254	10011
538.321	10977
538.388	9965
538.454	10172
538.521	10791
538.587	10382
538.654	9923
538.720	9831
538.787	10065
538.853	10042
538.920	9671
538.986	8723
539.053	8851
539.119	9314
539.185	8976
539.252	10942
539.318	11050
539.385	11537
539.451	9520
539.517	11456
539.583	11158
539.650	12053
539.716	17605
539.782	10528
539.849	8948
539.915	9517
539.981	9480
540.047	9945
540.114	9785
540.180	11268
540.246	9443
540.312	10339
540.378	11088
540.444	11492
540.510	12023
540.576	18773
540.643	11499
540.709	8431
540.775	9896
540.841	9225
540.907	9932
540.973	11348
541.039	9631
541.105	10451
541.171	9703
541.237	9628
541.303	10717
541.369	11908
541.435	11170
541.500	10625
541.566	9222
541.632	8026
541.698	9140
541.764	10230
541.830	8986
541.896	8775
541.961	9600
542.027	8947
542.093	9825
542.159	9812
542.224	9285
542.290	10930
542.356	10269
542.421	11440
542.487	10004
542.553	8963
542.618	9187
542.684	9053
542.750	8938
542.815	9739
542.881	10278
542.947	17690
543.012	15286
543.078	9396
543.143	8507
543.209	9612
543.274	7324
543.340	10071
543.405	11416
543.471	13297
543.536	10060
543.602	9390
543.667	8116
543.732	10395
543.798	9385
543.863	9145
543.928	8658
543.994	8904
544.059	9737
544.124	10341
544.190	10233
544.255	10682
544.320	10379
544.386	9094
544.451	11527
544.516	10310
544.581	11409
544.646	15234
544.712	18136
544.777	11748
544.842	10666
544.907	11377
544.972	9987
545.037	11904
545.102	11945
545.168	11209
545.233	12649
545.298	12519
545.363	12317
545.428	12507
545.493	15016
545.558	16415
545.623	14093
545.688	11457
545.753	13058
545.818	11903
545.883	14285
545.947	12701
546.012	14607
546.077	14189
546.142	16516
546.207	14715
546.272	17092
546.337	16165
546.401	16827
546.466	17750
546.531	16740
546.596	19788
546.661	20465
546.725	21024
546.790	20504
546.855	23236
546.919	24337
546.984	27134
547.049	29148
547.113	34287
547.178	36299
547.243	41090
547.307	47114
547.372	52387
547.436	51922
547.501	54570
547.565	57775
547.630	54484
547.695	51035
547.759	52609
547.823	52990
547.888	53888
547.952	56785
548.017	56577
548.081	61105
548.146	60000
548.210	60028
548.274	64865
548.339	62641
548.403	57772
548.468	53496
548.532	54950
548.596	55451
548.660	55864
548.725	61255
548.789	64068
548.853	63732
548.917	60584
548.982	59756
549.046	53186
549.110	49179
549.174	51300
549.238	58878
549.303	64255
549.367	67030
549.431	63133
549.495	59467
549.559	59321
549.623	69129
549.687	73826
549.751	74281
549.815	86128
549.879	89199
549.943	84969
550.007	90117
550.071	87326
550.135	79809
550.199	76643
550.263	75980
550.327	72425
550.391	75662
550.455	80974
550.519	84385
550.582	90208
550.646	102206
550.710	102762
550.774	100966
550.838	103647
550.901	105648
550.965	110673
551.029	115182
551.093	122541
551.156	130812
551.220	141949
551.284	149551
551.347	124780
551.411	115579
551.475	112223
551.538	113650
551.602	105276
551.666	102564
551.729	96230
551.793	94881
551.856	94462
551.920	94212
551.983	92398
552.047	92390
552.110	91521
552.174	93438
552.237	94659
552.301	90330
552.364	87783
552.428	85795
552.491	88407
552.554	89117
552.618	88789
552.681	91508
552.745	86276
552.808	90668
552.871	92774
552.934	91538
552.998	89063
553.061	89099
553.124	84780
553.187	86727
553.251	86678
553.314	89880
553.377	90047
553.440	97452
553.503	109193
553.567	116054
553.630	99009
553.693	98131
553.756	100547
553.819	99502
553.882	97329
553.945	97542
554.008	99264
554.071	98177
554.134	100075
554.197	95403
554.260	95308
554.323	96532
554.386	96217
554.449	98653
554.512	98498
554.575	94580
554.638	93673
554.701	93882
554.764	95108
554.827	90778
554.889	88063
554.952	83159
555.015	81591
555.078	83320
555.141	83491
555.203	82105
555.266	81998
555.329	81797
555.391	79004
555.454	77240
555.517	74439
555.580	72153
555.642	69565
555.705	69861
555.768	69740
555.830	66877
555.893	65058
555.955	62089
556.018	60782
556.080	61218
556.143	62754
556.206	60725
556.268	59305
556.330	57575
556.393	55959
556.455	55447
556.518	55624
556.580	53812
556.643	50070
556.705	51468
556.767	48949
556.830	48346
556.892	47734
556.955	46397
557.017	45551
557.079	45936
557.142	44159
557.204	43238
557.266	43393
557.328	40911
557.391	37509
557.453	37028
557.515	37449
557.577	37899
557.639	36763
557.701	37263
557.764	36418
557.826	36908
557.888	37635
557.950	38667
558.012	41801
558.074	49844
558.136	91793
558.198	177600
558.260	69788
558.322	38330
558.384	37841
558.446	39498
558.508	41610
558.570	45519
558.632	51721
558.694	64512
558.756	99209
558.818	250139
558.880	464710
558.942	185020
559.003	185485
559.065	88750
559.127	43757
559.189	42997
559.251	48328
559.312	66481
559.374	139721
559.436	358795
559.498	169438
559.559	48107
559.621	42542
559.683	48521
559.744	76477
559.806	204154
559.868	258996
559.929	65142
559.991	47253
560.052	71664
560.114	173364
560.176	107708
560.237	106440
560.299	149449
560.360	38946
560.422	21750
560.483	19575
560.545	19056
560.606	18066
560.667	18148
560.729	17446
560.790	16983
560.852	16397
560.913	15748
560.974	15681
561.036	15103
561.097	16814
561.158	16064
561.220	15823
561.281	15555
561.342	15151
561.403	15862
561.465	15368
561.526	18103
561.587	18360
561.648	14365
561.709	14632
561.771	14590
561.832	13574
561.893	13498
561.954	13518
562.015	13899
562.076	12572
562.137	13373
562.198	13803
562.259	13486
562.320	12770
562.381	13300
562.442	13636
562.503	13417
562.564	12676
562.625	12545
562.686	11697
562.747	12683
562.808	12217
562.869	12354
562.930	13332
562.991	12483
563.051	12473
563.112	12908
563.173	12831
563.234	11826
563.294	12132
563.355	11759
563.416	12304
563.477	11497
563.537	10676
563.598	11996
563.659	11061
563.720	11233
563.780	11558
563.841	10847
563.901	12306
563.962	11063
564.023	11426
564.083	12105
564.144	11644
564.204	11441
564.265	11143
564.325	11700
564.386	13991
564.446	12382
564.507	11890
564.567	10831
564.628	10276
564.688	11202
564.749	10578
564.809	10873
564.869	11707
564.930	12056
564.990	11570
565.050	10563
565.111	11268
565.171	11262
565.231	10543
565.292	11537
565.352	10027
565.412	10977
565.472	9835
565.532	10325
565.593	10870
565.653	10742
565.713	11250
565.773	11721
565.833	11510
565.893	11364
565.953	10166
566.013	10022
566.074	10273
566.134	11515
566.194	11521
566.254	12492
566.314	11263
566.374	10126
566.434	11316
566.494	10922
566.554	9536
566.614	10053
566.673	12073
566.733	11158
566.793	11138
566.853	10692
566.913	10823
566.973	10661
567.033	10849
567.092	9907
567.152	10898
567.212	10596
567.272	11787
567.331	11240
567.391	11095
567.451	12101
567.511	12713
567.570	11357
567.630	12164
567.690	10929
567.749	10840
567.809	11255
567.868	11458
567.928	10341
567.988	10371
568.047	10398
568.107	10045
568.166	11043
568.226	10967
568.285	12067
568.345	11093
568.404	10802
568.464	10749
568.523	11133
568.582	10654
568.642	10292
568.701	10403
568.761	11038
568.820	10709
568.879	11454
568.939	11535
568.998	11402
569.057	11117
569.116	10823
569.176	10787
569.235	10581
569.294	11172
569.353	10636
569.413	10918
569.472	10134
569.531	10263
569.590	10184
569.649	9726
569.708	10447
569.767	10784
569.827	10662
569.886	10582
569.945	9165
570.004	10202
570.063	9516
570.122	10849
570.181	11219
570.240	10747
570.299	11149
570.358	11751
570.417	11012
570.475	11515
570.534	11686
570.593	11387
570.652	11603
570.711	11359
570.770	10138
570.829	11155
570.887	10552
570.946	12492
571.005	10952
571.064	11848
571.122	11346
571.181	10927
571.240	11327
571.299	9454
571.357	10742
571.416	10818
571.475	11489
571.533	11117
571.592	11090
571.650	11336
571.709	11049
571.768	11916
571.826	13151
571.885	11295
571.943	11200
572.002	11271
572.060	10675
572.119	10820
572.177	10961
572.236	10972
572.294	9999
572.352	11452
572.411	11018
572.469	11047
572.528	10847
572.586	11770
572.644	12031
572.703	10489
572.761	10511
572.819	10205
572.877	10348
572.936	9571
572.994	10604
573.052	9338
573.110	11031
573.169	9696
573.227	10768
573.285	10530
573.343	11704
573.401	10260
573.459	10494
573.517	10007
573.576	10145
573.634	10733
573.692	10012
573.750	9926
573.808	9917
573.866	9770
573.924	10360
573.982	9182
574.040	9299
574.098	9662
574.155	9211
574.213	10190
574.271	9699
574.329	10528
574.387	9178
574.445	9164
574.503	8972
574.560	8817
574.618	9048
574.676	8452
574.734	8822
574.792	8521
574.849	9483
574.907	7803
574.965	8285
575.022	7329
575.080	7280
575.138	9010
575.195	7650
575.253	7507
575.311	8727
575.368	8516
575.426	7729
575.483	8555
575.541	8963
575.598	8399
575.656	7868
575.713	7945
575.771	8602
575.828	7759
575.886	7704
575.943	8816
576.001	7601
576.058	7461
576.115	8635
576.173	7849
576.230	8764
576.287	8332
576.345	9019
576.402	8655
576.459	8591
576.517	7455
576.574	8893
576.631	9386
576.688	8390
576.746	7904
576.803	7263
576.860	7664
576.917	8877
576.974	6630
577.031	8267
577.089	8345
577.146	7345
577.203	7896
577.260	8476
577.317	8047
577.374	7967
577.431	7960
577.488	8123
577.545	7109
577.602	7614
577.659	8009
577.716	8165
577.773	8334
577.830	8418
577.886	7767
577.943	6883
578.000	8581
578.057	7719
578.114	8846
578.171	9529
578.227	9965
578.284	9821
578.341	9352
578.398	8129
578.454	8361
578.511	8671
578.568	9040
578.625	8693
578.681	8776
578.738	7504
578.794	8196
578.851	8862
578.908	8326
578.964	8124
579.021	8676
579.077	8437
579.134	8584
579.190	8055
579.247	7889
579.303	8898
579.360	7017
579.416	7626
579.473	8064
579.529	8255
579.586	8697
579.642	8666
579.698	8120
579.755	8961
579.811	8791
579.867	9116
579.924	9173
579.980	8888
580.036	10363
580.093	10888
580.149	13674
580.205	14026
580.261	12566
580.317	10985
580.374	9756
580.430	10307
580.486	10236
580.542	9798
580.598	9450
580.619	9565
580.654	9773
580.692	9525
580.710	9413
580.765	9667
580.767	9680
580.823	10180
580.838	10105
580.879	9918
580.911	10214
580.935	10445
580.984	9754
580.991	9666
581.047	10920
581.057	10898
581.103	10819
581.130	10625
581.159	10428
581.203	11057
581.215	11226
581.270	10841
581.276	10820
581.326	10638
581.349	10781
581.382	11000
581.422	10737
581.438	10625
581.494	10291
581.494	10293
581.550	10782
581.567	10957
581.606	11347
581.640	10949
581.661	10698
581.713	11843
581.717	11941
581.773	10044
581.786	10314
581.829	11161
581.859	11014
581.885	10930
581.932	11908
581.940	12067
581.996	12322
582.004	12229
582.052	11784
582.077	11631
582.107	11447
582.150	11799
582.163	11911
582.219	11436
582.223	11458
582.274	11701
582.296	11621
582.330	11514
582.368	12137
582.386	12427
582.441	12287
582.441	12285
582.497	13155
582.514	13144
582.552	13240
582.587	13213
582.608	13137
582.659	13208
582.663	13215
582.719	13849
582.732	13723
582.774	13378
582.805	13623
582.830	13864
582.877	14848
582.885	15016
582.941	16520
582.950	16634
582.996	17358
583.023	18008
583.052	18809
583.095	19806
583.107	19931
583.162	19496
583.168	19443
583.218	18863
583.240	18360
583.273	17575
583.313	16643
583.328	16320
583.384	15124
583.385	15102
583.439	14392
583.458	14513
583.494	14855
583.531	14694
583.549	14683
583.603	14354
583.605	14339
583.660	14447
583.676	14412
583.715	14393
583.748	14859
583.770	15193
583.820	14440
583.825	14347
583.881	14753
583.893	14572
583.936	14199
583.965	14477
583.991	14545
584.038	14376
584.046	14437
584.101	15517
584.110	15590
584.156	15729
584.183	15792
584.211	15748
584.255	15776
584.266	15888
584.321	16013
584.328	16109
584.376	16664
584.400	16820
584.431	17095
584.472	16553
584.486	16373
584.541	17785
584.545	17796
584.596	17786
584.617	17584
584.651	17744
584.689	18088
584.706	18081
584.761	19735
584.762	19725
584.816	19584
584.834	19579
584.871	19682
584.906	20119
584.926	20281
584.978	20535
584.980	20566
585.035	21371
585.051	21730
585.090	22939
585.123	23347
585.145	23463
585.195	24474
585.200	24699
585.254	27636
585.267	28212
585.309	29828
585.340	31649
585.364	33395
585.412	36938
585.419	37599
585.473	44126
585.484	46162
585.528	58422
585.556	68959
585.583	91469
585.628	141258
585.637	160275
585.692	307998
585.700	332102
585.747	412439
585.772	375776
585.801	253935
585.845	105710
585.856	88377
585.910	47830
585.917	43718
585.965	36860
585.989	34230
586.019	32481
586.061	30190
586.074	29734
586.128	28352
586.133	28198
586.183	26896
586.205	26442
586.237	26243
586.277	25285
586.292	25000
586.346	25030
586.349	24983
586.401	24736
586.421	24643
586.455	24528
586.493	24716
586.509	25252
586.564	25713
586.565	25748
586.618	29433
586.637	29934
586.672	30145
586.709	30396
586.727	30644
586.781	32143
586.781	32178
586.835	27804
586.853	26507
586.889	24812
586.925	23450
586.944	23243
586.996	23385
586.998	23414
587.052	23047
587.068	22882
587.106	23311
587.140	23467
587.161	23468
587.212	23744
587.215	23794
587.269	23752
587.284	23850
587.323	24340
587.356	24338
587.377	24334
587.427	24940
587.431	25060
587.485	25685
587.499	25750
587.539	25837
587.571	26293
587.593	26945
587.643	28353
587.648	28445
587.702	27637
587.715	27627
587.755	28043
587.786	28354
587.810	28780
587.858	28819
587.864	28794
587.917	28857
587.930	28706
587.971	29341
588.001	29802
588.025	29840
588.073	29911
588.079	30069
588.133	30534
588.145	30729
588.187	31144
588.217	31305
588.241	32085
588.288	33250
588.295	33416
588.348	34421
588.360	34498
588.402	34995
588.431	35851
588.456	36900
588.503	38230
588.510	38715
588.564	42355
588.575	43195
588.617	45875
588.646	47569
588.671	50018
588.718	55063
588.725	56709
588.778	70971
588.789	74462
588.832	109733
588.861	136741
588.886	185437
588.932	289275
588.939	298654
588.993	356321
589.004	355780
589.047	221587
589.075	140589
589.100	110037
589.147	66151
589.154	64627
589.207	54414
589.218	52375
589.261	52097
589.290	52150
589.314	53845
589.361	58151
589.368	60310
589.421	79052
589.433	83574
589.475	136508
589.504	177681
589.528	224714
589.576	319899
589.582	311848
589.635	189422
589.647	164205
589.689	97203
589.718	56903
589.742	52136
589.790	43566
589.795	43488
589.849	42577
589.861	42256
589.902	41899
589.932	41349
589.955	40175
590.004	37273
590.009	37220
590.062	36272
590.075	35881
590.115	35727
590.146	35579
590.168	35629
590.218	35282
590.222	35398
590.275	35892
590.289	35948
590.328	36447
590.360	36782
590.381	37173
590.431	37459
590.435	37562
590.488	37743
590.503	37772
590.541	38055
590.574	38056
590.594	38343
590.645	38858
590.647	38977
590.700	39371
590.716	39455
590.753	40560
590.787	41349
590.806	41704
590.859	42357
590.859	42466
590.912	42567
590.930	42531
590.965	43467
591.001	44218
591.018	44165
591.071	43481
591.072	43360
591.124	44109
591.143	44196
591.177	44295
591.214	44136
591.230	44401
591.283	45009
591.285	44907
591.336	45412
591.356	45498
591.389	45514
591.427	45249
591.442	45291
591.495	44808
591.498	44662
591.547	45198
591.569	45278
591.600	45842
591.640	46212
591.653	46268
591.706	45986
591.711	45833
591.759	47839
591.782	48697
591.811	50120
591.853	51797
591.864	51881
591.917	51547
591.924	51352
591.969	51562
591.995	51447
592.022	51696
592.066	51771
592.075	52160
592.127	53581
592.137	53718
592.180	55295
592.208	55997
592.233	56017
592.279	55618
592.285	55935
592.338	57282
592.350	57423
592.390	56315
592.421	55203
592.443	55995
592.491	57251
592.495	57469
592.548	58283
592.562	58352
592.600	58172
592.633	57706
592.653	58131
592.704	58497
592.705	58857
592.775	60036
592.846	60753
592.916	62987
592.987	63035
593.058	62967
593.128	63566
593.199	64387
593.270	64498
593.341	64801
593.411	67113
593.482	69243
593.553	69890
593.623	69615
593.694	71978
593.764	74649
593.835	73378
593.906	73168
593.976	75669
594.047	78462
594.117	81266
594.188	84156
594.258	82108
594.329	82334
594.399	84120
594.470	87226
594.540	89747
594.611	89895
594.681	90555
594.751	89841
594.822	93809
594.892	95984
594.963	99784
595.033	101080
595.103	104645
595.174	104673
595.244	110301
595.314	114236
595.384	112151
595.455	114289
595.525	118562
595.595	122383
595.665	123220
595.736	120054
595.806	122952
595.876	124441
595.946	124442
596.016	128257
596.087	134901
596.157	131562
596.227	134375
596.297	141393
596.367	148256
596.437	156972
596.507	158569
596.577	159102
596.647	161089
596.717	167138
596.787	168235
596.857	169622
596.927	170000
596.997	171443
597.067	174940
597.137	176665
597.207	179069
597.277	179107
597.347	174383
597.417	168784
597.487	171042
597.557	172898
597.626	178392
597.696	179243
597.766	182614
597.836	174113
597.906	166016
597.975	161102
598.045	164428
598.115	169555
598.185	179865
598.254	199074
598.324	215813
598.394	218806
598.464	211632
598.533	210875
598.603	200476
598.672	192566
598.742	198192
598.812	198932
598.881	204836
598.951	203996
599.020	208063
599.090	213442
599.159	218618
599.229	211032
599.299	209974
599.368	215140
599.437	213473
599.507	201481
599.576	197101
599.646	196578
599.715	197807
599.785	196799
599.854	193660
599.924	192038
599.993	194010
600.062	196337
600.132	200604
600.201	210335
600.270	232615
600.340	245193
600.409	242362
600.478	241669
600.547	247325
600.617	233225
600.686	204638
600.755	191954
600.824	187296
600.894	185319
600.963	188961
601.032	189022
601.101	187213
601.170	184468
601.239	183832
601.308	185557
601.378	189006
601.447	191470
601.516	193823
601.585	197320
601.654	201258
601.723	204886
601.792	210550
601.861	215528
601.930	225273
601.999	229955
602.068	227212
602.137	230132
602.206	232255
602.275	234398
602.343	237137
602.412	238352
602.481	240857
602.550	240679
602.619	245938
602.688	245398
602.756	250260
602.825	248161
602.894	255146
602.963	254929
603.032	261374
603.100	262933
603.169	257108
603.238	265328
603.307	254752
603.375	257861
603.444	267389
603.513	256186
603.581	262352
603.650	272276
603.719	246050
603.787	242093
603.856	246007
603.924	251302
603.993	257153
604.061	265685
604.130	274618
604.198	277326
604.267	281641
604.335	288338
604.404	288374
604.472	298032
604.541	296477
604.609	304522
604.678	307949
604.746	309867
604.815	323861
604.883	316628
604.951	313247
605.020	319377
605.088	309837
605.156	306524
605.225	306904
605.293	308588
605.361	310557
605.429	309771
605.498	315960
605.566	314083
605.634	329646
605.702	334688
605.771	343844
605.839	346971
605.907	332702
605.975	332144
606.043	323309
606.111	320827
606.180	330393
606.248	315277
606.316	313531
606.384	322658
606.452	296838
606.520	280643
606.588	286843
606.656	289206
606.724	283791
606.792	269348
606.860	246261
606.928	227048
606.996	219410
607.064	215605
607.132	221117
607.200	230847
607.267	239477
607.335	245950
607.403	250368
607.471	242135
607.539	234636
607.607	237320
607.674	211043
607.742	210259
607.810	209552
607.878	208592
607.946	212577
608.013	221955
608.081	225443
608.149	228405
608.216	233510
608.284	242190
608.352	240055
608.419	240646
608.487	234898
608.555	229441
608.622	237997
608.690	248314
608.757	268482
608.825	274048
608.893	267015
608.960	252539
609.028	244722
609.095	246173
609.163	242602
609.230	221206
609.298	202546
609.365	214148
609.432	228560
609.500	245450
609.567	277785
609.635	313965
609.702	327797
609.769	314816
609.837	250058
609.904	218903
609.971	222328
610.039	241247
610.106	281371
610.173	443939
610.241	830021
610.308	571974
610.375	288687
610.442	240646
610.509	228692
610.577	228239
610.644	230999
610.711	237051
610.778	243887
610.845	254173
610.912	266982
610.980	276727
611.047	278497
611.114	273590
611.181	262779
611.248	264568
611.315	279015
611.382	284821
611.449	294694
611.516	298482
611.583	293362
611.650	294738
611.717	297306
611.784	302522
611.851	310866
611.918	321390
611.984	353386
612.051	436961
612.118	667491
612.185	1176322
612.252	907296
612.319	451079
612.386	379745
612.452	348141
612.519	331608
612.586	328211
612.653	333728
612.719	340706
612.786	332077
612.853	310737
612.919	303788
612.986	310506
613.053	293815
613.120	280541
613.186	268990
613.253	273671
613.319	271082
613.386	272449
613.453	277962
613.519	279186
613.586	277041
613.652	281175
613.719	277653
613.785	278929
613.852	282723
613.918	282410
613.985	282973
614.051	293901
614.118	298297
614.184	287533
614.250	280388
614.317	286386
614.383	282674
614.449	289678
614.516	285242
614.582	289258
614.648	284188
614.715	280203
614.781	276275
614.847	277650
614.914	274425
614.980	268113
615.046	269580
615.112	276502
615.179	278233
615.245	281629
615.311	275978
615.377	280370
615.443	283866
615.509	283747
615.575	293351
615.642	291507
615.708	296919
615.774	307928
615.840	319601
615.906	329243
615.972	367842
616.038	472055
616.104	768762
616.170	1277380
616.236	1155855
616.302	578653
616.368	469500
616.434	371175
616.500	341976
616.565	363642
616.631	430764
616.697	379430
616.763	376894
616.829	498090
616.895	784001
616.961	767772
617.026	418803
617.092	317594
617.158	298736
617.224	292892
617.289	274424
617.355	264525
617.421	262138
617.487	259303
617.552	250321
617.618	250069
617.684	251484
617.749	251706
617.815	243642
617.880	239857
617.946	236469
618.012	243243
618.077	247957
618.143	238503
618.208	240876
618.274	253417
618.339	255377
618.405	220755
618.470	221059
618.536	221344
618.601	220558
618.667	207696
618.732	197628
618.798	196970
618.863	197676
618.928	194846
618.994	196560
619.059	195212
619.124	198589
619.190	193008
619.255	192639
619.320	193182
619.386	195417
619.451	193596
619.516	190788
619.581	192345
619.647	198557
619.712	199293
619.777	191136
619.842	194020
619.907	196760
619.972	199264
620.038	199697
620.103	193602
620.168	191958
620.233	197345
620.298	197638
620.363	198695
620.428	203034
620.493	207765
620.558	210601
620.623	211307
620.688	210473
620.753	210064
620.818	212055
620.883	214226
620.948	213668
621.013	212545
621.078	210275
621.143	210782
621.207	215259
621.272	211534
621.337	206827
621.402	204431
621.467	206309
621.532	207317
621.596	207428
621.661	201081
621.726	200438
621.791	200432
621.855	201573
621.920	202664
621.985	202098
622.049	206714
622.114	205582
622.179	208242
622.243	211940
622.308	217014
622.373	224836
622.437	218151
622.502	208295
622.566	209187
622.631	207520
622.695	210162
622.760	207837
622.824	208297
622.889	210307
622.953	210139
623.018	221801
623.082	222397
623.147	219449
623.211	215957
623.276	215018
623.340	208769
623.404	204506
623.469	205598
623.533	205138
623.597	200715
623.662	200922
623.726	191401
623.790	182906
623.854	179166
623.919	181455
623.983	182464
624.047	183551
624.111	184532
624.176	187734
624.240	188150
624.304	193581
624.368	186937
624.432	186684
624.496	189769
624.560	196828
624.625	197457
624.689	195897
624.753	204611
624.817	195617
624.881	190159
624.945	177271
625.009	173466
625.073	174848
625.137	178094
625.201	187673
625.265	184997
625.329	176654
625.393	180227
625.456	180653
625.520	183036
625.584	185626
625.648	190276
625.712	196453
625.776	206360
625.839	201484
625.903	163271
625.967	150289
626.031	162462
626.095	189496
626.158	169394
626.222	141106
626.286	132759
626.349	129438
626.413	122658
626.477	121153
626.540	121514
626.604	120393
626.668	119406
626.731	117112
626.795	115465
626.858	116328
626.922	113803
626.986	112181
627.049	112492
627.113	115835
627.176	113285
627.240	110168
627.303	109273
627.366	106923
627.430	109463
627.493	108047
627.557	106152
627.620	109054
627.684	112368
627.747	111818
627.810	101061
627.874	94928
627.937	90943
628.000	95987
628.064	91920
628.127	83344
628.190	82677
628.253	82322
628.317	79078
628.380	74836
628.443	73879
628.506	73842
628.569	70543
628.632	67214
628.696	67025
628.759	66848
628.822	64836
628.885	63520
628.948	62720
629.011	61257
629.074	60576
629.137	60792
629.200	56754
629.263	57874
629.326	56078
629.389	56272
629.452	55007
629.515	55639
629.578	53641
629.641	55226
629.704	54649
629.767	53325
629.830	53294
629.892	51998
629.955	50050
630.018	53279
630.081	51572
630.144	52413
630.207	49783
630.269	52133
630.332	48497
630.395	48387
630.458	47443
630.520	45436
630.583	47360
630.646	47922
630.708	47773
630.771	47724
630.834	51708
630.896	49299
630.959	48206
631.021	46341
631.084	47003
631.146	47116
631.209	47769
631.272	46789
631.334	48378
631.397	48401
631.459	46931
631.522	49619
631.584	50365
631.646	53059
631.709	54303
631.771	53576
631.834	52263
631.896	50327
631.958	47994
632.021	47823
632.083	45214
632.145	46232
632.208	44811
632.270	45744
632.332	43977
632.395	44511
632.457	46279
632.519	43452
632.581	44975
632.643	42872
632.706	43665
632.768	42968
632.830	43265
632.892	44337
632.954	45659
633.016	47046
633.078	44481
633.141	44353
633.203	42455
633.265	43676
633.327	44407
633.389	43128
633.451	43900
633.513	44762
633.575	46213
633.637	45190
633.698	45214
633.760	47568
633.822	47468
633.884	48041
633.946	49153
634.008	50093
634.070	50886
634.132	52759
634.193	54730
634.255	58534
634.317	59828
634.379	59085
634.441	54117
634.502	49794
634.564	47326
634.626	45605
634.687	44349
634.749	42533
634.811	43143
634.873	41285
634.934	43086
634.996	42756
635.057	42113
635.119	41807
635.181	43603
635.242	44259
635.304	40924
635.365	45093
635.427	41698
635.488	43418
635.550	42372
635.611	42996
635.673	42450
635.734	45545
635.796	45950
635.857	50044
635.918	51292
635.980	56834
636.041	57262
636.102	60165
636.164	60915
636.225	59362
636.286	52064
636.348	49847
636.409	45807
636.470	42561
636.531	43154
636.593	42382
636.654	42530
636.715	40190
636.776	39856
636.838	38814
636.899	39770
636.960	38726
637.021	38009
637.082	36565
637.143	37065
637.204	35778
637.265	36416
637.326	37402
637.387	38795
637.448	35685
637.509	37428
637.570	37226
637.631	37144
637.692	35330
637.753	34216
637.814	36041
637.875	35170
637.936	36521
637.997	35780
638.058	34810
638.119	36239
638.179	35982
638.240	34549
638.301	36768
638.362	34590
638.423	33751
638.483	34804
638.544	32669
638.605	34616
638.666	33675
638.726	34128
638.787	35475
638.848	34117
638.908	33917
638.969	32422
639.030	32818
639.090	31853
639.151	32171
639.211	33123
639.272	33305
639.332	36044
639.393	34748
639.453	35101
639.514	35908
639.574	33986
639.635	30751
639.695	31299
639.756	31106
639.816	31271
639.877	31909
639.937	32530
639.997	33951
640.058	30482
640.118	30007
640.178	31867
640.239	30373
640.299	30782
640.359	30635
640.420	32287
640.480	34959
640.540	37524
640.600	38020
640.661	36232
640.721	34799
640.781	40171
640.841	37396
640.901	31993
640.961	32140
641.021	31610
641.082	33698
641.142	32021
641.202	31310
641.262	29057
641.322	30836
641.382	28664
641.442	30439
641.502	30475
641.562	29809
641.622	30452
641.682	31342
641.742	33011
641.802	31411
641.861	30582
641.921	27929
641.981	28946
642.041	28977
642.101	28354
642.161	25784
642.221	27081
642.280	27105
642.340	27703
642.400	26845
642.460	28276
642.519	28254
642.579	28396
642.639	28417
642.698	26127
642.758	30508
642.818	28640
642.877	28713
642.937	27534
642.997	29269
643.056	29341
643.116	28011
643.175	29451
643.235	28170
643.294	30644
643.354	31449
643.414	32546
643.473	34154
643.532	37477
643.592	46563
643.651	63390
643.711	100174
643.770	174486
643.830	384511
643.889	672754
643.948	233543
644.008	67430
644.067	44182
644.126	35396
644.186	32786
644.245	30749
644.304	27851
644.363	30209
644.423	26385
644.482	27799
644.541	29865
644.600	28044
644.659	34838
644.719	38069
644.778	52624
644.837	79213
644.896	154987
644.955	324221
645.014	120369
645.073	40224
645.132	32941
645.191	31301
645.250	29339
645.309	30730
645.368	33758
645.427	41100
645.486	62116
645.545	100604
645.604	37927
645.663	28840
645.722	27564
645.781	27585
645.840	30074
645.898	33462
645.957	43499
646.016	57903
646.075	93796
646.134	166964
646.192	398808
646.251	534648
646.310	128082
646.369	51448
646.427	43122
646.486	34115
646.545	29309
646.603	27056
646.662	26961
646.721	24818
646.779	24126
646.838	24683
646.896	29315
646.955	35649
647.014	53578
647.072	92715
647.131	231688
647.189	116369
647.248	28316
647.306	24152
647.365	24216
647.423	20818
647.481	22771
647.540	19847
647.598	21452
647.657	20233
647.715	20394
647.773	18188
647.832	20831
647.890	18217
647.948	18778
648.007	19212
648.065	17510
648.123	17771
648.181	19343
648.240	17436
648.298	18111
648.356	17887
648.414	18149
648.472	16794
648.531	17593
648.589	16745
648.647	17115
648.705	16825
648.763	16443
648.821	17450
648.879	17484
648.937	18851
648.995	20709
649.053	22991
649.111	31756
649.169	46518
649.227	78620
649.285	154376
649.343	394061
649.401	200220
649.459	43751
649.516	28265
649.574	21640
649.632	25541
649.690	28081
649.748	28474
649.806	39034
649.863	67589
649.921	170197
649.979	112263
650.037	22832
650.094	15554
650.152	16025
650.210	14429
650.268	16505
650.325	16462
650.383	17485
650.440	12940
650.498	13449
650.556	12925
650.613	11677
650.671	13265
650.728	12633
650.786	13707
650.843	18256
650.901	13061
650.958	12110
651.016	11753
651.073	11131
651.131	11739
651.188	10141
651.246	11802
651.303	10031
651.360	10982
651.418	9910
651.475	10824
651.532	9811
651.590	10844
651.647	10122
651.704	10186
651.762	10153
651.819	10533
651.876	10173
651.933	9505
651.990	10810
652.048	8935
652.105	9333
652.162	10361
652.219	9271
652.276	9620
652.333	9222
652.390	7728
652.448	9246
652.505	9796
652.562	9618
652.619	9926
652.676	10526
652.733	10960
652.790	8923
652.847	7543
652.904	9504
652.961	7816
653.017	8029
653.074	9184
653.131	8891
653.188	8139
653.245	8631
653.302	8579
653.359	8382
653.415	9222
653.472	8242
653.529	8486
653.586	7957
653.642	8472
653.699	9476
653.756	7255
653.813	7590
653.869	8645
653.926	8540
653.983	8293
654.039	8519
654.096	8264
654.152	8430
654.209	7498
654.266	8692
654.322	7327
654.379	9047
654.435	7943
654.492	8419
654.548	8437
654.605	9003
654.661	9586
654.717	7853
654.774	8271
654.830	8046
654.887	7857
654.943	8570
655.000	9481
655.056	9380
655.112	7842
655.168	6969
655.225	8424
655.281	8384
655.337	7655
655.394	9245
655.450	8226
655.506	7962
655.562	9674
655.618	9247
655.675	6450
655.731	7574
655.787	7213
655.843	8386
655.899	6642
655.955	7924
656.011	7187
656.067	6035
656.123	8463
656.179	7387
656.235	8031
656.291	7337
656.347	8125
656.403	7222
656.459	6163
656.515	7452
656.571	7719
656.627	7885
656.683	7761
656.739	8231
656.795	7624
656.850	7617
656.906	7143
656.962	8174
657.018	6887
657.074	9232
657.129	10781
657.185	16659
657.241	33798
657.297	19063
657.352	7536
657.408	7496
657.464	7529
657.519	7044
657.575	5959
657.630	6167
657.686	6861
657.742	6243
657.797	6584
657.853	6308
657.908	8048
657.964	6578
658.019	6410
658.075	6568
658.130	7307
658.186	6390
658.241	7453
658.297	5709
658.352	5908
658.407	7016
658.463	6763
658.518	6456
658.573	6074
658.629	5238
658.684	6311
658.739	7474
658.795	5640
658.850	6930
658.905	6104
658.960	6748
659.016	5274
659.071	5939
659.126	6508
659.181	5808
659.236	7851
659.291	8164
659.346	6220
659.401	6698
659.457	7150
659.512	7650
659.567	7363
659.622	6079
659.677	6091
659.732	5422
659.787	5933
659.842	6483
659.897	7002
659.952	6058
660.007	6433
660.061	6231
660.116	4873
660.171	6388
660.226	6029
660.281	6679
660.336	6157
660.391	6106
660.445	5969
660.500	6254
660.555	6255
660.610	5781
660.664	5855
660.719	5784
660.774	5800
660.828	6565
660.883	6364
660.938	6899
660.992	5485
661.047	6232
661.101	5493
661.156	5663
661.211	4479
661.265	6313
661.320	5580
661.374	5325
661.429	5801
661.483	7114
661.538	4806
661.592	5691
661.647	6253
661.701	8505
661.755	6742
661.810	6828
661.864	5770
661.919	5057
661.973	6090
662.027	5674
662.081	4803
662.136	5427
662.190	5923
662.244	5852
662.299	5477
662.353	5802
662.407	6092
662.461	5070
662.515	5446
662.569	5632
662.624	5995
662.678	5492
662.732	5496
662.786	5528
662.840	5580
662.894	6169
662.948	5222
663.002	5545
663.056	5460
663.110	5099
663.164	5643
663.218	6026
663.272	5295
663.326	5001
663.380	4468
663.434	5851
663.488	4797
663.542	5395
663.595	4847
663.649	4659
663.703	6419
663.757	5084
663.811	5118
663.864	6110
663.918	5901
663.972	4995
664.026	5287
664.079	4119
664.133	6095
664.187	4729
664.240	5352
664.294	6695
664.348	5867
664.401	5716
664.455	5781
664.508	5796
664.562	4807
664.615	4986
664.669	4871
664.722	5369
664.776	5193
664.829	4564
664.883	4691
664.936	4375
664.990	5696
665.043	5989
665.097	5014
665.150	5883
665.203	4698
665.257	5120
665.310	5373
665.363	5672
665.417	6206
665.470	5930
665.523	5209
665.576	5898
665.630	5417
665.683	5329
665.736	5364
665.789	6107
665.842	5088
665.895	5408
665.949	5452
666.002	5761
666.055	6253
666.108	6654
666.161	5089
666.214	6378
666.267	5068
666.320	6495
666.373	5900
666.426	5498
666.479	5485
666.532	5120
666.585	6085
666.638	6451
666.691	5644
666.744	5822
666.796	6278
666.849	5342
666.902	5575
666.955	4922
667.008	5316
667.060	4926
667.113	5464
667.166	5201
667.219	6186
667.271	6430
667.324	6033
667.377	5137
667.430	5801
667.482	5896
667.535	6003
667.587	4988
667.640	5425
667.693	5264
667.745	6712
667.798	7002
667.850	4867
667.903	5007
667.955	5544
668.008	4902
668.060	5346
668.113	5784
668.165	5575
668.218	6491
668.270	6253
668.322	4605
668.375	5231
668.427	5576
668.479	5511
668.532	5511
668.584	5502
668.636	4943
668.689	4805
668.741	5347
668.793	5766
668.845	5407
668.898	5547
668.950	5617
669.002	5700
669.054	5591
669.106	4493
669.158	5925
669.211	5106
669.263	5426
669.315	6004
669.367	5511
669.419	4470
669.471	6318
669.523	5473
669.575	6251
669.627	5751
669.679	6076
669.731	5563
669.783	5626
669.835	5581
669.886	5261
669.938	5352
669.990	4452
670.042	4681
670.094	5575
670.146	5034
670.197	5684
670.249	5781
670.301	6339
670.353	6958
670.404	9421
670.456	10492
670.508	15371
670.560	23005
670.611	37366
670.663	64829
670.715	146627
670.766	215062
670.818	65031
670.869	15247
670.921	10185
670.972	8444
671.024	7382
671.075	6209
671.127	5825
671.178	6267
671.230	6337
671.281	6259
671.333	6545
671.384	6533
671.436	8599
671.487	11385
671.538	15670
671.590	24500
671.641	38233
671.692	68505
671.744	125598
671.795	87073
671.846	32898
671.897	16531
671.949	11374
672.000	8729
672.051	7055
672.102	6772
672.153	5749
672.204	5465
672.256	5555
672.307	5332
672.358	5154
672.409	4597
672.460	4588
672.511	4691
672.562	4316
672.613	2955
672.664	3563
672.715	4058
672.766	3776
672.817	3968
672.868	3528
672.919	3213
672.970	4311
673.021	3212
673.071	3161
673.122	4016
673.173	3000
673.224	3417
673.275	3080
673.326	3347
673.376	3929
673.427	3354
673.478	3297
673.528	3749
673.579	3478
673.630	3270
673.680	4605
673.731	3406
673.782	3474
673.832	3397
673.883	3283
673.934	3296
673.984	3002
674.035	3948
674.085	3301
674.136	3275
674.186	3326
674.237	3498
674.287	3916
674.338	3495
674.388	3270
674.438	4278
674.489	3722
674.539	3511
674.589	3218
674.640	3811
674.690	3812
674.740	4024
674.791	3298
674.841	3287
674.891	3606
674.942	3101
674.992	2689
675.042	3105
675.092	2763
675.142	2850
675.193	2479
675.243	2546
675.293	3216
675.343	2708
675.393	2967
675.443	3250
675.493	3078
675.543	2913
675.593	3159
675.643	3160
675.693	3092
675.743	2002
675.793	3529
675.843	2921
675.893	3137
675.943	2154
675.993	3104
676.043	2084
676.093	4132
676.142	2656
676.192	2894
676.242	1864
676.292	2044
676.341	2560
676.391	3124
676.441	2266
676.491	2631
676.540	2367
676.590	3216
676.640	2021
676.689	2713
676.739	2399
676.789	2117
676.838	1654
676.888	2767
676.937	2926
676.987	1667
677.037	1098
677.086	1525
677.136	1534
677.185	2144
677.235	2353
677.284	2722
677.333	2047
677.383	1718
677.432	1861
677.482	2160
677.531	2379
677.580	1877
677.630	2188
677.679	2480
677.728	2151
677.778	2026
677.827	2492
677.876	2720
677.925	2962
677.975	2760
678.024	2100
678.073	2185
678.122	2746
678.171	1681
678.220	2946
678.269	3410
678.319	3457
678.368	3166
678.417	2526
678.466	2701
678.515	2874
678.564	2545
678.613	2328
678.662	2134
678.711	2605
678.760	2151
678.809	2367
678.857	2436
678.906	2481
678.955	1759
679.004	2695
679.053	3270
679.102	2381
679.151	2381
679.199	2325
679.248	1569
679.297	2196
679.346	2292
679.394	1959
679.443	2002
679.492	1591
679.540	2802
679.589	2507
679.638	2189
679.686	2140
679.735	2260
679.784	2293
679.832	3071
679.881	1838
679.929	1845
679.978	1523
680.026	1602
680.075	2618
680.123	1479
680.172	1681
680.220	1586
680.268	2190
680.317	1588
680.365	1452
680.414	1507
680.462	1753
680.510	2230
680.559	1764
680.607	2773
680.655	1792
680.703	2764
680.752	1779
680.800	1991
680.848	1581
680.896	1431
680.945	863
680.993	602
681.041	1959
681.089	2410
681.137	1186
681.185	1746
681.233	1540
681.258	1963
681.281	2314
681.329	1786
681.377	1751
681.380	1793
681.425	1599
681.473	3047
681.502	2271
681.521	1636
681.569	2979
681.617	2947
681.624	3000
681.665	2968
681.713	2828
681.745	3155
681.761	3236
681.809	2276
681.857	3089
681.867	3035
681.904	2596
681.952	3567
681.989	3572
682.000	3512
682.048	3471
682.096	3209
682.111	3544
682.143	4124
682.191	3527
682.233	3878
682.239	3876
682.286	4378
682.334	4470
682.354	4394
682.382	4182
682.430	3746
682.476	4751
682.477	4725
682.525	4462
682.572	3924
682.598	4109
682.620	4224
682.667	4666
682.715	4834
682.720	4947
682.763	5390
682.810	4898
682.841	5214
682.857	5346
682.905	5239
682.952	4958
682.963	4991
683.000	4944
683.047	4816
683.085	6101
683.095	6401
683.142	6096
683.190	6748
683.206	6544
683.237	5978
683.284	6384
683.328	6384
683.332	6351
683.379	6024
683.426	6347
683.449	6277
683.473	6188
683.521	6526
683.568	7014
683.571	7041
683.615	6697
683.662	7236
683.693	7055
683.709	6894
683.757	6838
683.804	6826
683.814	7007
683.851	7568
683.898	7342
683.936	7323
683.945	7291
683.992	7329
684.039	7526
684.057	7667
684.086	7765
684.133	8415
684.179	8142
684.180	8102
684.227	8626
684.274	8197
684.300	8690
684.321	9012
684.368	7499
684.415	8299
684.422	8328
684.462	8388
684.509	8674
684.543	8735
684.556	8725
684.603	9125
684.649	8688
684.665	9003
684.696	9546
684.743	8830
684.786	10453
684.790	10554
684.837	9894
684.883	9357
684.908	9512
684.930	9725
684.977	10034
685.023	9560
685.029	9653
685.070	9913
685.117	9696
685.150	10240
685.164	10475
685.210	9886
685.257	11161
685.272	10991
685.303	10551
685.350	10777
685.393	10463
685.396	10401
685.443	10546
685.490	10504
685.514	10665
685.536	10867
685.583	10429
685.629	10964
685.636	10977
685.675	11002
685.722	10987
685.757	11072
685.768	11085
685.815	11008
685.861	11358
685.878	11763
685.908	12313
685.954	11594
686.000	12580
686.000	12586
686.047	11749
686.093	12625
686.121	12511
686.139	12347
686.185	12517
686.232	11787
686.242	12089
686.278	12990
686.324	12635
686.363	12393
686.370	12374
686.416	12684
686.463	12999
686.484	12896
686.509	12703
686.555	12719
686.601	12660
686.606	12696
686.647	13021
686.693	12608
686.727	12908
686.739	12983
686.785	13310
686.831	12552
686.848	12674
686.877	13007
686.923	13089
686.969	13445
686.969	13445
687.015	13696
687.061	13814
687.090	14411
687.107	14691
687.153	14831
687.199	14913
687.211	14696
687.245	14065
687.291	14773
687.332	14655
687.336	14658
687.382	14981
687.428	14987
687.453	15367
687.474	15652
687.520	14740
687.565	15517
687.574	15518
687.611	15836
687.657	16635
687.695	17136
687.702	17343
687.748	19004
687.794	21382
687.816	21185
687.839	19715
687.885	18594
687.931	16783
687.937	16590
687.976	16344
688.022	15956
688.058	15799
688.067	15872
688.113	16237
688.158	16256
688.179	16178
688.204	16011
688.249	15824
688.295	16343
688.300	16335
688.340	16518
688.386	16862
688.421	16833
688.431	16851
688.477	17060
688.522	17457
688.542	17501
688.567	17692
688.613	18112
688.658	18756
688.663	18738
688.703	18039
688.749	17816
688.784	17375
688.794	17404
688.839	17842
688.884	17999
688.905	18184
688.930	18188
688.975	18186
689.020	18016
689.026	17888
689.065	17617
689.110	18152
689.146	18683
689.155	18804
689.201	19324
689.246	19246
689.267	19134
689.291	18806
689.336	18440
689.381	17952
689.388	17877
689.426	18103
689.471	19237
689.509	19094
689.516	18998
689.561	19068
689.606	18564
689.630	18246
689.651	18175
689.696	18165
689.741	18330
689.750	18394
689.785	18862
689.830	18473
689.871	18608
689.875	18629
689.920	19042
689.965	19246
689.992	18901
690.010	18861
690.054	19343
690.099	19875
690.112	19970
690.144	19899
690.189	19503
690.233	19397
690.233	19422
690.278	19480
690.323	18925
690.354	18720
690.367	18885
690.412	19368
690.457	19650
690.474	19841
690.501	20001
690.546	20203
690.590	20742
690.595	20662
690.635	20396
690.680	21138
690.716	21415
690.724	21717
690.769	23203
690.813	24395
690.836	24990
690.857	26648
690.902	30689
690.946	34759
690.957	35626
690.991	44117
691.035	56088
691.077	67129
691.080	67045
691.124	60868
691.168	55793
691.198	52324
691.213	49218
691.257	40376
691.301	30903
691.318	27411
691.346	26783
691.390	25181
691.434	23675
691.439	23522
691.478	23437
691.522	22650
691.559	22324
691.567	22412
691.611	22694
691.655	22936
691.680	22873
691.699	22810
691.743	22833
691.787	22930
691.800	22801
691.831	22742
691.875	22956
691.919	23082
691.921	23046
691.964	22726
692.008	22456
692.041	22030
692.052	22008
692.096	21837
692.139	21642
692.162	21556
692.183	21747
692.227	21953
692.271	22046
692.282	22096
692.315	22186
692.359	21929
692.402	21936
692.403	21979
692.447	21781
692.490	21752
692.523	21813
692.534	21959
692.578	22224
692.622	22202
692.643	22397
692.666	22644
692.709	22867
692.753	23058
692.763	22945
692.797	22517
692.840	22668
692.884	22545
692.884	22593
692.928	22783
692.971	22889
693.004	23044
693.015	23078
693.059	23581
693.102	23125
693.124	23036
693.146	23297
693.189	23633
693.233	24415
693.245	24534
693.276	25071
693.320	25622
693.363	25954
693.365	25918
693.407	26842
693.450	28045
693.485	28738
693.493	29319
693.537	31962
693.580	34542
693.605	36491
693.624	40273
693.667	48159
693.710	56487
693.725	59371
693.753	76051
693.797	102620
693.840	128650
693.845	131366
693.883	120179
693.926	107283
693.966	96240
693.970	94480
694.013	73822
694.056	53432
694.086	39417
694.099	38369
694.142	34472
694.185	30655
694.206	28736
694.229	28436
694.272	27641
694.315	27451
694.326	27151
694.358	26416
694.401	25781
694.444	25009
694.446	24913
694.487	24713
694.530	24694
694.566	24463
694.573	24555
694.616	24453
694.659	24879
694.686	24884
694.702	24951
694.745	25292
694.787	25316
694.806	25350
694.830	25346
694.873	25073
694.916	25106
694.926	24957
694.959	24962
695.002	25391
695.044	25162
695.046	25107
695.087	25636
695.130	26232
695.166	26538
695.172	26528
695.215	26104
695.258	25749
695.286	25345
695.301	25604
695.343	26417
695.386	27040
695.406	27202
695.428	27432
695.471	28052
695.514	28468
695.526	28565
695.556	29822
695.599	31685
695.641	33009
695.646	33117
695.684	32316
695.726	31263
695.766	30190
695.769	30241
695.811	29941
695.854	29550
695.886	29293
695.896	29497
695.938	29821
695.981	30327
696.005	30543
696.023	30958
696.065	31789
696.108	32569
696.125	32782
696.150	33068
696.192	33684
696.235	34053
696.245	34076
696.277	34118
696.319	34078
696.361	33961
696.365	33879
696.404	34421
696.446	34819
696.485	35150
696.488	35225
696.530	34945
696.572	34807
696.604	34537
696.614	34467
696.656	33946
696.698	33281
696.724	32772
696.740	32979
696.783	33401
696.825	33857
696.844	33931
696.867	34216
696.909	34624
696.951	35024
696.964	35080
696.992	35212
697.034	35224
697.076	35135
697.083	35045
697.118	35780
697.160	36665
697.202	37327
697.203	37253
697.244	36515
697.286	35659
697.323	34680
697.327	34797
697.369	35198
697.411	35543
697.442	35705
697.453	35797
697.494	35767
697.536	35801
697.562	35692
697.578	35730
697.620	35611
697.661	35426
697.682	35265
697.703	35951
697.744	37168
697.786	38442
697.801	38755
697.828	38543
697.869	38107
697.911	37642
697.921	37436
697.952	38199
697.994	39086
698.035	39979
698.040	39979
698.077	39443
698.118	38709
698.160	37990
698.160	37884
698.201	38312
698.243	38663
698.279	38865
698.284	39091
698.325	40215
698.367	41406
698.399	42175
698.408	42288
698.449	42311
698.491	42304
698.518	42228
698.532	42272
698.573	42039
698.614	41816
698.638	41552
698.656	41688
698.697	41786
698.738	41867
698.757	41804
698.779	42128
698.820	42503
698.862	42890
698.877	42923
698.903	42779
698.944	42364
698.985	41934
698.996	41707
699.026	41936
699.067	42096
699.116	42176
699.235	41516
699.354	40222
699.474	40046
699.593	39772
699.713	39813
699.832	40481
699.951	40805
700.070	41278
700.190	39178
700.309	38150
700.428	37985
700.547	38216
700.667	37829
700.786	37934
700.905	36102
701.024	37717
701.143	36105
701.262	37614
701.381	37887
701.500	38132
701.619	36384
701.738	36909
701.857	36104
701.976	35139
702.095	35382
702.214	37272
702.333	35123
702.452	36549
702.571	36733
702.690	37101
702.809	35931
702.928	34041
703.047	32767
703.165	33726
703.284	34847
703.403	32695
703.522	32866
703.640	32814
703.759	32641
703.878	33366
703.997	32758
704.115	33359
704.234	32106
704.353	31982
704.471	30530
704.590	30299
704.708	31143
704.827	29950
704.946	29708
705.064	29729
705.183	29179
705.301	31448
705.420	33112
705.538	31662
705.656	30496
705.775	28937
705.893	34986
706.012	36926
706.130	30006
706.249	30537
706.367	29264
706.485	29564
706.604	28708
706.722	29468
706.840	33362
706.958	42904
707.077	34163
707.195	29241
707.313	27755
707.431	26812
707.549	27183
707.668	27378
707.786	28697
707.904	27490
708.022	27369
708.140	27161
708.258	25946
708.376	27819
708.494	25348
708.612	28234
708.730	28857
708.848	28459
708.966	28554
709.084	28428
709.202	27709
709.320	26762
709.438	26344
709.556	27040
709.674	25859
709.791	26053
709.909	25699
710.027	25673
710.145	25064
710.263	25497
710.380	25155
710.498	24847
710.616	24993
710.733	24688
710.851	24366
710.969	24592
711.086	24897
711.204	24202
711.322	24152
711.439	23813
711.557	22406
711.674	23353
711.792	23054
711.909	23220
712.027	23950
712.144	22513
712.262	22719
712.379	23511
712.497	25409
712.614	25282
712.732	23763
712.849	22804
712.966	23584
713.084	26861
713.201	23018
713.318	23859
713.436	24825
713.553	23907
713.670	25025
713.787	24720
713.905	24300
714.022	24458
714.139	25964
714.256	26583
714.373	32609
714.490	50080
714.608	107059
714.725	382593
714.842	388937
714.959	55453
715.076	29042
715.193	25941
715.310	24912
715.427	22615
715.544	22554
715.661	22056
715.778	21786
715.895	22125
716.011	21360
716.128	22077
716.245	21256
716.362	21775
716.479	20369
716.596	20621
716.713	21218
716.829	19935
716.946	19951
717.063	19412
717.180	18962
717.296	18800
717.413	19431
717.530	19866
717.646	17435
717.763	18682
717.880	17605
717.996	18037
718.113	18813
718.229	18326
718.346	17033
718.462	18137
718.579	18518
718.695	19085
718.812	19323
718.928	19601
719.045	17500
719.161	17745
719.277	17535
719.394	18534
719.510	18470
719.626	18630
719.743	21719
719.859	27147
719.975	45217
720.092	140806
720.208	315001
720.324	51659
720.440	21765
720.557	19666
720.673	18659
720.789	19929
720.905	25286
721.021	18688
721.137	16008
721.253	16870
721.369	16132
721.486	17191
721.602	17399
721.718	16004
721.834	15794
721.950	16544
722.066	16109
722.181	15509
722.297	15731
722.413	15501
722.529	15731
722.645	15861
722.761	15174
722.877	15944
722.993	15345
723.108	18483
723.224	16674
723.340	14780
723.456	15056
723.571	15017
723.687	14171
723.803	15076
723.918	14424
724.034	14775
724.150	13941
724.265	14826
724.381	15887
724.497	17753
724.612	13859
724.728	13515
724.843	13777
724.959	14336
725.074	15618
725.190	16808
725.305	14109
725.421	14775
725.536	14114
725.651	14453
725.767	13788
725.882	13527
725.997	13361
726.113	13819
726.228	13591
726.343	13696
726.459	13663
726.574	13440
726.689	12351
726.804	12766
726.920	13814
727.035	13100
727.150	13277
727.265	12706
727.380	13766
727.495	13557
727.610	12861
727.725	13015
727.841	13205
727.956	16899
728.071	15264
728.186	13604
728.301	12263
728.416	12945
728.531	12722
728.645	11665
728.760	13314
728.875	13279
728.990	12372
729.105	12525
729.220	12245
729.335	12945
729.449	12740
729.564	11479
729.679	11777
729.794	12762
729.908	13346
730.023	12228
730.138	12501
730.253	12487
730.367	11516
730.482	13086
730.596	13361
730.711	13949
730.826	17016
730.940	18117
731.055	14594
731.169	14400
731.284	15097
731.398	14081
731.513	14689
731.627	15443
731.742	17458
731.856	20027
731.970	19595
732.085	22762
732.199	27894
732.313	42632
732.428	98987
732.542	272813
732.656	164795
732.771	39875
732.885	25802
732.999	24477
733.113	26252
733.227	25107
733.342	23434
733.456	23492
733.570	22257
733.684	22394
733.798	20420
733.912	21181
734.026	21701
734.140	20554
734.254	20771
734.368	21746
734.482	22178
734.596	20666
734.710	19855
734.824	20749
734.938	19485
735.052	19911
735.166	19231
735.280	20028
735.393	19679
735.507	19812
735.621	19403
735.735	20273
735.849	18977
735.962	18298
736.076	19370
736.190	18580
736.303	18614
736.417	19602
736.531	17565
736.644	18872
736.758	17318
736.872	17759
736.985	18388
737.099	17391
737.212	16769
737.326	17081
737.439	17235
737.553	17086
737.666	16920
737.780	16053
737.893	17642
738.007	16657
738.120	17045
738.233	16666
738.347	16579
738.460	15565
738.573	16917
738.687	15841
738.800	15950
738.913	16274
739.026	15891
739.140	16248
739.253	16632
739.366	15898
739.479	15508
739.592	16625
739.705	14174
739.818	16253
739.932	14994
740.045	15747
740.158	15313
740.271	15652
740.384	15458
740.497	14279
740.610	15926
740.723	14104
740.836	14412
740.949	14854
741.062	16729
741.174	14880
741.287	14363
741.400	16107
741.513	13274
741.626	15414
741.739	13780
741.851	14003
741.964	14372
742.077	13847
742.189	13294
742.302	14787
742.415	13455
742.527	14387
742.640	14528
742.753	12982
742.865	13429
742.978	13938
743.090	12610
743.203	13680
743.316	12911
743.428	13366
743.541	14409
743.653	13110
743.766	12739
743.878	13616
743.990	12470
744.103	13733
744.215	13023
744.327	12491
744.440	13356
744.552	13231
744.664	12099
744.777	13337
744.889	12838
745.001	12705
745.113	12621
745.226	12337
745.338	12264
745.450	13734
745.562	11820
745.674	12015
745.786	12789
745.898	13224
746.010	12129
746.122	12561
746.234	12635
746.347	13067
746.459	13036
746.570	11644
746.682	12115
746.794	13727
746.906	12387
747.018	11922
747.130	12602
747.242	12345
747.354	10837
747.466	12338
747.577	11060
747.689	12377
747.801	11851
747.913	11725
748.024	11073
748.136	11353
748.248	11009
748.359	11592
748.471	11970
748.583	11106
748.694	10569
748.806	12836
748.918	11017
749.029	11695
749.141	11940
749.252	12739
749.364	10021
749.475	11371
749.587	11317
749.698	10964
749.809	10573
749.921	10838
750.032	10577
750.144	9544
750.255	10817
750.366	10351
750.478	10230
750.589	11140
750.700	10368
750.811	11595
750.923	11047
751.034	11899
751.145	12865
751.256	10996
751.367	10783
751.479	10766
751.590	10392
751.701	10386
751.812	9586
751.923	9993
752.034	11130
752.145	11501
752.256	11454
752.367	10461
752.478	10877
752.589	10759
752.700	10689
752.811	9386
752.922	10768
753.032	11039
753.143	10469
753.254	10151
753.365	11765
753.476	12209
753.586	10538
753.697	10285
753.808	11226
753.919	10297
754.029	10414
754.140	9619
754.251	10900
754.361	10565
754.472	10430
754.582	10079
754.693	10179
754.804	11415
754.914	10284
755.025	9713
755.135	10188
755.246	11393
755.356	10481
755.466	9958
755.577	10519
755.687	11021
755.798	9926
755.908	9346
756.018	10095
756.129	10564
756.239	10373
756.349	10321
756.460	10357
756.570	11887
756.680	10951
756.790	10215
756.900	11263
757.011	11113
757.121	10582
757.231	10913
757.341	10469
757.451	10452
757.561	10347
757.671	11723
757.781	11346
757.891	11396
758.001	11408
758.111	11236
758.221	11886
758.331	12431
758.441	12886
758.551	11760
758.661	11893
758.771	12882
758.880	12231
758.990	12140
759.100	12438
759.210	12420
759.320	12002
759.429	13106
759.539	13347
759.649	12070
759.758	13924
759.868	14554
759.978	13698
760.087	15770
760.197	14692
760.307	14697
760.416	14463
760.526	14040
760.635	15152
760.745	16105
760.854	15566
760.964	17046
761.073	16298
761.182	17062
761.292	16601
761.401	16245
761.511	15680
761.620	14749
761.729	15422
761.839	15760
761.948	15761
762.057	16942
762.166	16182
762.276	16287
762.385	17606
762.494	17224
762.603	17946
762.712	19009
762.822	19467
762.931	19574
763.040	19271
763.149	20566
763.258	20344
763.367	23566
763.476	22383
763.585	24266
763.694	25069
763.803	26433
763.912	27106
764.021	28928
764.130	29153
764.238	32720
764.347	32934
764.456	35340
764.565	37998
764.674	40684
764.783	44094
764.891	48268
765.000	53765
765.109	59627
765.217	66717
765.326	76244
765.435	89062
765.543	103723
765.652	126804
765.761	154171
765.869	192979
765.978	247894
766.086	318093
766.195	409316
766.303	460652
766.412	350339
766.520	344380
766.629	442980
766.737	387828
766.846	307021
766.954	239618
767.062	190222
767.171	151274
767.279	124294
767.387	103507
767.496	88809
767.604	77871
767.712	69117
767.820	61507
767.928	56926
768.037	52810
768.145	50581
768.253	48602
768.361	46520
768.469	46718
768.577	47863
768.685	49036
768.793	52192
768.901	57254
769.009	64642
769.117	75517
769.225	93291
769.333	120914
769.441	167650
769.549	239957
769.657	349550
769.765	418937
769.873	326505
769.981	384193
770.088	328004
770.196	240182
770.304	176223
770.412	134827
770.519	107132
770.627	87768
770.735	73806
770.842	63063
770.950	56961
771.058	50312
771.165	46988
771.273	42133
771.380	41122
771.488	38123
771.595	38121
771.703	35352
771.810	33907
771.918	31418
772.025	32000
772.133	31599
772.240	30060
772.348	31349
772.455	28815
772.562	27011
772.670	26120
772.777	26715
772.884	24732
772.991	23877
773.099	24899
773.206	21959
773.313	23553
773.420	22526
773.528	21453
773.635	20192
773.742	22568
773.849	20799
773.956	20994
774.063	20110
774.170	20728
774.277	20229
774.384	19552
774.491	18058
774.598	18666
774.705	18049
774.812	17826
774.919	18509
775.026	17699
775.133	17444
775.239	18119
775.346	16993
775.453	16516
775.560	16427
775.667	16986
775.773	16017
775.880	16150
775.987	15673
776.093	15910
776.200	16298
776.307	14444
776.413	13412
776.520	16229
776.627	15125
776.733	14314
776.840	13068
776.946	17233
777.053	14391
777.159	14110
777.266	12209
777.372	13820
777.478	14792
777.585	14148
777.691	11744
777.798	13752
777.904	13716
778.010	13159
778.117	13493
778.223	12973
778.329	12663
778.435	12127
778.542	13578
778.648	13409
778.754	11574
778.860	12681
778.966	12805
779.072	11756
779.178	13497
779.284	11600
779.391	11709
779.497	13094
779.603	15198
779.708	16559
779.815	27184
779.920	76943
780.026	125352
780.132	30558
780.238	14908
780.344	12321
780.450	13979
780.556	10851
780.661	10336
780.767	12206
780.873	9861
780.979	10216
781.085	11205
781.190	10117
781.296	10354
781.402	11278
781.507	9156
781.613	8747
781.719	9369
781.824	11121
781.930	9826
782.035	10132
782.141	10974
782.246	9333
782.352	8891
782.457	10396
782.563	10319
782.668	9879
782.773	9413
782.879	8297
782.984	9835
783.090	10443
783.195	9170
783.300	10502
783.405	8709
783.511	8852
783.616	8828
783.721	9099
783.826	8823
783.932	8771
784.037	8527
784.142	8259
784.247	8573
784.352	9559
784.457	7369
784.562	9577
784.667	9175
784.772	7660
784.877	6824
784.982	10172
785.087	7475
785.192	8290
785.297	7022
785.402	8554
785.507	7897
785.611	7775
785.716	6524
785.821	8120
785.926	7388
786.031	6902
786.135	7487
786.240	7991
786.345	7050
786.450	7162
786.554	7164
786.659	7090
786.763	7114
786.868	7108
786.973	7780
787.077	6913
787.182	7125
787.286	7383
787.391	7953
787.495	6714
787.600	6518
787.704	6603
787.809	7397
787.913	6439
788.017	8002
788.122	7657
788.226	6659
788.330	6118
788.435	7301
788.539	8135
788.643	6408
788.747	5397
788.852	7491
788.956	6692
789.060	7328
789.164	7400
789.268	6956
789.372	7447
789.476	6357
789.580	6781
789.684	5486
789.788	7735
789.892	7149
789.996	6536
790.100	5037
790.204	6737
790.308	6677
790.412	5958
790.516	5058
790.620	5636
790.724	7298
790.828	6074
790.931	4682
791.035	7362
791.139	5934
791.242	5616
791.346	7035
791.450	6419
791.554	6052
791.657	4223
791.761	6915
791.864	6999
791.968	6357
792.072	6228
792.175	5554
792.279	5914
792.382	5494
792.486	5536
792.589	5501
792.693	5937
792.796	4373
792.899	6337
793.003	6090
793.106	4140
793.209	5856
793.313	6116
793.416	3950
793.519	6218
793.623	6197
793.726	6693
793.829	5354
793.932	4870
794.035	4454
794.138	6669
794.242	7338
794.345	6903
794.448	8967
794.551	13489
794.654	42270
794.757	81278
794.860	18123
794.963	7793
795.066	5091
795.169	6920
795.272	5519
795.375	6679
795.477	4899
795.580	4778
795.683	3894
795.786	5512
795.889	4281
795.991	5771
796.094	5624
796.197	4187
796.300	6047
796.402	4567
796.505	4406
796.608	3695
796.710	5034
796.813	5165
796.915	4809
797.018	4859
797.120	5260
797.223	4509
797.326	6155
797.428	4789
797.530	3966
797.633	4628
797.735	6225
797.838	5081
797.940	5431
798.042	3909
798.145	4383
798.247	4931
798.349	3270
798.452	4626
798.554	4084
798.656	4183
798.758	5401
798.860	4294
798.962	3819
799.065	4517
799.167	3934
799.269	4327
799.371	4727
799.473	6020
799.575	3632
799.677	4573
799.779	5009
799.881	3969
799.983	5584
800.085	4345
800.187	4623
800.289	3258
800.390	3478
800.492	5454
800.594	5409
800.696	3793
800.798	3485
800.899	3515
801.001	3785
801.103	3662
801.205	3586
801.306	4420
801.408	3568
801.509	4300
801.611	4390
801.713	4468
801.814	3003
801.916	3314
802.017	3099
802.119	3035
802.220	3743
802.322	2480
802.423	5816
802.525	3040
802.626	3875
802.727	4043
802.829	4729
802.930	1415
803.031	4639
803.133	3812
803.234	3966
803.335	3727
803.436	2759
803.538	4415
803.639	3236
803.740	4132
803.841	2324
803.942	4574
804.043	3967
804.144	3420
804.245	3321
804.346	2970
804.447	2515
804.548	3049
804.649	4805
804.750	3153
804.851	3557
804.952	3661
805.053	2891
805.154	2852
805.255	3748
805.355	3429
805.456	2869
805.557	3124
805.658	2919
805.758	4093
805.859	4141
805.960	4381
806.061	3235
806.161	2592
806.262	3401
806.362	2942
806.463	3445
806.564	4365
806.664	3621
806.765	2862
806.865	3675
806.966	2244
807.066	3076
807.166	4450
807.267	4188
807.367	3301
807.468	3903
807.568	1644
807.668	3835
807.769	4050
807.869	2956
807.969	3896
808.069	3711
808.170	3336
808.270	2940
808.370	3481
808.470	4116
808.570	2165
808.670	2415
808.770	3006
808.870	2965
808.970	3027
809.070	3010
809.170	2339
809.271	4036
809.370	2329
809.470	2886
809.570	2611
809.670	2091
809.770	4010
809.870	3770
809.970	3745
810.070	2962
810.169	4023
810.269	1217
810.369	4060
810.469	2324
810.568	3080
810.668	1726
810.768	2599
810.867	3030
810.967	2978
811.066	2898
811.166	2694
811.265	3488
811.365	2902
811.464	2703
811.564	3277
811.663	3077
811.763	1887
811.862	3256
811.962	3300
812.061	3095
812.160	2978
812.260	2508
812.359	2745
812.458	2078
812.557	4392
812.657	3649
812.756	3839
812.855	3468
812.954	3203
813.053	3162
813.153	2938
813.252	1667
813.351	3352
813.450	2568
813.549	2062
813.648	3741
813.747	2469
813.846	3427
813.945	3158
814.044	3483
814.143	3391
814.242	3980
814.341	3892
814.439	3068
814.538	3942
814.637	3532
814.736	4346
814.835	3852
814.933	3287
815.032	4214
815.131	5304
815.229	8027
815.328	12212
815.427	9060
815.525	7700
815.624	7254
815.722	6797
815.821	7221
815.919	8333
816.018	7515
816.116	7821
816.215	7822
816.313	8024
816.412	9548
816.510	10095
816.609	10291
816.707	10890
816.805	9290
816.904	10112
817.002	9824
817.100	10241
817.198	10882
817.296	9708
817.395	8380
817.493	10388
817.591	8246
817.689	9473
817.787	8632
817.885	8701
817.983	8359
818.081	9371
818.179	11290
818.277	19920
818.375	17339
818.473	10543
818.571	7891
818.669	9103
818.767	9541
818.865	8852
818.963	7439
819.061	8095
819.158	8388
819.256	12735
819.354	15256
819.452	29174
819.549	21021
819.647	12272
819.745	7892
819.842	7533
819.940	7042
820.038	6869
820.135	7714
820.233	9175
820.330	7569
820.428	7183
820.525	8698
820.623	8305
820.720	5903
820.818	8130
820.915	7696
821.012	7443
821.110	5844
821.207	8424
821.304	6620
821.402	7566
821.499	7731
821.596	6514
821.693	6272
821.791	7878
821.888	6910
821.985	8174
822.082	6570
822.179	7419
822.276	7183
822.373	5859
822.470	6436
822.567	7727
822.664	5379
822.761	6498
822.858	5438
822.955	6942
823.052	5663
823.149	6448
823.246	6656
823.343	5766
823.440	6407
823.536	6672
823.633	6565
823.730	6640
823.827	6560
823.923	5827
824.020	5938
824.117	6764
824.213	6108
824.310	5767
824.407	5357
824.503	6721
824.600	6145
824.696	5646
824.793	6832
824.889	6310
824.986	5921
825.082	4691
825.179	4337
825.275	6278
825.371	6950
825.468	5345
825.564	3119
825.660	4878
825.757	6913
825.853	6727
825.949	4752
826.045	4938
826.142	4936
826.238	5388
826.334	5231
826.430	6229
826.526	4001
826.622	3397
826.718	6060
826.814	6109
826.910	7175
827.006	3181
827.102	3729
827.198	5935
827.294	5569
827.390	6273
827.486	5011
827.582	2106
827.678	4055
827.774	6630
827.869	3800
827.965	5058
828.061	3422
828.157	5277
828.252	6159
828.348	4532
828.444	4307
828.539	4049
828.635	4351
828.731	5358
828.826	3129
828.922	5162
829.017	5362
829.113	5271
829.208	3144
829.304	4210
829.399	6320
829.495	4124
829.590	4978
829.685	4541
829.781	5522
829.876	5997
829.971	2848
830.066	1887
830.162	4116
830.257	5455
830.352	3663
830.447	4264
830.543	3746
830.638	3740
830.733	5183
830.828	3911
830.923	4396
831.018	4041
831.113	5064
831.208	3070
831.303	1940
831.398	3496
831.493	3615
831.588	5800
831.683	3788
831.778	3053
831.873	3104
831.967	4627
832.062	4319
832.157	3763
832.252	4559
832.346	2975
832.441	4588
832.536	4660
832.631	4591
832.725	3893
832.820	3525
832.914	4257
833.009	3070
833.104	3184
833.198	3311
833.293	4190
833.387	4305
833.482	4208
833.576	3139
833.670	4044
833.765	3166
833.859	4442
833.954	4106
834.048	3661
834.142	3714
834.237	2689
834.331	3548
834.425	4008
834.519	2753
834.613	4137
834.708	3254
834.802	3099
834.896	3131
834.990	3774
835.084	3383
835.178	2925
835.272	2180
835.366	4292
835.460	5123
835.554	3603
835.648	2435
835.742	2241
835.836	2490
835.930	3777
836.024	3910
836.117	4223
836.211	3224
836.305	3169
836.399	2885
836.493	2450
836.586	4212
836.680	2711
836.774	3054
836.867	3136
836.961	2374
837.055	3468
837.148	2992
837.242	2842
837.335	3284
837.429	3163
837.522	2136
837.616	3207
837.709	3251
837.803	3128
837.896	3139
837.989	3276
838.083	3171
838.176	3015
838.269	1861
838.363	2883
838.456	2930
838.549	3684
838.642	2001
838.735	4012
838.829	3528
838.922	2500
839.015	2787
839.108	1698
839.201	2822
839.294	3040
839.387	3062
839.480	1845
839.573	2522
839.666	2477
839.759	1584
839.852	2226
839.945	2526
840.038	1093
840.131	2009
840.223	2454
840.316	3171
840.409	3104
840.502	3539
840.594	3919
840.687	1098
840.780	2568
840.873	1962
840.965	2569
841.058	3399
841.150	3662
841.243	2152
841.336	2723
841.428	2236
841.521	2477
841.613	1272
841.706	3053
841.798	1815
841.890	2568
841.983	1357
842.075	2705
842.167	1815
842.260	2910
842.352	3930
842.444	2905
842.537	3057
842.629	3018
842.721	2238
842.813	2431
842.905	683
842.997	2755
843.090	2231
843.182	2866
843.274	1651
843.366	4254
843.458	5750
843.550	5337
843.642	1661
843.734	2773
843.826	1986
843.918	1992
844.009	2554
844.101	1326
844.193	2411
844.285	2151
844.377	2759
844.469	2054
844.560	917
844.652	1558
844.744	2221
844.835	2526
844.927	2645
845.019	2721
845.110	2036
845.202	3157
845.293	1678
845.385	1797
845.476	2022
845.568	3364
845.659	1839
845.751	2475
845.842	1573
845.934	2333
846.025	1743
846.116	1510
846.208	2019
846.299	1503
846.390	2559
846.482	2227
846.573	2094
846.664	2567
846.755	1521
846.846	2353
846.937	1153
847.029	1732
847.120	1698
847.211	1808
847.302	3309
847.393	1853
847.484	2319
847.575	1246
847.666	1026
847.757	1905
847.847	2243
847.938	2688
848.029	1938
848.120	2207
848.211	2078
848.302	1094
848.392	1665
848.483	1668
848.574	1531
848.664	2740
848.755	2394
848.846	1855
848.936	1780
849.027	1969
849.118	1989
849.208	2021
849.299	1793
849.389	3499
849.480	6157
849.570	10825
849.661	17289
849.751	30290
849.841	12181
849.932	3526
850.022	2049
850.112	1870
850.203	2204
850.293	2066
850.383	1160
850.474	1414
850.564	2057
850.654	2347
850.744	1240
850.834	2274
850.924	1816
851.014	2723
851.104	1832
851.194	1767
851.284	2102
851.374	1834
851.464	1210
851.554	1440
851.644	1042
851.734	3267
851.824	2572
851.914	2603
852.004	4577
852.094	4693
852.183	1110
852.273	2215
852.363	838
852.452	1718
852.542	1681
852.632	1117
852.721	1472
852.811	1927
852.901	2681
852.990	2431
853.080	2356
853.169	2673
853.259	2249
853.348	1804
853.438	2225
853.527	2938
853.617	3532
853.706	7271
853.795	10262
853.885	21501
853.974	37928
854.063	66011
854.152	95875
854.242	45004
854.331	11467
854.420	5658
854.509	4120
854.598	3639
854.687	3036
854.777	3698
854.866	1340
854.955	2317
855.044	2509
855.133	1950
855.222	1498
855.311	2050
855.400	2088
855.488	2419
855.577	1092
855.666	1496
855.755	1390
855.844	1825
855.933	2105
856.021	2177
856.110	1216
856.199	1336
856.288	1220
856.376	1465
856.465	460
856.554	1668
856.642	1638
856.731	1362
856.819	1281
856.908	1781
856.996	1563
857.085	2036
857.173	843
857.262	1153
857.350	1520
857.438	1841
857.527	1752
857.615	1528
857.703	1867
857.792	2203
857.880	495
857.968	761
858.056	713
858.145	2315
858.233	1989
858.321	1073
858.409	2032
858.497	1588
858.585	821
858.673	2372
858.761	449
858.849	1497
858.937	619
859.025	1387
859.113	1386
859.201	1330
859.289	1682
859.377	1712
859.465	563
859.552	1484
859.640	740
859.728	1769
859.816	701
859.903	1648
859.991	902
860.079	1500
860.166	962
860.254	1148
860.342	1797
860.429	1227
860.517	598
860.604	1642
860.692	1091
860.779	540
860.867	1357
860.954	944
861.042	1583
861.129	2589
861.216	2133
861.304	2806
861.391	1549
861.478	1796
861.565	1906
861.653	2368
861.740	999
861.827	904
861.914	1659
862.001	607
862.089	1700
862.176	1612
862.263	1583
862.350	1125
862.437	948
862.524	1327
862.611	362
862.698	2402
862.785	2117
862.871	3327
862.958	1749
863.045	2528
863.132	1763
863.219	1985
863.306	804
863.392	1825
863.479	1186
863.566	2157
863.652	2203
863.739	1970
863.826	2233
863.912	2006
863.999	1586
864.086	1905
864.172	2210
864.259	2147
864.345	1542
864.432	2320
864.518	2463
864.604	1828
864.691	1408
864.777	2937
864.863	3735
864.950	4455
865.036	5422
865.122	10112
865.209	11330
865.295	8194
865.381	8797
865.467	8233
865.553	8544
865.639	9748
865.726	10824
865.812	16713
865.898	26332
865.984	35762
866.070	57826
866.156	65611
866.242	25457
866.328	12166
866.414	7616
866.499	8156
866.585	7388
866.671	8078
866.757	8597
866.843	7265
866.928	7467
867.014	7093
867.100	7567
867.186	7058
867.271	6985
867.357	7867
867.442	6496
867.528	6723
867.614	6483
867.699	6775
867.785	6574
867.870	6420
867.956	6981
868.041	6693
868.127	7139
868.212	6692
868.297	6869
868.383	6519
868.468	6366
868.553	8630
868.639	6491
868.724	6933
868.809	7025
868.894	5836
868.979	6092
869.065	6457
869.150	4938
869.235	5918
869.320	6220
869.405	4512
869.490	5756
869.575	5503
869.660	4029
869.745	6545
869.830	5354
869.915	5199
870.000	4801
870.085	6321
870.169	6720
870.254	6004
870.339	4316
870.424	3823
870.509	5894
870.593	6561
870.678	6115
870.763	4933
870.847	4965
870.932	5594
871.016	5552
871.101	4236
871.186	5023
871.270	7282
871.355	4420
871.439	4871
871.523	6197
871.608	4661
871.692	4487
871.777	5798
871.861	5090
871.945	5059
872.030	5795
872.114	4509
872.198	5451
872.282	4745
872.367	5214
872.451	4615
872.535	4202
872.619	5265
872.703	4228
872.787	5429
872.871	5257
872.955	4035
873.039	3555
873.123	4130
873.207	5556
873.291	3906
873.375	3339
873.459	5235
873.543	3412
873.627	4399
873.711	3149
873.794	4582
873.878	4357
873.962	2875
874.045	3770
874.129	3728
874.137	3738
874.213	3841
874.245	4025
874.296	4337
874.352	3728
874.380	3429
874.460	3951
874.464	3972
874.547	3413
874.568	3726
874.631	4663
874.676	4010
874.714	3477
874.784	4693
874.798	4929
874.881	4606
874.892	4458
874.965	3455
874.999	3768
875.048	4185
875.107	4036
875.131	3999
875.215	3041
875.215	3041
875.298	3576
875.323	3511
875.381	3395
875.430	4240
875.465	4802
875.538	4438
875.548	4394
875.631	2698
875.646	2554
875.714	1813
875.753	2319
875.798	3022
875.861	3983
875.881	4198
875.964	3334
875.968	3315
876.047	3336
876.076	3403
876.130	3304
876.183	2879
876.213	2748
876.291	4019
876.296	4088
876.379	3408
876.398	3263
876.462	2912
876.506	2512
876.545	2061
876.613	2309
876.628	2430
876.711	2659
876.721	2810
876.794	3582
876.828	3362
876.877	3232
876.935	2525
876.960	2158
877.043	1586
877.043	1590
877.125	2863
877.150	3202
877.208	3776
877.258	3355
877.291	3145
877.365	2534
877.374	2436
877.456	2789
877.472	2535
877.539	1733
877.579	2234
877.622	2654
877.687	2860
877.704	2953
877.787	2852
877.794	2855
877.869	2698
877.901	2662
877.952	2692
878.008	2142
878.034	1806
878.115	2170
878.117	2184
878.199	2114
878.222	2274
878.282	2520
878.329	2992
878.364	3363
878.437	3538
878.447	3522
878.529	1346
878.544	1432
878.611	2008
878.651	2092
878.694	2312
878.758	2831
878.776	2912
878.858	2772
878.865	2720
878.941	2014
878.972	1678
879.023	1281
879.078	1685
879.105	1876
879.185	2546
879.187	2556
879.269	2358
879.292	2322
879.351	2268
879.399	2044
879.433	1844
879.506	2014
879.516	2019
879.598	1750
879.613	1654
879.680	1495
879.720	1859
879.762	2162
879.827	1615
879.844	1456
879.926	1655
879.933	1680
880.007	2045
880.040	2039
880.089	1977
880.147	1871
880.171	1866
880.253	2414
880.254	2415
880.335	2030
880.360	2217
880.417	2501
880.467	2193
880.499	2144
880.574	2581
880.580	2577
880.662	2063
880.680	1869
880.744	1440
880.787	1894
880.825	2211
880.893	1798
880.907	1724
880.989	1602
881.000	1695
881.070	2383
881.106	2055
881.152	1504
881.213	1417
881.233	1407
881.315	1682
881.319	1688
881.396	1998
881.426	1891
881.478	1550
881.532	2126
881.559	2501
881.639	1973
881.641	1940
881.722	1417
881.745	1281
881.803	1941
881.852	2499
881.885	2380
881.958	1714
881.966	1683
882.047	2010
882.064	1905
882.129	1090
882.171	1068
882.210	1212
882.277	1119
882.291	1149
882.372	1373
882.383	1408
882.454	1889
882.489	2205
882.535	1992
882.596	1443
882.616	1554
882.697	2236
882.702	2225
882.778	974
882.808	920
882.859	1280
882.914	1339
882.940	1220
883.020	1619
883.021	1622
883.102	1181
883.127	1463
883.183	2188
883.233	2258
883.264	1996
883.339	1234
883.345	1188
883.426	519
883.445	632
883.507	1236
883.551	1306
883.587	1308
883.657	1285
883.668	1393
883.749	2206
883.763	2311
883.830	1565
883.869	1206
883.910	1169
883.975	1171
883.991	1183
884.072	1202
884.081	1226
884.152	1819
884.187	2081
884.233	1800
884.292	1230
884.314	1175
884.394	851
884.398	850
884.475	721
884.504	756
884.555	1046
884.610	1183
884.636	1045
884.716	758
884.716	757
884.797	1141
884.821	1016
884.877	930
884.927	1132
884.958	1192
885.033	1359
885.038	1316
885.118	465
885.139	273
885.199	835
885.244	1499
885.279	1609
885.350	1410
885.359	1445
885.439	2292
885.456	2253
885.520	1076
885.561	654
885.600	943
885.667	1382
885.680	1324
885.760	1170
885.773	1109
885.840	1049
885.878	1018
885.920	1064
885.984	1279
886.000	1294
886.080	1310
886.089	1305
886.160	1103
886.195	1018
886.240	1065
886.300	1114
886.320	1001
886.400	637
886.406	607
886.480	1057
886.511	1319
886.560	1210
886.616	938
886.640	1025
886.720	1344
886.722	1352
886.800	837
886.827	703
886.879	951
886.932	1009
886.959	930
887.038	1035
887.039	1037
887.119	1249
887.143	1317
887.198	1230
887.248	1161
887.278	1295
887.354	1569
887.358	1546
887.437	1114
887.459	1012
887.517	1121
887.564	1146
887.596	1045
887.669	886
887.676	862
887.755	649
887.774	576
887.835	554
887.880	644
887.914	1068
887.985	1714
887.994	1663
888.073	1350
888.090	1275
888.153	1315
888.195	1311
888.232	1015
888.300	592
888.311	564
888.391	342
888.405	304
888.470	703
888.510	916
888.549	1001
888.615	1368
888.628	1303
888.708	692
888.720	608
888.787	1307
888.825	1715
888.866	1099
888.930	113
888.945	253
889.024	1125
889.035	1237
889.103	717
889.140	422
889.182	614
889.245	986
889.261	803
889.340	-101
889.349	-200
889.419	467
889.454	833
889.498	750
889.559	632
889.577	772
889.656	1419
889.664	1489
889.735	642
889.768	247
889.814	1135
889.873	2317
889.978	784
890.083	1896
890.187	1265
890.292	1454
890.397	980
890.501	1534
890.606	-340
890.710	1195
890.815	1098
890.919	1477
891.024	484
891.128	1334
891.233	459
891.337	1127
891.442	795
891.546	869
891.650	1113
891.755	864
891.859	992
891.963	1958
892.068	1641
892.172	873
892.276	79
892.380	930
892.484	815
892.589	1254
892.693	553
892.797	971
892.901	571
893.005	793
893.109	679
893.213	2811
893.317	544
893.421	1650
893.525	169
893.629	647
893.733	272
893.837	230
893.941	1625
894.045	1419
894.148	6
894.252	1471
894.356	1648
894.460	2011
894.564	366
894.667	1265
894.771	-483
894.875	1415
894.978	384
895.082	920
895.186	444
895.289	1274
895.393	977
895.496	1206
895.600	440
895.703	987
895.807	453
895.910	997
896.014	941
896.117	821
896.221	1427
896.324	1291
896.427	451
896.531	1090
896.634	252
896.737	751
896.840	1202
896.944	1337
897.047	625
897.150	1161
897.253	1018
897.356	1057
897.460	-708
897.563	912
897.666	-450
897.769	402
897.872	-329
897.975	666
898.078	406
898.181	1205
898.284	233
898.387	1272
898.490	943
898.593	1214
898.695	695
898.798	1211
898.901	74
899.004	1036
899.107	357
899.209	1399
899.312	505
899.415	919
899.518	100
899.620	1334
899.723	360
899.826	780
899.928	454
900.031	120
900.133	516
900.236	1120
900.338	383
900.441	1470
900.543	192
900.646	1208
900.748	775
900.851	113
900.953	544
901.055	66
901.158	727
901.260	829
901.362	13
901.465	693
901.567	694
901.669	1552
901.771	-68
901.873	609
901.976	216
902.078	642
902.180	181
902.282	440
902.384	-281
902.486	1856
902.588	920
902.690	1006
902.792	-109
902.894	519
902.996	832
903.098	1191
903.200	159
903.302	-17
903.404	315
903.505	1215
903.607	500
903.709	1506
903.811	992
903.913	1097
904.014	172
904.116	1195
904.218	555
904.319	1588
904.421	1093
904.523	1122
904.624	-40
904.726	965
904.827	-547
904.929	417
905.030	382
905.132	837
905.233	1207
905.335	706
905.436	-711
905.537	603
905.639	-347
905.740	1392
905.841	12
905.943	1621
906.044	-148
906.145	809
906.247	-175
906.348	235
906.449	51
906.550	1072
906.651	-287
906.752	579
906.854	243
906.955	720
907.056	-286
907.157	1203
907.258	590
907.359	1614
907.460	79
907.561	-304
907.662	121
907.762	226
907.863	98
907.964	541
908.065	800
908.166	802
908.267	413
908.367	813
908.468	603
908.569	1045
908.670	313
908.770	695
908.871	143
908.971	442
909.072	-796
909.173	319
909.273	148
909.374	344
909.474	-355
909.575	846
909.675	-167
909.776	924
909.876	784
909.977	1183
910.077	-639
910.177	1352
910.278	487
910.378	268
910.478	-229
910.579	1009
910.679	222
910.779	1176
910.879	115
910.980	-438
911.080	11
911.180	549
911.280	200
911.380	988
911.480	-185
911.580	684
911.680	-85
911.780	858
911.880	158
911.980	679
912.080	535
912.180	944
912.280	824
912.380	528
912.480	17
912.580	-85
912.679	-124
912.779	1168
912.879	641
912.979	671
913.078	-321
913.178	628
913.278	112
913.377	852
913.477	-825
913.577	413
913.676	471
913.776	758
913.875	616
913.975	933
914.074	-301
914.174	678
914.273	-482
914.373	748
914.472	328
914.572	-203
914.671	-390
914.770	73
914.870	463
914.969	1377
915.068	-375
915.167	913
915.267	18
915.366	429
915.465	558
915.564	197
915.663	218
915.763	669
915.862	116
915.961	561
916.060	368
916.159	562
916.258	254
916.357	252
916.456	52
916.555	1215
916.654	-221
916.752	799
916.851	-809
916.950	845
917.049	-149
917.148	611
917.247	119
917.345	412
917.444	-126
917.543	550
917.642	368
917.740	-37
917.839	94
917.937	973
918.036	510
918.135	1329
918.233	-332
918.332	704
918.430	-238
918.529	1312
918.627	247
918.726	827
918.824	626
918.923	255
919.021	543
919.119	228
919.218	-221
919.316	-166
919.414	-5
919.512	1003
919.611	334
919.709	1101
919.807	315
919.905	981
920.003	671
920.102	119
920.200	196
920.298	941
920.396	500
920.494	158
920.592	-18
920.690	1680
920.788	-198
920.886	289
920.984	881
921.082	1122
921.180	963
921.277	942
921.375	1369
921.473	1579
921.571	906
921.669	1750
921.766	137
921.864	1572
921.962	1581
922.060	1919
922.157	287
922.255	1578
922.352	986
922.450	2588
922.548	1216
922.645	2340
922.743	1944
922.840	3412
922.938	3481
923.035	4173
923.133	2506
923.230	4542
923.327	4593
923.425	4223
923.522	3850
923.619	4580
923.717	3365
923.814	3729
923.911	3749
924.008	3836
924.106	2484
924.203	3562
924.300	2860
924.397	3233
924.494	2740
924.591	3201
924.688	2729
924.786	3644
924.883	2635
924.979	3018
925.077	3568
925.173	3987
925.270	3051
925.367	2713
925.464	2483
925.561	4205
925.658	3771
925.755	3195
925.852	3075
925.948	3767
926.045	3162
926.142	3201
926.239	2928
926.335	2179
926.432	3341
926.529	4043
926.625	2959
926.722	3263
926.818	2449
926.915	3318
927.011	2477
927.108	3531
927.204	3183
927.301	3058
927.397	2522
927.494	4323
927.590	2125
927.687	3078
927.783	2853
927.879	3654
927.976	1961
928.072	2622
928.168	2492
928.264	3146
928.361	2278
928.457	4033
928.553	2655
928.649	2881
928.745	2789
928.841	2882
928.937	2355
929.033	3263
929.129	2411
929.225	3390
929.321	1888
929.417	2819
929.513	2296
929.609	2700
929.705	1814
929.801	3760
929.897	1713
929.993	2629
930.089	2106
930.184	2501
930.280	2617
930.376	3197
930.471	1701
930.567	2513
930.663	2208
930.758	2203
930.854	2033
930.950	3129
931.045	1959
931.141	2456
931.236	2540
931.332	2873
931.427	1874
931.523	3310
931.618	1777
931.714	1650
931.809	2042
931.905	2818
932.000	1270
932.095	1417
932.191	1917
932.286	3528
932.381	2137
932.476	1565
932.572	1835
932.667	1648
932.762	1690
932.857	3374
932.952	2489
933.047	2271
933.142	1169
933.237	2493
933.332	2276
933.427	3486
933.522	1851
933.617	1920
933.712	1507
933.807	2718
933.902	2087
933.997	3239
934.092	1747
934.187	2285
934.282	2390
934.376	2840
934.471	2109
934.566	1392
934.661	1652
934.755	2675
934.850	2602
934.945	1963
935.039	1474
935.134	1521
935.228	1150
935.323	3500
935.417	1044
935.512	1777
935.606	773
935.701	2174
935.795	2142
935.890	1639
935.984	918
936.079	1530
936.173	1860
936.267	2100
936.362	1132
936.456	1929
936.550	2003
936.644	2822
936.738	895
936.833	2116
936.927	1253
937.021	1915
937.115	1966
937.209	3013
937.303	2642
937.397	1502
937.491	1154
937.585	2665
937.679	506
937.773	1892
937.867	1440
937.961	2190
938.055	1661
938.149	2882
938.243	1072
938.337	602
938.430	-267
938.524	2035
938.618	700
938.712	1938
938.805	511
938.899	1923
938.993	2014
939.086	1416
939.180	679
939.274	1632
939.367	578
939.461	2446
939.554	1378
939.648	1461
939.741	743
939.835	2072
939.928	1564
940.022	2142
940.115	408
940.208	2152
940.302	2021
940.395	2959
940.488	914
940.582	2255
940.675	579
940.768	1533
940.861	749
940.954	2329
941.048	429
941.141	1225
941.234	191
941.327	1804
941.420	1255
941.513	2105
941.606	915
941.699	2205
941.792	1566
941.885	1600
941.978	1362
942.071	1447
942.164	143
942.257	1550
942.349	1218
942.442	1511
942.535	687
942.628	1504
942.721	1011
942.813	1323
942.906	2769
942.999	1992
943.091	713
943.184	608
943.277	403
943.369	1517
943.462	309
943.554	2160
943.647	676
943.739	1704
943.832	1176
943.924	273
944.017	180
944.109	421
944.201	684
944.294	1116
944.386	856
944.478	1286
944.571	300
944.663	894
944.755	537
944.847	1842
944.940	944
945.032	387
945.124	789
945.216	1841
945.308	952
945.400	1696
945.492	-254
945.584	2639
945.676	966
945.768	1931
945.860	1005
945.952	2223
946.044	1277
946.136	1001
946.228	582
946.320	396
946.412	1200
946.503	1672
946.595	1293
946.687	384
946.779	444
946.870	196
946.962	967
947.054	1632
947.145	1456
947.237	1271
947.329	1154
947.420	1791
947.512	476
947.603	899
947.695	505
947.786	839
947.878	97
947.969	981
948.061	371
948.152	1638
948.243	432
948.335	1891
948.426	234
948.517	730
948.609	170
948.700	1626
948.791	-335
948.882	1065
948.973	444
949.065	926
949.156	989
949.247	872
949.338	505
949.429	631
949.520	442
949.611	877
949.702	1385
949.793	1495
949.884	491
949.975	1614
950.066	-407
950.157	995
950.247	-62
950.338	908
950.429	255
950.520	1050
950.611	-268
950.701	638
950.792	300
950.883	1431
950.973	533
951.064	1225
951.155	1313
951.245	1228
951.336	262
951.427	318
951.517	1045
951.608	818
951.698	255
951.788	941
951.879	-181
951.969	499
952.060	-471
952.150	838
952.240	1243
952.331	-977
952.421	2043
952.511	372
952.602	-41
952.692	1063
952.782	297
952.872	1029
952.962	188
953.052	439
953.143	3
953.233	37
953.323	-716
953.413	783
953.503	676
953.593	1920
953.683	276
953.773	368
953.863	350
953.953	1108
954.042	-55
954.132	411
954.222	693
954.312	994
954.402	-482
954.492	191
954.581	507
954.671	1096
954.761	-1168
954.850	1940
954.940	-288
955.030	186
955.119	395
955.209	987
955.298	-894
955.388	58
955.477	1290
955.567	810
955.656	-200
955.746	766
955.835	-275
955.925	860
956.014	-184
956.103	1217
956.193	254
956.282	873
956.371	-70
956.461	1192
956.550	272
956.639	848
956.728	-208
956.817	233
956.906	37
956.995	1676
957.085	-238
957.174	1215
957.263	687
957.352	573
957.441	596
957.530	848
957.619	129
957.708	264
957.796	22
957.885	308
957.974	-345
958.063	1084
958.152	-969
958.241	443
958.329	-4
958.418	356
958.507	380
958.596	1280
958.684	-317
958.773	1337
958.861	-220
958.950	366
959.039	242
959.127	1226
959.216	420
959.304	1241
959.393	-290
959.481	1307
959.570	115
959.658	640
959.746	281
959.835	251
959.923	-434
960.011	284
960.100	756
960.188	1456
960.276	-373
960.365	543
960.453	90
960.541	116
960.629	-768
960.717	517
960.805	-1059
960.893	277
960.981	-618
961.069	1330
961.158	223
961.245	1619
961.333	213
961.421	-111
961.509	-141
961.597	196
961.685	-551
961.773	48
961.861	-687
961.949	893
962.036	-548
962.124	804
962.212	-454
962.299	757
962.387	-895
962.475	105
962.562	-610
962.650	603
962.738	-486
962.825	671
962.913	-214
963.000	101
963.088	-555
963.175	469
963.263	322
963.350	-358
963.438	-133
963.525	201
963.612	-127
963.700	-335
963.787	306
963.874	232
963.962	-237
964.049	53
964.136	-326
964.223	-181
964.310	-320
964.398	47
964.485	-472
964.572	628
964.659	298
964.746	109
964.833	-612
964.920	-395
965.007	587
965.094	293
965.181	-524
965.268	-287
965.355	-603
965.441	737
965.528	-1178
965.615	1066
965.702	-636
965.789	13
965.875	-383
965.962	295
966.049	-893
966.136	156
966.222	-182
966.309	525
966.395	-248
966.482	184
966.569	-412
966.655	325
966.742	-707
966.828	451
966.915	-813
967.001	235
967.087	-1540
967.174	-136
967.260	15
967.347	-85
967.433	-546
967.519	1261
967.605	-394
967.692	-479
967.778	-84
967.864	311
967.950	155
968.036	-889
968.123	16
968.209	-86
968.295	-1757
968.381	650
968.467	18
968.553	-1077
968.639	568
968.725	-415
968.811	85
968.897	538
968.983	108
969.069	-199
969.154	-405
969.240	379
969.326	-993
969.412	-420
969.497	-358
969.583	-841
969.669	280
969.755	699
969.840	-413
969.926	491
970.012	336
970.097	1105
970.183	151
970.268	750
970.354	647
970.439	-472
970.525	723
970.610	-165
970.696	801
970.781	386
970.866	-1048
970.952	-70
971.037	-748
971.122	-569
971.208	-1007
971.293	757
971.378	-1572
971.463	-440
971.549	-467
971.634	541
971.719	-185
971.804	-227
971.889	-288
971.974	-16
972.059	-735
972.144	392
972.229	-447
972.314	-1057
972.399	524
972.484	-364
972.569	-100
972.654	-911
972.739	32
972.824	101
972.908	-685
972.993	261
973.078	-1298
973.163	195
973.247	-42
973.332	-479
973.417	243
973.501	-543
973.586	160
973.671	114
973.755	-972
973.840	241
973.924	-103
974.009	268
974.093	-604
974.178	2010
974.262	-677
974.346	241
974.431	-202
974.515	-521
974.600	-719
974.684	-87
974.768	-325
974.852	467
974.937	-1116
975.021	342
975.105	-1314
975.189	-563
975.273	-413
975.358	-989
975.442	-1284
975.526	677
975.610	-1714
975.694	-697
975.778	248
975.862	82
975.946	-1778
976.030	1283
976.114	-1020
976.198	-295
976.281	-891
976.365	-414
976.449	-1021
976.533	757
976.617	-445
976.700	-436
976.784	-428
976.868	-33
976.951	-580
977.035	-609
977.119	-30
977.202	-851
977.286	-584
977.369	180
977.453	-300
977.536	173
977.620	-1124
977.703	-80
977.787	-1924
977.870	1223
977.953	65
978.037	-1067
978.120	-201
978.203	-226
978.287	-641
978.370	-924
978.453	-1178
978.536	323
978.620	-482
978.703	-172
978.786	-1507
978.869	-607
978.952	-1830
979.035	595
979.118	-400
979.201	-354
979.284	-498
979.367	-1133
979.450	-777
979.533	-142
979.616	-1056
979.699	-407
979.782	-342
979.865	59
979.948	-561
980.030	-769
980.113	-491
980.196	-1067
980.279	-117
980.361	-520
980.444	-1037
980.526	686
980.609	-727
980.692	-47
980.774	833
980.857	-406
980.939	482
981.022	-138
981.104	-394
981.187	-11
981.269	-244
981.352	-146
981.434	-866
981.516	-542
981.599	307
981.681	-261
981.763	-467
981.846	119
981.928	-875
982.010	-364
982.092	-1301
982.174	929
982.256	-1421
982.339	-685
982.421	-212
982.503	208
982.585	-1258
982.667	-523
982.749	-68
982.831	-83
982.913	-1483
982.995	1235
983.077	-907
983.158	998
983.240	-1320
983.322	-40
983.404	702
983.486	-241
983.568	766
983.649	-836
983.731	19
983.813	285
983.894	-311
983.976	164
984.058	-876
984.139	460
984.221	-474
984.302	1207
984.384	-602
984.465	455
984.547	-1003
984.628	-873
984.710	605
984.791	155
984.872	-765
984.954	-415
985.035	-172
985.116	-37
985.198	3
985.279	1617
985.360	-115
985.441	-216
985.522	-17
985.604	33
985.685	-2230
985.766	595
985.847	218
985.928	-953
986.009	-1257
986.090	187
986.171	-559
986.252	-413
986.333	197
986.414	-5
986.495	-621
986.576	-180
986.656	-563
986.737	106
986.818	-872
986.899	364
986.980	221
987.060	735
987.141	-1001
987.222	851
987.302	-29
987.383	864
987.464	-761
987.544	472
987.625	118
987.705	709
987.786	433
987.866	743
987.947	291
988.027	214
988.108	-773
988.188	580
988.268	-571
988.349	445
988.429	-255
988.509	-271
988.589	-343
988.670	-987
988.750	420
988.830	-15
988.910	448
988.990	424
989.070	-783
989.151	931
989.231	-609
989.311	65
989.391	-287
989.471	60
989.551	-646
989.631	-677
989.711	427
989.791	357
989.870	-993
989.950	171
990.030	-1194
990.110	-30
990.190	-1632
990.269	-852
990.349	-785
990.429	614
990.509	-794
990.588	-550
990.668	-838
990.747	-60
990.827	-721
990.907	461
990.986	-1100
991.066	214
991.145	-437
991.225	263
991.304	-512
991.383	-302
991.463	-310
991.542	629
991.622	-1109
991.701	768
991.780	-798
991.859	139
991.939	-1172
992.018	-162
992.097	-454
992.176	630
992.256	1
992.335	-1033
992.414	-253
992.493	-116
992.572	-876
992.651	1185
992.730	-1891
992.809	-285
992.888	-1621
992.967	23
993.046	-869
993.125	-1231
993.203	-604
993.282	-239
993.361	-1296
993.440	-440
993.519	-1002
993.597	170
993.676	-1001
993.755	-600
993.834	-1120
993.912	-652
993.991	-346
994.069	-685
994.148	-620
994.226	-971
994.305	-1274
994.384	-472
994.462	400
994.540	-1097
994.619	-1743
994.697	372
994.776	-837
994.854	144
994.932	-1004
995.011	352
995.089	-1414
995.167	-602
995.245	-994
995.324	-274
995.402	-324
995.480	-524
995.558	-1717
995.636	-1185
995.714	-1385
995.792	839
995.870	-1219
995.948	-769
996.026	-1154
996.104	-2002
996.182	-48
996.260	-509
996.338	-748
996.416	-1038
996.494	-1187
996.572	103
996.649	-1119
996.727	-1649
996.805	-545
996.883	-208
996.960	-1599
997.038	-124
997.116	-715
997.193	-776
997.271	-196
997.348	-689
997.426	-1136
997.504	-1500
997.581	-1309
997.658	-308
997.736	-2238
997.813	-1233
997.891	-344
997.968	-1213
998.046	-201
998.123	-906
998.200	-1049
998.277	-1495
998.355	-1262
998.432	-1052
998.509	-1455
998.586	-27
998.663	-357
998.741	-463
998.818	-1640
998.895	-1347
998.972	-1031
999.049	-872
999.126	-1741
999.203	-140
999.280	-755
999.357	-1202
999.434	-1795
999.511	-830
999.587	-1247
999.664	-1557
999.741	-725
999.818	-844
999.895	-2205
999.971	-396
1000.048	-1267
1000.125	147
1000.202	-1755
1000.278	-179
1000.355	-1412
1000.431	-246
1000.508	-1726
1000.584	-456
1000.661	-1421
1000.738	-1460
1000.814	-1249
1000.890	247
1000.967	-1420
1001.043	-511
1001.120	-2190
1001.196	-849
1001.272	-1962
1001.349	-898
1001.425	-912
1001.501	-1579
1001.577	-2231
1001.654	-1071
1001.730	-1742
1001.806	-610
1001.882	-1640
1001.958	584
1002.034	-1598
1002.110	-729
1002.186	-1464
1002.262	-1582
1002.338	-2146
1002.414	216
1002.490	-1456
1002.566	-932
1002.642	-1797
1002.718	-558
1002.794	-686
1002.870	-893
1002.945	-1864
1003.021	-1280
1003.097	-1810
1003.173	-151
1003.248	-2396
1003.324	-1089
1003.400	-1058
1003.475	-1727
1003.551	-1398
1003.626	160
1003.702	-1963
1003.777	-547
1003.853	-2495
1003.928	-1672
1004.004	-1676
1004.079	-234
1004.155	-1957
1004.230	-2050
1004.305	-784
1004.381	-1482
1004.456	-1667
1004.531	-932
1004.607	-981
1004.682	-1122
1004.757	-1334
1004.832	-1329
1004.907	-1159
1004.982	-903
1005.057	-1208
1005.133	-1013
1005.208	-1562
1005.283	-930
1005.358	-719
1005.433	-1159
1005.508	-1426
1005.583	-2335
1005.657	-1744
1005.732	-317
1005.807	-2190
1005.882	-770
1005.957	-2059
1006.032	-783
1006.106	-2108
1006.181	-862
1006.256	-1418
1006.331	-1691
1006.405	-2589
1006.480	-964
1006.554	-1506
1006.629	-1379
1006.704	-1080
1006.778	-1300
1006.853	-1184
1006.927	-1252
1007.002	-2199
1007.076	-965
1007.150	-2103
1007.225	-556
1007.299	-1726
1007.373	-1613
1007.448	-1378
1007.522	-682
1007.596	-1847
1007.671	-2029
1007.745	-1695
1007.819	-1329
1007.893	-1540
1007.967	-1073
1008.041	-2388
1008.115	-1470
1008.190	-1624
1008.264	-1358
1008.338	-2485
1008.412	-1808
1008.486	-1804
1008.560	-832
1008.633	-2124
1008.707	-961
1008.781	-1212
1008.855	-1175
1008.929	-2128
1009.003	-844
1009.076	-1989
1009.150	-1012
1009.224	-2071
1009.298	-469
1009.371	-2404
1009.445	-984
1009.519	-1902
1009.592	-2024
1009.666	-2326
1009.739	-1158
1009.813	-2674
1009.886	-1184
1009.960	-3304
1010.033	-784
1010.107	-1585
1010.180	-1643
1010.253	-1453
1010.327	-1567
1010.400	-1913
1010.473	-1741
1010.547	-1018
1010.620	-1138
1010.693	-1935
1010.766	-1626
1010.840	-1884
1010.913	-1848
1010.986	-2313
1011.059	-989
1011.132	-2264
1011.205	-166
1011.278	-2263
1011.351	-1380
1011.424	-2209
1011.497	-1002
1011.570	-2131
1011.643	-1446
1011.716	-2436
1011.789	-2829
1011.862	-2042
1011.934	-1208
1012.007	-2307
1012.080	-1154
1012.153	-2042
1012.225	-333
1012.298	-2127
1012.371	-1942
1012.443	-1323
1012.516	-1567
1012.588	-2300
1012.661	-869
1012.733	-1959
1012.806	-831
1012.879	-2567
1012.951	-1094
1013.023	-2100
1013.096	-793
1013.168	-2232
1013.241	-715
1013.313	-2391
1013.385	-1842
1013.458	-1539
1013.530	-1274
1013.602	-2593
1013.674	-154
1013.746	-1555
1013.819	-2224
1013.891	-2396
1013.963	-2176
1014.035	-2757
1014.107	-956
1014.179	-1897
1014.251	-1296
1014.323	-2015
1014.395	-787
1014.467	-1819
1014.539	-1941
1014.611	-2094
1014.683	-974
1014.754	-2447
1014.826	-1305
1014.898	-1657
1014.970	-1546
1015.042	-1171
1015.113	-1515
1015.185	-1616
1015.257	-1467
1015.328	-1768
1015.400	-1827
1015.471	-2543
1015.543	-1889
1015.615	-2070
1015.686	-1374
1015.757	-2522
1015.829	-1277
1015.901	-2962
1015.972	-1710
1016.043	-2122
1016.115	-1180
1016.186	-2704
1016.257	-969
1016.328	-1867
1016.400	153
1016.471	-2392
1016.542	-1625
1016.613	-3077
1016.685	-1854
1016.756	-1491
1016.827	-1358
1016.898	-2806
1016.969	-655
1017.040	-2149
1017.111	-1605
1017.182	-1650
1017.253	-1255
1017.324	-2606
1017.395	-1505
1017.466	-1973
1017.537	-1202
1017.608	-2474
1017.678	-1984
1017.749	-2825
1017.820	-789
1017.891	-2534
1017.961	-1597
1018.032	-2186
1018.103	-1632
1018.173	-2153
1018.244	-2010
1018.315	-2163
1018.385	-2001
1018.456	-2359
1018.526	-1762
1018.597	-2384
1018.667	-1385
1018.738	-2718
1018.808	-1292
1018.878	-2890
1018.949	-1833
1019.019	-2987
1019.089	-1876
1019.160	-2514
1019.230	-2601
1019.300	-1636
1019.371	-2027
1019.441	-2089
1019.511	-1322
1019.581	-2608
1019.651	-1282
1019.721	-965
1019.791	-1926
1019.861	-2572
1019.931	-1472
1020.001	-3064
1020.071	-1591
1020.141	-2706
1020.211	-1730
1020.281	-2403
1020.351	-1920
1020.421	-2158
1020.491	-1847
1020.560	-2400
1020.630	-2172
1020.700	-2484
1020.770	-1842
1020.839	-1641
1020.909	-1967
1020.979	-2653
1021.048	-1712
1021.118	-2406
1021.187	-1699
1021.257	-2634
1021.326	-1898
1021.396	-2797
1021.465	-937
1021.535	-2711
1021.604	-1903
1021.674	-2085
1021.743	-1100
1021.812	-2627
1021.882	-1756
1021.951	-1785
1022.020	-1794
1022.089	-1959
1022.159	-2090
1022.228	-2360
1022.297	-1786
1022.366	-2364
1022.435	-1607
1022.504	-1838
1022.573	-1983
1022.642	-2510
1022.711	-1130
1022.781	-1293
1022.849	-1204
1022.918	-3097
1022.987	-1601
1023.056	-1922
1023.125	-1266
1023.194	-2511
1023.263	-1685
1023.331	-2283
1023.400	-2423
1023.469	-2196
1023.538	-1101
1023.606	-2404
1023.675	-1935
1023.744	-3187
1023.812	-1851
1023.881	-2183
1023.949	-1699
1024.018	-2665
1024.086	-1427
1024.155	-1674
1024.223	-2056
1024.292	-2205
1024.360	-1946
1024.429	-2062
1024.497	-2240
1024.565	-2577
1024.634	-1703
1024.702	-1721
1024.770	-1327
1024.838	-2906
1024.907	-1422
1024.975	-2648
1025.043	-1626
1025.111	-2302
1025.179	-1935
1025.247	-2089
1025.315	-2119
1025.383	-2371
1025.451	-1290
1025.519	-2447
1025.587	-1456
1025.655	-2496
1025.723	-1077
1025.791	-2501
1025.859	-780
1025.927	-2289
1025.995	-1787
1026.062	-2102
1026.130	-2213
1026.198	-3200
1026.266	-1826
1026.333	-1820
1026.401	-453
1026.469	-2088
1026.536	-2112
1026.604	-2695
1026.671	-2233
1026.739	-2036
1026.806	-2311
1026.874	-2327
1026.941	-2447
1027.009	-2543
1027.076	-2011
1027.144	-1727
1027.211	-2246
1027.278	-2982
1027.345	-1366
1027.413	-2529
1027.480	-948
1027.547	-2589
1027.614	-1304
1027.682	-2016
1027.749	-1544
1027.816	-2976
1027.883	-1827
1027.950	-1419
1028.017	-2518
1028.084	-2103
1028.151	-2465
1028.218	-2285
1028.285	-1342
1028.352	-3023
1028.419	-1705
1028.486	-2467
1028.553	-1414
1028.619	-2043
1028.686	-1769
1028.753	-2910
1028.820	-1567
1028.886	-2338
1028.953	-1170
1029.020	-2470
1029.086	-1867
1029.153	-2187
1029.220	-2323
1029.286	-2971
1029.353	-1885
1029.419	-3116
1029.486	-1328
1029.552	-2419
1029.619	-1926
1029.685	-1990
1029.751	-1737
1029.818	-1513
1029.884	-1608
1029.951	-1832
1030.017	-2075
1030.083	-1779
1030.149	-1374
1030.216	-2207
1030.282	-1900
1030.348	-2292
1030.414	-1872
1030.480	-2320
1030.546	-1325
1030.612	-1584
1030.678	-1893
1030.744	-2409
1030.810	-1788
1030.876	-2456
1030.942	-1783
1031.008	-2419
1031.074	-2398
1031.140	-2445
1031.206	-1642
1031.272	-2304
1031.337	-2060
1031.403	-2384
1031.469	-1786
1031.534	-3272
1031.600	-1664
1031.666	-1795
1031.731	-1917
1031.797	-1691
1031.863	-1665
1031.928	-3665
1031.994	-1629
1032.059	-2225
1032.125	-1675
1032.190	-2497
1032.256	-896
1032.321	-2398
1032.386	-2028
1032.452	-2178
1032.517	-1510
1032.582	-2559
1032.647	-1841
1032.713	-1807
1032.778	-1977
1032.843	-3211
1032.908	-2536
1032.974	-2349
1033.039	-2042
1033.104	-2688
1033.169	-2089
1033.234	-2712
1033.299	-1830
1033.364	-1961
1033.429	-1944
1033.494	-1737
1033.559	-2332
1033.624	-2859
1033.688	-2521
1033.753	-2942
1033.818	-1487
1033.883	-2657
1033.948	-2300
1034.013	-2402
1034.077	-1799
1034.142	-2164
1034.207	-1454
1034.271	-869
1034.336	-177
1034.400	-2313
1034.465	-2227
1034.530	-2171
1034.594	-1300
1034.658	-2543
1034.723	-2430
1034.787	-2991
1034.852	-2064
1034.916	-2226
1034.981	-2455
1035.045	-2436
1035.109	-1406
1035.173	-1773
1035.238	-2488
1035.302	-1445
1035.366	-1802
1035.430	-2348
1035.495	-2134
1035.559	-1643
1035.623	-1604
1035.687	-2067
1035.751	-2203
1035.815	-3100
1035.879	-2014
1035.943	-2063
1036.007	-987
1036.071	-2727
1036.135	-2197
1036.198	-2666
1036.262	-1595
1036.326	-2587
1036.390	-1790
1036.454	-2421
1036.517	-1896
1036.581	-2775
1036.645	-2592
1036.709	-2234
1036.772	-2225
1036.836	-2273
1036.900	-1245
1036.963	-2692
1037.026	-1732
1037.090	-2528
1037.154	-1300
1037.217	-2087
1037.280	-2559
1037.344	-3081
1037.407	-2085
1037.471	-2620
1037.534	-2130
1037.597	-1884
1037.661	-1576
1037.724	-2637
1037.787	-1880
1037.850	-2393
1037.913	-2591
1037.977	-2584
1038.040	-2137
1038.103	-2703
1038.166	-2808
1038.229	-2092
1038.292	-2921
1038.355	-2482
1038.418	-1979
1038.481	-2488
1038.544	-1838
1038.607	-2938
1038.670	-2383
1038.732	-2340
1038.795	-1990
1038.858	-2914
1038.921	-1701
1038.984	-2324
1039.046	-2336
1039.109	-3298
1039.172	-2026
1039.234	-2982
1039.297	-1838
1039.360	-2259
1039.422	-2238
1039.485	-2531
1039.547	-2652
1039.610	-2484
1039.672	-2708
1039.734	-2375
1039.797	-2313
1039.859	-2408
1039.922	-1816
1039.984	-2156
1040.046	-1955
1040.109	-3313
1040.171	-2144
1040.233	-3060
1040.295	-2035
1040.358	-2495
1040.420	-1924
1040.482	-3650
1040.544	-2592
1040.606	-3517
1040.668	-2122
1040.730	-2564
1040.792	-2454
1040.854	-2250
1040.916	-2643
1040.978	-2485
1041.040	-1547
1041.102	-1796
1041.164	-1977
1041.225	-2135
1041.287	-2245
1041.349	-2962
1041.411	-1557
1041.472	-3018
1041.534	-2264
1041.596	-3220
1041.657	-1930
1041.719	-2588
1041.781	-2032
1041.842	-2088
1041.904	-2351
1041.965	-2418
1042.027	-2182
1042.088	-2759
1042.150	-2027
1042.211	-3047
1042.272	-1889
1042.334	-2872
1042.395	-1607
1042.456	-3542
1042.518	-2864
1042.579	-1941
1042.640	-1773
1042.701	-2862
1042.763	-2170
1042.824	-3278
1042.885	-1770
1042.946	-2446
1043.007	-2578
1043.068	-2835
1043.129	-2194
1043.190	-3389
1043.251	-2481
1043.312	-2785
1043.373	-1430
1043.434	-2863
1043.495	-1497
1043.556	-1886
1043.616	-1626
1043.677	-2736
1043.738	-1736
1043.799	-2702
1043.859	-1156
1043.920	-3031
1043.981	-1997
1044.041	-2731
1044.102	-2667
1044.162	-3128
1044.223	-2162
1044.284	-3399
1044.344	-2810
1044.405	-3222
1044.465	-2400
1044.525	-2974
1044.586	-1882
1044.646	-3314
1044.707	-2039
1044.767	-2565
1044.827	-1488
1044.887	-2219
1044.948	-2365
1045.008	-2944
1045.068	-1714
1045.128	-2857
1045.188	-2352
1045.249	-2244
1045.309	-2877
1045.369	-2514
1045.429	-1584
1045.489	-2228
1045.549	-2089
1045.609	-2303
1045.669	-1626
1045.729	-2393
1045.789	-2575
1045.848	-2099
1045.908	-1692
1045.968	-2371
1046.028	-1589
1046.088	-1920
1046.147	-930
1046.207	-3065
1046.267	-1894
1046.326	-2111
1046.386	-1871
1046.446	-2129
1046.505	-1256
1046.565	-1991
1046.624	-614
1046.684	-1813
1046.743	-1242
1046.803	-580
1046.862	-71
1046.922	0
