'Start Wavelength	183.907
'End Wavelength	1046.922
'Gate Delay	5.000
'Gate Width (ms)	1.050
'Laser Output Level	0.000
'X Position	0.000
'Y Position	0.000
'Z Position	0.000
'Grid Point Number	1.000
'Shot Number	100.000
183.907	662.000
183.977	198.000
184.047	-586
184.116	756
184.186	-582
184.256	-413
184.325	-870
184.395	-121
184.465	-228
184.534	378
184.604	-697
184.674	475
184.743	-1015
184.813	689
184.883	326
184.952	-160
185.022	-542
185.092	-7
185.161	579
185.231	592
185.301	-52
185.370	543
185.440	183
185.509	-354
185.579	-260
185.649	674
185.718	-123
185.788	99
185.857	29
185.927	319
185.996	-912
186.066	-370
186.136	-41
186.205	325
186.275	-444
186.344	-84
186.414	390
186.483	-697
186.553	264
186.622	499
186.692	-280
186.761	-300
186.831	22
186.900	-416
186.970	260
187.039	170
187.109	12
187.178	801
187.248	348
187.317	713
187.387	-758
187.456	362
187.526	40
187.595	399
187.664	-623
187.734	-85
187.803	-519
187.873	99
187.942	130
188.012	95
188.081	-587
188.150	-555
188.220	-158
188.289	318
188.358	-594
188.428	166
188.497	-1021
188.567	244
188.636	99
188.705	-639
188.775	-137
188.844	-371
188.913	362
188.983	664
189.052	-110
189.121	631
189.191	-516
189.260	-49
189.329	-215
189.399	-438
189.468	254
189.537	-276
189.606	443
189.676	-61
189.745	-24
189.814	19
189.883	74
189.953	138
190.022	28
190.091	1016
190.161	-358
190.230	400
190.299	370
190.368	-226
190.437	-178
190.507	807
190.576	176
190.645	171
190.714	27
190.783	419
190.853	-83
190.922	632
190.991	566
191.060	-153
191.129	-462
191.198	417
191.268	-791
191.337	2
191.406	286
191.475	376
191.544	-310
191.613	496
191.682	-739
191.752	682
191.821	291
191.890	-10
191.959	-147
192.028	207
192.097	-585
192.166	119
192.235	783
192.304	703
192.373	-201
192.442	-395
192.511	-168
192.580	88
192.650	-265
192.719	45
192.788	259
192.857	-98
192.926	210
192.995	-589
193.064	-149
193.133	434
193.202	-286
193.271	162
193.340	220
193.409	395
193.478	202
193.547	290
193.615	20
193.684	746
193.753	-405
193.822	332
193.891	83
193.960	848
194.029	-40
194.098	301
194.167	-185
194.236	379
194.305	-472
194.374	-293
194.443	-390
194.512	250
194.580	540
194.649	14
194.718	884
194.787	17
194.856	7
194.925	-53
194.994	-7
195.062	518
195.131	-474
195.200	52
195.269	-32
195.338	336
195.407	182
195.475	201
195.544	483
195.613	-274
195.682	-308
195.751	-39
195.819	-350
195.888	-256
195.957	706
196.026	764
196.094	256
196.163	660
196.232	-81
196.301	849
196.369	18
196.438	173
196.507	-465
196.576	-389
196.644	-302
196.713	-377
196.782	-493
196.850	294
196.919	-271
196.988	479
197.056	-392
197.125	542
197.194	198
197.262	36
197.331	-229
197.400	-280
197.468	-210
197.537	356
197.606	-377
197.674	774
197.743	932
197.812	-63
197.880	385
197.949	24
198.017	487
198.086	-115
198.155	-268
198.223	-224
198.292	-203
198.360	318
198.429	-629
198.497	26
198.566	-1
198.635	917
198.703	262
198.772	1064
198.840	0
198.909	808
198.977	147
199.046	79
199.114	-544
199.183	410
199.251	63
199.320	-124
199.388	-1482
199.457	-206
199.525	-65
199.594	-102
199.662	-379
199.731	-191
199.799	319
199.867	76
199.936	168
200.004	29
200.073	60
200.141	-434
200.210	-641
200.278	75
200.346	-334
200.415	490
200.483	-156
200.552	433
200.620	-229
200.688	-221
200.757	-125
200.825	74
200.893	-495
200.962	159
201.030	134
201.098	378
201.167	320
201.235	20
201.303	-722
201.372	407
201.440	318
201.508	-40
201.577	-683
201.645	170
201.713	-373
201.781	-309
201.850	-249
201.918	485
201.986	-218
202.055	-107
202.123	-60
202.191	607
202.259	391
202.327	889
202.396	-631
202.464	712
202.532	-465
202.600	1501
202.669	-404
202.737	332
202.805	559
202.873	349
202.941	-255
203.009	-280
203.078	-391
203.146	-466
203.214	-382
203.282	-280
203.350	122
203.418	-878
203.487	-46
203.555	104
203.623	-194
203.691	121
203.759	-383
203.827	-369
203.895	-653
203.963	-119
204.031	-963
204.099	-114
204.168	-237
204.236	401
204.304	647
204.372	475
204.440	-182
204.508	-371
204.576	-893
204.644	79
204.712	-39
204.780	871
204.848	-269
204.916	-490
204.984	-221
205.052	-130
205.120	-333
205.188	489
205.256	-480
205.324	205
205.392	-897
205.460	-82
205.528	-279
205.596	903
205.664	-271
205.732	-80
205.799	586
205.867	276
205.935	-280
206.003	628
206.071	425
206.139	143
206.207	-259
206.275	-182
206.343	407
206.411	453
206.478	-53
206.546	-73
206.614	594
206.682	-1070
206.750	-479
206.818	214
206.885	-33
206.953	-562
207.021	353
207.089	166
207.157	-304
207.225	341
207.292	220
207.360	-223
207.428	-945
207.496	-76
207.563	12
207.631	-47
207.699	-1014
207.767	177
207.834	-63
207.902	210
207.970	-168
208.038	-254
208.105	30
208.173	547
208.241	-33
208.309	336
208.376	-272
208.444	837
208.512	-394
208.579	-611
208.647	529
208.715	818
208.782	-401
208.850	393
208.918	-517
208.985	410
209.053	-188
209.120	-70
209.188	-231
209.256	279
209.323	-437
209.391	-184
209.459	924
209.526	289
209.594	-87
209.661	595
209.729	682
209.796	162
209.864	116
209.932	-484
209.999	629
210.067	455
210.134	127
210.202	714
210.269	239
210.337	1024
210.404	-56
210.472	935
210.539	-100
210.607	-369
210.674	304
210.742	269
210.809	-88
210.877	195
210.944	-62
211.012	-708
211.079	786
211.146	-185
211.214	-2
211.281	655
211.349	534
211.416	948
211.484	82
211.551	703
211.618	124
211.686	713
211.753	-391
211.821	-151
211.888	-403
211.955	-178
212.023	243
212.090	285
212.157	-640
212.225	383
212.292	764
212.359	1473
212.427	3176
212.494	1300
212.561	440
212.629	-311
212.696	9
212.763	539
212.831	-1140
212.898	740
212.965	2
213.032	325
213.100	273
213.167	159
213.234	1047
213.301	1167
213.369	33
213.436	295
213.503	-43
213.570	438
213.638	-699
213.705	-670
213.772	-150
213.839	-153
213.906	4
213.973	-158
214.041	-10
214.108	907
214.175	646
214.242	529
214.309	256
214.376	249
214.444	286
214.511	435
214.578	-112
214.645	937
214.712	815
214.779	14
214.846	-299
214.913	570
214.980	165
215.048	687
215.115	615
215.182	-55
215.249	257
215.316	108
215.383	655
215.450	792
215.517	-140
215.584	211
215.651	217
215.718	815
215.785	22
215.852	57
215.919	844
215.986	207
216.053	-212
216.120	-231
216.187	797
216.254	1076
216.321	301
216.388	747
216.455	208
216.522	840
216.589	-326
216.656	496
216.722	1163
216.789	1125
216.856	-233
216.923	383
216.990	-73
217.057	980
217.124	1070
217.191	25
217.258	918
217.324	1708
217.391	954
217.458	967
217.525	-476
217.592	459
217.659	-849
217.725	842
217.792	715
217.859	1304
217.926	-981
217.993	411
218.059	1256
218.126	274
218.193	612
218.260	445
218.327	42
218.393	462
218.460	251
218.527	141
218.594	376
218.660	1326
218.727	1613
218.794	826
218.860	440
218.927	387
218.994	53
219.061	-207
219.127	679
219.194	740
219.261	585
219.327	-405
219.394	72
219.461	-434
219.527	729
219.594	987
219.661	-356
219.727	321
219.794	123
219.860	-248
219.927	429
219.994	871
220.060	2171
220.127	1281
220.193	665
220.260	-324
220.326	293
220.393	1230
220.460	1072
220.526	335
220.593	-9
220.659	1359
220.726	699
220.792	2514
220.859	425
220.925	2429
220.992	2791
221.058	3237
221.125	2137
221.191	2002
221.258	237
221.324	250
221.391	975
221.457	-204
221.524	116
221.590	654
221.657	2159
221.723	1063
221.789	781
221.856	1509
221.922	-199
221.989	1382
222.055	556
222.121	-575
222.188	1283
222.254	545
222.321	685
222.387	-248
222.453	-166
222.520	-224
222.586	-475
222.652	967
222.719	-489
222.785	743
222.851	-50
222.918	1037
222.984	103
223.050	173
223.116	-1206
223.183	939
223.249	-310
223.315	686
223.382	-585
223.448	341
223.514	-218
223.580	808
223.647	-262
223.713	-103
223.779	-173
223.845	-437
223.911	-398
223.978	-291
224.044	644
224.110	-17
224.176	222
224.242	168
224.309	-430
224.375	592
224.441	-213
224.507	-171
224.573	-958
224.639	836
224.705	-370
224.772	566
224.838	-417
224.904	295
224.970	113
225.036	-95
225.102	-578
225.168	489
225.234	566
225.300	179
225.366	-304
225.432	184
225.499	-432
225.565	-465
225.631	160
225.697	372
225.763	358
225.829	66
225.895	114
225.961	643
226.027	677
226.093	57
226.159	904
226.225	1338
226.291	2612
226.357	4933
226.423	2244
226.489	1336
226.554	948
226.620	1904
226.686	1474
226.752	1911
226.818	1498
226.884	6252
226.950	5380
227.016	1563
227.082	1441
227.148	916
227.214	1052
227.279	988
227.345	443
227.411	1167
227.477	672
227.543	2815
227.609	1674
227.674	1689
227.740	1016
227.806	733
227.872	205
227.938	102
228.003	730
228.069	326
228.135	-113
228.201	189
228.267	-225
228.332	782
228.398	-682
228.464	647
228.530	-412
228.595	278
228.661	-362
228.727	837
228.792	960
228.858	65
228.924	-537
228.990	1692
229.055	-638
229.121	939
229.187	170
229.252	119
229.318	417
229.384	384
229.449	898
229.515	-967
229.581	-1136
229.646	2021
229.712	-190
229.777	1097
229.843	728
229.909	1346
229.974	987
230.040	1168
230.105	364
230.171	-31
230.236	1107
230.302	1129
230.368	955
230.433	260
230.499	650
230.564	900
230.630	823
230.695	333
230.761	971
230.826	-560
230.892	1586
230.957	-10
231.023	491
231.088	473
231.154	516
231.219	399
231.284	296
231.350	732
231.415	-3
231.481	820
231.546	607
231.612	608
231.677	-312
231.742	-765
231.808	1033
231.873	-145
231.939	-1680
232.004	2363
232.069	1674
232.135	769
232.200	412
232.265	1083
232.331	-318
232.396	31
232.461	-210
232.527	-553
232.592	-891
232.657	686
232.723	860
232.788	434
232.853	587
232.918	422
232.984	-550
233.049	-287
233.114	-93
233.179	908
233.245	1264
233.310	1161
233.375	-34
233.440	466
233.506	-250
233.571	255
233.636	704
233.701	67
233.766	116
233.832	1521
233.897	1034
233.962	19
234.027	1597
234.092	890
234.157	-234
234.222	283
234.288	728
234.353	2586
234.418	2029
234.483	2314
234.548	1064
234.613	1020
234.678	966
234.743	230
234.808	3275
234.873	1560
234.938	1656
235.004	55
235.069	293
235.134	629
235.199	466
235.264	1495
235.329	-342
235.394	1147
235.459	1217
235.524	714
235.589	1004
235.654	420
235.719	-229
235.784	904
235.849	605
235.913	1764
235.978	1315
236.043	1901
236.108	843
236.173	-252
236.238	1096
236.303	482
236.368	-239
236.433	1424
236.498	1046
236.563	985
236.627	750
236.692	8836
236.757	6570
236.822	1525
236.887	1575
236.952	2224
237.017	190
237.081	1519
237.146	1222
237.211	3684
237.276	7922
237.341	14225
237.405	5192
237.470	1952
237.535	1584
237.600	1339
237.664	1256
237.729	-49
237.794	-120
237.859	2960
237.923	505
237.988	654
238.053	943
238.118	1242
238.182	2506
238.247	3969
238.312	-50
238.376	1842
238.441	-1552
238.506	2064
238.570	-581
238.635	1582
238.700	582
238.764	1009
238.829	-77
238.893	1528
238.958	1474
239.023	1493
239.087	657
239.152	1157
239.216	-214
239.281	674
239.346	377
239.410	278
239.475	-848
239.539	3945
239.604	1379
239.668	786
239.733	1319
239.797	1216
239.862	4044
239.926	3372
239.991	584
240.055	1352
240.120	613
240.184	386
240.249	-74
240.313	370
240.378	-324
240.442	2114
240.507	2382
240.571	1273
240.635	744
240.700	1631
240.764	593
240.829	414
240.893	-793
240.957	412
241.022	1164
241.086	3658
241.151	577
241.215	-243
241.279	373
241.344	1463
241.408	1395
241.472	-1204
241.537	1088
241.601	1000
241.665	-821
241.730	651
241.794	1419
241.858	348
241.922	161
241.987	1171
242.051	-17
242.115	59
242.179	367
242.244	396
242.308	585
242.372	741
242.436	-595
242.501	1337
242.565	-782
242.629	37
242.693	604
242.757	-1120
242.822	-9
242.886	651
242.950	268
243.014	-267
243.078	1268
243.142	801
243.206	-312
243.271	843
243.335	571
243.399	1174
243.463	3154
243.527	11014
243.591	2631
243.655	1429
243.719	671
243.783	1910
243.847	2384
243.911	3142
243.975	2464
244.040	1824
244.104	1406
244.168	1888
244.232	1573
244.296	2189
244.360	1695
244.424	624
244.488	344
244.552	711
244.615	-324
244.679	317
244.743	939
244.807	666
244.871	1148
244.935	839
244.999	-620
245.063	945
245.127	1328
245.191	1655
245.255	1762
245.319	837
245.383	-609
245.446	2080
245.510	-1033
245.574	714
245.638	732
245.702	-155
245.766	2240
245.829	1705
245.893	428
245.957	80
246.021	1085
246.085	685
246.149	671
246.212	4758
246.276	5366
246.340	1990
246.404	883
246.467	2397
246.531	1440
246.595	2377
246.659	2454
246.722	643
246.786	1641
246.850	2214
246.913	3365
246.977	573
247.041	401
247.104	1424
247.168	1245
247.232	4507
247.295	7788
247.359	4172
247.423	1887
247.486	3539
247.550	2262
247.614	1237
247.677	1900
247.741	973
247.804	832
247.868	1941
247.932	2487
247.995	7280
248.059	2522
248.122	775
248.186	2453
248.249	3290
248.313	12023
248.376	14042
248.440	7942
248.503	2589
248.567	4111
248.630	2992
248.694	5509
248.757	7519
248.821	12327
248.884	9769
248.948	7021
249.011	11862
249.075	15292
249.138	14381
249.202	4646
249.265	3695
249.328	4277
249.392	2230
249.455	2286
249.519	1834
249.582	2292
249.645	4420
249.709	3209
249.772	1313
249.835	1789
249.899	1722
249.962	1780
250.025	1906
250.089	4257
250.152	8380
250.215	3828
250.279	2610
250.342	1719
250.405	2431
250.468	970
250.532	2128
250.595	3489
250.658	11031
250.721	19395
250.785	8010
250.848	5876
250.911	1873
250.974	3017
251.038	2700
251.101	8114
251.164	3199
251.227	3970
251.290	3691
251.354	4832
251.417	16713
251.480	16410
251.543	10704
251.606	29257
251.669	23515
251.732	8988
251.795	10227
251.859	10627
251.922	18931
251.985	12461
252.048	4593
252.111	3508
252.174	3465
252.237	8192
252.300	15624
252.363	14164
252.426	27580
252.489	11334
252.552	6128
252.615	2327
252.678	4927
252.741	10826
252.804	12247
252.867	26228
252.930	16824
252.993	10011
253.056	7561
253.119	4095
253.182	3094
253.245	3665
253.308	4653
253.371	3031
253.434	3488
253.497	4004
253.559	7286
253.622	5334
253.685	6696
253.748	7534
253.811	2794
253.874	3869
253.937	3522
254.000	2420
254.062	5465
254.125	8223
254.188	7306
254.251	5222
254.314	2942
254.376	4511
254.439	6431
254.502	5404
254.565	5373
254.628	9603
254.690	5102
254.753	2880
254.816	2729
254.878	1846
254.941	5681
255.004	5179
255.067	2066
255.129	1901
255.192	1444
255.255	-524
255.317	2736
255.380	175
255.443	900
255.505	-444
255.568	-256
255.631	-358
255.693	1265
255.756	-1006
255.819	1355
255.881	163
255.944	1274
256.006	-493
256.069	-316
256.132	464
256.194	788
256.257	2285
256.319	921
256.382	1325
256.444	1494
256.507	711
256.569	505
256.632	143
256.694	825
256.757	3992
256.819	13760
256.882	3471
256.944	2211
257.007	2583
257.069	1413
257.132	647
257.194	1925
257.257	243
257.319	734
257.381	741
257.444	3701
257.506	14087
257.569	18223
257.631	9934
257.693	5677
257.756	1622
257.818	1871
257.880	669
257.943	346
258.005	-214
258.067	302
258.130	1212
258.192	915
258.254	2113
258.317	733
258.379	764
258.441	4472
258.503	3997
258.566	2780
258.628	4941
258.690	1159
258.753	679
258.815	3364
258.877	326
258.939	802
259.001	1240
259.064	860
259.126	46
259.188	1513
259.250	1547
259.312	1904
259.375	4252
259.437	2661
259.499	1471
259.561	1419
259.623	818
259.685	275
259.747	1086
259.809	2701
259.872	5905
259.934	9640
259.996	9920
260.058	2820
260.120	68
260.182	203
260.244	344
260.306	199
260.368	443
260.430	-480
260.492	2011
260.554	5237
260.616	3466
260.678	5008
260.740	6230
260.802	1272
260.864	2408
260.926	-29
260.988	1292
261.050	1326
261.112	2312
261.174	7983
261.236	5163
261.298	1476
261.359	1814
261.421	3923
261.483	589
261.545	1531
261.607	-787
261.669	595
261.731	1221
261.793	5238
261.854	1451
261.916	1568
261.978	1599
262.040	537
262.102	510
262.164	932
262.225	973
262.287	715
262.349	2461
262.411	2556
262.472	850
262.534	789
262.596	3094
262.658	942
262.719	-308
262.781	854
262.843	1730
262.904	1633
262.966	1251
263.028	1254
263.090	6319
263.151	17123
263.213	6015
263.275	3975
263.336	1458
263.398	1588
263.459	-773
263.521	595
263.583	3205
263.644	2375
263.706	-78
263.767	-227
263.829	226
263.891	-242
263.952	-209
264.014	-390
264.075	286
264.137	3720
264.198	1301
264.260	-489
264.321	524
264.383	2266
264.444	6207
264.506	230
264.567	970
264.629	1704
264.690	2618
264.752	2057
264.813	247
264.875	75
264.936	454
264.998	-248
265.059	-428
265.120	292
265.182	366
265.243	5544
265.305	5203
265.366	1480
265.427	1179
265.489	1083
265.550	-636
265.611	913
265.673	-69
265.734	655
265.795	185
265.857	-718
265.918	-633
265.979	1581
266.040	9019
266.102	8349
266.163	1838
266.224	1699
266.286	1252
266.347	-411
266.408	482
266.469	378
266.530	63
266.592	508
266.653	1524
266.714	3626
266.775	146
266.836	218
266.898	-705
266.959	1508
267.020	379
267.081	579
267.142	-99
267.203	647
267.264	-579
267.326	1372
267.387	-316
267.448	200
267.509	790
267.570	824
267.631	-86
267.692	-547
267.753	360
267.814	-434
267.875	1907
267.936	5174
267.997	1063
268.058	1799
268.119	229
268.180	472
268.241	-432
268.302	-210
268.363	-466
268.424	706
268.485	64
268.546	482
268.607	-783
268.668	131
268.729	-680
268.790	129
268.851	-27
268.912	1972
268.972	3469
269.033	2185
269.094	-73
269.155	410
269.216	-33
269.277	250
269.338	-136
269.398	134
269.459	-382
269.520	1167
269.581	2090
269.642	2099
269.702	509
269.763	934
269.824	419
269.885	498
269.945	2680
270.006	1013
270.067	-551
270.128	-54
270.188	-241
270.249	-964
270.310	-1053
270.370	790
270.431	-726
270.492	-63
270.553	-205
270.613	2067
270.674	4997
270.734	1339
270.795	257
270.856	2133
270.916	69
270.977	453
271.038	365
271.098	1148
271.159	1367
271.219	1261
271.280	733
271.340	156
271.401	152
271.462	1078
271.522	1391
271.583	169
271.643	366
271.704	-265
271.764	533
271.825	3630
271.885	12886
271.946	17885
272.006	5361
272.066	7410
272.127	12717
272.187	4814
272.248	979
272.308	1042
272.369	7887
272.429	4607
272.489	2803
272.550	3518
272.610	4034
272.671	3285
272.731	1432
272.791	1945
272.852	1378
272.912	2043
272.972	105
273.033	938
273.093	685
273.153	1778
273.214	956
273.274	1312
273.334	5796
273.394	12706
273.455	4471
273.515	5005
273.575	10622
273.635	4231
273.696	4970
273.756	11608
273.816	4914
273.876	2303
273.936	3848
273.997	6904
274.057	975
274.117	1609
274.177	3050
274.237	15309
274.297	12283
274.358	6908
274.418	9325
274.478	7881
274.538	1973
274.598	427
274.658	4687
274.718	6262
274.778	1400
274.838	1901
274.898	2413
274.958	8678
275.018	10618
275.078	7478
275.138	2638
275.198	847
275.258	649
275.318	1106
275.378	2815
275.438	4171
275.498	2407
275.558	3580
275.618	9597
275.678	8490
275.738	5195
275.798	3172
275.858	332
275.918	308
275.978	955
276.038	2311
276.098	646
276.157	2142
276.217	9234
276.277	4138
276.337	2462
276.397	935
276.457	1215
276.517	777
276.576	220
276.636	400
276.696	1293
276.756	5430
276.815	3886
276.875	931
276.935	1621
276.995	1305
277.055	368
277.114	703
277.174	2243
277.234	7579
277.293	3230
277.353	1401
277.413	771
277.472	501
277.532	340
277.592	1958
277.651	5849
277.711	13245
277.771	2886
277.830	14527
277.890	12546
277.950	7765
278.009	22805
278.069	8852
278.128	8279
278.188	14360
278.248	5160
278.307	13553
278.367	8714
278.426	2580
278.486	1021
278.545	1169
278.605	356
278.664	1414
278.724	403
278.783	4013
278.843	11936
278.902	2999
278.962	1353
279.021	1667
279.081	2505
279.140	3296
279.199	1540
279.259	2157
279.318	2643
279.378	3086
279.437	5369
279.496	19977
279.556	45443
279.615	36920
279.675	9773
279.734	6634
279.793	9995
279.853	17135
279.912	6513
279.971	3687
280.031	2969
280.090	7269
280.149	11809
280.208	8170
280.268	28241
280.327	31741
280.386	7789
280.445	6405
280.505	6238
280.564	3164
280.623	2274
280.682	3528
280.742	7203
280.801	1250
280.860	916
280.919	1443
280.978	-185
281.037	699
281.097	-52
281.156	1996
281.215	252
281.274	-164
281.333	6881
281.392	6320
281.451	-67
281.510	551
281.569	-789
281.628	348
281.688	-118
281.747	1456
281.806	466
281.865	425
281.924	-360
281.983	230
282.042	56
282.101	396
282.160	-61
282.219	702
282.278	-362
282.337	4577
282.396	2628
282.454	1129
282.513	900
282.572	7424
282.631	4290
282.690	1022
282.749	-524
282.808	1406
282.867	788
282.926	1127
282.985	-418
283.043	-265
283.102	-165
283.161	833
283.220	1823
283.279	8278
283.338	1736
283.396	904
283.455	442
283.514	1366
283.573	2107
283.631	2496
283.690	-191
283.749	1011
283.808	2398
283.866	3500
283.925	212
283.984	528
284.043	2583
284.101	2106
284.160	431
284.219	1707
284.277	2141
284.336	3439
284.395	10603
284.453	9225
284.512	2847
284.570	5099
284.629	3744
284.688	3837
284.746	3591
284.805	4658
284.863	7134
284.922	9410
284.981	10002
285.039	16142
285.098	26689
285.156	53137
285.215	71322
285.273	70186
285.332	58206
285.390	34212
285.449	21360
285.507	14406
285.566	10162
285.624	8388
285.683	5437
285.741	5256
285.799	2553
285.858	3650
285.916	2974
285.975	2280
286.033	1337
286.091	1184
286.150	936
286.208	977
286.267	1587
286.325	1308
286.383	2926
286.442	2741
286.500	23
286.558	891
286.616	506
286.675	1444
286.733	739
286.791	1056
286.850	1045
286.908	2422
286.966	3568
287.024	1676
287.083	10
287.141	193
287.199	1229
287.257	1611
287.315	1088
287.374	522
287.432	3941
287.490	2498
287.548	1054
287.606	700
287.664	220
287.723	1168
287.781	1004
287.839	651
287.897	1058
287.955	1371
288.013	1763
288.071	4934
288.129	19630
288.187	59151
288.245	25195
288.303	8019
288.361	4643
288.419	2759
288.477	2114
288.535	1187
288.593	-208
288.651	257
288.709	-143
288.767	-448
288.825	-721
288.883	-163
288.941	-179
288.999	-454
289.057	-161
289.115	-371
289.173	-1045
289.231	-59
289.289	-509
289.346	-104
289.404	34
289.462	1448
289.520	832
289.578	-405
289.636	-975
289.694	-810
289.751	-1226
289.809	-754
289.867	-446
289.925	-71
289.983	289
290.040	-330
290.098	-1277
290.156	-568
290.214	-184
290.271	-693
290.329	-839
290.387	-698
290.444	-446
290.502	-894
290.560	-1155
290.617	-389
290.675	-938
290.733	-813
290.790	-507
290.848	-265
290.906	-820
290.963	-724
291.021	-872
291.078	-873
291.136	-1007
291.194	1987
291.251	7062
291.309	314
291.366	-1135
291.424	-453
291.481	-35
291.539	-402
291.596	-772
291.654	-1484
291.711	-506
291.769	347
291.826	494
291.884	1259
291.941	-1137
291.999	-646
292.056	245
292.114	-355
292.171	-814
292.228	147
292.286	102
292.343	1141
292.401	1002
292.458	879
292.515	-12
292.573	1047
292.630	413
292.687	-421
292.745	118
292.802	-65
292.859	2386
292.917	8057
292.974	4123
293.031	947
293.089	-973
293.146	-41
293.203	-917
293.260	-1250
293.318	-857
293.375	-484
293.432	-681
293.489	-268
293.546	-242
293.604	-59
293.661	3474
293.718	12083
293.775	5342
293.832	2081
293.889	1429
293.947	1625
294.004	874
294.061	1616
294.118	3346
294.175	6983
294.232	7011
294.289	2355
294.346	483
294.403	1486
294.460	-315
294.517	-101
294.574	-899
294.631	-323
294.688	406
294.745	2097
294.802	12073
294.859	12626
294.916	3687
294.973	2077
295.030	1160
295.087	1541
295.144	-77
295.201	371
295.258	-890
295.315	373
295.372	4182
295.429	9737
295.486	4128
295.542	1397
295.599	4085
295.656	8363
295.713	4819
295.770	9494
295.827	3032
295.883	1036
295.940	600
295.997	2574
296.054	2077
296.111	-404
296.167	-169
296.224	-912
296.281	-769
296.338	-134
296.394	-733
296.451	1127
296.508	2532
296.564	8162
296.621	4284
296.678	10455
296.734	16856
296.791	4991
296.848	2327
296.904	2559
296.961	8245
297.018	12317
297.074	7746
297.131	2077
297.187	1329
297.244	2532
297.301	10170
297.357	20316
297.414	6586
297.470	2237
297.527	602
297.583	407
297.640	418
297.696	450
297.753	183
297.809	-109
297.866	-862
297.922	-313
297.979	-559
298.035	87
298.092	1367
298.148	5981
298.204	6211
298.261	2398
298.317	4292
298.374	12832
298.430	7711
298.486	2444
298.543	802
298.599	1155
298.656	1867
298.712	3127
298.768	9181
298.824	5897
298.881	1656
298.937	606
298.993	-451
299.050	875
299.106	963
299.162	-666
299.218	843
299.275	489
299.331	793
299.387	2512
299.443	11717
299.500	14827
299.556	4886
299.612	1489
299.668	1846
299.724	2538
299.780	2713
299.837	1052
299.893	1950
299.949	10529
300.005	14087
300.061	10528
300.117	18042
300.173	8543
300.229	2185
300.285	3579
300.341	5314
300.397	2003
300.453	645
300.510	448
300.566	1064
300.622	1469
300.678	6425
300.734	13444
300.790	11447
300.845	13286
300.901	8172
300.957	11856
301.013	9553
301.069	3286
301.125	1521
301.181	1604
301.237	1228
301.293	156
301.349	512
301.405	354
301.461	-128
301.516	1895
301.572	912
301.628	3128
301.684	2543
301.740	3644
301.796	8398
301.851	5378
301.907	8612
301.963	9138
302.019	12319
302.074	34597
302.130	37405
302.186	17959
302.242	6840
302.297	4520
302.353	3918
302.409	7485
302.464	6843
302.520	5195
302.576	11887
302.631	14944
302.687	9087
302.743	3445
302.798	567
302.854	726
302.910	269
302.965	1830
303.021	2593
303.076	3963
303.132	4257
303.187	6372
303.243	2978
303.299	1095
303.354	-276
303.410	470
303.465	-1234
303.521	339
303.576	-150
303.632	813
303.687	1792
303.743	10221
303.798	9707
303.853	2653
303.909	1469
303.964	968
304.020	1790
304.075	4199
304.130	2331
304.186	7629
304.241	9284
304.297	6328
304.352	2654
304.358	2516
304.407	1387
304.449	1633
304.463	1714
304.518	2386
304.539	2000
304.573	1357
304.629	1570
304.630	1574
304.684	2072
304.720	6186
304.739	8164
304.794	14685
304.811	12658
304.850	7394
304.902	2716
304.905	2443
304.960	1101
304.992	871
305.015	691
305.071	907
305.083	785
305.126	325
305.173	81
305.181	54
305.236	-36
305.264	354
305.292	815
305.347	1044
305.354	1194
305.402	2000
305.445	1500
305.457	1402
305.512	2557
305.535	2674
305.567	2631
305.622	2823
305.626	2895
305.678	6632
305.716	12666
305.733	14199
305.788	17681
305.807	15338
305.843	12274
305.897	15039
305.898	15034
305.953	15585
305.988	9786
306.008	7048
306.063	5452
306.078	4703
306.118	2992
306.168	1480
306.173	1384
306.228	1370
306.259	1392
306.283	1408
306.338	1274
306.349	1285
306.393	1513
306.440	1197
306.448	1114
306.503	1478
306.530	1408
306.558	2589
306.613	6975
306.620	7654
306.668	13557
306.711	20234
306.723	20272
306.778	15621
306.801	12033
306.833	8382
306.888	3351
306.892	3148
306.943	2812
306.982	2460
306.997	2373
307.052	1611
307.072	1634
307.107	1943
307.162	3104
307.163	3095
307.217	3768
307.253	4810
307.272	4918
307.327	5024
307.343	5104
307.381	5411
307.434	4504
307.436	4740
307.491	11640
307.524	16710
307.546	17341
307.600	18813
307.614	17492
307.655	10909
307.704	4740
307.710	4700
307.765	5255
307.795	6405
307.819	7747
307.874	11122
307.885	11414
307.929	9294
307.975	6990
307.984	7410
308.038	10654
308.065	12876
308.093	24518
308.148	50915
308.156	55758
308.202	81642
308.246	103905
308.257	99566
308.312	56230
308.336	38713
308.366	31555
308.421	22216
308.426	21141
308.475	13662
308.517	8144
308.530	7585
308.585	6803
308.607	6286
308.639	6400
308.694	7580
308.697	7635
308.748	13527
308.787	18180
308.803	17378
308.857	13347
308.877	11622
308.912	11765
308.967	12689
308.967	12672
309.021	19914
309.058	25033
309.076	31945
309.130	55144
309.148	62834
309.185	98486
309.238	153316
309.239	153995
309.293	166897
309.328	163535
309.348	141766
309.402	73955
309.418	55606
309.457	41975
309.508	26309
309.511	26443
309.566	30031
309.598	32735
309.620	43557
309.674	71843
309.688	79282
309.729	72069
309.778	58720
309.783	57317
309.837	37665
309.868	27028
309.892	31614
309.946	43338
309.959	46625
310.001	58137
310.049	69844
310.055	67138
310.109	38095
310.139	21622
310.163	17408
310.218	10080
310.229	8659
310.272	7150
310.319	5817
310.326	5701
310.381	4625
310.409	4131
310.435	4015
310.489	3746
310.499	3732
310.543	4299
310.589	4561
310.598	4548
310.652	4798
310.679	4661
310.706	4415
310.760	4094
310.769	4042
310.814	4106
310.859	3897
310.868	3878
310.923	3832
310.948	3810
310.977	4361
311.031	5235
311.038	5366
311.085	5280
311.128	4860
311.139	4883
311.193	5187
311.218	5227
311.247	5048
311.301	4715
311.308	4646
311.356	4430
311.398	4210
311.410	4214
311.464	4079
311.488	4061
311.518	4286
311.572	4524
311.578	4538
311.626	7772
311.668	10584
311.680	10104
311.734	7676
311.758	6543
311.788	6636
311.842	6824
311.847	6811
311.896	8603
311.937	10119
311.950	10147
312.004	10067
312.027	9990
312.058	8717
312.112	6353
312.117	6093
312.165	5364
312.207	4703
312.297	8049
312.386	5584
312.476	6348
312.566	17463
312.656	8184
312.745	4750
312.835	5036
312.925	6357
313.015	5382
313.104	4851
313.194	5247
313.284	5706
313.374	9088
313.463	7060
313.553	5255
313.643	5039
313.732	4104
313.822	4266
313.912	5417
314.001	7568
314.091	6311
314.180	9561
314.270	9861
314.360	9764
314.449	9203
314.539	5534
314.628	4820
314.718	5912
314.808	6477
314.897	5039
314.987	6334
315.076	9235
315.166	10486
315.255	8504
315.345	8895
315.434	7979
315.524	6575
315.613	9553
315.703	14342
315.792	17461
315.881	37682
315.971	14486
316.060	16833
316.150	17672
316.239	16405
316.328	7721
316.418	5244
316.507	6409
316.597	9856
316.686	8441
316.775	9025
316.865	16161
316.954	6248
317.043	3678
317.133	5099
317.222	5676
317.311	4880
317.400	4823
317.490	9459
317.579	11274
317.668	7321
317.757	12126
317.847	22993
317.936	65886
318.025	36588
318.114	20412
318.203	13357
318.293	16158
318.382	33020
318.471	26442
318.560	29655
318.649	48497
318.738	12510
318.828	10565
318.917	12077
319.006	10897
319.095	21392
319.184	62698
319.273	43474
319.362	28282
319.451	10075
319.540	9284
319.629	22358
319.718	39589
319.807	13265
319.896	23169
319.985	78410
320.074	35079
320.163	8689
320.252	11556
320.341	11488
320.430	11443
320.519	18843
320.608	11861
320.697	8592
320.786	8482
320.875	12528
320.964	16943
321.053	27227
321.142	38801
321.230	40795
321.319	26406
321.408	65539
321.497	25718
321.586	26956
321.675	23514
321.764	23549
321.852	15591
321.941	38869
322.030	26212
322.119	23646
322.207	66052
322.296	31643
322.385	19854
322.474	26371
322.562	82493
322.651	38397
322.740	30399
322.829	41259
322.917	26927
323.006	22761
323.095	21831
323.183	10970
323.272	17889
323.361	26890
323.449	62331
323.538	22834
323.626	47003
323.715	30729
323.804	13155
323.892	41825
323.981	31281
324.069	9551
324.158	20075
324.246	21115
324.335	14224
324.424	25579
324.512	9096
324.601	11645
324.689	13094
324.778	17220
324.866	19910
324.954	6968
325.043	7898
325.131	12495
325.220	16464
325.308	20911
325.397	17039
325.485	12459
325.574	6995
325.662	5718
325.750	7353
325.839	6718
325.927	4068
326.015	7088
326.104	7290
326.192	10276
326.280	5663
326.369	5272
326.457	11449
326.545	21725
326.634	9027
326.722	4146
326.810	5203
326.898	6262
326.987	11346
327.075	18667
327.163	15102
327.251	6319
327.340	12472
327.428	10619
327.516	6114
327.604	5289
327.692	5026
327.781	4337
327.869	7686
327.957	6697
328.045	8128
328.133	4558
328.221	4955
328.309	4628
328.397	5443
328.485	7622
328.574	11249
328.662	42755
328.750	18416
328.838	6563
328.926	6066
329.014	5368
329.102	8246
329.190	19131
329.278	14369
329.366	3911
329.454	3423
329.542	3841
329.630	3765
329.718	4585
329.806	6577
329.893	5983
329.981	5243
330.069	7446
330.157	22904
330.245	70734
330.333	37083
330.421	8995
330.509	12931
330.597	51344
330.684	31598
330.772	11048
330.860	9779
330.948	13836
331.036	7545
331.123	2747
331.211	4735
331.299	5469
331.387	11436
331.475	21756
331.562	6802
331.650	5144
331.738	5322
331.825	5000
331.913	3876
332.001	4157
332.089	5495
332.176	9631
332.264	19671
332.352	16353
332.439	8225
332.527	5403
332.614	3999
332.702	5735
332.790	5753
332.877	11682
332.965	24341
333.052	11674
333.140	12537
333.228	32108
333.315	9285
333.403	6671
333.490	13061
333.578	17738
333.665	45330
333.753	19200
333.840	6306
333.928	7193
334.015	13651
334.103	21549
334.190	67638
334.278	20244
334.365	12288
334.452	10658
334.540	6914
334.627	7604
334.715	10280
334.802	18401
334.889	67034
334.977	73251
335.064	18481
335.151	9859
335.239	8801
335.326	12048
335.413	37729
335.501	50121
335.588	9761
335.675	7691
335.762	9300
335.850	15083
335.937	15359
336.024	28219
336.111	88261
336.199	49071
336.286	15057
336.373	7344
336.460	5294
336.547	4898
336.635	7916
336.722	6565
336.809	6174
336.896	10855
336.983	26660
337.070	57339
337.157	73896
337.245	46721
337.332	30928
337.419	6172
337.506	5513
337.593	6096
337.680	18477
337.767	53870
337.854	18138
337.941	18689
338.028	20272
338.115	7716
338.202	9746
338.289	14273
338.376	47047
338.463	17333
338.550	30672
338.637	32335
338.724	9536
338.811	14697
338.898	5531
338.984	4355
339.071	5035
339.158	8059
339.245	24829
339.332	13404
339.419	12040
339.506	11100
339.593	3153
339.679	5695
339.766	5246
339.853	7936
339.940	19448
340.027	6104
340.113	6905
340.200	10157
340.287	6307
340.374	9155
340.460	17517
340.547	6692
340.634	12707
340.720	45131
340.807	26440
340.894	5375
340.980	6246
341.067	5250
341.154	6170
341.240	10225
341.327	26091
341.414	7699
341.500	6603
341.587	6347
341.674	5638
341.760	17613
341.847	21017
341.933	7020
342.020	2907
342.106	3035
342.193	6545
342.279	14518
342.366	9382
342.452	18727
342.539	10184
342.625	22484
342.712	52180
342.798	22290
342.885	8805
342.971	3020
343.058	2791
343.144	3315
343.230	4905
343.317	4627
343.403	4048
343.490	3334
343.576	3689
343.662	4560
343.749	6182
343.835	7410
343.921	13294
344.008	66236
344.094	146179
344.180	35231
344.267	17025
344.353	43766
344.439	45214
344.525	24828
344.612	10349
344.698	9244
344.784	6927
344.870	4458
344.957	4907
345.043	10498
345.129	7633
345.215	16072
345.301	8893
345.387	5431
345.474	3362
345.560	3082
345.646	4442
345.732	4449
345.818	6350
345.904	5270
345.990	5973
346.076	5449
346.162	8309
346.249	5101
346.335	4253
346.421	5055
346.507	17575
346.593	58588
346.679	15827
346.765	5699
346.851	7369
346.937	5881
347.023	4903
347.108	7475
347.194	4793
347.280	5356
347.366	8158
347.452	19901
347.538	72519
347.624	56433
347.710	45824
347.796	8504
347.882	5278
347.967	3831
348.053	5613
348.139	4484
348.225	3878
348.311	4032
348.397	3650
348.482	7109
348.568	8144
348.654	4522
348.740	9571
348.825	9208
348.911	10076
348.997	33026
349.083	62268
349.168	11619
349.254	5811
349.340	5566
349.425	3383
349.511	8209
349.597	8713
349.682	17493
349.768	50465
349.854	21989
349.939	5563
350.025	4184
350.110	3785
350.196	3539
350.282	2838
350.367	2727
350.453	5198
350.538	6550
350.624	7710
350.709	6872
350.795	3896
350.880	5683
350.966	5822
351.051	6463
351.137	4659
351.222	5882
351.308	16956
351.393	48124
351.479	12861
351.564	4180
351.649	5340
351.735	3208
351.820	3592
351.906	4117
351.991	5570
352.076	29442
352.162	45892
352.247	10056
352.332	7801
352.418	13774
352.503	16605
352.588	73432
352.673	62616
352.759	14781
352.844	7312
352.929	8747
353.014	12158
353.100	9042
353.185	19571
353.270	23949
353.355	21125
353.441	6744
353.526	6750
353.611	18695
353.696	22258
353.781	13089
353.866	6076
353.952	7158
354.037	18097
354.122	42312
354.207	37673
354.292	13662
354.377	6707
354.462	5483
354.547	8994
354.632	8284
354.717	12654
354.802	21753
354.887	8645
354.972	5086
355.057	3464
355.142	2811
355.227	7089
355.312	12445
355.397	26821
355.482	65688
355.567	31272
355.652	21837
355.737	22483
355.822	55302
355.907	44756
355.991	9096
356.076	5187
356.161	5039
356.246	4317
356.331	6190
356.416	12412
356.501	75587
356.585	79681
356.670	15213
356.755	11775
356.840	16698
356.924	68687
357.009	204512
357.094	81105
357.179	23797
357.263	18820
357.348	15361
357.433	13757
357.517	13494
357.602	13385
357.687	11360
357.771	16865
357.856	42245
357.941	26849
358.025	46699
358.110	180753
358.195	91727
358.279	18281
358.364	15052
358.448	46499
358.533	117567
358.617	87374
358.702	80747
358.787	31810
358.871	21743
358.956	18967
359.040	7882
359.125	4922
359.209	6856
359.294	21822
359.378	34804
359.462	18166
359.547	9659
359.631	5377
359.716	3642
359.800	5777
359.885	8534
359.969	6764
360.053	7274
360.138	5780
360.222	10963
360.306	20586
360.391	14122
360.475	26766
360.559	57388
360.644	47519
360.728	32597
360.812	44260
360.896	113828
360.981	58689
361.065	36263
361.149	11344
361.233	10950
361.318	10394
361.402	15801
361.486	9335
361.570	6360
361.654	9414
361.739	22995
361.823	79252
361.907	114153
361.991	24564
362.075	19655
362.159	40396
362.243	28966
362.327	29555
362.411	38662
362.495	18485
362.580	10013
362.664	7514
362.748	6895
362.832	11236
362.916	18661
363.000	61214
363.084	142657
363.168	150001
363.252	41155
363.336	17213
363.420	20410
363.503	53691
363.587	59890
363.671	15986
363.755	11853
363.839	19679
363.923	9893
364.007	20689
364.091	22080
364.175	23524
364.258	91594
364.342	89691
364.426	131402
364.510	72230
364.594	30590
364.677	27939
364.761	99853
364.845	72697
364.929	34959
365.013	28662
365.096	22805
365.180	26826
365.264	22827
365.347	77958
365.431	33693
365.515	11792
365.598	7792
365.682	6507
365.766	9865
365.849	12792
365.933	8307
366.017	9917
366.100	6979
366.184	2711
366.267	5386
366.351	5432
366.435	5663
366.518	3461
366.602	4205
366.685	5729
366.769	7248
366.852	11379
366.936	21766
367.019	13717
367.103	7443
367.186	13499
367.270	4697
367.353	3701
367.436	5626
367.520	5202
367.603	8485
367.687	12624
367.770	24322
367.853	12508
367.937	33387
368.020	54726
368.104	15463
368.187	17729
368.270	26018
368.353	21645
368.437	21471
368.520	33106
368.603	28377
368.687	40684
368.770	76781
368.853	20827
368.936	21038
369.020	17573
369.103	7512
369.186	4942
369.269	5661
369.352	16463
369.436	21584
369.519	13450
369.602	5316
369.685	7439
369.768	7155
369.851	6250
369.934	4101
370.018	6604
370.101	20038
370.184	14516
370.267	9804
370.350	17586
370.433	24438
370.516	54265
370.599	68199
370.682	26948
370.765	52450
370.848	54900
370.931	87365
371.014	36702
371.097	9968
371.180	7615
371.263	4706
371.346	4079
371.429	4461
371.511	4945
371.594	12311
371.677	18782
371.760	17480
371.843	16185
371.926	68160
372.009	152029
372.091	55354
372.174	36056
372.257	75524
372.340	30701
372.423	26113
372.505	26786
372.588	13163
372.671	31453
372.754	89121
372.836	43296
372.919	26164
373.002	50670
373.085	20854
373.167	19251
373.250	43244
373.332	80721
373.415	100528
373.498	201287
373.580	83091
373.663	99890
373.746	131928
373.828	36977
373.911	16897
373.993	16304
374.076	48029
374.159	42285
374.241	24865
374.324	79668
374.406	53844
374.489	56970
374.571	161007
374.654	70027
374.736	34851
374.819	97949
374.901	142130
374.983	144451
375.066	30026
375.148	11699
375.231	38591
375.313	72451
375.395	30946
375.478	9220
375.560	7343
375.643	10004
375.725	30355
375.807	119988
375.890	89798
375.972	35556
376.054	23517
376.136	25485
376.219	13405
376.301	35243
376.383	106285
376.465	42371
376.548	34243
376.630	34238
376.712	91913
376.794	44240
376.877	7771
376.959	4799
377.041	6462
377.123	11025
377.205	12377
377.287	4181
377.369	5848
377.452	7960
377.534	5193
377.616	4951
377.698	5042
377.780	4291
377.862	5785
377.944	6781
378.026	3191
378.108	4534
378.190	4498
378.272	4112
378.354	2828
378.436	3929
378.518	7368
378.600	26627
378.682	25699
378.764	57352
378.846	45306
378.928	14630
379.010	23256
379.091	12903
379.173	5853
379.255	5307
379.337	7944
379.419	27355
379.501	77792
379.583	29900
379.664	9808
379.746	23155
379.828	59910
379.910	76945
379.991	63269
380.073	11895
380.155	8206
380.237	7221
380.318	4146
380.400	5747
380.482	14194
380.564	23854
380.645	26855
380.727	24617
380.809	12846
380.890	9485
380.972	7549
381.053	6793
381.135	7721
381.217	20670
381.298	62651
381.380	31432
381.461	22735
381.543	91615
381.624	112450
381.706	24053
381.787	13858
381.869	14705
381.951	40867
382.032	148956
382.113	103653
382.195	27905
382.276	18701
382.358	39738
382.439	89392
382.521	93679
382.602	142042
382.684	73202
382.765	134204
382.846	180053
382.928	309812
383.009	174559
383.090	115072
383.172	359895
383.253	509449
383.334	189662
383.416	149762
383.497	83472
383.578	51703
383.659	98799
383.741	298920
383.822	639208
383.903	360868
383.984	135254
384.066	180033
384.147	113151
384.228	30319
384.309	24532
384.390	19624
384.471	14276
384.553	14013
384.634	20235
384.715	20866
384.796	10911
384.877	13587
384.958	52281
385.039	67848
385.120	27144
385.201	12555
385.282	14249
385.363	14819
385.444	14031
385.525	22052
385.606	66481
385.687	55419
385.768	16066
385.849	20005
385.930	74909
386.011	122673
386.092	36375
386.173	10895
386.254	7801
386.335	9071
386.416	8857
386.496	34214
386.577	57968
386.658	20628
386.739	13351
386.820	11443
386.901	9421
386.981	8856
387.062	6789
387.143	14609
387.224	57400
387.304	52695
387.385	21550
387.466	12084
387.547	13486
387.627	11566
387.708	21580
387.789	91029
387.869	107462
387.950	29552
388.031	7706
388.111	4942
388.192	13764
388.273	20239
388.353	13727
388.434	8905
388.514	18087
388.595	74319
388.676	104771
388.756	58255
388.837	58520
388.917	36542
388.998	7528
389.078	7826
389.159	7441
389.239	5540
389.320	13397
389.400	10366
389.480	19766
389.561	55631
389.641	27774
389.722	11362
389.802	20433
389.883	23410
389.963	61508
390.043	36171
390.124	10411
390.204	20085
390.284	67642
390.365	41426
390.445	35996
390.525	83556
390.605	79935
390.686	41381
390.766	26779
390.846	11928
390.927	5839
391.007	5894
391.087	10463
391.167	24495
391.247	15678
391.328	9354
391.408	13196
391.488	9392
391.568	4004
391.648	9642
391.728	15392
391.808	13668
391.888	15607
391.969	31171
392.049	52841
392.129	22045
392.209	23995
392.289	62074
392.369	33661
392.449	24911
392.529	17313
392.609	17253
392.689	19714
392.769	60809
392.849	53575
392.929	36514
393.009	83930
393.089	70577
393.169	69681
393.248	186920
393.328	530636
393.408	561518
393.488	205610
393.568	70042
393.648	34883
393.728	22325
393.807	15991
393.887	13392
393.967	11966
394.047	12989
394.127	15002
394.206	20804
394.286	55945
394.366	241292
394.446	263075
394.525	64446
394.605	18502
394.685	16672
394.764	33825
394.844	56650
394.924	43673
395.003	17200
395.083	11597
395.163	9951
395.242	10066
395.322	10326
395.402	6245
395.481	9307
395.561	22867
395.640	70085
395.720	61997
395.799	66022
395.879	48002
395.958	27212
396.038	79894
396.117	311426
396.197	346211
396.276	110625
396.356	40496
396.435	31481
396.515	25463
396.594	34362
396.673	61343
396.753	183869
396.832	490763
396.912	404350
396.991	122258
397.070	38423
397.150	20802
397.229	15513
397.308	23425
397.388	41832
397.467	20492
397.546	8627
397.625	6045
397.705	11537
397.784	12336
397.863	6284
397.942	5089
398.022	4729
398.101	16878
398.180	52506
398.259	27820
398.338	9472
398.417	7594
398.497	4420
398.576	5935
398.655	4299
398.734	5581
398.813	7360
398.892	17082
398.971	56625
399.050	27516
399.129	4702
399.208	3521
399.287	3654
399.366	2447
399.445	3107
399.524	3885
399.603	3113
399.682	10682
399.761	23353
399.840	61264
399.919	45291
399.998	7283
400.077	2646
400.156	2916
400.235	5446
400.313	2755
400.392	5031
400.471	32583
400.550	53651
400.629	13843
400.708	6408
400.786	4942
400.865	12456
400.944	15498
401.023	9878
401.102	2009
401.180	2296
401.259	1891
401.338	3774
401.416	6025
401.495	5470
401.574	3819
401.652	3889
401.731	6350
401.810	7024
401.888	4407
401.967	5195
402.046	12931
402.124	8905
402.203	7517
402.281	8430
402.360	19360
402.438	23549
402.517	12173
402.596	4433
402.674	3758
402.753	2628
402.831	3001
402.910	4286
402.988	19893
403.066	73833
403.145	42823
403.223	24483
403.302	68167
403.380	51692
403.459	55156
403.537	22079
403.615	8760
403.694	1813
403.772	2565
403.850	2364
403.929	2052
404.007	3695
404.085	12483
404.164	15480
404.242	5017
404.320	5747
404.398	17081
404.477	29661
404.555	112720
404.633	98240
404.711	21013
404.789	9388
404.868	6855
404.946	3596
405.024	2030
405.102	2383
405.180	1957
405.258	1250
405.336	2882
405.415	3299
405.493	9822
405.571	10456
405.649	2885
405.727	1866
405.805	5529
405.883	7632
405.961	6718
406.039	4864
406.117	2895
406.195	6520
406.273	27459
406.351	103125
406.429	61246
406.507	9278
406.585	3293
406.663	4791
406.740	7960
406.818	6188
406.896	2395
406.974	3006
407.052	8371
407.130	60434
407.208	87276
407.285	17182
407.363	3318
407.441	2992
407.519	2299
407.596	4195
407.674	10230
407.752	16401
407.830	17941
407.907	11996
407.985	6901
408.063	2924
408.141	2398
408.218	7711
408.296	9458
408.373	7711
408.451	6688
408.529	5773
408.606	1828
408.684	1428
408.762	1999
408.839	611
408.917	1158
408.994	2263
409.072	1462
409.149	3226
409.227	6191
409.304	7951
409.382	6792
409.459	6856
409.537	11536
409.614	9878
409.692	6998
409.769	6363
409.846	11632
409.924	15680
410.001	11212
410.079	7135
410.156	6473
410.233	8707
410.311	5231
410.388	2822
410.465	4030
410.543	4353
410.620	2898
410.697	4824
410.775	5325
410.852	1970
410.929	4784
411.006	6923
411.083	2920
411.161	8607
411.238	9141
411.315	4646
411.392	3050
411.469	5695
411.547	5244
411.624	1454
411.701	2665
411.778	4227
411.855	11063
411.932	5297
412.009	2146
412.086	2507
412.163	2473
412.240	3316
412.317	4722
412.394	4530
412.471	1500
412.548	1126
412.625	2528
412.702	3722
412.779	9824
412.856	8539
412.933	1804
413.010	2296
413.087	4591
413.164	30824
413.241	44822
413.318	10980
413.395	6456
413.471	10001
413.548	4291
413.625	2538
413.702	3931
413.779	2472
413.855	924
413.932	938
414.009	363
414.086	1287
414.162	1238
414.239	6342
414.316	31116
414.393	66156
414.469	23022
414.546	2977
414.623	1208
414.699	1908
414.776	3698
414.853	2180
414.929	1920
415.006	1709
415.082	2320
415.159	2113
415.236	2953
415.312	2960
415.389	7296
415.465	10729
415.542	4374
415.618	2613
415.695	6555
415.771	4367
415.848	3066
415.924	1749
416.000	1391
416.077	1886
416.153	-54
416.230	235
416.306	770
416.383	1120
416.459	1715
416.535	1242
416.612	790
416.688	1713
416.764	2664
416.841	1941
416.917	1432
416.993	1882
417.069	3393
417.146	4062
417.222	6190
417.298	3659
417.374	2020
417.451	3517
417.527	4895
417.603	5936
417.679	3174
417.755	2518
417.831	989
417.908	982
417.984	1032
418.060	1256
418.136	9148
418.212	12350
418.288	3712
418.364	1712
418.440	2372
418.516	5119
418.592	5061
418.668	14546
418.744	24116
418.820	17554
418.896	3704
418.972	1148
419.048	2012
419.124	10463
419.200	7738
419.276	1694
419.352	137
419.428	1513
419.504	2967
419.579	4318
419.655	2406
419.731	3485
419.807	15292
419.883	27194
419.959	18340
420.034	4382
420.110	9006
420.186	40083
420.262	31311
420.337	5442
420.413	4479
420.489	1895
420.565	2838
420.640	1712
420.716	2520
420.792	775
420.867	2698
420.943	2554
421.019	7000
421.094	4705
421.170	2855
421.245	1451
421.321	2513
421.397	3482
421.472	3988
421.548	7296
421.623	8997
421.699	5410
421.774	6838
421.850	5185
421.925	10671
422.001	9364
422.076	7444
422.152	10064
422.227	16700
422.302	19543
422.378	28743
422.453	51249
422.529	113844
422.604	245844
422.679	305447
422.755	266701
422.830	130131
422.905	56435
422.981	31328
423.056	20211
423.131	14853
423.207	10337
423.282	11413
423.357	18940
423.432	12402
423.508	12458
423.583	26463
423.658	18988
423.733	6067
423.808	6827
423.883	8656
423.959	7255
424.034	6219
424.109	4969
424.184	2969
424.259	1827
424.334	2152
424.409	1179
424.484	2617
424.559	2900
424.634	3905
424.709	7322
424.784	6404
424.859	2725
424.934	6392
425.009	30289
425.084	50655
425.159	17481
425.234	2281
425.309	1408
425.384	10319
425.459	16432
425.534	4902
425.609	1744
425.683	946
425.758	1613
425.833	2156
425.908	4310
425.983	17561
426.058	52592
426.132	21608
426.207	2684
426.282	5342
426.357	2773
426.431	1878
426.506	916
426.581	1862
426.655	1449
426.730	1236
426.805	1381
426.879	2526
426.954	1877
427.029	6934
427.103	41331
427.178	93302
427.253	38327
427.327	5280
427.402	5537
427.476	18892
427.551	8410
427.625	2860
427.700	2118
427.774	766
427.849	2035
427.923	834
427.998	1635
428.072	2634
428.147	6608
428.221	33103
428.296	92779
428.370	47000
428.444	6887
428.519	6133
428.593	10417
428.667	9407
428.742	11417
428.816	13531
428.890	55953
428.965	94035
429.039	28439
429.113	14333
429.188	5404
429.262	1721
429.336	5842
429.410	23908
429.485	14359
429.559	10100
429.633	7265
429.707	3167
429.781	10130
429.855	63294
429.930	98687
430.004	42440
430.078	51580
430.152	52114
430.226	105791
430.300	107826
430.374	18418
430.448	6190
430.522	17038
430.596	48808
430.670	33792
430.744	96022
430.818	135833
430.892	28166
430.966	5521
431.040	2650
431.114	442
431.188	488
431.262	573
431.336	678
431.410	5742
431.484	17143
431.557	11882
431.631	2210
431.705	2042
431.779	16461
431.853	76673
431.927	53850
432.000	5972
432.074	2115
432.148	2194
432.222	1244
432.295	702
432.369	452
432.443	3113
432.516	32326
432.590	84659
432.664	31079
432.737	3278
432.811	729
432.885	-53
432.958	444
433.032	-376
433.106	152
433.179	36
433.253	-340
433.326	227
433.400	-147
433.473	-403
433.547	-584
433.620	1083
433.694	5260
433.767	4298
433.841	336
433.914	661
433.988	-192
434.061	513
434.134	58
434.208	-851
434.281	-508
434.355	-212
434.428	872
434.501	-322
434.575	-158
434.648	1275
434.721	367
434.795	-24
434.868	-616
434.941	-477
435.014	-241
435.088	1507
435.161	2899
435.234	5506
435.307	7379
435.381	2436
435.454	2909
435.527	4019
435.600	4240
435.673	2995
435.746	2473
435.819	1359
435.892	1959
435.966	402
436.039	55
436.112	1096
436.185	-452
436.258	-521
436.331	-865
436.404	-1184
436.477	-495
436.550	-388
436.623	-133
436.696	113
436.769	1484
436.842	201
436.915	490
436.987	2275
437.060	727
437.133	94
437.206	-222
437.279	-60
437.352	-216
437.425	375
437.498	2608
437.570	6249
437.643	5270
437.716	317
437.789	-582
437.861	2866
437.934	10157
438.007	4476
438.080	668
438.152	1673
438.225	4981
438.298	39262
438.370	109560
438.443	44874
438.516	10997
438.588	1719
438.661	-578
438.734	622
438.806	1159
438.879	2225
438.951	2502
439.024	5037
439.096	624
439.169	513
439.241	-337
439.314	-147
439.386	735
439.459	1806
439.531	4572
439.604	892
439.676	294
439.749	-978
439.821	-913
439.893	-500
439.966	13
440.038	1305
440.110	1687
440.183	-149
440.255	-178
440.327	2245
440.400	15992
440.472	73431
440.544	45816
440.617	5110
440.689	3713
440.761	5191
440.833	9352
440.905	5259
440.978	162
441.050	13
441.122	-283
441.194	-839
441.266	-344
441.338	-130
441.411	3913
441.483	28420
441.555	40175
441.627	6918
441.699	2685
441.771	2268
441.843	613
441.915	112
441.987	417
442.059	-121
442.131	1049
442.203	2372
442.275	4026
442.347	5039
442.419	7742
442.491	42648
442.563	107909
442.635	40323
442.706	17792
442.778	13677
442.850	2045
442.922	1115
442.994	1660
443.066	3746
443.137	2367
443.209	2523
443.281	4243
443.353	12089
443.425	50881
443.496	178677
443.568	174653
443.640	62388
443.711	10579
443.783	4119
443.855	2783
443.926	1136
443.998	1358
444.070	1942
444.141	2198
444.213	5257
444.285	6516
444.356	3392
444.428	2638
444.499	595
444.571	929
444.642	223
444.714	1708
444.785	4989
444.857	4327
444.928	8102
445.000	4936
445.071	5400
445.143	8148
445.214	6939
445.285	10354
445.357	31076
445.428	107955
445.500	236861
445.571	156801
445.642	86675
445.714	28894
445.785	18849
445.856	6772
445.928	6838
445.999	4773
446.070	2875
446.141	4753
446.213	7033
446.284	2041
446.355	1040
446.426	752
446.497	1344
446.569	2793
446.640	5829
446.711	4894
446.782	893
446.853	1682
446.924	1788
446.995	1358
447.066	951
447.138	1973
447.209	1040
447.280	7
447.351	-816
447.422	133
447.493	340
447.564	1696
447.635	4491
447.706	993
447.777	130
447.847	-484
447.918	-991
447.989	1027
448.060	1239
448.131	5405
448.202	5623
448.273	4580
448.344	896
448.414	897
448.485	674
448.556	-289
448.627	-591
448.698	517
448.768	-268
448.839	258
448.910	1143
448.981	2765
449.051	519
449.122	-646
449.193	-814
449.263	-305
449.334	-404
449.405	1063
449.475	6228
449.546	2983
449.616	3171
449.687	1210
449.758	904
449.828	-657
449.899	-289
449.969	-568
450.040	-482
450.110	-117
450.181	182
450.251	-25
450.322	-313
450.392	27
450.463	560
450.533	-949
450.604	-439
450.674	-619
450.744	-77
450.815	44
450.885	310
450.955	-511
451.026	-1217
451.096	-1047
451.166	30
451.237	3098
451.307	8109
451.377	1302
451.447	-985
451.518	-662
451.588	-165
451.658	-84
451.728	1414
451.799	9023
451.869	8432
451.939	765
452.009	-445
452.079	-462
452.149	330
452.219	1137
452.289	10746
452.360	5915
452.430	413
452.500	1520
452.570	2223
452.640	3693
452.710	14091
452.780	18297
452.850	13728
452.920	11422
452.990	2363
453.060	851
453.129	3227
453.199	2885
453.269	11022
453.339	22115
453.409	33250
453.479	37871
453.549	53996
453.619	56518
453.688	17005
453.758	2056
453.828	102
453.898	77
453.968	-278
454.037	-216
454.087	-65
454.107	-6
454.168	231
454.177	260
454.247	-508
454.249	-498
454.316	-347
454.330	-299
454.386	-147
454.411	1528
454.456	4359
454.492	5474
454.525	6528
454.574	2644
454.595	941
454.655	-309
454.665	-520
454.734	-390
454.736	-335
454.804	1759
454.817	3052
454.873	8427
454.898	8320
454.943	8212
454.979	4694
455.013	1482
455.060	467
455.082	-2
455.141	21
455.152	25
455.221	4454
455.222	4519
455.291	10041
455.303	8795
455.360	3118
455.384	3581
455.430	4586
455.465	3675
455.499	2733
455.546	5885
455.569	7360
455.627	4478
455.638	3950
455.707	-432
455.708	-427
455.777	-967
455.789	-771
455.846	83
455.869	-184
455.916	-613
455.950	-309
455.985	-93
456.031	-285
456.054	-347
456.112	-396
456.124	-400
456.193	20
456.193	14
456.262	577
456.274	517
456.332	260
456.355	138
456.401	-176
456.436	-118
456.470	-0
456.516	-430
456.540	-691
456.597	-32
456.609	88
456.678	-259
456.678	-264
456.747	-336
456.759	-435
456.817	-699
456.840	-519
456.886	-411
456.920	-531
456.955	-435
457.001	-518
457.024	-695
457.082	-415
457.093	-324
457.162	70
457.163	76
457.232	779
457.243	625
457.301	-87
457.324	-226
457.370	-641
457.405	-642
457.439	-528
457.485	-385
457.508	-291
457.566	-243
457.577	-269
457.646	-8
457.647	-2
457.715	1222
457.727	1692
457.784	3870
457.808	5902
457.853	9429
457.889	11792
457.922	13140
457.969	7540
457.991	5834
458.050	5984
458.060	5946
458.129	14484
458.130	14663
458.198	21605
458.211	19131
458.267	8119
458.292	5488
458.336	2159
458.372	1920
458.405	2597
458.453	3918
458.474	4569
458.533	10341
458.543	11173
458.611	29153
458.614	29085
458.680	20708
458.694	16810
458.749	5059
458.775	3600
458.818	1478
458.855	854
458.887	442
458.936	259
458.955	58
459.016	-525
459.024	-447
459.093	614
459.097	655
459.162	436
459.177	390
459.230	617
459.257	817
459.299	948
459.338	1114
459.368	1113
459.418	912
459.437	887
459.499	404
459.505	322
459.574	-181
459.579	-213
459.643	-347
459.659	-298
459.711	243
459.740	506
459.780	374
459.820	307
459.849	412
459.900	282
459.917	295
459.981	718
459.986	684
460.054	-245
460.061	-257
460.123	646
460.141	756
460.191	648
460.222	787
460.260	1043
460.302	1545
460.328	1779
460.382	1256
460.397	1051
460.462	155
460.465	128
460.534	76
460.543	82
460.602	1110
460.623	1664
460.671	3089
460.703	4991
460.739	5949
460.783	5518
460.808	4957
460.864	1433
460.876	1060
460.944	660
460.945	642
461.013	379
461.024	237
461.081	183
461.104	386
461.150	584
461.184	653
461.218	753
461.264	584
461.286	430
461.345	30
461.355	42
461.423	368
461.425	373
461.491	-228
461.505	-180
461.559	860
461.585	1014
461.628	1468
461.665	2489
461.696	3087
461.745	5584
461.764	5902
461.825	1729
461.832	1472
461.901	628
461.905	672
461.969	369
461.985	199
462.037	674
462.065	900
462.105	521
462.145	396
462.173	979
462.225	1596
462.241	1504
462.305	2398
462.310	2438
462.378	2713
462.385	2541
462.446	937
462.465	735
462.514	838
462.545	964
462.582	931
462.625	704
462.650	601
462.705	658
462.718	619
462.785	273
462.786	286
462.854	744
462.865	964
462.922	1512
462.945	1602
462.990	1363
463.025	808
463.058	412
463.104	-24
463.126	-12
463.184	305
463.194	369
463.262	565
463.264	595
463.330	839
463.344	760
463.398	983
463.424	1108
463.466	785
463.504	673
463.533	801
463.583	740
463.601	737
463.663	639
463.669	663
463.737	1186
463.743	1253
463.805	1933
463.823	2072
463.873	2990
463.903	3758
463.940	3824
463.982	4145
464.008	4078
464.062	2379
464.076	2096
464.142	1054
464.144	1034
464.211	697
464.221	672
464.279	955
464.301	1113
464.347	1262
464.381	1475
464.414	1476
464.461	1108
464.482	1190
464.540	1443
464.550	1362
464.617	1208
464.620	1186
464.685	1257
464.699	1329
464.753	1662
464.779	1788
464.820	1435
464.859	981
464.888	703
464.938	550
464.956	942
465.018	2113
465.023	2115
465.091	2116
465.098	2104
465.158	1513
465.177	1399
465.226	1054
465.257	726
465.293	1041
465.336	1486
465.361	1689
465.416	2143
465.428	2191
465.495	2532
465.496	2543
465.563	3743
465.575	4029
465.631	5187
465.654	5760
465.698	3546
465.734	1113
465.765	899
465.813	738
465.833	591
465.893	475
465.900	588
465.968	1652
465.972	1707
466.035	126
466.052	-236
466.102	372
466.131	685
466.170	795
466.210	886
466.237	1041
466.290	1297
466.304	1237
466.369	1026
466.372	1031
466.439	1097
466.449	1104
466.506	1497
466.528	1663
466.573	2460
466.607	3009
466.641	4185
466.687	5860
466.708	6485
466.766	8432
466.775	7975
466.842	4301
466.845	4120
466.909	2546
466.925	2221
466.977	2159
467.004	2164
467.044	2140
467.083	2105
467.111	2217
467.163	2427
467.178	2508
467.242	2861
467.245	2838
467.312	2339
467.321	2275
467.379	2787
467.400	2968
467.446	2758
467.480	2603
467.559	2560
467.638	2071
467.717	422
467.796	2226
467.875	2088
467.955	2360
468.034	3211
468.113	6068
468.192	9971
468.271	3854
468.350	2821
468.429	2877
468.508	3111
468.588	3425
468.667	1425
468.746	1804
468.825	1415
468.904	1676
468.983	2344
469.062	3083
469.141	4012
469.220	1593
469.299	1734
469.378	549
469.456	2026
469.535	1382
469.614	866
469.693	1488
469.772	2576
469.851	2594
469.930	3234
470.009	1401
470.088	1652
470.166	2136
470.245	4856
470.324	5212
470.403	4017
470.482	2365
470.560	2177
470.639	1359
470.718	2451
470.797	2204
470.875	2793
470.954	2387
471.033	3476
471.111	1991
471.190	1154
471.269	1578
471.347	1636
471.426	1816
471.505	1419
471.583	1398
471.662	2341
471.740	1129
471.819	1905
471.898	1558
471.976	2180
472.055	1820
472.133	1366
472.212	2459
472.290	1972
472.369	754
472.447	1999
472.526	1677
472.604	2609
472.683	2626
472.761	2197
472.839	1052
472.918	1828
472.996	1164
473.075	2040
473.153	1900
473.231	1388
473.310	2152
473.388	2544
473.466	842
473.545	1744
473.623	2405
473.701	3704
473.780	2569
473.858	413
473.936	2697
474.014	1519
474.093	2910
474.171	2395
474.249	3525
474.327	2522
474.405	1183
474.484	1519
474.562	851
474.640	1721
474.718	1595
474.796	1927
474.874	1234
474.952	895
475.030	712
475.108	1211
475.187	1710
475.265	2749
475.343	4637
475.421	6069
475.499	1459
475.577	1345
475.655	2269
475.733	3129
475.811	5575
475.889	5413
475.966	3808
476.044	1917
476.122	2706
476.200	4003
476.278	3333
476.356	1525
476.434	1494
476.512	1823
476.590	4619
476.667	3533
476.745	1479
476.823	2384
476.901	2271
476.979	1114
477.056	1626
477.134	948
477.212	1604
477.290	1693
477.367	1118
477.445	1273
477.523	1168
477.601	1181
477.678	1053
477.756	1903
477.834	1943
477.911	1476
477.989	1292
478.066	1182
478.144	1809
478.222	3003
478.299	5488
478.377	5446
478.454	1758
478.532	960
478.609	1546
478.687	2084
478.764	922
478.842	1108
478.919	1604
478.997	1538
479.074	976
479.152	1514
479.229	1635
479.307	1436
479.384	408
479.461	950
479.539	546
479.616	1092
479.694	1319
479.771	1364
479.848	1131
479.926	1662
480.003	3356
480.080	772
480.157	1647
480.235	851
480.312	1412
480.389	1471
480.467	576
480.544	2423
480.621	1270
480.698	1547
480.775	1782
480.853	1713
480.930	1193
481.007	1529
481.084	1158
481.161	2724
481.238	2294
481.315	1075
481.392	7
481.470	1497
481.547	677
481.624	918
481.701	1490
481.778	2154
481.855	1355
481.932	2682
482.009	4050
482.086	3365
482.163	1667
482.240	4460
482.317	8281
482.393	7018
482.470	2005
482.547	1900
482.624	992
482.701	1968
482.778	1121
482.855	1248
482.932	819
483.009	500
483.085	1909
483.162	1432
483.239	2014
483.316	916
483.393	1101
483.469	1896
483.546	1997
483.623	1505
483.699	1566
483.776	1189
483.853	1821
483.930	2165
484.006	5324
484.083	9752
484.160	5203
484.236	6094
484.313	5050
484.389	3184
484.466	3521
484.543	2687
484.619	2563
484.696	4946
484.772	3737
484.849	3552
484.925	2334
485.002	3306
485.078	3137
485.155	2583
485.231	2197
485.308	2989
485.384	1180
485.461	3509
485.537	4526
485.614	7678
485.690	2499
485.766	3510
485.843	2874
485.919	5305
485.995	6350
486.072	3306
486.148	1953
486.224	2734
486.301	3095
486.377	3706
486.453	2852
486.530	2608
486.606	4166
486.682	3746
486.758	4559
486.835	5972
486.911	3345
486.987	7735
487.063	12449
487.139	16077
487.215	10163
487.292	5043
487.368	3938
487.444	3683
487.520	5740
487.596	5019
487.672	9734
487.748	29847
487.824	49474
487.900	18855
487.976	5169
488.052	3418
488.128	4580
488.204	3126
488.280	4622
488.356	4015
488.432	6999
488.508	10623
488.584	4469
488.660	3699
488.736	3177
488.812	3209
488.888	3836
488.964	5651
489.039	15017
489.115	24791
489.191	16807
489.267	3934
489.343	3067
489.418	2324
489.494	2471
489.570	364
489.646	3590
489.722	2371
489.797	3005
489.873	3626
489.949	7132
490.024	8246
490.100	2165
490.176	2274
490.251	2832
490.327	5593
490.403	1988
490.478	2627
490.554	2411
490.629	1815
490.705	1316
490.781	2348
490.856	2824
490.932	2492
491.007	3022
491.083	2028
491.158	1973
491.234	2534
491.309	5560
491.385	6541
491.460	2119
491.536	2745
491.611	2263
491.686	3000
491.762	5029
491.837	8815
491.913	15990
491.988	22701
492.063	32090
492.139	8912
492.214	4880
492.289	2364
492.365	1939
492.440	2820
492.515	2521
492.590	1875
492.666	1844
492.741	1569
492.816	3281
492.891	2863
492.967	1656
493.042	2119
493.117	761
493.192	1930
493.267	1802
493.342	3282
493.418	4690
493.493	2287
493.568	1698
493.643	1439
493.718	2223
493.793	3309
493.868	4591
493.943	3849
494.018	2657
494.093	1711
494.168	2219
494.243	1931
494.318	1082
494.393	2229
494.468	1570
494.543	1586
494.618	2207
494.693	2099
494.768	500
494.842	1819
494.917	1321
494.992	2138
495.067	1220
495.142	1288
495.217	1296
495.292	1956
495.366	2218
495.441	2582
495.516	3308
495.591	4951
495.665	19626
495.740	53575
495.815	29264
495.890	3739
495.964	677
496.039	3933
496.114	2347
496.188	2671
496.263	2218
496.338	1588
496.412	1960
496.487	3065
496.561	3136
496.636	3217
496.710	3187
496.785	1720
496.860	2660
496.934	1827
497.009	2928
497.083	2717
497.158	2576
497.232	3626
497.307	3958
497.381	2584
497.455	2907
497.530	4686
497.604	3944
497.679	3354
497.753	5096
497.827	6375
497.902	5403
497.976	7046
498.050	13981
498.125	53986
498.199	73464
498.273	13968
498.348	8300
498.422	6463
498.496	6265
498.570	5931
498.645	3390
498.719	2830
498.793	4641
498.867	5709
498.941	7895
499.016	20519
499.090	60773
499.164	34939
499.238	4016
499.312	2178
499.386	3652
499.460	3712
499.534	2801
499.609	4387
499.683	4522
499.757	4820
499.831	7620
499.905	37690
499.979	48250
500.053	6908
500.127	6917
500.201	5042
500.275	4223
500.349	2900
500.422	2024
500.496	6210
500.570	11571
500.644	24655
500.718	44596
500.792	16035
500.866	2593
500.940	2742
501.013	3599
501.087	3025
501.161	6279
501.235	7378
501.309	11820
501.382	34160
501.456	39715
501.530	8585
501.603	11028
501.677	5567
501.751	1513
501.825	3977
501.898	4165
501.972	13036
502.046	11210
502.119	1304
502.193	6021
502.266	14838
502.340	9636
502.413	5591
502.487	13136
502.561	8159
502.634	3398
502.708	1925
502.781	1997
502.855	2658
502.928	963
503.002	1312
503.075	773
503.149	1336
503.222	744
503.295	1049
503.369	2126
503.442	2248
503.516	9160
503.589	25900
503.662	19719
503.736	6602
503.809	11905
503.882	11733
503.956	15330
504.029	18467
504.102	18534
504.175	30422
504.249	11223
504.322	4772
504.395	2612
504.468	2571
504.542	1522
504.615	690
504.688	1415
504.761	344
504.834	2914
504.907	2689
504.980	5198
505.053	2637
505.127	351
505.200	5983
505.273	2313
505.346	1375
505.419	227
505.492	2319
505.565	594
505.638	1147
505.711	999
505.784	1167
505.857	1306
505.930	2547
506.003	-200
506.076	2589
506.149	1034
506.221	1043
506.294	2558
506.367	4173
506.440	18824
506.513	15505
506.586	2474
506.659	880
506.731	1164
506.804	1926
506.877	1910
506.950	2501
507.022	3338
507.095	217
507.168	2365
507.241	2017
507.313	1272
507.386	696
507.459	2551
507.531	2229
507.604	215
507.677	2256
507.749	91
507.822	2830
507.894	3155
507.967	4824
508.040	823
508.112	2688
508.185	2427
508.257	1247
508.330	5161
508.402	2309
508.475	1362
508.547	2650
508.620	1388
508.692	3770
508.765	2392
508.837	68
508.909	1295
508.982	2234
509.054	1952
509.127	868
509.199	687
509.271	204
509.344	578
509.416	1296
509.488	459
509.560	1538
509.633	809
509.705	1946
509.777	1411
509.849	3109
509.922	1393
509.994	1203
510.066	1703
510.138	240
510.210	3521
510.283	2333
510.355	1900
510.427	2013
510.499	1433
510.571	1161
510.643	1326
510.715	4916
510.787	2511
510.859	2915
510.931	1828
511.003	4584
511.076	3445
511.148	9
511.219	-73
511.291	2524
511.363	2775
511.435	1891
511.507	807
511.579	2133
511.651	1700
511.723	1072
511.795	1826
511.867	1201
511.939	2286
512.010	2579
512.082	3134
512.154	734
512.226	1015
512.298	1796
512.369	3278
512.441	2770
512.513	3526
512.585	722
512.656	2528
512.728	2402
512.800	1345
512.871	2252
512.943	1494
513.015	-301
513.086	2163
513.158	1989
513.230	513
513.301	2812
513.373	5403
513.444	2254
513.516	1896
513.588	1372
513.659	1383
513.731	1737
513.802	1212
513.874	6631
513.945	12406
514.016	4410
514.088	1776
514.159	281
514.231	3136
514.302	3809
514.374	2271
514.445	241
514.516	5526
514.588	2919
514.659	1971
514.730	3574
514.802	4092
514.873	440
514.944	4616
515.016	2344
515.087	2202
515.158	2952
515.229	5449
515.301	1674
515.372	4340
515.443	2289
515.514	859
515.585	853
515.656	2315
515.728	1322
515.799	198
515.870	2324
515.941	1538
516.012	852
516.083	3199
516.154	2251
516.225	5240
516.296	5599
516.367	4279
516.438	4906
516.509	6280
516.580	9459
516.651	31672
516.722	124659
516.793	83153
516.864	11189
516.935	10004
517.006	10265
517.077	13491
517.148	31338
517.219	115362
517.289	238384
517.360	59265
517.431	18322
517.502	3502
517.573	4619
517.643	3477
517.714	3938
517.785	4072
517.856	3783
517.926	6516
517.997	7959
518.068	8905
518.138	14293
518.209	19446
518.280	72442
518.350	293370
518.421	171384
518.492	18699
518.562	8169
518.633	5682
518.703	5621
518.774	13303
518.845	30786
518.915	40865
518.986	11931
519.056	7084
519.127	10173
519.197	12843
519.268	25923
519.338	21853
519.408	5335
519.479	6804
519.549	3792
519.620	3790
519.690	2842
519.760	1493
519.831	2164
519.901	1881
519.971	2069
520.042	1649
520.112	1702
520.182	3584
520.253	4175
520.323	2192
520.393	2403
520.463	7696
520.534	3055
520.604	11386
520.674	5415
520.744	3204
520.814	9250
520.885	11724
520.955	6927
521.025	26243
521.095	15252
521.165	4173
521.235	1375
521.305	1601
521.375	1907
521.445	1487
521.515	2325
521.585	4063
521.655	2840
521.725	3539
521.795	2659
521.865	-136
521.935	4276
522.005	1811
522.075	1128
522.145	2183
522.215	1512
522.285	2753
522.355	3301
522.424	6929
522.494	6084
522.564	3927
522.634	8105
522.704	30230
522.774	15851
522.843	3221
522.913	1895
522.983	2128
523.053	1583
523.122	2146
523.192	2526
523.262	13288
523.331	17949
523.401	3270
523.471	1210
523.540	2236
523.610	501
523.680	1751
523.749	1562
523.819	1969
523.888	1349
523.958	921
524.027	1042
524.097	1072
524.166	857
524.236	128
524.305	3383
524.375	130
524.444	822
524.514	3349
524.583	913
524.653	1201
524.722	2163
524.791	407
524.861	2460
524.930	882
524.999	827
525.069	2791
525.138	1706
525.207	1611
525.277	1833
525.346	1250
525.415	2411
525.484	1669
525.554	1448
525.623	2311
525.692	2087
525.761	2856
525.830	4084
525.900	2787
525.969	6501
526.038	11748
526.107	19396
526.176	70287
526.245	70325
526.314	20778
526.383	33332
526.452	53313
526.522	76421
526.591	100303
526.660	25473
526.729	12054
526.797	11553
526.867	19500
526.935	92589
527.004	187438
527.073	133567
527.142	13098
527.211	4747
527.280	3530
527.349	4182
527.418	780
527.487	2428
527.555	1580
527.624	1018
527.693	298
527.762	2078
527.831	132
527.899	526
527.968	1494
528.037	398
528.106	2531
528.174	4433
528.243	2789
528.312	3749
528.380	6553
528.449	1460
528.518	2827
528.586	368
528.655	1373
528.723	868
528.792	263
528.861	407
528.929	-593
528.998	1537
529.066	788
529.135	1275
529.203	688
529.272	281
529.340	2014
529.409	3319
529.477	298
529.545	1707
529.614	2887
529.682	816
529.751	3583
529.819	5601
529.887	2890
529.956	1712
530.024	2706
530.092	1594
530.161	3373
530.229	4388
530.297	3011
530.365	3761
530.434	2641
530.502	1579
530.570	2501
530.638	693
530.707	2587
530.775	3870
530.843	1601
530.911	2718
530.979	1951
531.047	2174
531.115	2778
531.183	2489
531.252	2836
531.320	1421
531.388	1316
531.456	2672
531.524	401
531.592	3321
531.660	3779
531.728	1535
531.796	1591
531.864	2525
531.932	2671
532.000	2007
532.067	2992
532.135	3439
532.203	4394
532.271	3606
532.339	5234
532.407	14310
532.475	11413
532.542	5082
532.610	5190
532.678	4421
532.746	21180
532.814	68856
532.881	24225
532.949	4775
533.017	3804
533.084	2162
533.152	2211
533.220	2445
533.287	2684
533.355	3155
533.423	3416
533.490	2565
533.558	2479
533.625	2741
533.693	2661
533.761	2757
533.828	3285
533.896	1049
533.963	5329
534.031	7165
534.098	10688
534.166	6081
534.233	2906
534.300	3497
534.368	2744
534.435	2152
534.503	2948
534.570	3100
534.637	2798
534.705	4436
534.772	4738
534.840	6107
534.907	30123
534.974	52918
535.041	8288
535.109	3520
535.176	1508
535.243	3137
535.310	1748
535.378	2899
535.445	1782
535.512	2777
535.579	2543
535.646	1213
535.714	975
535.781	2124
535.848	2579
535.915	2721
535.982	921
536.049	1677
536.116	2780
536.183	1897
536.250	1338
536.317	1510
536.384	2303
536.451	3373
536.518	4575
536.585	1614
536.652	4386
536.719	5816
536.786	3214
536.853	3704
536.920	4797
536.987	7626
537.053	5702
537.120	30408
537.187	37334
537.254	2248
537.321	2022
537.388	3323
537.454	497
537.521	1439
537.588	2115
537.654	2543
537.721	2117
537.788	2623
537.855	658
537.921	2018
537.988	1129
538.055	2346
538.121	1305
538.188	2026
538.254	3222
538.321	7295
538.388	5771
538.454	1841
538.521	2906
538.587	1552
538.654	548
538.720	1555
538.787	1184
538.853	1740
538.920	2435
538.986	2204
539.053	1464
539.119	1699
539.185	1550
539.252	3315
539.318	3563
539.385	4310
539.451	790
539.517	3591
539.583	4111
539.650	7154
539.716	25334
539.782	9915
539.849	1095
539.915	2318
539.981	1143
540.047	2768
540.114	2285
540.180	2994
540.246	1566
540.312	2679
540.378	7090
540.444	9753
540.510	8100
540.576	28487
540.643	11784
540.709	1556
540.775	2002
540.841	1707
540.907	2741
540.973	5371
541.039	3831
541.105	5137
541.171	2281
541.237	1393
541.303	1865
541.369	4041
541.435	1964
541.500	5998
541.566	3827
541.632	2354
541.698	614
541.764	2883
541.830	950
541.896	1096
541.961	3021
542.027	1410
542.093	1799
542.159	1971
542.224	1513
542.290	4232
542.356	5181
542.421	8978
542.487	3978
542.553	1725
542.618	2506
542.684	1215
542.750	2082
542.815	3359
542.881	5227
542.947	22092
543.012	23510
543.078	2901
543.143	1284
543.209	2603
543.274	1312
543.340	3359
543.405	6926
543.471	17355
543.536	3855
543.602	1855
543.667	477
543.732	2460
543.798	438
543.863	2364
543.928	1388
543.994	223
544.059	2014
544.124	1904
544.190	981
544.255	2580
544.320	1658
544.386	1181
544.451	3817
544.516	4449
544.581	3192
544.646	12836
544.712	28751
544.777	5836
544.842	2621
544.907	2444
544.972	2892
545.037	2290
545.102	2934
545.168	2148
545.233	3499
545.298	3902
545.363	3260
545.428	4018
545.493	7794
545.558	21221
545.623	9592
545.688	2131
545.753	2464
545.818	1993
545.883	3491
545.947	2402
546.012	3043
546.077	1900
546.142	3658
546.207	2625
546.272	4217
546.337	3844
546.401	3500
546.466	3306
546.531	2318
546.596	3607
546.661	4195
546.725	4269
546.790	2212
546.855	3840
546.919	3508
546.984	4240
547.049	4538
547.113	5700
547.178	5753
547.243	7572
547.307	9014
547.372	9325
547.436	8646
547.501	9124
547.565	9480
547.630	9535
547.695	10249
547.759	9213
547.823	8489
547.888	8662
547.952	8640
548.017	8762
548.081	9379
548.146	10124
548.210	11043
548.274	9480
548.339	10089
548.403	10727
548.468	9184
548.532	7701
548.596	9057
548.660	8021
548.725	9768
548.789	10255
548.853	11296
548.917	9669
548.982	9503
549.046	9794
549.110	7233
549.174	7724
549.238	8514
549.303	8346
549.367	10951
549.431	9610
549.495	9285
549.559	9103
549.623	10529
549.687	11578
549.751	14605
549.815	15055
549.879	14312
549.943	12587
550.007	13704
550.071	14240
550.135	14577
550.199	12511
550.263	11613
550.327	11304
550.391	11878
550.455	12897
550.519	13966
550.582	13594
550.646	17646
550.710	18870
550.774	16131
550.838	16579
550.901	16613
550.965	19205
551.029	18407
551.093	20856
551.156	23790
551.220	29931
551.284	39440
551.347	26093
551.411	24063
551.475	25795
551.538	18612
551.602	16704
551.666	15761
551.729	13810
551.793	13741
551.856	13415
551.920	12754
551.983	13329
552.047	12349
552.110	12999
552.174	12867
552.237	13448
552.301	12759
552.364	12191
552.428	11738
552.491	11254
552.554	12695
552.618	13283
552.681	13602
552.745	13102
552.808	18080
552.871	25466
552.934	17115
552.998	12920
553.061	11960
553.124	12157
553.187	11153
553.251	11989
553.314	12276
553.377	11873
553.440	13646
553.503	14170
553.567	16606
553.630	12424
553.693	12814
553.756	13011
553.819	12750
553.882	11538
553.945	11290
554.008	11468
554.071	11634
554.134	11252
554.197	10713
554.260	10827
554.323	11613
554.386	11839
554.449	11384
554.512	13179
554.575	11523
554.638	11678
554.701	10883
554.764	10655
554.827	10145
554.889	9851
554.952	9149
555.015	8317
555.078	9058
555.141	11070
555.203	10154
555.266	8521
555.329	9643
555.391	8733
555.454	8716
555.517	9897
555.580	8783
555.642	8332
555.705	7487
555.768	7853
555.830	7865
555.893	6687
555.955	8072
556.018	6913
556.080	7404
556.143	7751
556.206	7063
556.268	7539
556.330	8270
556.393	7841
556.455	7271
556.518	8358
556.580	8337
556.643	7002
556.705	6597
556.767	5918
556.830	6909
556.892	6765
556.955	8854
557.017	8275
557.079	7108
557.142	6591
557.204	6457
557.266	12123
557.328	10677
557.391	4919
557.453	5097
557.515	6030
557.577	6400
557.639	7938
557.701	5771
557.764	4863
557.826	6058
557.888	7381
557.950	7126
558.012	8690
558.074	10313
558.136	23978
558.198	71161
558.260	31861
558.322	8820
558.384	9297
558.446	11309
558.508	12834
558.570	17064
558.632	22788
558.694	33544
558.756	37223
558.818	101992
558.880	300842
558.942	119795
559.003	77404
559.065	45409
559.127	15414
559.189	14402
559.251	15603
559.312	22067
559.374	49261
559.436	192000
559.498	122893
559.559	18749
559.621	14247
559.683	16408
559.744	26313
559.806	82488
559.868	157493
559.929	33929
559.991	15462
560.052	21684
560.114	66416
560.176	51466
560.237	34879
560.299	71592
560.360	17301
560.422	6033
560.483	4394
560.545	4916
560.606	3347
560.667	2991
560.729	3274
560.790	2993
560.852	3027
560.913	3370
560.974	3700
561.036	2467
561.097	2433
561.158	4137
561.220	4202
561.281	3196
561.342	3105
561.403	5351
561.465	5514
561.526	14076
561.587	21376
561.648	4582
561.709	3364
561.771	3198
561.832	3719
561.893	2305
561.954	3805
562.015	2493
562.076	2137
562.137	2608
562.198	2555
562.259	3310
562.320	3290
562.381	3028
562.442	5092
562.503	4833
562.564	3634
562.625	3131
562.686	2621
562.747	3603
562.808	2825
562.869	2919
562.930	3520
562.991	4082
563.051	3071
563.112	2620
563.173	2658
563.234	2045
563.294	3478
563.355	2818
563.416	3531
563.477	2591
563.537	2891
563.598	3329
563.659	3493
563.720	2213
563.780	2931
563.841	2911
563.901	3609
563.962	3491
564.023	3303
564.083	3189
564.144	3967
564.204	2750
564.265	2892
564.325	3933
564.386	4661
564.446	6156
564.507	2583
564.567	2874
564.628	2917
564.688	3158
564.749	2779
564.809	2571
564.869	3070
564.930	2762
564.990	3181
565.050	1808
565.111	2591
565.171	2126
565.231	2917
565.292	3110
565.352	3105
565.412	3628
565.472	2315
565.532	2859
565.593	3354
565.653	2706
565.713	2664
565.773	3164
565.833	4559
565.893	6637
565.953	3898
566.013	2515
566.074	2892
566.134	3956
566.194	6101
566.254	6943
566.314	5495
566.374	2786
566.434	3384
566.494	2837
566.554	3124
566.614	2899
566.673	2902
566.733	4093
566.793	3956
566.853	4198
566.913	3175
566.973	4209
567.033	4044
567.092	4696
567.152	6066
567.212	7393
567.272	3983
567.331	4884
567.391	4678
567.451	4544
567.511	6883
567.570	5783
567.630	4200
567.690	4209
567.749	4778
567.809	4628
567.868	5677
567.928	5289
567.988	5394
568.047	7071
568.107	8554
568.166	10340
568.226	16547
568.285	23867
568.345	20997
568.404	16951
568.464	14182
568.523	12317
568.582	13666
568.642	15326
568.701	20002
568.761	24661
568.820	39604
568.879	39253
568.939	28181
568.998	19506
569.057	13474
569.116	10698
569.176	8617
569.235	7305
569.294	6491
569.353	5414
569.413	6382
569.472	4906
569.531	4393
569.590	4563
569.649	5068
569.708	3556
569.767	4860
569.827	5876
569.886	4908
569.945	3980
570.004	5006
570.063	4009
570.122	3841
570.181	3745
570.240	3689
570.299	4776
570.358	5118
570.417	4403
570.475	3538
570.534	3811
570.593	3902
570.652	4029
570.711	4350
570.770	3031
570.829	4012
570.887	3713
570.946	5419
571.005	4205
571.064	3194
571.122	4932
571.181	5685
571.240	2864
571.299	3787
571.357	3471
571.416	3460
571.475	3055
571.533	4139
571.592	3917
571.650	4716
571.709	3770
571.768	4661
571.826	3549
571.885	4094
571.943	3001
572.002	2834
572.060	3571
572.119	3548
572.177	3247
572.236	2763
572.294	3267
572.352	3470
572.411	3033
572.469	3473
572.528	3444
572.586	3240
572.644	4128
572.703	4733
572.761	3572
572.819	3163
572.877	3721
572.936	2304
572.994	3253
573.052	3235
573.110	3145
573.169	3595
573.227	2666
573.285	2762
573.343	2757
573.401	3024
573.459	3927
573.517	2453
573.576	2913
573.634	3208
573.692	3996
573.750	2737
573.808	2368
573.866	3382
573.924	3665
573.982	3442
574.040	2288
574.098	4140
574.155	3618
574.213	2985
574.271	3228
574.329	3759
574.387	2413
574.445	1457
574.503	2823
574.560	2066
574.618	2166
574.676	1869
574.734	2281
574.792	3747
574.849	3447
574.907	1864
574.965	2927
575.022	2637
575.080	2256
575.138	3177
575.195	2574
575.253	3395
575.311	3370
575.368	2744
575.426	2566
575.483	2960
575.541	3164
575.598	1754
575.656	2620
575.713	3096
575.771	3134
575.828	3444
575.886	2691
575.943	3775
576.001	3761
576.058	2378
576.115	3334
576.173	2998
576.230	4078
576.287	4779
576.345	4530
576.402	3197
576.459	3187
576.517	3236
576.574	3871
576.631	3563
576.688	2777
576.746	3193
576.803	2776
576.860	2007
576.917	2812
576.974	3247
577.031	2486
577.089	3617
577.146	2869
577.203	3424
577.260	3163
577.317	3622
577.374	3577
577.431	3938
577.488	3394
577.545	2986
577.602	2560
577.659	3304
577.716	3254
577.773	2563
577.830	3044
577.886	3311
577.943	2983
578.000	2625
578.057	3497
578.114	2351
578.171	2999
578.227	4004
578.284	2433
578.341	4084
578.398	2874
578.454	3297
578.511	3916
578.568	3814
578.625	2835
578.681	3524
578.738	2600
578.794	3368
578.851	3044
578.908	3553
578.964	3360
579.021	3806
579.077	2992
579.134	2540
579.190	3418
579.247	3908
579.303	3832
579.360	2863
579.416	2788
579.473	3138
579.529	3166
579.586	3320
579.642	3284
579.698	3625
579.755	3340
579.811	4351
579.867	3314
579.924	3465
579.980	3434
580.036	4538
580.093	3130
580.149	5334
580.205	5290
580.261	4483
580.317	3161
580.374	3917
580.430	4446
580.486	4101
580.542	3102
580.598	3766
580.619	4084
580.654	4630
580.692	4474
580.710	4386
580.765	4218
580.767	4204
580.823	4487
580.838	4477
580.879	4419
580.911	4341
580.935	4260
580.984	4057
580.991	4030
581.047	5031
581.057	4931
581.103	4385
581.130	4807
581.159	5239
581.203	4610
581.215	4421
581.270	5040
581.276	5020
581.326	4788
581.349	5182
581.382	5725
581.422	5440
581.438	5319
581.494	4592
581.494	4603
581.550	4618
581.567	5120
581.606	6124
581.640	5897
581.661	5717
581.713	5762
581.717	5758
581.773	5129
581.786	5207
581.829	5520
581.859	5768
581.885	5930
581.932	6253
581.940	6309
581.996	6388
582.004	6429
582.052	6432
582.077	6045
582.107	5658
582.150	6876
582.163	7238
582.219	6677
582.223	6706
582.274	6919
582.296	6941
582.330	7048
582.368	7249
582.386	7262
582.441	6898
582.441	6890
582.497	7911
582.514	7720
582.552	7375
582.587	7612
582.608	7694
582.659	7966
582.663	7971
582.719	8652
582.732	8475
582.774	8227
582.805	8570
582.830	8680
582.877	9035
582.885	9157
582.941	9346
582.950	9576
582.996	10400
583.023	10613
583.052	11075
583.095	11552
583.107	11583
583.162	11631
583.168	11674
583.218	11725
583.240	11503
583.273	11302
583.313	11334
583.328	11341
583.384	10647
583.385	10654
583.439	10794
583.458	10719
583.494	10799
583.531	10906
583.549	10878
583.603	10806
583.605	10808
583.660	10543
583.676	10551
583.715	10645
583.748	10840
583.770	11148
583.820	12432
583.825	12519
583.881	12274
583.893	12221
583.936	12211
583.965	12482
583.991	12509
584.038	12590
584.046	12692
584.101	12852
584.110	12812
584.156	12697
584.183	12981
584.211	13266
584.255	13081
584.266	13000
584.321	13295
584.328	13307
584.376	13922
584.400	14127
584.431	14469
584.472	14376
584.486	14263
584.541	14593
584.545	14618
584.596	15578
584.617	15624
584.651	15939
584.689	16673
584.706	16977
584.761	17295
584.762	17273
584.816	17442
584.834	17690
584.871	18354
584.906	18443
584.926	18555
584.978	19791
584.980	19886
585.035	20314
585.051	20580
585.090	21533
585.123	22812
585.145	23764
585.195	24936
585.200	25181
585.254	28192
585.267	28780
585.309	31326
585.340	33717
585.364	35821
585.412	39374
585.419	40249
585.473	48292
585.484	49659
585.528	61998
585.556	71663
585.583	104130
585.628	166128
585.637	196824
585.692	402275
585.700	436012
585.747	533582
585.772	533834
585.801	367299
585.845	131276
585.856	113896
585.910	57140
585.917	50532
585.965	42936
585.989	39384
586.019	37573
586.061	34715
586.074	34460
586.128	33513
586.133	33353
586.183	33542
586.205	33519
586.237	33312
586.277	32665
586.292	32364
586.346	31250
586.349	31115
586.401	31708
586.421	31811
586.455	32587
586.493	33536
586.509	36113
586.564	43950
586.565	44050
586.618	59121
586.637	63386
586.672	55563
586.709	46120
586.727	45248
586.781	44600
586.781	44716
586.835	40090
586.853	38848
586.889	37579
586.925	35697
586.944	35667
586.996	36160
586.998	36325
587.052	38451
587.068	38834
587.106	39162
587.140	39042
587.161	39576
587.212	40845
587.215	41081
587.269	43397
587.284	43935
587.323	44909
587.356	45393
587.377	46437
587.427	48286
587.431	48557
587.485	49879
587.499	50346
587.539	53143
587.571	54554
587.593	55861
587.643	58530
587.648	59055
587.702	62338
587.715	63119
587.755	66885
587.786	69370
587.810	71556
587.858	74793
587.864	75680
587.917	82712
587.930	84033
587.971	91029
588.001	95594
588.025	99597
588.073	106892
588.079	108634
588.133	120954
588.145	123473
588.187	136511
588.217	144810
588.241	155413
588.288	175229
588.295	179106
588.348	207657
588.360	213188
588.402	242738
588.431	262174
588.456	284749
588.503	326281
588.510	335690
588.564	404169
588.575	417531
588.617	503240
588.646	560490
588.671	648186
588.718	813976
588.725	864478
588.778	1245428
588.789	1321760
588.832	1814177
588.861	2146963
588.886	2317104
588.932	2607025
588.939	2594098
588.993	2347113
589.004	2295074
589.047	2410179
589.075	2438360
589.100	2107208
589.147	1461441
589.154	1415218
589.207	1032498
589.218	951311
589.261	868218
589.290	810209
589.314	847067
589.361	914309
589.368	959969
589.421	1318687
589.433	1392561
589.475	1903869
589.504	2258120
589.528	2350764
589.576	2464656
589.582	2457156
589.635	2285597
589.647	2230420
589.689	1620550
589.718	1181788
589.742	992166
589.790	613504
589.795	599206
589.849	446720
589.861	410043
589.902	355229
589.932	312302
589.955	287003
590.004	230906
590.009	229103
590.062	199233
590.075	191166
590.115	175692
590.146	162430
590.168	156825
590.218	142346
590.222	142263
590.275	133512
590.289	130605
590.328	125579
590.360	120603
590.381	117759
590.431	109330
590.435	109522
590.488	104814
590.503	103084
590.541	101339
590.574	98991
590.594	97765
590.645	93076
590.647	93313
590.700	88824
590.716	87090
590.753	85694
590.787	83771
590.806	83211
590.859	80344
590.859	80658
590.912	78258
590.930	77196
590.965	77443
591.001	77044
591.018	77043
591.071	75739
591.072	75392
591.124	74638
591.143	73879
591.177	73770
591.214	72962
591.230	73742
591.283	75460
591.285	75181
591.336	76787
591.356	77065
591.389	76837
591.427	75690
591.442	74554
591.495	68974
591.498	68256
591.547	68740
591.569	68562
591.600	68086
591.640	66667
591.653	66892
591.706	66547
591.711	66224
591.759	69127
591.782	70108
591.811	72242
591.853	74542
591.864	73631
591.917	67364
591.924	66148
591.969	66602
591.995	66417
592.022	67093
592.066	67335
592.075	68458
592.127	73600
592.137	74206
592.180	78168
592.208	80168
592.233	76526
592.279	68603
592.285	68685
592.338	66788
592.350	66050
592.390	66688
592.421	66653
592.443	67061
592.491	66984
592.495	67296
592.548	67391
592.562	67109
592.600	67534
592.633	67338
592.653	67543
592.704	66898
592.705	67292
592.775	67564
592.846	69440
592.916	72834
592.987	75020
593.058	72328
593.128	66492
593.199	67624
593.270	66691
593.341	67598
593.411	70010
593.482	71405
593.553	69049
593.623	67630
593.694	70010
593.764	72067
593.835	67707
593.906	67966
593.976	68465
594.047	71723
594.117	78962
594.188	77916
594.258	68116
594.329	67736
594.399	70258
594.470	69586
594.540	69406
594.611	70839
594.681	70138
594.751	69885
594.822	73983
594.892	76441
594.963	76626
595.033	78499
595.103	79323
595.174	84455
595.244	101575
595.314	116267
595.384	85051
595.455	82897
595.525	84740
595.595	87715
595.665	89012
595.736	84626
595.806	86375
595.876	86213
595.946	86072
596.016	86647
596.087	90676
596.157	91526
596.227	91156
596.297	95176
596.367	99682
596.437	105602
596.507	118059
596.577	131109
596.647	107460
596.717	107346
596.787	109122
596.857	109557
596.927	110728
596.997	109615
597.067	111503
597.137	117349
597.207	121685
597.277	121169
597.347	114920
597.417	111908
597.487	114420
597.557	116131
597.626	118345
597.696	121667
597.766	128079
597.836	139341
597.906	113774
597.975	108237
598.045	108331
598.115	111226
598.185	117250
598.254	128954
598.324	140241
598.394	142686
598.464	140862
598.533	135332
598.603	130010
598.672	130494
598.742	134510
598.812	135131
598.881	135125
598.951	131860
599.020	133971
599.090	137480
599.159	138479
599.229	135394
599.299	134078
599.368	138533
599.437	137965
599.507	132323
599.576	131544
599.646	130521
599.715	131441
599.785	130582
599.854	131543
599.924	135131
599.993	132148
600.062	132214
600.132	133024
600.201	140807
600.270	159532
600.340	166070
600.409	160347
600.478	159871
600.547	164266
600.617	158026
600.686	142071
600.755	137464
600.824	139694
600.894	135945
600.963	134191
601.032	135020
601.101	134067
601.170	132847
601.239	135116
601.308	143605
601.378	143834
601.447	138617
601.516	140934
601.585	150674
601.654	163313
601.723	152098
601.792	152952
601.861	159911
601.930	171692
601.999	181080
602.068	175318
602.137	185234
602.206	185566
602.275	174877
602.343	186782
602.412	186219
602.481	174255
602.550	172403
602.619	176978
602.688	178123
602.756	178326
602.825	175669
602.894	179785
602.963	178312
603.032	182809
603.100	181955
603.169	178404
603.238	185359
603.307	177964
603.375	179803
603.444	188266
603.513	181033
603.581	186921
603.650	198213
603.719	171902
603.787	166166
603.856	169898
603.924	173188
603.993	177898
604.061	179422
604.130	186641
604.198	189857
604.267	192999
604.335	194938
604.404	193932
604.472	197733
604.541	199620
604.609	205577
604.678	211712
604.746	215209
604.815	225159
604.883	216990
604.951	211413
605.020	215748
605.088	207848
605.156	200186
605.225	201501
605.293	200626
605.361	203421
605.429	199427
605.498	208024
605.566	206849
605.634	212711
605.702	213668
605.771	219045
605.839	221802
605.907	205841
605.975	212297
606.043	202770
606.111	197164
606.180	211533
606.248	195810
606.316	195064
606.384	209243
606.452	199144
606.520	197960
606.588	176322
606.656	166412
606.724	163177
606.792	154083
606.860	142151
606.928	130005
606.996	126174
607.064	125133
607.132	128926
607.200	136207
607.267	142232
607.335	141526
607.403	145565
607.471	138745
607.539	135626
607.607	135978
607.674	125776
607.742	128035
607.810	131342
607.878	128619
607.946	130144
608.013	134135
608.081	137243
608.149	137125
608.216	137973
608.284	141474
608.352	138499
608.419	141301
608.487	149381
608.555	135857
608.622	135543
608.690	140890
608.757	155819
608.825	158731
608.893	155906
608.960	157486
609.028	158016
609.095	155860
609.163	141309
609.230	129332
609.298	117898
609.365	120518
609.432	131339
609.500	140232
609.567	159592
609.635	177844
609.702	189042
609.769	183728
609.837	153508
609.904	136391
609.971	144943
610.039	178095
610.106	275624
610.173	624766
610.241	1531882
610.308	1011463
610.375	332064
610.442	178212
610.509	147337
610.577	139451
610.644	137901
610.711	141001
610.778	141230
610.845	146896
610.912	153833
610.980	160341
611.047	162790
611.114	158882
611.181	151854
611.248	148037
611.315	155932
611.382	159554
611.449	166099
611.516	168884
611.583	167679
611.650	169372
611.717	173581
611.784	180266
611.851	195586
611.918	224733
611.984	283088
612.051	463216
612.118	1058651
612.185	2564913
612.252	1789883
612.319	426076
612.386	268376
612.452	222894
612.519	208186
612.586	210024
612.653	199627
612.719	197208
612.786	187490
612.853	173477
612.919	167860
612.986	171749
613.053	161201
613.120	152194
613.186	152419
613.253	153972
613.319	151068
613.386	152031
613.453	155640
613.519	165943
613.586	185386
613.652	227718
613.719	198459
613.785	183464
613.852	153429
613.918	151614
613.985	153806
614.051	162717
614.118	172539
614.184	165791
614.250	151108
614.317	152805
614.383	150312
614.449	153088
614.516	153482
614.582	154521
614.648	151890
614.715	149454
614.781	150190
614.847	153953
614.914	150434
614.980	146880
615.046	144825
615.112	149459
615.179	151806
615.245	154791
615.311	164691
615.377	194566
615.443	210610
615.509	177509
615.575	175421
615.642	169442
615.708	177889
615.774	191889
615.840	212929
615.906	253405
615.972	358501
616.038	650732
616.104	1376350
616.170	2908923
616.236	2630235
616.302	743302
616.368	462566
616.434	303237
616.500	257136
616.565	291366
616.631	395488
616.697	311117
616.763	313698
616.829	529541
616.895	1043063
616.961	1051607
617.026	415093
617.092	220533
617.158	184306
617.224	170035
617.289	156615
617.355	147047
617.421	143992
617.487	142036
617.552	133971
617.618	131025
617.684	130343
617.749	134585
617.815	127527
617.880	124845
617.946	124680
618.012	126661
618.077	128143
618.143	121382
618.208	124718
618.274	130968
618.339	132940
618.405	110824
618.470	110634
618.536	110473
618.601	112673
618.667	104279
618.732	99332
618.798	100246
618.863	99459
618.928	98188
618.994	105436
619.059	114988
619.124	158151
619.190	119649
619.255	97620
619.320	95933
619.386	95047
619.451	93419
619.516	91224
619.581	92895
619.647	95529
619.712	95882
619.777	94260
619.842	94949
619.907	99522
619.972	99738
620.038	100951
620.103	92876
620.168	92461
620.233	95004
620.298	93988
620.363	95081
620.428	98988
620.493	100474
620.558	103407
620.623	101858
620.688	100566
620.753	99501
620.818	100914
620.883	100560
620.948	100015
621.013	103099
621.078	102534
621.143	97761
621.207	101561
621.272	100201
621.337	102564
621.402	100213
621.467	108030
621.532	110957
621.596	104699
621.661	96266
621.726	93656
621.791	96927
621.855	99782
621.920	103245
621.985	100326
622.049	106351
622.114	104460
622.179	100329
622.243	103774
622.308	104015
622.373	107750
622.437	105176
622.502	97802
622.566	97033
622.631	98088
622.695	100720
622.760	99673
622.824	99651
622.889	103775
622.953	112564
623.018	160940
623.082	157471
623.147	107167
623.211	104657
623.276	107288
623.340	97154
623.404	93281
623.469	93678
623.533	95125
623.597	92812
623.662	92487
623.726	86376
623.790	82927
623.854	81595
623.919	88735
623.983	87888
624.047	86174
624.111	84371
624.176	88286
624.240	96296
624.304	101239
624.368	87038
624.432	87099
624.496	91123
624.560	102781
624.625	111310
624.689	94221
624.753	95064
624.817	90306
624.881	89613
624.945	82885
625.009	80994
625.073	84139
625.137	93626
625.201	117627
625.265	113051
625.329	87035
625.393	93310
625.456	87769
625.520	88987
625.584	96370
625.648	106601
625.712	131434
625.776	226945
625.839	245231
625.903	119665
625.967	82973
626.031	112870
626.095	161142
626.158	92834
626.222	69298
626.286	64135
626.349	62669
626.413	61351
626.477	67256
626.540	61328
626.604	60595
626.668	58877
626.731	57875
626.795	59626
626.858	60450
626.922	57645
626.986	57950
627.049	57283
627.113	60087
627.176	57444
627.240	54698
627.303	56532
627.366	56034
627.430	58254
627.493	57853
627.557	58086
627.620	60090
627.684	58978
627.747	59773
627.810	55232
627.874	53359
627.937	50176
628.000	56910
628.064	54624
628.127	47497
628.190	47806
628.253	46759
628.317	45091
628.380	45480
628.443	46256
628.506	46988
628.569	42371
628.632	41153
628.696	39326
628.759	40778
628.822	39071
628.885	39033
628.948	38239
629.011	39702
629.074	39186
629.137	37991
629.200	36251
629.263	42221
629.326	34998
629.389	36904
629.452	36764
629.515	38635
629.578	36285
629.641	42045
629.704	39411
629.767	41806
629.830	36188
629.892	35231
629.955	35490
630.018	40755
630.081	48231
630.144	59199
630.207	44851
630.269	43307
630.332	40892
630.395	38393
630.458	38368
630.520	45836
630.583	41962
630.646	35115
630.708	33590
630.771	34359
630.834	36238
630.896	35815
630.959	34840
631.021	35309
631.084	35499
631.146	38303
631.209	41634
631.272	36622
631.334	37311
631.397	36637
631.459	38787
631.522	43379
631.584	43631
631.646	47022
631.709	52248
631.771	66716
631.834	51528
631.896	43540
631.958	38416
632.021	38807
632.083	35637
632.145	37343
632.208	37086
632.270	37873
632.332	32826
632.395	32505
632.457	34405
632.519	33211
632.581	33176
632.643	33217
632.706	31645
632.768	30581
632.830	32356
632.892	31392
632.954	32459
633.016	34803
633.078	31956
633.141	32167
633.203	32601
633.265	32276
633.327	33131
633.389	33169
633.451	41640
633.513	51957
633.575	44404
633.637	47266
633.698	43880
633.760	37287
633.822	37349
633.884	39395
633.946	39002
634.008	40868
634.070	43757
634.132	48779
634.193	52038
634.255	57673
634.317	56985
634.379	58311
634.441	50493
634.502	45836
634.564	40423
634.626	36638
634.687	35247
634.749	33784
634.811	32717
634.873	30936
634.934	32484
634.996	32932
635.057	32818
635.119	31739
635.181	33122
635.242	35341
635.304	32264
635.365	36275
635.427	33669
635.488	36707
635.550	34621
635.611	34498
635.673	34347
635.734	40839
635.796	43673
635.857	48089
635.918	49703
635.980	55701
636.041	59468
636.102	63695
636.164	64970
636.225	62343
636.286	52951
636.348	47713
636.409	42229
636.470	37665
636.531	36097
636.593	36531
636.654	33414
636.715	30405
636.776	28683
636.838	27845
636.899	28437
636.960	27189
637.021	26173
637.082	25750
637.143	26774
637.204	24998
637.265	24505
637.326	25514
637.387	25612
637.448	25160
637.509	25650
637.570	25129
637.631	24793
637.692	23489
637.753	23495
637.814	23048
637.875	23475
637.936	25098
637.997	24440
638.058	25292
638.119	24723
638.179	23955
638.240	23269
638.301	23554
638.362	22657
638.423	22939
638.483	22864
638.544	20669
638.605	21990
638.666	20728
638.726	22291
638.787	22811
638.848	21043
638.908	21153
638.969	20572
639.030	20719
639.090	20725
639.151	22895
639.211	26349
639.272	37115
639.332	65739
639.393	36007
639.453	25398
639.514	25573
639.574	22436
639.635	20293
639.695	21925
639.756	20046
639.816	24055
639.877	32004
639.937	54530
639.997	73714
640.058	28003
640.118	21997
640.178	20844
640.239	19474
640.299	19238
640.359	20634
640.420	22265
640.480	25871
640.540	29031
640.600	31748
640.661	27293
640.721	28256
640.781	35378
640.841	23900
640.901	21722
640.961	22011
641.021	26535
641.082	34344
641.142	46099
641.202	28599
641.262	18455
641.322	20963
641.382	17458
641.442	18619
641.502	18231
641.562	20333
641.622	19256
641.682	21854
641.742	25904
641.802	24459
641.861	22262
641.921	23053
641.981	25623
642.041	26925
642.101	36711
642.161	23363
642.221	17255
642.280	17961
642.340	16976
642.400	17194
642.460	18929
642.519	18626
642.579	17982
642.639	19438
642.698	16896
642.758	20940
642.818	19569
642.877	19789
642.937	21602
642.997	28127
643.056	43994
643.116	25659
643.175	21313
643.235	20653
643.294	20493
643.354	23789
643.414	28043
643.473	38732
643.532	41077
643.592	56806
643.651	93778
643.711	172367
643.770	352073
643.830	863418
643.889	1679597
643.948	464755
644.008	91059
644.067	51272
644.126	36136
644.186	31141
644.245	25947
644.304	22146
644.363	23266
644.423	19907
644.482	21645
644.541	21997
644.600	23089
644.659	32626
644.719	42609
644.778	67861
644.837	123311
644.896	269055
644.955	636025
645.014	202766
645.073	42482
645.132	29372
645.191	26547
645.250	23638
645.309	25984
645.368	28603
645.427	40206
645.486	74436
645.545	134348
645.604	38200
645.663	21922
645.722	22488
645.781	24952
645.840	28571
645.898	35915
645.957	55787
646.016	87261
646.075	168306
646.134	344420
646.192	915906
646.251	1291605
646.310	224063
646.369	61680
646.427	47385
646.486	33636
646.545	26032
646.603	22717
646.662	20710
646.721	20393
646.779	20054
646.838	22240
646.896	29518
646.955	42813
647.014	72896
647.072	148053
647.131	416777
647.189	193210
647.248	28869
647.306	20585
647.365	18239
647.423	14838
647.481	16185
647.540	13958
647.598	14397
647.657	13305
647.715	13302
647.773	12542
647.832	15294
647.890	12247
647.948	12908
648.007	13556
648.065	12085
648.123	13673
648.181	15303
648.240	12940
648.298	12394
648.356	12462
648.414	13156
648.472	12281
648.531	13432
648.589	12489
648.647	13211
648.705	12532
648.763	13988
648.821	13320
648.879	14475
648.937	16759
648.995	22112
649.053	29476
649.111	46153
649.169	80642
649.227	152458
649.285	327643
649.343	924046
649.401	445574
649.459	120761
649.516	66590
649.574	29523
649.632	32588
649.690	36102
649.748	37570
649.806	55578
649.863	104474
649.921	294780
649.979	192183
650.037	26605
650.094	15182
650.152	15893
650.210	12366
650.268	12884
650.325	12706
650.383	13106
650.440	10801
650.498	11386
650.556	11191
650.613	10130
650.671	10771
650.728	11714
650.786	13295
650.843	16951
650.901	12626
650.958	11690
651.016	10264
651.073	10476
651.131	9469
651.188	9116
651.246	9984
651.303	9437
651.360	9227
651.418	8954
651.475	9704
651.532	7514
651.590	9910
651.647	8920
651.704	9466
651.762	9762
651.819	10744
651.876	9697
651.933	8558
651.990	9947
652.048	7328
652.105	8322
652.162	9009
652.219	8333
652.276	8620
652.333	9584
652.390	7292
652.448	9114
652.505	8767
652.562	8886
652.619	8782
652.676	9964
652.733	11042
652.790	8489
652.847	7275
652.904	9292
652.961	6717
653.017	8326
653.074	9977
653.131	9981
653.188	7179
653.245	9127
653.302	8288
653.359	8274
653.415	7923
653.472	8399
653.529	8691
653.586	8565
653.642	7756
653.699	8854
653.756	8628
653.813	8430
653.869	8819
653.926	7887
653.983	7497
654.039	7983
654.096	7404
654.152	9230
654.209	7661
654.266	8475
654.322	7256
654.379	9778
654.435	10022
654.492	12390
654.548	18474
654.605	29023
654.661	12779
654.717	9117
654.774	8248
654.830	8512
654.887	8816
654.943	8609
655.000	9128
655.056	8686
655.112	8974
655.168	7365
655.225	9082
655.281	10718
655.337	12394
655.394	18933
655.450	13757
655.506	12937
655.562	19745
655.618	16227
655.675	7966
655.731	7820
655.787	7375
655.843	8167
655.899	7530
655.955	8055
656.011	8834
656.067	7287
656.123	7620
656.179	7971
656.235	9103
656.291	6856
656.347	8716
656.403	8413
656.459	7745
656.515	10418
656.571	9036
656.627	8725
656.683	8034
656.739	8529
656.795	9123
656.850	10480
656.906	12076
656.962	10843
657.018	8259
657.074	9919
657.129	12443
657.185	16502
657.241	35120
657.297	19407
657.352	9258
657.408	7461
657.464	10199
657.519	9336
657.575	7342
657.630	7402
657.686	7278
657.742	7222
657.797	7346
657.853	7606
657.908	9411
657.964	5869
658.019	6983
658.075	8418
658.130	7762
658.186	7322
658.241	7038
658.297	6481
658.352	7763
658.407	7817
658.463	7138
658.518	8588
658.573	6909
658.629	6647
658.684	5835
658.739	8640
658.795	6788
658.850	7679
658.905	6643
658.960	6950
659.016	6655
659.071	8000
659.126	8788
659.181	10729
659.236	20574
659.291	22307
659.346	10568
659.401	9897
659.457	7767
659.512	7847
659.567	8018
659.622	6719
659.677	6466
659.732	6773
659.787	7569
659.842	8761
659.897	11028
659.952	7443
660.007	6894
660.061	6932
660.116	6968
660.171	5904
660.226	6393
660.281	7229
660.336	5923
660.391	7180
660.445	6493
660.500	6729
660.555	7220
660.610	6497
660.664	7229
660.719	7457
660.774	6948
660.828	7810
660.883	8608
660.938	8143
660.992	5481
661.047	7583
661.101	6202
661.156	6516
661.211	5894
661.265	6376
661.320	5756
661.374	6532
661.429	5788
661.483	6855
661.538	5830
661.592	6919
661.647	6165
661.701	7222
661.755	6511
661.810	6986
661.864	5559
661.919	6955
661.973	7054
662.027	6451
662.081	5146
662.136	6353
662.190	7580
662.244	6895
662.299	6400
662.353	6881
662.407	6200
662.461	7184
662.515	6459
662.569	6440
662.624	7085
662.678	5829
662.732	6619
662.786	6479
662.840	6953
662.894	7544
662.948	6165
663.002	6825
663.056	6240
663.110	6282
663.164	6125
663.218	6768
663.272	7002
663.326	8967
663.380	7492
663.434	7619
663.488	6612
663.542	6791
663.595	5620
663.649	7222
663.703	6493
663.757	6906
663.811	6224
663.864	6342
663.918	7198
663.972	7266
664.026	6437
664.079	5755
664.133	6291
664.187	6422
664.240	6179
664.294	6801
664.348	6699
664.401	6724
664.455	5739
664.508	5796
664.562	6759
664.615	6683
664.669	5548
664.722	6047
664.776	5540
664.829	5888
664.883	6129
664.936	6788
664.990	6645
665.043	8147
665.097	7421
665.150	8516
665.203	7234
665.257	7283
665.310	6878
665.363	7571
665.417	6735
665.470	7684
665.523	8000
665.576	7901
665.630	6057
665.683	7067
665.736	6978
665.789	7366
665.842	6173
665.895	7066
665.949	6740
666.002	6932
666.055	7241
666.108	7916
666.161	6904
666.214	8238
666.267	9058
666.320	10551
666.373	8550
666.426	7808
666.479	7255
666.532	9157
666.585	9103
666.638	9866
666.691	8736
666.744	9840
666.796	9488
666.849	8803
666.902	7930
666.955	7271
667.008	6675
667.060	6404
667.113	6167
667.166	6843
667.219	6934
667.271	6640
667.324	6581
667.377	7147
667.430	6089
667.482	7979
667.535	6979
667.587	9064
667.640	9773
667.693	11967
667.745	22860
667.798	22355
667.850	8304
667.903	8095
667.955	7867
668.008	7275
668.060	8219
668.113	7645
668.165	8255
668.218	8154
668.270	6707
668.322	7376
668.375	6565
668.427	7651
668.479	6147
668.532	8039
668.584	7740
668.636	6476
668.689	7621
668.741	7643
668.793	6981
668.845	7248
668.898	7161
668.950	7128
669.002	7544
669.054	7191
669.106	6377
669.158	8217
669.211	6861
669.263	7866
669.315	7669
669.367	8197
669.419	7347
669.471	9043
669.523	9448
669.575	11474
669.627	9406
669.679	8320
669.731	8326
669.783	9203
669.835	9005
669.886	8717
669.938	7898
669.990	8555
670.042	7663
670.094	8073
670.146	7947
670.197	9984
670.249	10494
670.301	12367
670.353	15975
670.404	21979
670.456	31227
670.508	49442
670.560	82594
670.611	147236
670.663	262270
670.715	609151
670.766	849618
670.818	253146
670.869	53253
670.921	30601
670.972	21896
671.024	17197
671.075	14116
671.127	13220
671.178	12095
671.230	11243
671.281	11097
671.333	12269
671.384	12014
671.436	14224
671.487	18760
671.538	24529
671.590	36021
671.641	57399
671.692	96942
671.744	178229
671.795	129879
671.846	48991
671.897	26031
671.949	18206
672.000	13899
672.051	12547
672.102	10795
672.153	9824
672.204	8838
672.256	9150
672.307	8867
672.358	9221
672.409	7804
672.460	7752
672.511	6820
672.562	7409
672.613	7174
672.664	8693
672.715	6646
672.766	6845
672.817	5598
672.868	6756
672.919	6551
672.970	7155
673.021	6013
673.071	6113
673.122	7207
673.173	6364
673.224	6304
673.275	6689
673.326	5904
673.376	5815
673.427	5322
673.478	6629
673.528	6383
673.579	6361
673.630	5404
673.680	7335
673.731	5853
673.782	6231
673.832	6280
673.883	6191
673.934	6118
673.984	5964
674.035	5493
674.085	6265
674.136	6762
674.186	7432
674.237	9155
674.287	13127
674.338	7670
674.388	6060
674.438	6139
674.489	7361
674.539	7070
674.589	7421
674.640	7303
674.690	7165
674.740	5810
674.791	8556
674.841	5803
674.891	6887
674.942	6166
674.992	7420
675.042	5338
675.092	5448
675.142	5435
675.193	6037
675.243	6147
675.293	6685
675.343	5751
675.393	6069
675.443	6017
675.493	5635
675.543	5839
675.593	5703
675.643	5975
675.693	5978
675.743	5383
675.793	5889
675.843	4664
675.893	6335
675.943	5933
675.993	4911
676.043	5375
676.093	5329
676.142	4886
676.192	5456
676.242	4918
676.292	4907
676.341	5398
676.391	4752
676.441	4785
676.491	5362
676.540	4535
676.590	5764
676.640	5149
676.689	5140
676.739	3517
676.789	4695
676.838	4645
676.888	5214
676.937	4325
676.987	4358
677.037	4325
677.086	3983
677.136	4245
677.185	4760
677.235	4376
677.284	3701
677.333	4674
677.383	3651
677.432	3791
677.482	4110
677.531	4377
677.580	4412
677.630	3924
677.679	4745
677.728	4106
677.778	4743
677.827	4306
677.876	4752
677.925	4316
677.975	4471
678.024	4449
678.073	5079
678.122	4804
678.171	4604
678.220	5152
678.269	6403
678.319	5498
678.368	6350
678.417	5435
678.466	5719
678.515	5431
678.564	5072
678.613	4847
678.662	4583
678.711	3893
678.760	5066
678.809	3953
678.857	4787
678.906	4942
678.955	5400
679.004	4576
679.053	4251
679.102	3476
679.151	4483
679.199	4678
679.248	4509
679.297	5226
679.346	5239
679.394	4093
679.443	3974
679.492	4701
679.540	5283
679.589	4634
679.638	4085
679.686	4215
679.735	4154
679.784	4790
679.832	5923
679.881	4233
679.929	4370
679.978	4017
680.026	4243
680.075	3936
680.123	3733
680.172	3895
680.220	2983
680.268	4140
680.317	4397
680.365	4214
680.414	3591
680.462	3421
680.510	4754
680.559	3627
680.607	3170
680.655	4545
680.703	4412
680.752	4043
680.800	3580
680.848	3194
680.896	3444
680.945	2982
680.993	4238
681.041	3629
681.089	3834
681.137	3333
681.185	3862
681.233	2951
681.258	3499
681.281	3989
681.329	3982
681.377	4010
681.380	4049
681.425	4264
681.473	3994
681.502	3968
681.521	3897
681.569	4775
681.617	3582
681.624	3677
681.665	4081
681.713	4041
681.745	4278
681.761	4343
681.809	4190
681.857	5492
681.867	5207
681.904	4128
681.952	5248
681.989	4961
682.000	4838
682.048	5244
682.096	4631
682.111	4681
682.143	4693
682.191	4964
682.233	5452
682.239	5497
682.286	4357
682.334	4340
682.354	4362
682.382	4341
682.430	5408
682.476	4487
682.477	4440
682.525	5583
682.572	5328
682.598	5024
682.620	4756
682.667	4913
682.715	5516
682.720	5569
682.763	5830
682.810	6090
682.841	5190
682.857	4657
682.905	5690
682.952	4764
682.963	5095
683.000	6189
683.047	4956
683.085	5689
683.095	5853
683.142	4905
683.190	5014
683.206	5034
683.237	5042
683.284	5588
683.328	5570
683.332	5549
683.379	5196
683.426	4935
683.449	5383
683.473	5791
683.521	6028
683.568	5773
683.571	5775
683.615	5409
683.662	6735
683.693	6255
683.709	6010
683.757	5658
683.804	6162
683.814	6286
683.851	6563
683.898	6309
683.936	6685
683.945	6768
683.992	5886
684.039	6816
684.057	7265
684.086	7956
684.133	7206
684.179	7257
684.180	7237
684.227	7131
684.274	7407
684.300	7635
684.321	7785
684.368	6543
684.415	7759
684.422	7691
684.462	7146
684.509	6350
684.543	6705
684.556	6801
684.603	6467
684.649	6325
684.665	6370
684.696	6558
684.743	7181
684.786	7874
684.790	7917
684.837	7229
684.883	8293
684.908	8429
684.930	8521
684.977	8110
685.023	7592
685.029	7708
685.070	8182
685.117	7363
685.150	7734
685.164	8012
685.210	8736
685.257	9392
685.272	9165
685.303	8441
685.350	8815
685.393	9101
685.396	9126
685.443	9676
685.490	10768
685.514	10441
685.536	9931
685.583	9477
685.629	9899
685.636	9645
685.675	8211
685.722	8755
685.757	9034
685.768	9122
685.815	9071
685.861	8665
685.878	8892
685.908	9330
685.954	9133
686.000	9590
686.000	9592
686.047	9820
686.093	10991
686.121	10814
686.139	10530
686.185	9514
686.232	9224
686.242	9322
686.278	9565
686.324	9649
686.363	8844
686.370	8741
686.416	8858
686.463	9546
686.484	9315
686.509	9040
686.555	9480
686.601	8911
686.606	8973
686.647	9424
686.693	9371
686.727	9328
686.739	9336
686.785	9055
686.831	9867
686.848	9965
686.877	9980
686.923	9071
686.969	8577
686.969	8574
687.015	9112
687.061	8985
687.090	9529
687.107	9857
687.153	10072
687.199	9648
687.211	9611
687.245	9439
687.291	10265
687.332	10435
687.336	10461
687.382	10477
687.428	10194
687.453	10328
687.474	10340
687.520	10013
687.565	10271
687.574	10191
687.611	10009
687.657	10080
687.695	10044
687.702	10066
687.748	11048
687.794	11052
687.816	11045
687.839	10820
687.885	10505
687.931	9926
687.937	9892
687.976	10025
688.022	10316
688.058	10571
688.067	10608
688.113	11102
688.158	10086
688.179	10217
688.204	10468
688.249	10449
688.295	11245
688.300	11227
688.340	11148
688.386	11636
688.421	11204
688.431	11037
688.477	11510
688.522	11275
688.542	11395
688.567	11698
688.613	10891
688.658	11528
688.663	11553
688.703	11680
688.749	11378
688.784	11267
688.794	11204
688.839	11167
688.884	11272
688.905	11061
688.930	11022
688.975	11379
689.020	11428
689.026	11442
689.065	11456
689.110	10969
689.146	11205
689.155	11275
689.201	10897
689.246	11153
689.267	11018
689.291	11019
689.336	11653
689.381	11622
689.388	11642
689.426	11526
689.471	11206
689.509	11068
689.516	11052
689.561	11074
689.606	10640
689.630	10770
689.651	11153
689.696	11220
689.741	11694
689.750	11777
689.785	11778
689.830	11630
689.871	11286
689.875	11282
689.920	11503
689.965	11684
689.992	11667
690.010	11647
690.054	11652
690.099	11726
690.112	11658
690.144	11637
690.189	12159
690.233	11851
690.233	11863
690.278	12621
690.323	11448
690.354	11750
690.367	11988
690.412	12273
690.457	12343
690.474	12358
690.501	12213
690.546	12463
690.590	12018
690.595	11956
690.635	11969
690.680	12337
690.716	12609
690.724	12761
690.769	13687
690.813	15063
690.836	14936
690.857	15103
690.902	16763
690.946	17950
690.957	18348
690.991	22406
691.035	27629
691.077	32826
691.080	32874
691.124	31354
691.168	30244
691.198	29069
691.213	27334
691.257	23384
691.301	18571
691.318	16938
691.346	16585
691.390	14659
691.434	13997
691.439	13859
691.478	13688
691.522	14329
691.559	13584
691.567	13524
691.611	14495
691.655	14516
691.680	14563
691.699	14417
691.743	14069
691.787	14057
691.800	13832
691.831	13599
691.875	13923
691.919	13497
691.921	13482
691.964	13833
692.008	13864
692.041	13995
692.052	14063
692.096	13935
692.139	14368
692.162	14124
692.183	13846
692.227	14198
692.271	13825
692.282	13807
692.315	14041
692.359	13850
692.402	14339
692.403	14366
692.447	13895
692.490	13940
692.523	13656
692.534	13694
692.578	14082
692.622	14062
692.643	14209
692.666	14315
692.709	14180
692.753	14394
692.763	14337
692.797	14132
692.840	14248
692.884	14054
692.884	14081
692.928	14300
692.971	14079
693.004	14172
693.015	14223
693.059	14339
693.102	14475
693.124	14417
693.146	14523
693.189	14860
693.233	15016
693.245	15072
693.276	15461
693.320	15756
693.363	16112
693.365	16110
693.407	16863
693.450	16955
693.485	17135
693.493	17354
693.537	18603
693.580	19555
693.605	20285
693.624	21908
693.667	25467
693.710	29441
693.725	30721
693.753	37729
693.797	49004
693.840	60659
693.845	61764
693.883	58889
693.926	55290
693.966	52391
693.970	51476
694.013	40749
694.056	30612
694.086	23249
694.099	22519
694.142	20560
694.185	18159
694.206	17242
694.229	17358
694.272	16955
694.315	17034
694.326	16907
694.358	17323
694.401	18166
694.444	19074
694.446	19074
694.487	18537
694.530	17634
694.566	17023
694.573	16887
694.616	15755
694.659	14773
694.686	13941
694.702	13946
694.745	14210
694.787	14029
694.806	14130
694.830	14275
694.873	14257
694.916	14348
694.926	14219
694.959	14080
695.002	14766
695.044	14693
695.046	14671
695.087	15087
695.130	15330
695.166	15603
695.172	15638
695.215	15400
695.258	15645
695.286	15306
695.301	15165
695.343	15316
695.386	14886
695.406	14876
695.428	15038
695.471	15110
695.514	15227
695.526	15213
695.556	15486
695.599	15756
695.641	16019
695.646	16025
695.684	15711
695.726	15158
695.766	14643
695.769	14682
695.811	14860
695.854	14973
695.886	14998
695.896	15095
695.938	15349
695.981	15371
696.005	15682
696.023	16000
696.065	16201
696.108	16562
696.125	16690
696.150	16618
696.192	16394
696.235	16118
696.245	16018
696.277	16049
696.319	15960
696.361	16001
696.365	15954
696.404	15929
696.446	16040
696.485	16018
696.488	16080
696.530	16320
696.572	16673
696.604	16861
696.614	16866
696.656	16663
696.698	16566
696.724	16418
696.740	16379
696.783	16153
696.825	16005
696.844	15910
696.867	15990
696.909	15905
696.951	16009
696.964	15945
696.992	15945
697.034	16072
697.076	16054
697.083	16016
697.118	16244
697.160	16521
697.202	16799
697.203	16761
697.244	16216
697.286	15856
697.323	15271
697.327	15369
697.369	16087
697.411	16786
697.442	17204
697.453	17214
697.494	17070
697.536	16988
697.562	16912
697.578	16981
697.620	17021
697.661	16967
697.682	16949
697.703	17380
697.744	18074
697.786	18900
697.801	19137
697.828	19387
697.869	19571
697.911	19870
697.921	19890
697.952	19186
697.994	18168
698.035	17194
698.040	17021
698.077	16589
698.118	16138
698.160	15644
698.160	15600
698.201	15942
698.243	16231
698.279	16500
698.284	16599
698.325	17079
698.367	17553
698.399	17871
698.408	17851
698.449	17569
698.491	17282
698.518	17032
698.532	17151
698.573	17394
698.614	17657
698.638	17720
698.656	17694
698.697	17585
698.738	17446
698.757	17359
698.779	17624
698.820	18002
698.862	18367
698.877	18464
698.903	18414
698.944	18258
698.985	18087
698.996	17997
699.026	17892
699.067	17681
699.116	17386
699.235	16855
699.354	16469
699.474	17005
699.593	17776
699.713	17644
699.832	17996
699.951	17850
700.070	18076
700.190	15881
700.309	16827
700.428	17153
700.547	16998
700.667	16533
700.786	16976
700.905	16132
701.024	16841
701.143	16672
701.262	15620
701.381	16105
701.500	16104
701.619	18166
701.738	15635
701.857	16488
701.976	15630
702.095	16181
702.214	17384
702.333	17341
702.452	16978
702.571	15160
702.690	14651
702.809	14461
702.928	15150
703.047	14321
703.165	14826
703.284	14072
703.403	14762
703.522	15526
703.640	15091
703.759	16564
703.878	19703
703.997	14768
704.115	14085
704.234	14028
704.353	14143
704.471	13698
704.590	13933
704.708	13964
704.827	13543
704.946	14015
705.064	14334
705.183	14188
705.301	15507
705.420	19905
705.538	18081
705.656	15768
705.775	15224
705.893	19338
706.012	19312
706.130	17288
706.249	16952
706.367	15686
706.485	16766
706.604	15989
706.722	17584
706.840	19285
706.958	17808
707.077	16543
707.195	15976
707.313	15867
707.431	15548
707.549	15080
707.668	14957
707.786	15053
707.904	14609
708.022	14949
708.140	13910
708.258	15279
708.376	14782
708.494	14493
708.612	16469
708.730	21216
708.848	19663
708.966	19018
709.084	18375
709.202	17623
709.320	17353
709.438	16369
709.556	17686
709.674	16947
709.791	16894
709.909	15525
710.027	17468
710.145	15768
710.263	15715
710.380	16419
710.498	15866
710.616	15334
710.733	15850
710.851	15284
710.969	16528
711.086	15475
711.204	15535
711.322	16066
711.439	15789
711.557	14895
711.674	15060
711.792	15130
711.909	15358
712.027	15310
712.144	14738
712.262	15450
712.379	16238
712.497	21455
712.614	20884
712.732	19034
712.849	17281
712.966	19141
713.084	22175
713.201	18343
713.318	18250
713.436	17468
713.553	18163
713.670	19445
713.787	20608
713.905	20216
714.022	19163
714.139	18402
714.256	22331
714.373	28533
714.490	47946
714.608	121480
714.725	509869
714.842	503498
714.959	44321
715.076	23593
715.193	19687
715.310	19158
715.427	17283
715.544	16551
715.661	16802
715.778	15844
715.895	17566
716.011	17591
716.128	16193
716.245	16217
716.362	19519
716.479	19215
716.596	15757
716.713	15036
716.829	14822
716.946	14942
717.063	14761
717.180	13903
717.296	13977
717.413	14886
717.530	14204
717.646	14282
717.763	14538
717.880	14059
717.996	14673
718.113	13912
718.229	13703
718.346	13089
718.462	14048
718.579	16689
718.695	28520
718.812	19371
718.928	16747
719.045	14636
719.161	13455
719.277	13069
719.394	13046
719.510	13947
719.626	14668
719.743	17041
719.859	23242
719.975	41033
720.092	155442
720.208	354169
720.324	42941
720.440	17087
720.557	17210
720.673	23694
720.789	25363
720.905	39584
721.021	18517
721.137	12772
721.253	12930
721.369	13329
721.486	13347
721.602	16288
721.718	11997
721.834	12320
721.950	12237
722.066	11650
722.181	11792
722.297	12139
722.413	11982
722.529	10425
722.645	10790
722.761	10153
722.877	11975
722.993	10643
723.108	12680
723.224	10973
723.340	10391
723.456	10444
723.571	10328
723.687	9759
723.803	10629
723.918	10178
724.034	10956
724.150	9360
724.265	11295
724.381	18103
724.497	20090
724.612	9485
724.728	9277
724.843	9806
724.959	10583
725.074	16811
725.190	18918
725.305	10409
725.421	10233
725.536	8859
725.651	9118
725.767	8982
725.882	9599
725.997	9466
726.113	9462
726.228	8650
726.343	8536
726.459	8480
726.574	8968
726.689	8485
726.804	8570
726.920	8943
727.035	8859
727.150	8698
727.265	8505
727.380	8150
727.495	8245
727.610	8250
727.725	8463
727.841	8004
727.956	9795
728.071	9979
728.186	8316
728.301	7867
728.416	8557
728.531	8100
728.645	8361
728.760	7829
728.875	8695
728.990	8144
729.105	8349
729.220	9055
729.335	8545
729.449	8191
729.564	7353
729.679	7604
729.794	7641
729.908	9149
730.023	8218
730.138	6629
730.253	8652
730.367	6807
730.482	6660
730.596	8140
730.711	7585
730.826	8168
730.940	8825
731.055	7916
731.169	7727
731.284	7230
731.398	7814
731.513	8069
731.627	8303
731.742	9284
731.856	9944
731.970	10004
732.085	11235
732.199	15799
732.313	24879
732.428	65708
732.542	205467
732.656	115226
732.771	19812
732.885	12281
732.999	10884
733.113	10054
733.227	9299
733.342	9806
733.456	8710
733.570	8973
733.684	8548
733.798	7547
733.912	8311
734.026	7896
734.140	8474
734.254	8782
734.368	12098
734.482	12885
734.596	7360
734.710	6889
734.824	8062
734.938	6677
735.052	7153
735.166	8477
735.280	7401
735.393	8048
735.507	7803
735.621	8980
735.735	13319
735.849	7556
735.962	6783
736.076	6574
736.190	7971
736.303	9041
736.417	10091
736.531	7554
736.644	6800
736.758	5721
736.872	6773
736.985	6845
737.099	7791
737.212	6133
737.326	7290
737.439	6351
737.553	7019
737.666	6371
737.780	5903
737.893	6675
738.007	6473
738.120	5851
738.233	6056
738.347	5825
738.460	6522
738.573	6691
738.687	6654
738.800	7610
738.913	9326
739.026	7317
739.140	6602
739.253	5224
739.366	6128
739.479	5655
739.592	5105
739.705	6142
739.818	6244
739.932	6320
740.045	6215
740.158	6073
740.271	5833
740.384	5752
740.497	5643
740.610	6658
740.723	6712
740.836	6158
740.949	6526
741.062	8167
741.174	7244
741.287	6106
741.400	5030
741.513	5743
741.626	6431
741.739	5620
741.851	6296
741.964	5039
742.077	4926
742.189	4984
742.302	6362
742.415	5877
742.527	5828
742.640	6099
742.753	5892
742.865	5715
742.978	5571
743.090	5471
743.203	4795
743.316	5283
743.428	6035
743.541	5645
743.653	5649
743.766	4124
743.878	6032
743.990	6049
744.103	6178
744.215	5196
744.327	5900
744.440	7492
744.552	10581
744.664	5806
744.777	5382
744.889	5817
745.001	5143
745.113	5025
745.226	4330
745.338	5787
745.450	5827
745.562	5261
745.674	5167
745.786	4882
745.898	5181
746.010	5112
746.122	5023
746.234	5413
746.347	5588
746.459	5304
746.570	4383
746.682	4582
746.794	4522
746.906	4178
747.018	4612
747.130	4838
747.242	4517
747.354	4552
747.466	4600
747.577	5005
747.689	5370
747.801	4848
747.913	4101
748.024	4987
748.136	4475
748.248	4301
748.359	4557
748.471	4903
748.583	5144
748.694	3752
748.806	5947
748.918	4635
749.029	5083
749.141	4888
749.252	5859
749.364	6357
749.475	12243
749.587	6654
749.698	4278
749.809	4720
749.921	4241
750.032	4498
750.144	3543
750.255	3222
750.366	3701
750.478	4057
750.589	4378
750.700	4450
750.811	5383
750.923	6276
751.034	13292
751.145	13237
751.256	4449
751.367	4345
751.479	4534
751.590	3437
751.701	3619
751.812	3382
751.923	3652
752.034	4497
752.145	4522
752.256	3207
752.367	3338
752.478	4070
752.589	3932
752.700	4073
752.811	3714
752.922	4282
753.032	4403
753.143	4835
753.254	3699
753.365	3922
753.476	3803
753.586	4042
753.697	3772
753.808	5223
753.919	3686
754.029	3234
754.140	3973
754.251	4374
754.361	4308
754.472	4586
754.582	3363
754.693	3827
754.804	4248
754.914	3568
755.025	3068
755.135	3631
755.246	3211
755.356	3680
755.466	3853
755.577	3489
755.687	4440
755.798	2955
755.908	3719
756.018	3717
756.129	4573
756.239	3456
756.349	4337
756.460	3264
756.570	3895
756.680	3414
756.790	3739
756.900	4721
757.011	3826
757.121	4381
757.231	3391
757.341	3671
757.451	3452
757.561	3011
757.671	3950
757.781	3006
757.891	4191
758.001	3900
758.111	4303
758.221	3962
758.331	4983
758.441	4583
758.551	6885
758.661	5867
758.771	4661
758.880	3565
758.990	4374
759.100	4533
759.210	3852
759.320	4742
759.429	4473
759.539	4712
759.649	4865
759.758	5015
759.868	5912
759.978	5476
760.087	6120
760.197	5214
760.307	5529
760.416	5212
760.526	4304
760.635	5447
760.745	5546
760.854	5208
760.964	6536
761.073	6136
761.182	6071
761.292	5658
761.401	5952
761.511	4610
761.620	4914
761.729	5458
761.839	5617
761.948	5466
762.057	4502
762.166	5356
762.276	4409
762.385	5003
762.494	4572
762.603	5114
762.712	5148
762.822	4890
762.931	5737
763.040	4726
763.149	4793
763.258	5416
763.367	6374
763.476	5844
763.585	5480
763.694	6728
763.803	6635
763.912	6541
764.021	7783
764.130	6818
764.238	7132
764.347	7566
764.456	7985
764.565	8047
764.674	9086
764.783	8799
764.891	8973
765.000	10981
765.109	12856
765.217	13830
765.326	16666
765.435	19014
765.543	22710
765.652	26125
765.761	34659
765.869	49435
765.978	74677
766.086	123290
766.195	231696
766.303	485413
766.412	822710
766.520	705787
766.629	404496
766.737	177273
766.846	100270
766.954	63961
767.062	46855
767.171	34290
767.279	27427
767.387	22057
767.496	17218
767.604	17565
767.712	14466
767.820	13424
767.928	12607
768.037	11043
768.145	11120
768.253	11221
768.361	10335
768.469	9809
768.577	10430
768.685	10016
768.793	12107
768.901	12955
769.009	15500
769.117	16593
769.225	21704
769.333	31019
769.441	49341
769.549	86664
769.657	186043
769.765	477250
769.873	675535
769.981	397394
770.088	135914
770.196	65670
770.304	41279
770.412	30057
770.519	22231
770.627	18048
770.735	14827
770.842	13481
770.950	11228
771.058	10215
771.165	9631
771.273	8841
771.380	8409
771.488	8104
771.595	6946
771.703	7243
771.810	7455
771.918	6674
772.025	6407
772.133	6733
772.240	6600
772.348	7671
772.455	6421
772.562	5641
772.670	6002
772.777	6331
772.884	4856
772.991	5525
773.099	6363
773.206	5278
773.313	5891
773.420	5904
773.528	4165
773.635	4331
773.742	5353
773.849	4671
773.956	4710
774.063	4492
774.170	4698
774.277	5318
774.384	4593
774.491	4660
774.598	4759
774.705	5326
774.812	6561
774.919	5501
775.026	6018
775.133	4866
775.239	5064
775.346	4377
775.453	5127
775.560	4304
775.667	4169
775.773	4339
775.880	5152
775.987	5180
776.093	4912
776.200	3930
776.307	3694
776.413	3787
776.520	4516
776.627	5404
776.733	4952
776.840	2618
776.946	4892
777.053	4357
777.159	4000
777.266	2610
777.372	5573
777.478	3667
777.585	4274
777.691	3939
777.798	4878
777.904	4818
778.010	6281
778.117	5878
778.223	3761
778.329	3903
778.435	4168
778.542	3868
778.648	4079
778.754	2679
778.860	3599
778.966	3150
779.072	3214
779.178	3654
779.284	3427
779.391	3141
779.497	2977
779.603	6162
779.708	4139
779.815	8905
779.920	26265
780.026	53276
780.132	8726
780.238	3552
780.344	4135
780.450	4218
780.556	2832
780.661	2880
780.767	3579
780.873	2841
780.979	4445
781.085	3009
781.190	3724
781.296	2859
781.402	2852
781.507	2617
781.613	3130
781.719	2365
781.824	3328
781.930	3377
782.035	3143
782.141	3074
782.246	2990
782.352	2537
782.457	2654
782.563	2561
782.668	2722
782.773	3386
782.879	2295
782.984	3351
783.090	4536
783.195	5971
783.300	4456
783.405	3376
783.511	3712
783.616	4072
783.721	3350
783.826	1903
783.932	3500
784.037	3285
784.142	3064
784.247	2633
784.352	2819
784.457	2766
784.562	2800
784.667	2302
784.772	3849
784.877	2383
784.982	3188
785.087	1652
785.192	3575
785.297	2363
785.402	3643
785.507	2466
785.611	2942
785.716	3154
785.821	2950
785.926	1942
786.031	1737
786.135	2463
786.240	2631
786.345	1947
786.450	3384
786.554	2587
786.659	2451
786.763	1312
786.868	3792
786.973	3055
787.077	1868
787.182	2623
787.286	2765
787.391	2719
787.495	1737
787.600	2345
787.704	1846
787.809	2083
787.913	1554
788.017	2617
788.122	2153
788.226	2688
788.330	1512
788.435	1385
788.539	2542
788.643	2402
788.747	2144
788.852	1926
788.956	1885
789.060	2204
789.164	2344
789.268	1560
789.372	2169
789.476	2081
789.580	1681
789.684	1299
789.788	2481
789.892	2142
789.996	3016
790.100	2046
790.204	2234
790.308	2777
790.412	2409
790.516	1816
790.620	1282
790.724	2274
790.828	1209
790.931	1508
791.035	2920
791.139	1548
791.242	1608
791.346	2998
791.450	1981
791.554	1685
791.657	1228
791.761	2713
791.864	2608
791.968	2460
792.072	2793
792.175	1651
792.279	1790
792.382	871
792.486	1569
792.589	1315
792.693	1682
792.796	658
792.899	2674
793.003	1977
793.106	1218
793.209	2164
793.313	2555
793.416	1375
793.519	3615
793.623	3956
793.726	5282
793.829	2073
793.932	1991
794.035	996
794.138	3330
794.242	2108
794.345	2193
794.448	3199
794.551	6671
794.654	14132
794.757	26217
794.860	5287
794.963	2416
795.066	1291
795.169	2340
795.272	2043
795.375	2229
795.477	1116
795.580	2057
795.683	581
795.786	1552
795.889	675
795.991	3164
796.094	2472
796.197	1010
796.300	3092
796.402	1176
796.505	325
796.608	1330
796.710	2817
796.813	1874
796.915	889
797.018	2487
797.120	1354
797.223	287
797.326	2860
797.428	1780
797.530	1135
797.633	387
797.735	2558
797.838	3375
797.940	2752
798.042	1517
798.145	1432
798.247	2602
798.349	244
798.452	2286
798.554	626
798.656	691
798.758	2387
798.860	1725
798.962	1149
799.065	658
799.167	985
799.269	2177
799.371	2100
799.473	2773
799.575	1515
799.677	1907
799.779	3522
799.881	2498
799.983	3330
800.085	2033
800.187	1301
800.289	432
800.390	1275
800.492	2155
800.594	2213
800.696	1029
800.798	1406
800.899	760
801.001	1033
801.103	2326
801.205	1344
801.306	1770
801.408	190
801.509	1859
801.611	798
801.713	1417
801.814	548
801.916	1520
802.017	883
802.119	350
802.220	1553
802.322	-604
802.423	3897
802.525	821
802.626	1404
802.727	1153
802.829	1443
802.930	-647
803.031	2685
803.133	762
803.234	918
803.335	1295
803.436	646
803.538	1630
803.639	542
803.740	1452
803.841	822
803.942	1010
804.043	1631
804.144	881
804.245	656
804.346	995
804.447	673
804.548	2508
804.649	3041
804.750	777
804.851	774
804.952	915
805.053	906
805.154	-798
805.255	1434
805.355	1042
805.456	699
805.557	1365
805.658	142
805.758	1199
805.859	1469
805.960	987
806.061	322
806.161	787
806.262	875
806.362	1246
806.463	1040
806.564	1503
806.664	1102
806.765	1351
806.865	1758
806.966	791
807.066	278
807.166	1773
807.267	1883
807.367	1023
807.468	1675
807.568	815
807.668	1189
807.769	1808
807.869	430
807.969	951
808.069	1622
808.170	554
808.270	471
808.370	1501
808.470	2246
808.570	997
808.670	155
808.770	1415
808.870	-332
808.970	1606
809.070	623
809.170	526
809.271	1615
809.370	156
809.470	1590
809.570	1254
809.670	90
809.770	1125
809.870	1556
809.970	560
810.070	369
810.169	361
810.269	-298
810.369	2283
810.469	632
810.568	736
810.668	630
810.768	879
810.867	962
810.967	302
811.066	907
811.166	928
811.265	776
811.365	951
811.464	1123
811.564	1788
811.663	2106
811.763	-52
811.862	1324
811.962	1568
812.061	768
812.160	441
812.260	1214
812.359	656
812.458	926
812.557	5529
812.657	6287
812.756	2099
812.855	715
812.954	476
813.053	1026
813.153	907
813.252	-4
813.351	805
813.450	684
813.549	1023
813.648	705
813.747	155
813.846	247
813.945	-380
814.044	890
814.143	1891
814.242	992
814.341	762
814.439	1012
814.538	1239
814.637	885
814.736	954
814.835	1629
814.933	702
815.032	590
815.131	1384
815.229	2219
815.328	2869
815.427	2254
815.525	2614
815.624	1511
815.722	1522
815.821	1456
815.919	1072
816.018	1298
816.116	2284
816.215	1235
816.313	2343
816.412	1818
816.510	2447
816.609	3055
816.707	2640
816.805	2841
816.904	2597
817.002	2952
817.100	3932
817.198	4120
817.296	3360
817.395	3631
817.493	5484
817.591	4772
817.689	7340
817.787	9550
817.885	15919
817.983	26680
818.081	57182
818.179	138078
818.277	334305
818.375	295583
818.473	82178
818.571	31644
818.669	20041
818.767	17404
818.865	17765
818.963	20944
819.061	29295
819.158	52430
819.256	110218
819.354	248639
819.452	499083
819.549	350703
819.647	108813
819.745	43730
819.842	26274
819.940	17840
820.038	12678
820.135	10530
820.233	9103
820.330	6443
820.428	5298
820.525	5705
820.623	4717
820.720	3375
820.818	3757
820.915	3630
821.012	3854
821.110	2521
821.207	3668
821.304	2557
821.402	2493
821.499	2458
821.596	2286
821.693	2657
821.791	3027
821.888	3633
821.985	6992
822.082	5081
822.179	2811
822.276	1632
822.373	1350
822.470	1207
822.567	1585
822.664	1152
822.761	1921
822.858	741
822.955	1709
823.052	1737
823.149	1432
823.246	1544
823.343	595
823.440	2153
823.536	1765
823.633	1282
823.730	274
823.827	1224
823.923	1440
824.020	2701
824.117	1630
824.213	-204
824.310	1721
824.407	1444
824.503	956
824.600	1270
824.696	1234
824.793	1784
824.889	1131
824.986	350
825.082	1080
825.179	1482
825.275	968
825.371	1175
825.468	1393
825.564	165
825.660	1630
825.757	1377
825.853	1384
825.949	597
826.045	1317
826.142	75
826.238	1089
826.334	1250
826.430	161
826.526	786
826.622	1405
826.718	1205
826.814	709
826.910	2012
827.006	228
827.102	532
827.198	1195
827.294	995
827.390	511
827.486	1851
827.582	-346
827.678	-9
827.774	1776
827.869	-886
827.965	1700
828.061	-167
828.157	499
828.252	1321
828.348	-449
828.444	1551
828.539	-91
828.635	671
828.731	1200
828.826	518
828.922	1304
829.017	293
829.113	1544
829.208	627
829.304	170
829.399	1663
829.495	794
829.590	1414
829.685	-64
829.781	482
829.876	1262
829.971	10
830.066	284
830.162	439
830.257	488
830.352	169
830.447	1123
830.543	534
830.638	-213
830.733	1430
830.828	980
830.923	1279
831.018	524
831.113	557
831.208	349
831.303	-93
831.398	60
831.493	363
831.588	470
831.683	-470
831.778	1390
831.873	132
831.967	803
832.062	230
832.157	889
832.252	1015
832.346	617
832.441	2085
832.536	2547
832.631	7306
832.725	6189
832.820	485
832.914	491
833.009	358
833.104	1283
833.198	2315
833.293	937
833.387	651
833.482	872
833.576	114
833.670	230
833.765	648
833.859	668
833.954	1496
834.048	660
834.142	694
834.237	90
834.331	164
834.425	766
834.519	28
834.613	1039
834.708	-271
834.802	583
834.896	-278
834.990	372
835.084	745
835.178	293
835.272	488
835.366	-142
835.460	740
835.554	110
835.648	271
835.742	-346
835.836	192
835.930	-613
836.024	720
836.117	689
836.211	-78
836.305	553
836.399	1136
836.493	-577
836.586	998
836.680	406
836.774	111
836.867	376
836.961	-259
837.055	-738
837.148	-200
837.242	-12
837.335	280
837.429	-12
837.522	49
837.616	805
837.709	1777
837.803	875
837.896	160
837.989	855
838.083	572
838.176	1646
838.269	1353
838.363	844
838.456	215
838.549	2658
838.642	3143
838.735	8679
838.829	2524
838.922	319
839.015	777
839.108	-428
839.201	-212
839.294	706
839.387	784
839.480	-731
839.573	-121
839.666	520
839.759	-67
839.852	-667
839.945	499
840.038	43
840.131	235
840.223	-263
840.316	948
840.409	1171
840.502	-793
840.594	1336
840.687	-315
840.780	459
840.873	-324
840.965	87
841.058	450
841.150	1923
841.243	857
841.336	282
841.428	232
841.521	66
841.613	-1189
841.706	823
841.798	-162
841.890	661
841.983	-193
842.075	1219
842.167	234
842.260	273
842.352	1093
842.444	1431
842.537	1740
842.629	3729
842.721	736
842.813	309
842.905	-1134
842.997	655
843.090	1061
843.182	1064
843.274	1806
843.366	6607
843.458	11513
843.550	7238
843.642	893
843.734	950
843.826	-360
843.918	433
844.009	-116
844.101	724
844.193	-429
844.285	89
844.377	38
844.469	726
844.560	85
844.652	325
844.744	-65
844.835	450
844.927	985
845.019	200
845.110	494
845.202	-133
845.293	43
845.385	-857
845.476	281
845.568	1279
845.659	858
845.751	476
845.842	634
845.934	-321
846.025	74
846.116	207
846.208	158
846.299	736
846.390	-192
846.482	610
846.573	152
846.664	1010
846.755	1291
846.846	1998
846.937	-976
847.029	1050
847.120	-762
847.211	189
847.302	1173
847.393	-540
847.484	188
847.575	7
847.666	-325
847.757	-754
847.847	-349
847.938	484
848.029	-360
848.120	242
848.211	357
848.302	-319
848.392	-431
848.483	367
848.574	46
848.664	-147
848.755	-219
848.846	-243
848.936	-982
849.027	492
849.118	370
849.208	-192
849.299	373
849.389	2827
849.480	3829
849.570	8157
849.661	15983
849.751	28701
849.841	10466
849.932	1792
850.022	38
850.112	940
850.203	391
850.293	-256
850.383	-245
850.474	-453
850.564	-167
850.654	-489
850.744	-132
850.834	-270
850.924	-347
851.014	914
851.104	167
851.194	-95
851.284	357
851.374	1900
851.464	603
851.554	737
851.644	-148
851.734	1457
851.824	445
851.914	194
852.004	737
852.094	17
852.183	-251
852.273	919
852.363	485
852.452	109
852.542	125
852.632	587
852.721	-791
852.811	-406
852.901	148
852.990	-215
853.080	-245
853.169	151
853.259	869
853.348	580
853.438	412
853.527	1573
853.617	1898
853.706	5047
853.795	9114
853.885	24781
853.974	49174
854.063	90987
854.152	147181
854.242	56341
854.331	8240
854.420	3189
854.509	1570
854.598	2061
854.687	864
854.777	1736
854.866	507
854.955	1075
855.044	133
855.133	246
855.222	-14
855.311	-66
855.400	1
855.488	-179
855.577	260
855.666	-122
855.755	483
855.844	320
855.933	-781
856.021	-6
856.110	544
856.199	-816
856.288	-237
856.376	-877
856.465	-515
856.554	16
856.642	-287
856.731	371
856.819	-308
856.908	-108
856.996	-175
857.085	-280
857.173	-527
857.262	-860
857.350	-349
857.438	-282
857.527	90
857.615	-458
857.703	530
857.792	-199
857.880	-503
857.968	-120
858.056	444
858.145	-204
858.233	-179
858.321	-450
858.409	-341
858.497	-372
858.585	-806
858.673	-63
858.761	-548
858.849	-8
858.937	-540
859.025	-693
859.113	-237
859.201	-1098
859.289	359
859.377	-1126
859.465	406
859.552	-72
859.640	-314
859.728	278
859.816	95
859.903	-293
859.991	-165
860.079	352
860.166	-139
860.254	-749
860.342	-1
860.429	-148
860.517	-426
860.604	-525
860.692	-584
860.779	27
860.867	-175
860.954	8
861.042	-105
861.129	1615
861.216	-338
861.304	-534
861.391	-128
861.478	-248
861.565	-242
861.653	421
861.740	-179
861.827	-62
861.914	-77
862.001	-752
862.089	64
862.176	-267
862.263	-867
862.350	760
862.437	-607
862.524	73
862.611	-736
862.698	-488
862.785	-744
862.871	-63
862.958	-714
863.045	115
863.132	-250
863.219	624
863.306	-775
863.392	221
863.479	-408
863.566	-456
863.652	155
863.739	-515
863.826	-412
863.912	12
863.999	-492
864.086	-177
864.172	-1201
864.259	-419
864.345	-560
864.432	203
864.518	-216
864.604	456
864.691	-243
864.777	-764
864.863	-444
864.950	744
865.036	217
865.122	1761
865.209	974
865.295	1450
865.381	1120
865.467	552
865.553	2364
865.639	2948
865.726	6310
865.812	11956
865.898	25569
865.984	38590
866.070	73357
866.156	81712
866.242	19871
866.328	3805
866.414	1755
866.499	2399
866.585	1750
866.671	1083
866.757	922
866.843	830
866.928	837
867.014	620
867.100	1154
867.186	550
867.271	1145
867.357	1479
867.442	1666
867.528	943
867.614	712
867.699	133
867.785	475
867.870	239
867.956	663
868.041	936
868.127	139
868.212	747
868.297	437
868.383	599
868.468	2063
868.553	4091
868.639	4669
868.724	9515
868.809	9046
868.894	1337
868.979	250
869.065	660
869.150	-503
869.235	-54
869.320	-222
869.405	-823
869.490	-509
869.575	-216
869.660	20
869.745	514
869.830	-374
869.915	-404
870.000	144
870.085	9
870.169	-161
870.254	503
870.339	-982
870.424	-697
870.509	32
870.593	323
870.678	495
870.763	217
870.847	779
870.932	-75
871.016	-774
871.101	-449
871.186	-726
871.270	465
871.355	97
871.439	599
871.523	837
871.608	138
871.692	62
871.777	-233
871.861	12
871.945	-54
872.030	-21
872.114	-200
872.198	-129
872.282	525
872.367	-863
872.451	-392
872.535	36
872.619	-56
872.703	-136
872.787	353
872.871	-661
872.955	259
873.039	185
873.123	-280
873.207	-176
873.291	626
873.375	-798
873.459	370
873.543	-391
873.627	-1025
873.711	-48
873.794	-31
873.878	-106
873.962	-443
874.045	-649
874.129	-689
874.137	-610
874.213	181
874.245	-98
874.296	-550
874.352	-843
874.380	-983
874.460	-473
874.464	-453
874.547	-530
874.568	-339
874.631	229
874.676	-188
874.714	-525
874.784	-109
874.798	-35
874.881	1071
874.892	849
874.965	-633
874.999	-357
875.048	2
875.107	-304
875.131	-435
875.215	-758
875.215	-758
875.298	-791
875.323	-618
875.381	-217
875.430	-248
875.465	-233
875.538	-87
875.548	-81
875.631	-25
875.646	-92
875.714	-370
875.753	-92
875.798	245
875.861	-42
875.881	-151
875.964	372
875.968	316
876.047	-615
876.076	-544
876.130	-416
876.183	-88
876.213	69
876.291	-299
876.296	-320
876.379	-69
876.398	-178
876.462	-550
876.506	-747
876.545	-921
876.613	-59
876.628	110
876.711	-108
876.721	-140
876.794	-321
876.828	-560
876.877	-853
876.935	-733
876.960	-686
877.043	75
877.043	77
877.125	523
877.150	379
877.208	60
877.258	90
877.291	117
877.365	55
877.374	52
877.456	248
877.472	193
877.539	-100
877.579	326
877.622	762
877.687	113
877.704	-45
877.787	-366
877.794	-383
877.869	-503
877.901	-3
877.952	712
878.008	-14
878.034	-346
878.115	-416
878.117	-415
878.199	-510
878.222	-294
878.282	227
878.329	114
878.364	22
878.437	-14
878.447	-17
878.529	-435
878.544	-374
878.611	-145
878.651	-186
878.694	-195
878.758	-208
878.776	-192
878.858	-606
878.865	-559
878.941	-237
878.972	-378
879.023	-476
879.078	-810
879.105	-912
879.185	157
879.187	173
879.269	-63
879.292	-156
879.351	-376
879.399	-239
879.433	-92
879.506	-402
879.516	-412
879.598	144
879.613	104
879.680	-564
879.720	-275
879.762	330
879.827	-39
879.844	-204
879.926	73
879.933	94
880.007	416
880.040	389
880.089	210
880.147	740
880.171	1052
880.253	2614
880.254	2625
880.335	3819
880.360	4221
880.417	5360
880.467	8040
880.499	9538
880.574	10626
880.580	10689
880.662	2708
880.680	2238
880.744	600
880.787	392
880.825	262
880.893	-102
880.907	-178
880.989	-136
881.000	-172
881.070	-236
881.106	-217
881.152	-273
881.213	-213
881.233	-261
881.315	-595
881.319	-606
881.396	5
881.426	-4
881.478	-522
881.532	-433
881.559	-280
881.639	-361
881.641	-366
881.722	-244
881.745	-224
881.803	198
881.852	303
881.885	150
881.958	266
881.966	289
882.047	375
882.064	388
882.129	673
882.171	953
882.210	1155
882.277	1642
882.291	1699
882.372	338
882.383	299
882.454	128
882.489	-25
882.535	-71
882.596	30
882.616	-25
882.697	-348
882.702	-349
882.778	385
882.808	630
882.859	324
882.914	-219
882.940	-212
883.020	134
883.021	134
883.102	-271
883.127	-389
883.183	-186
883.233	73
883.264	146
883.339	49
883.345	30
883.426	-132
883.445	-117
883.507	248
883.551	234
883.587	45
883.657	421
883.668	484
883.749	74
883.763	19
883.830	-135
883.869	-95
883.910	-135
883.975	-168
883.991	-122
884.072	-453
884.081	-446
884.152	-413
884.187	-167
884.233	152
884.292	-62
884.314	-122
884.394	-274
884.398	-276
884.475	-164
884.504	-81
884.555	-12
884.610	144
884.636	169
884.716	-161
884.716	-162
884.797	-206
884.821	-339
884.877	-221
884.927	180
884.958	153
885.033	-212
885.038	-200
885.118	-309
885.139	-162
885.199	29
885.244	-11
885.279	-4
885.350	-13
885.359	-5
885.439	-23
885.456	-37
885.520	-13
885.561	68
885.600	-270
885.667	-948
885.680	-827
885.760	68
885.773	204
885.840	107
885.878	-29
885.920	-241
885.984	-558
886.000	-528
886.080	-330
886.089	-302
886.160	-34
886.195	114
886.240	309
886.300	349
886.320	208
886.400	-100
886.406	-129
886.480	-153
886.511	-118
886.560	-211
886.616	-544
886.640	-450
886.720	52
886.722	59
886.800	-199
886.827	-217
886.879	-120
886.932	-138
886.959	-177
887.038	-198
887.039	-195
887.119	-111
887.143	-35
887.198	261
887.248	436
887.278	199
887.354	-433
887.358	-417
887.437	40
887.459	130
887.517	288
887.564	431
887.596	332
887.669	-39
887.676	-51
887.755	-9
887.774	-50
887.835	120
887.880	318
887.914	240
887.985	87
887.994	111
888.073	217
888.090	236
888.153	208
888.195	185
888.232	29
888.300	-200
888.311	-131
888.391	333
888.405	410
888.470	334
888.510	263
888.549	286
888.615	379
888.628	362
888.708	136
888.720	116
888.787	368
888.825	477
888.866	135
888.930	-401
888.945	-287
889.024	368
889.035	452
889.103	262
889.140	141
889.182	-158
889.245	-570
889.261	-479
889.340	-41
889.349	10
889.419	346
889.454	511
889.498	168
889.559	-294
889.577	-198
889.656	221
889.664	264
889.735	175
889.768	129
889.814	159
889.873	204
889.978	221
890.083	-235
890.187	122
890.292	-5
890.397	-145
890.501	556
890.606	-172
890.710	318
890.815	417
890.919	-688
891.024	105
891.128	595
891.233	-413
891.337	229
891.442	-295
891.546	475
891.650	-112
891.755	6
891.859	893
891.963	31
892.068	-110
892.172	154
892.276	411
892.380	-48
892.484	-285
892.589	486
892.693	-39
892.797	-190
892.901	144
893.005	-359
893.109	-148
893.213	922
893.317	1126
893.421	578
893.525	-366
893.629	400
893.733	-385
893.837	548
893.941	722
894.045	-225
894.148	361
894.252	-459
894.356	-99
894.460	247
894.564	341
894.667	-604
894.771	-766
894.875	43
894.978	-660
895.082	-507
895.186	-165
895.289	294
895.393	503
895.496	250
895.600	-642
895.703	266
895.807	345
895.910	224
896.014	-130
896.117	-204
896.221	-65
896.324	26
896.427	-210
896.531	-97
896.634	-159
896.737	-102
896.840	687
896.944	-317
897.047	8
897.150	-184
897.253	23
897.356	509
897.460	343
897.563	-720
897.666	217
897.769	-113
897.872	-421
897.975	327
898.078	422
898.181	96
898.284	-145
898.387	-121
898.490	-20
898.593	142
898.695	405
898.798	-128
898.901	46
899.004	-6
899.107	-465
899.209	220
899.312	65
899.415	-261
899.518	247
899.620	19
899.723	-136
899.826	105
899.928	-61
900.031	-258
900.133	-390
900.236	560
900.338	810
900.441	-469
900.543	-371
900.646	-497
900.748	-529
900.851	-529
900.953	245
901.055	850
901.158	243
901.260	213
901.362	254
901.465	-318
901.567	-180
901.669	506
901.771	-322
901.873	-312
901.976	290
902.078	-290
902.180	-659
902.282	364
902.384	-194
902.486	-275
902.588	257
902.690	-229
902.792	280
902.894	101
902.996	-41
903.098	-336
903.200	159
903.302	65
903.404	-397
903.505	-648
903.607	79
903.709	95
903.811	24
903.913	866
904.014	-241
904.116	-146
904.218	37
904.319	246
904.421	642
904.523	-474
904.624	-267
904.726	-406
904.827	50
904.929	409
905.030	-64
905.132	42
905.233	479
905.335	-498
905.436	103
905.537	-846
905.639	30
905.740	593
905.841	51
905.943	-1110
906.044	-401
906.145	-387
906.247	-173
906.348	90
906.449	-228
906.550	-179
906.651	635
906.752	-527
906.854	-854
906.955	-534
907.056	-435
907.157	66
907.258	47
907.359	100
907.460	-683
907.561	-58
907.662	-110
907.762	-225
907.863	67
907.964	-372
908.065	-198
908.166	-490
908.267	-539
908.367	-340
908.468	-780
908.569	-123
908.670	336
908.770	-168
908.871	532
908.971	-881
909.072	322
909.173	-533
909.273	405
909.374	-174
909.474	-794
909.575	-571
909.675	126
909.776	-103
909.876	295
909.977	-346
910.077	330
910.177	-648
910.278	-490
910.378	263
910.478	-878
910.579	776
910.679	107
910.779	60
910.879	103
910.980	-462
911.080	-294
911.180	-151
911.280	-3
911.380	-225
911.480	477
911.580	-276
911.680	-296
911.780	836
911.880	41
911.980	-265
912.080	-55
912.180	330
912.280	516
912.380	-135
912.480	-131
912.580	-135
912.679	-961
912.779	338
912.879	-323
912.979	-344
913.078	-350
913.178	-167
913.278	47
913.377	-264
913.477	-146
913.577	-271
913.676	249
913.776	421
913.875	-336
913.975	-1
914.074	-268
914.174	-85
914.273	-326
914.373	777
914.472	640
914.572	-430
914.671	-62
914.770	-381
914.870	265
914.969	43
915.068	-535
915.167	-675
915.267	225
915.366	172
915.465	-300
915.564	-136
915.663	598
915.763	-348
915.862	234
915.961	-355
916.060	-734
916.159	-196
916.258	-608
916.357	247
916.456	-264
916.555	-129
916.654	104
916.752	-296
916.851	-664
916.950	295
917.049	-472
917.148	-483
917.247	-397
917.345	370
917.444	-787
917.543	37
917.642	-54
917.740	-471
917.839	-73
917.937	-604
918.036	241
918.135	-403
918.233	-133
918.332	-150
918.430	-654
918.529	47
918.627	-333
918.726	-187
918.824	396
918.923	-842
919.021	-744
919.119	-385
919.218	-427
919.316	-597
919.414	-325
919.512	-312
919.611	211
919.709	194
919.807	-189
919.905	-308
920.003	445
920.102	-26
920.200	-3
920.298	-726
920.396	-1378
920.494	-187
920.592	-122
920.690	-260
920.788	-286
920.886	11
920.984	-872
921.082	-607
921.180	416
921.277	-177
921.375	320
921.473	-107
921.571	69
921.669	-263
921.766	-345
921.864	61
921.962	144
922.060	-157
922.157	66
922.255	-399
922.352	-94
922.450	183
922.548	-31
922.645	-448
922.743	-93
922.840	-310
922.938	162
923.035	109
923.133	1097
923.230	-549
923.327	590
923.425	97
923.522	442
923.619	-213
923.717	-83
923.814	131
923.911	429
924.008	104
924.106	-174
924.203	48
924.300	114
924.397	-1147
924.494	454
924.591	145
924.688	301
924.786	54
924.883	-377
924.979	-137
925.077	-375
925.173	-276
925.270	516
925.367	-335
925.464	578
925.561	144
925.658	884
925.755	499
925.852	-683
925.948	167
926.045	155
926.142	51
926.239	-114
926.335	-199
926.432	-41
926.529	59
926.625	-195
926.722	-325
926.818	127
926.915	-12
927.011	629
927.108	468
927.204	834
927.301	-945
927.397	516
927.494	344
927.590	599
927.687	-58
927.783	62
927.879	115
927.976	-60
928.072	-27
928.168	-201
928.264	-1142
928.361	-1214
928.457	-222
928.553	201
928.649	493
928.745	-81
928.841	-164
928.937	-117
929.033	227
929.129	67
929.225	-135
929.321	225
929.417	-758
929.513	-147
929.609	-318
929.705	89
929.801	96
929.897	-473
929.993	-306
930.089	167
930.184	-289
930.280	-81
930.376	-564
930.471	56
930.567	265
930.663	-286
930.758	-521
930.854	-608
930.950	-37
931.045	-313
931.141	-424
931.236	224
931.332	38
931.427	-731
931.523	745
931.618	403
931.714	-931
931.809	-194
931.905	-329
932.000	-452
932.095	-1193
932.191	604
932.286	-490
932.381	-210
932.476	-85
932.572	-644
932.667	64
932.762	-147
932.857	-321
932.952	56
933.047	-655
933.142	-173
933.237	-1378
933.332	194
933.427	-735
933.522	-764
933.617	-627
933.712	-276
933.807	-480
933.902	-528
933.997	106
934.092	-750
934.187	261
934.282	108
934.376	-798
934.471	10
934.566	-845
934.661	-389
934.755	-816
934.850	-1039
934.945	-83
935.039	-431
935.134	-808
935.228	-61
935.323	-354
935.417	-308
935.512	52
935.606	-73
935.701	9
935.795	-118
935.890	-932
935.984	-424
936.079	-210
936.173	23
936.267	-905
936.362	-139
936.456	-604
936.550	418
936.644	-615
936.738	-28
936.833	-890
936.927	-779
937.021	-842
937.115	-270
937.209	-969
937.303	-239
937.397	-303
937.491	-255
937.585	-519
937.679	-380
937.773	-729
937.867	-413
937.961	-289
938.055	-216
938.149	-280
938.243	-364
938.337	-589
938.430	-336
938.524	-493
938.618	-582
938.712	-684
938.805	-477
938.899	-258
938.993	-447
939.086	-572
939.180	-265
939.274	-598
939.367	-418
939.461	-1293
939.554	-513
939.648	-166
939.741	-786
939.835	-782
939.928	-181
940.022	-931
940.115	-588
940.208	-577
940.302	334
940.395	-71
940.488	-593
940.582	229
940.675	-208
940.768	62
940.861	-645
940.954	66
941.048	-1002
941.141	-337
941.234	-1226
941.327	-845
941.420	-233
941.513	-314
941.606	-1298
941.699	-158
941.792	-122
941.885	-357
941.978	-344
942.071	-295
942.164	-953
942.257	-988
942.349	-1218
942.442	-267
942.535	-637
942.628	-443
942.721	-1224
942.813	-795
942.906	-29
942.999	-596
943.091	-893
943.184	-924
943.277	-563
943.369	211
943.462	-715
943.554	190
943.647	-1024
943.739	-85
943.832	-321
943.924	-1369
944.017	-641
944.109	-1255
944.201	11
944.294	-378
944.386	-696
944.478	-422
944.571	-696
944.663	-497
944.755	-414
944.847	658
944.940	-811
945.032	-554
945.124	-717
945.216	461
945.308	-466
945.400	-208
945.492	134
945.584	-779
945.676	-328
945.768	-1084
945.860	-326
945.952	-387
946.044	-805
946.136	-1902
946.228	-559
946.320	-905
946.412	-566
946.503	-795
946.595	161
946.687	-803
946.779	-1503
946.870	-292
946.962	-1179
947.054	-328
947.145	-354
947.237	-546
947.329	-979
947.420	-403
947.512	-1348
947.603	-987
947.695	-689
947.786	-1038
947.878	-1190
947.969	-583
948.061	170
948.152	-910
948.243	49
948.335	-568
948.426	-545
948.517	-894
948.609	-1163
948.700	-535
948.791	-189
948.882	-445
948.973	-779
949.065	-1089
949.156	-203
949.247	-1381
949.338	-650
949.429	-1391
949.520	-905
949.611	-1640
949.702	-295
949.793	-1066
949.884	-800
949.975	-824
950.066	-1129
950.157	-734
950.247	-725
950.338	-1216
950.429	-1002
950.520	-1255
950.611	-536
950.701	-844
950.792	-512
950.883	-420
950.973	-1803
951.064	-1100
951.155	-1253
951.245	-690
951.336	-162
951.427	-1118
951.517	-95
951.608	-528
951.698	-789
951.788	-627
951.879	-1491
951.969	-1695
952.060	-516
952.150	-534
952.240	-174
952.331	-1821
952.421	-435
952.511	-604
952.602	-41
952.692	-1176
952.782	-370
952.872	-1430
952.962	-940
953.052	-692
953.143	-1054
953.233	-587
953.323	-57
953.413	-915
953.503	70
953.593	-550
953.683	-770
953.773	-2086
953.863	-814
953.953	-1310
954.042	-518
954.132	-799
954.222	-756
954.312	-537
954.402	-1724
954.492	-1072
954.581	-443
954.671	-1329
954.761	-1479
954.850	-547
954.940	-521
955.030	-1308
955.119	-447
955.209	-479
955.298	-1264
955.388	-785
955.477	128
955.567	-1005
955.656	-1292
955.746	-1274
955.835	-1017
955.925	-186
956.014	-929
956.103	-1259
956.193	-1003
956.282	-57
956.371	-390
956.461	-1484
956.550	-841
956.639	-389
956.728	-1836
956.817	-1148
956.906	-1273
956.995	-703
957.085	-1165
957.174	-946
957.263	-1243
957.352	-1106
957.441	-182
957.530	-1047
957.619	-478
957.708	-870
957.796	-843
957.885	-446
957.974	-1568
958.063	-160
958.152	-1008
958.241	-878
958.329	-482
958.418	-1797
958.507	-1009
958.596	-295
958.684	-1909
958.773	-751
958.861	-989
958.950	-961
959.039	-940
959.127	-1111
959.216	357
959.304	-1111
959.393	-1281
959.481	-786
959.570	-1115
959.658	-1492
959.746	-643
959.835	-696
959.923	-1099
960.011	-1201
960.100	-241
960.188	-1424
960.276	-1453
960.365	-891
960.453	-544
960.541	-1011
960.629	-861
960.717	-768
960.805	-597
960.893	-908
960.981	-1018
961.069	-504
961.158	-1041
961.245	-1081
961.333	-667
961.421	-3
961.509	-705
961.597	-3
961.685	-646
961.773	-1163
961.861	-924
961.949	-408
962.036	-1270
962.124	113
962.212	-727
962.299	-902
962.387	-1277
962.475	416
962.562	-1219
962.650	-1696
962.738	-423
962.825	-871
962.913	-751
963.000	-1223
963.088	-676
963.175	-645
963.263	-698
963.350	-1224
963.438	-1289
963.525	-1332
963.612	-258
963.700	-1266
963.787	-300
963.874	-1368
963.962	-604
964.049	-535
964.136	-1306
964.223	-1220
964.310	-1651
964.398	-1141
964.485	-1124
964.572	-1563
964.659	-376
964.746	-376
964.833	-858
964.920	-1122
965.007	-1462
965.094	-820
965.181	-1100
965.268	-552
965.355	-285
965.441	-1272
965.528	-1537
965.615	-873
965.702	-625
965.789	-1714
965.875	-1111
965.962	-915
966.049	-2347
966.136	-1164
966.222	-1045
966.309	-631
966.395	-2281
966.482	226
966.569	-1854
966.655	-1358
966.742	-1072
966.828	-812
966.915	-1719
967.001	-1252
967.087	-1237
967.174	-1876
967.260	-398
967.347	-1030
967.433	-1326
967.519	-680
967.605	-1578
967.692	-1591
967.778	-179
967.864	-1522
967.950	-1338
968.036	-1591
968.123	-289
968.209	-564
968.295	-1562
968.381	57
968.467	-280
968.553	-1847
968.639	-1021
968.725	-1968
968.811	-348
968.897	-1010
968.983	-1142
969.069	-929
969.154	-283
969.240	-303
969.326	-1089
969.412	-1092
969.497	-1239
969.583	-1627
969.669	-76
969.755	-602
969.840	-1648
969.926	-1432
970.012	-996
970.097	-1134
970.183	-750
970.268	-1728
970.354	-895
970.439	-2283
970.525	251
970.610	-1398
970.696	-476
970.781	-1487
970.866	-1245
970.952	-349
971.037	-2270
971.122	-1221
971.208	-321
971.293	-765
971.378	-1935
971.463	-1752
971.549	-1417
971.634	-819
971.719	-1504
971.804	-1430
971.889	-65
971.974	-1656
972.059	-1153
972.144	-1504
972.229	-692
972.314	-1689
972.399	-1190
972.484	-1405
972.569	-684
972.654	-2114
972.739	-590
972.824	-891
972.908	-1108
972.993	-680
973.078	-1229
973.163	-1755
973.247	-761
973.332	-2901
973.417	201
973.501	-2260
973.586	-711
973.671	-1611
973.755	-2425
973.840	-876
973.924	-910
974.009	-1813
974.093	-1349
974.178	-732
974.262	-799
974.346	-1809
974.431	-1510
974.515	-986
974.600	-1072
974.684	-1021
974.768	-1395
974.852	-682
974.937	-2223
975.021	-335
975.105	-982
975.189	-1256
975.273	-931
975.358	-2011
975.442	-1241
975.526	-1070
975.610	-1730
975.694	-2099
975.778	-540
975.862	-1492
975.946	-3244
976.030	-240
976.114	-1037
976.198	-1248
976.281	-1657
976.365	-423
976.449	-1624
976.533	-971
976.617	-1716
976.700	-138
976.784	-809
976.868	-1488
976.951	-1357
977.035	-1551
977.119	-1365
977.202	-903
977.286	-1282
977.369	-699
977.453	-852
977.536	-1400
977.620	-1625
977.703	-516
977.787	-2454
977.870	-664
977.953	-554
978.037	-2036
978.120	-1130
978.203	-1192
978.287	-1623
978.370	-1466
978.453	-1574
978.536	-1084
978.620	-359
978.703	-1334
978.786	-1572
978.869	-1750
978.952	-1882
979.035	-774
979.118	-464
979.201	-1400
979.284	-1164
979.367	-1834
979.450	-491
979.533	-1498
979.616	-1835
979.699	-1577
979.782	-1269
979.865	-1034
979.948	-1495
980.030	-1240
980.113	-1538
980.196	-1282
980.279	-1079
980.361	-1579
980.444	-1958
980.526	-1374
980.609	-1429
980.692	-1311
980.774	-901
980.857	-2220
980.939	-265
981.022	-1638
981.104	-1847
981.187	-2044
981.269	-1512
981.352	-928
981.434	-1728
981.516	-1754
981.599	-960
981.681	-1049
981.763	-1447
981.846	-1419
981.928	-1617
982.010	-1689
982.092	-2434
982.174	-1263
982.256	-1875
982.339	-1653
982.421	-1303
982.503	-1085
982.585	-1752
982.667	-877
982.749	-1391
982.831	-1603
982.913	-2208
982.995	-567
983.077	-2331
983.158	-1059
983.240	-2211
983.322	-1764
983.404	-601
983.486	-1247
983.568	-988
983.649	-1521
983.731	-609
983.813	-1452
983.894	-1152
983.976	-2768
984.058	-1819
984.139	-351
984.221	-2083
984.302	-330
984.384	-1466
984.465	-2224
984.547	-1095
984.628	-1387
984.710	-704
984.791	-1566
984.872	-1909
984.954	-1477
985.035	-919
985.116	-1833
985.198	-2025
985.279	-1410
985.360	-1117
985.441	-1882
985.522	-955
985.604	-1438
985.685	-2294
985.766	-1089
985.847	-236
985.928	-2431
986.009	-1116
986.090	-1843
986.171	-1318
986.252	-2149
986.333	-1026
986.414	-2009
986.495	-1759
986.576	-2343
986.656	-1381
986.737	-1037
986.818	-2304
986.899	-842
986.980	-2125
987.060	-1139
987.141	-1795
987.222	-1519
987.302	-1234
987.383	-1837
987.464	-1581
987.544	-1436
987.625	-1605
987.705	-1315
987.786	-1556
987.866	-1683
987.947	-1804
988.027	-1691
988.108	-2362
988.188	-1057
988.268	-1437
988.349	-1623
988.429	-1227
988.509	-1260
988.589	-1674
988.670	-2535
988.750	-1229
988.830	-1151
988.910	-1310
988.990	-1844
989.070	-1740
989.151	-1680
989.231	-2241
989.311	-670
989.391	-1223
989.471	-1062
989.551	-1611
989.631	-1964
989.711	-1202
989.791	-2095
989.870	-2066
989.950	-1241
990.030	-1845
990.110	-2175
990.190	-1637
990.269	-1997
990.349	-1112
990.429	-1252
990.509	-944
990.588	-2199
990.668	-1310
990.747	-1223
990.827	-1610
990.907	-640
990.986	-1622
991.066	-1242
991.145	-1942
991.225	-1601
991.304	-2352
991.383	-1331
991.463	-1601
991.542	-1664
991.622	-1149
991.701	-2363
991.780	-1673
991.859	-2257
991.939	-1567
992.018	-1140
992.097	-1588
992.176	-1681
992.256	-1662
992.335	-2319
992.414	-1279
992.493	-1261
992.572	-1654
992.651	-1052
992.730	-1584
992.809	-2136
992.888	-2205
992.967	-2081
993.046	-2329
993.125	-1989
993.203	-1533
993.282	-1256
993.361	-1619
993.440	-1014
993.519	-1956
993.597	-2068
993.676	-2095
993.755	-1571
993.834	-1700
993.912	-3002
993.991	-1231
994.069	-2283
994.148	-1893
994.226	-2337
994.305	-1628
994.384	-1777
994.462	-760
994.540	-2884
994.619	-1946
994.697	-1511
994.776	-1940
994.854	-1484
994.932	-1837
995.011	-1227
995.089	-1471
995.167	-2183
995.245	-1121
995.324	-2547
995.402	-1414
995.480	-2285
995.558	-1413
995.636	-2083
995.714	-1719
995.792	-961
995.870	-2030
995.948	-1162
996.026	-1618
996.104	-2254
996.182	-1282
996.260	-2664
996.338	-1870
996.416	-1839
996.494	-2603
996.572	-300
996.649	-2083
996.727	-2039
996.805	-1800
996.883	-1318
996.960	-2735
997.038	-1446
997.116	-1574
997.193	-2084
997.271	-1321
997.348	-2455
997.426	-2503
997.504	-2360
997.581	-1316
997.658	-829
997.736	-1848
997.813	-1992
997.891	-859
997.968	-3056
998.046	-1081
998.123	-2357
998.200	-1732
998.277	-2382
998.355	-1027
998.432	-2448
998.509	-2501
998.586	-1291
998.663	-1099
998.741	-1594
998.818	-1797
998.895	-1807
998.972	-1968
999.049	-1435
999.126	-1900
999.203	-1769
999.280	-1446
999.357	-3080
999.434	-2517
999.511	-2018
999.587	-1819
999.664	-3112
999.741	-1982
999.818	-1762
999.895	-2165
999.971	-2221
1000.048	-1885
1000.125	-1266
1000.202	-1998
1000.278	-2360
1000.355	-1266
1000.431	-1525
1000.508	-2381
1000.584	-1458
1000.661	-1855
1000.738	-2670
1000.814	-2206
1000.890	-1873
1000.967	-1970
1001.043	-1322
1001.120	-3181
1001.196	-1686
1001.272	-2366
1001.349	-1689
1001.425	-1355
1001.501	-2365
1001.577	-1898
1001.654	-1983
1001.730	-2620
1001.806	-1485
1001.882	-3160
1001.958	-1539
1002.034	-1535
1002.110	-2077
1002.186	-1902
1002.262	-2642
1002.338	-2985
1002.414	-2029
1002.490	-2243
1002.566	-1818
1002.642	-1905
1002.718	-1032
1002.794	-2513
1002.870	-1622
1002.945	-2209
1003.021	-2126
1003.097	-1320
1003.173	-1247
1003.248	-2608
1003.324	-2110
1003.400	-1894
1003.475	-2567
1003.551	-2744
1003.626	-2273
1003.702	-2397
1003.777	-1253
1003.853	-2280
1003.928	-2383
1004.004	-1881
1004.079	-1715
1004.155	-1342
1004.230	-2871
1004.305	-1265
1004.381	-2177
1004.456	-2332
1004.531	-2585
1004.607	-2010
1004.682	-1955
1004.757	-2321
1004.832	-2484
1004.907	-1627
1004.982	-1996
1005.057	-2234
1005.133	-2609
1005.208	-1661
1005.283	-1921
1005.358	-2033
1005.433	-2249
1005.508	-1362
1005.583	-3076
1005.657	-2083
1005.732	-1329
1005.807	-2390
1005.882	-2152
1005.957	-2795
1006.032	-1105
1006.106	-2176
1006.181	-1776
1006.256	-2428
1006.331	-1895
1006.405	-2701
1006.480	-2156
1006.554	-2927
1006.629	-1669
1006.704	-2147
1006.778	-2226
1006.853	-1360
1006.927	-2557
1007.002	-2519
1007.076	-2248
1007.150	-2460
1007.225	-2151
1007.299	-1355
1007.373	-3107
1007.448	-2065
1007.522	-1889
1007.596	-1897
1007.671	-2699
1007.745	-1815
1007.819	-2547
1007.893	-1342
1007.967	-1573
1008.041	-2968
1008.115	-1196
1008.190	-2261
1008.264	-1678
1008.338	-2844
1008.412	-2635
1008.486	-1960
1008.560	-1882
1008.633	-1996
1008.707	-1830
1008.781	-1974
1008.855	-2182
1008.929	-2072
1009.003	-2419
1009.076	-1739
1009.150	-1754
1009.224	-2245
1009.298	-1856
1009.371	-2337
1009.445	-2948
1009.519	-1842
1009.592	-2548
1009.666	-2246
1009.739	-1856
1009.813	-2393
1009.886	-1872
1009.960	-2101
1010.033	-1990
1010.107	-2057
1010.180	-2852
1010.253	-1772
1010.327	-2890
1010.400	-1887
1010.473	-2474
1010.547	-927
1010.620	-2523
1010.693	-1418
1010.766	-2252
1010.840	-1843
1010.913	-1399
1010.986	-2788
1011.059	-1895
1011.132	-1897
1011.205	-1533
1011.278	-1965
1011.351	-1742
1011.424	-2106
1011.497	-2602
1011.570	-2116
1011.643	-2139
1011.716	-2096
1011.789	-2715
1011.862	-1825
1011.934	-1227
1012.007	-2432
1012.080	-1578
1012.153	-2476
1012.225	-1160
1012.298	-2369
1012.371	-1713
1012.443	-1587
1012.516	-2265
1012.588	-1733
1012.661	-2318
1012.733	-2665
1012.806	-1861
1012.879	-2157
1012.951	-2169
1013.023	-1586
1013.096	-2119
1013.168	-1867
1013.241	-1625
1013.313	-2319
1013.385	-2699
1013.458	-1581
1013.530	-2435
1013.602	-2464
1013.674	-2141
1013.746	-2292
1013.819	-2280
1013.891	-2216
1013.963	-2325
1014.035	-1870
1014.107	-1826
1014.179	-1717
1014.251	-1875
1014.323	-2015
1014.395	-1734
1014.467	-1902
1014.539	-1666
1014.611	-2582
1014.683	-1908
1014.754	-2171
1014.826	-1827
1014.898	-1845
1014.970	-3004
1015.042	-1599
1015.113	-2854
1015.185	-1752
1015.257	-2248
1015.328	-2322
1015.400	-2462
1015.471	-1832
1015.543	-2395
1015.615	-1521
1015.686	-1884
1015.757	-1135
1015.829	-1277
1015.901	-1470
1015.972	-1461
1016.043	-2746
1016.115	-1431
1016.186	-1919
1016.257	-1640
1016.328	-1558
1016.400	-1659
1016.471	-2420
1016.542	-1909
1016.613	-1385
1016.685	-2173
1016.756	-1561
1016.827	-2091
1016.898	-2233
1016.969	-460
1017.040	-2283
1017.111	-2919
1017.182	-2618
1017.253	-2592
1017.324	-2017
1017.395	-2496
1017.466	-1981
1017.537	-1742
1017.608	-1358
1017.678	-2083
1017.749	-2109
1017.820	-1832
1017.891	-2294
1017.961	-1916
1018.032	-2517
1018.103	-1367
1018.173	-2065
1018.244	-2073
1018.315	-2247
1018.385	-2008
1018.456	-1645
1018.526	-2135
1018.597	-2503
1018.667	-2616
1018.738	-1847
1018.808	-2277
1018.878	-2143
1018.949	-2368
1019.019	-2134
1019.089	-1877
1019.160	-2679
1019.230	-2170
1019.300	-2210
1019.371	-2910
1019.441	-2180
1019.511	-2141
1019.581	-2244
1019.651	-1627
1019.721	-2536
1019.791	-1788
1019.861	-1463
1019.931	-2561
1020.001	-2123
1020.071	-1104
1020.141	-2878
1020.211	-1619
1020.281	-1721
1020.351	-2276
1020.421	-1086
1020.491	-1577
1020.560	-2558
1020.630	-1918
1020.700	-1670
1020.770	-1850
1020.839	-2196
1020.909	-2337
1020.979	-1885
1021.048	-1485
1021.118	-2549
1021.187	-2721
1021.257	-1982
1021.326	-1486
1021.396	-1393
1021.465	-1703
1021.535	-2332
1021.604	-2509
1021.674	-1882
1021.743	-2450
1021.812	-1732
1021.882	-2464
1021.951	-1150
1022.020	-2460
1022.089	-2253
1022.159	-2498
1022.228	-1922
1022.297	-2302
1022.366	-2097
1022.435	-1891
1022.504	-1860
1022.573	-2813
1022.642	-2255
1022.711	-1948
1022.781	-1936
1022.849	-2183
1022.918	-2101
1022.987	-1617
1023.056	-1607
1023.125	-2886
1023.194	-2628
1023.263	-1732
1023.331	-1844
1023.400	-2660
1023.469	-1317
1023.538	-1758
1023.606	-2246
1023.675	-1884
1023.744	-2823
1023.812	-2037
1023.881	-1502
1023.949	-2371
1024.018	-2187
1024.086	-2208
1024.155	-1247
1024.223	-2870
1024.292	-1842
1024.360	-1864
1024.429	-2246
1024.497	-2317
1024.565	-1817
1024.634	-2301
1024.702	-2232
1024.770	-2657
1024.838	-2405
1024.907	-1956
1024.975	-2272
1025.043	-1566
1025.111	-2953
1025.179	-1825
1025.247	-2276
1025.315	-2163
1025.383	-2495
1025.451	-2310
1025.519	-2307
1025.587	-1988
1025.655	-1897
1025.723	-1857
1025.791	-1467
1025.859	-2323
1025.927	-2121
1025.995	-2029
1026.062	-1814
1026.130	-1891
1026.198	-2802
1026.266	-2616
1026.333	-1841
1026.401	-998
1026.469	-2144
1026.536	-1725
1026.604	-1964
1026.671	-2301
1026.739	-1623
1026.806	-2330
1026.874	-2351
1026.941	-2174
1027.009	-2315
1027.076	-2611
1027.144	-1594
1027.211	-2216
1027.278	-1614
1027.345	-2174
1027.413	-2363
1027.480	-2714
1027.547	-2016
1027.614	-1760
1027.682	-1794
1027.749	-2262
1027.816	-1999
1027.883	-2190
1027.950	-1995
1028.017	-2590
1028.084	-1595
1028.151	-2987
1028.218	-2539
1028.285	-1910
1028.352	-1803
1028.419	-2057
1028.486	-2512
1028.553	-1916
1028.619	-2269
1028.686	-1629
1028.753	-2552
1028.820	-2980
1028.886	-3018
1028.953	-1316
1029.020	-2269
1029.086	-2651
1029.153	-2767
1029.220	-2494
1029.286	-2116
1029.353	-1740
1029.419	-1884
1029.486	-2355
1029.552	-1952
1029.619	-1802
1029.685	-2418
1029.751	-2433
1029.818	-2729
1029.884	-2206
1029.951	-1645
1030.017	-2207
1030.083	-2779
1030.149	-3043
1030.216	-1949
1030.282	-2177
1030.348	-2244
1030.414	-2256
1030.480	-2028
1030.546	-1451
1030.612	-2794
1030.678	-2159
1030.744	-2046
1030.810	-2159
1030.876	-2317
1030.942	-2687
1031.008	-2201
1031.074	-1990
1031.140	-2310
1031.206	-1743
1031.272	-2350
1031.337	-2426
1031.403	-1341
1031.469	-3008
1031.534	-1830
1031.600	-1560
1031.666	-2341
1031.731	-1438
1031.797	-1728
1031.863	-2145
1031.928	-2370
1031.994	-2287
1032.059	-1245
1032.125	-2365
1032.190	-2396
1032.256	-2467
1032.321	-2211
1032.386	-2251
1032.452	-1957
1032.517	-2425
1032.582	-2704
1032.647	-1986
1032.713	-1867
1032.778	-2552
1032.843	-2787
1032.908	-2008
1032.974	-2219
1033.039	-3669
1033.104	-1652
1033.169	-2742
1033.234	-2647
1033.299	-1712
1033.364	-2091
1033.429	-1989
1033.494	-1507
1033.559	-2911
1033.624	-2488
1033.688	-2124
1033.753	-1695
1033.818	-2475
1033.883	-2049
1033.948	-2482
1034.013	-1538
1034.077	-2617
1034.142	-1891
1034.207	-2028
1034.271	-1704
1034.336	-2135
1034.400	-2434
1034.465	-2140
1034.530	-2233
1034.594	-2515
1034.658	-2149
1034.723	-2030
1034.787	-2442
1034.852	-1998
1034.916	-2018
1034.981	-2618
1035.045	-2152
1035.109	-2343
1035.173	-1597
1035.238	-2397
1035.302	-2376
1035.366	-2345
1035.430	-2706
1035.495	-2916
1035.559	-1878
1035.623	-2650
1035.687	-2596
1035.751	-2696
1035.815	-1379
1035.879	-2334
1035.943	-2519
1036.007	-2581
1036.071	-2820
1036.135	-2569
1036.198	-2780
1036.262	-2731
1036.326	-2383
1036.390	-1490
1036.454	-3191
1036.517	-2105
1036.581	-2424
1036.645	-2031
1036.709	-2372
1036.772	-2696
1036.836	-2700
1036.900	-2568
1036.963	-1728
1037.026	-2358
1037.090	-3179
1037.154	-1938
1037.217	-2946
1037.280	-2542
1037.344	-2212
1037.407	-2250
1037.471	-2179
1037.534	-2608
1037.597	-1986
1037.661	-2471
1037.724	-2459
1037.787	-2958
1037.850	-2483
1037.913	-2846
1037.977	-2519
1038.040	-2836
1038.103	-2464
1038.166	-2330
1038.229	-2210
1038.292	-3146
1038.355	-2149
1038.418	-2490
1038.481	-2318
1038.544	-2714
1038.607	-2141
1038.670	-2171
1038.732	-2483
1038.795	-2458
1038.858	-2850
1038.921	-1218
1038.984	-2219
1039.046	-3056
1039.109	-2090
1039.172	-3304
1039.234	-2739
1039.297	-2265
1039.360	-2084
1039.422	-3111
1039.485	-2559
1039.547	-3453
1039.610	-2215
1039.672	-2248
1039.734	-2900
1039.797	-3174
1039.859	-2469
1039.922	-2263
1039.984	-2462
1040.046	-2333
1040.109	-2328
1040.171	-2199
1040.233	-2366
1040.295	-2305
1040.358	-2828
1040.420	-2304
1040.482	-2521
1040.544	-2731
1040.606	-2178
1040.668	-2539
1040.730	-2129
1040.792	-2890
1040.854	-2353
1040.916	-1727
1040.978	-2331
1041.040	-1593
1041.102	-2098
1041.164	-2899
1041.225	-2868
1041.287	-2437
1041.349	-2853
1041.411	-2382
1041.472	-2164
1041.534	-2987
1041.596	-1988
1041.657	-1955
1041.719	-3136
1041.781	-2746
1041.842	-3077
1041.904	-3029
1041.965	-3047
1042.027	-2602
1042.088	-2193
1042.150	-2674
1042.211	-1995
1042.272	-1584
1042.334	-2896
1042.395	-1764
1042.456	-2204
1042.518	-2134
1042.579	-2228
1042.640	-1735
1042.701	-2425
1042.763	-3014
1042.824	-2334
1042.885	-2332
1042.946	-2419
1043.007	-2169
1043.068	-3016
1043.129	-2064
1043.190	-2289
1043.251	-1245
1043.312	-2546
1043.373	-2713
1043.434	-2811
1043.495	-2189
1043.556	-1960
1043.616	-2161
1043.677	-1901
1043.738	-1383
1043.799	-2711
1043.859	-3272
1043.920	-2221
1043.981	-2283
1044.041	-2112
1044.102	-2174
1044.162	-1684
1044.223	-2213
1044.284	-2024
1044.344	-2359
1044.405	-2183
1044.465	-2341
1044.525	-1809
1044.586	-2147
1044.646	-2607
1044.707	-1754
1044.767	-1575
1044.827	-2283
1044.887	-2340
1044.948	-2388
1045.008	-2313
1045.068	-2367
1045.128	-1987
1045.188	-2441
1045.249	-1299
1045.309	-2324
1045.369	-1091
1045.429	-2015
1045.489	-1978
1045.549	-1871
1045.609	-2601
1045.669	-1851
1045.729	-2183
1045.789	-2005
1045.848	-1579
1045.908	-1984
1045.968	-937
1046.028	-1391
1046.088	-2283
1046.147	-1494
1046.207	-881
1046.267	-1439
1046.326	-2237
1046.386	-1987
1046.446	-1528
1046.505	-1672
1046.565	-679
1046.624	-723
1046.684	-579
1046.743	-1238
1046.803	-1735
1046.862	-674
1046.922	0
