'Start Wavelength	183.907
'End Wavelength	1046.922
'Gate Delay	5.000
'Gate Width (ms)	1.050
'Laser Output Level	0.000
'X Position	0.000
'Y Position	0.000
'Z Position	0.000
'Grid Point Number	1.000
'Shot Number	100.000
183.907	361.000
183.977	401.000
184.047	578
184.116	564
184.186	603
184.256	464
184.325	97
184.395	124
184.465	918
184.534	917
184.604	-144
184.674	209
184.743	-20
184.813	876
184.883	763
184.952	729
185.022	-125
185.092	648
185.161	-66
185.231	172
185.301	442
185.370	1252
185.440	1096
185.509	-120
185.579	770
185.649	717
185.718	294
185.788	974
185.857	361
185.927	1793
185.996	1288
186.066	546
186.136	992
186.205	1555
186.275	993
186.344	1040
186.414	564
186.483	659
186.553	2997
186.622	3263
186.692	2287
186.761	1577
186.831	954
186.900	448
186.970	1152
187.039	1036
187.109	1960
187.178	71
187.248	806
187.317	8
187.387	784
187.456	1655
187.526	892
187.595	1135
187.664	767
187.734	1297
187.803	675
187.873	568
187.942	1473
188.012	1556
188.081	961
188.150	1083
188.220	3288
188.289	3918
188.358	1879
188.428	285
188.497	577
188.567	1760
188.636	662
188.705	811
188.775	708
188.844	-226
188.913	1549
188.983	1373
189.052	616
189.121	89
189.191	966
189.260	1465
189.329	1690
189.399	1453
189.468	544
189.537	697
189.606	1347
189.676	1146
189.745	784
189.814	1393
189.883	778
189.953	1161
190.022	1415
190.091	3705
190.161	5291
190.230	1858
190.299	834
190.368	480
190.437	330
190.507	1011
190.576	1128
190.645	1030
190.714	1267
190.783	1385
190.853	1447
190.922	1087
190.991	641
191.060	1143
191.129	582
191.198	1226
191.268	979
191.337	748
191.406	1128
191.475	1325
191.544	156
191.613	1031
191.682	1852
191.752	817
191.821	1417
191.890	1105
191.959	1268
192.028	1151
192.097	880
192.166	1008
192.235	284
192.304	919
192.373	953
192.442	1634
192.511	-74
192.580	672
192.650	1517
192.719	653
192.788	1494
192.857	1598
192.926	1386
192.995	570
193.064	2798
193.133	2239
193.202	1811
193.271	1933
193.340	2416
193.409	1523
193.478	1941
193.547	3398
193.615	4209
193.684	2976
193.753	2225
193.822	2125
193.891	1601
193.960	1342
194.029	125
194.098	2063
194.167	675
194.236	1759
194.305	1402
194.374	1647
194.443	1893
194.512	1044
194.580	1194
194.649	393
194.718	881
194.787	473
194.856	533
194.925	1300
194.994	1274
195.062	1302
195.131	1368
195.200	1321
195.269	981
195.338	1672
195.407	1367
195.475	1109
195.544	950
195.613	1204
195.682	875
195.751	690
195.819	1211
195.888	1546
195.957	1712
196.026	972
196.094	1675
196.163	886
196.232	1583
196.301	1333
196.369	1372
196.438	1313
196.507	1963
196.576	1459
196.644	632
196.713	659
196.782	1089
196.850	1376
196.919	1002
196.988	1134
197.056	724
197.125	969
197.194	720
197.262	1804
197.331	1659
197.400	643
197.468	1330
197.537	1335
197.606	1093
197.674	1794
197.743	5545
197.812	2090
197.880	4874
197.949	3838
198.017	4476
198.086	3895
198.155	1537
198.223	2474
198.292	5856
198.360	3382
198.429	1311
198.497	1641
198.566	3190
198.635	6469
198.703	1900
198.772	1866
198.840	6122
198.909	7983
198.977	1530
199.046	2190
199.114	2020
199.183	2282
199.251	1734
199.320	1013
199.388	1034
199.457	1065
199.525	1262
199.594	1861
199.662	1719
199.731	1272
199.799	2185
199.867	2817
199.936	1479
200.004	1641
200.073	1488
200.141	272
200.210	1201
200.278	1396
200.346	1469
200.415	2821
200.483	3590
200.552	2648
200.620	1677
200.688	1918
200.757	1628
200.825	1489
200.893	1246
200.962	1857
201.030	961
201.098	1415
201.167	1964
201.235	1312
201.303	1544
201.372	1506
201.440	1375
201.508	1580
201.577	1557
201.645	2273
201.713	1256
201.781	1130
201.850	1933
201.918	1456
201.986	1230
202.055	2057
202.123	2128
202.191	1570
202.259	1840
202.327	2878
202.396	3722
202.464	2553
202.532	2398
202.600	3253
202.669	2075
202.737	833
202.805	1147
202.873	1182
202.941	1923
203.009	1188
203.078	1705
203.146	2658
203.214	1852
203.282	2947
203.350	5770
203.418	6438
203.487	2688
203.555	2008
203.623	1932
203.691	1156
203.759	479
203.827	1796
203.895	2734
203.963	2289
204.031	1974
204.099	2737
204.168	1782
204.236	2229
204.304	2952
204.372	1031
204.440	1456
204.508	1389
204.576	1109
204.644	1553
204.712	1042
204.780	2408
204.848	2046
204.916	1394
204.984	1303
205.052	1116
205.120	2078
205.188	1508
205.256	1965
205.324	1842
205.392	676
205.460	2682
205.528	1716
205.596	1699
205.664	1185
205.732	1801
205.799	6453
205.867	10127
205.935	3013
206.003	2795
206.071	1924
206.139	1789
206.207	1727
206.275	1969
206.343	1331
206.411	1452
206.478	1941
206.546	1400
206.614	1760
206.682	2461
206.750	2419
206.818	5756
206.885	5670
206.953	2539
207.021	3368
207.089	2149
207.157	1687
207.225	1839
207.292	2020
207.360	896
207.428	1416
207.496	1302
207.563	1157
207.631	1550
207.699	1912
207.767	1419
207.834	1624
207.902	1649
207.970	2098
208.038	1983
208.105	2112
208.173	1612
208.241	2763
208.309	3082
208.376	2665
208.444	3128
208.512	1812
208.579	2351
208.647	4518
208.715	5193
208.782	1515
208.850	2603
208.918	1431
208.985	2040
209.053	1397
209.120	1972
209.188	1756
209.256	2270
209.323	1698
209.391	1537
209.459	2839
209.526	1675
209.594	2023
209.661	2274
209.729	2336
209.796	2432
209.864	3213
209.932	2163
209.999	3194
210.067	1510
210.134	2248
210.202	2839
210.269	4832
210.337	13011
210.404	6940
210.472	3253
210.539	3294
210.607	2575
210.674	1714
210.742	2603
210.809	2210
210.877	2427
210.944	2511
211.012	2105
211.079	4362
211.146	3405
211.214	5815
211.281	17609
211.349	14497
211.416	5749
211.484	4094
211.551	3121
211.618	3091
211.686	3171
211.753	2364
211.821	2495
211.888	2481
211.955	3719
212.023	2419
212.090	3437
212.157	2151
212.225	3123
212.292	5123
212.359	11417
212.427	38404
212.494	16165
212.561	5563
212.629	4014
212.696	3856
212.763	3565
212.831	2336
212.898	3216
212.965	2529
213.032	2200
213.100	3298
213.167	3175
213.234	3669
213.301	2676
213.369	3412
213.436	2961
213.503	6406
213.570	22962
213.638	39966
213.705	13426
213.772	4234
213.839	3628
213.906	3841
213.973	3628
214.041	2150
214.108	3118
214.175	2377
214.242	3172
214.309	3220
214.376	3414
214.444	2494
214.511	2902
214.578	3046
214.645	4222
214.712	4537
214.779	4332
214.846	5755
214.913	29510
214.980	20140
215.048	8274
215.115	7019
215.182	5682
215.249	5886
215.316	8984
215.383	10213
215.450	12602
215.517	4240
215.584	3117
215.651	2141
215.718	2512
215.785	2816
215.852	1777
215.919	3418
215.986	1494
216.053	2670
216.120	2728
216.187	1975
216.254	2754
216.321	2165
216.388	1833
216.455	1904
216.522	3109
216.589	2195
216.656	3396
216.722	3602
216.789	2991
216.856	3247
216.923	3330
216.990	3116
217.057	3150
217.124	3021
217.191	3304
217.258	3247
217.324	4422
217.391	4644
217.458	3752
217.525	2769
217.592	3082
217.659	2177
217.725	3084
217.792	2809
217.859	2700
217.926	2386
217.993	2532
218.059	2114
218.126	2050
218.193	2551
218.260	2612
218.327	1915
218.393	1878
218.460	1419
218.527	1891
218.594	2187
218.660	2086
218.727	2977
218.794	2379
218.860	2110
218.927	1543
218.994	2031
219.061	1918
219.127	1471
219.194	2483
219.261	2299
219.327	2333
219.394	2476
219.461	1125
219.527	2316
219.594	2826
219.661	1751
219.727	1984
219.794	6293
219.860	4099
219.927	4707
219.994	7520
220.060	13611
220.127	13765
220.193	8054
220.260	5546
220.326	5562
220.393	7390
220.460	8282
220.526	5770
220.593	4074
220.659	5186
220.726	5763
220.792	17758
220.859	17093
220.925	14930
220.992	14587
221.058	17900
221.125	22002
221.191	17468
221.258	7449
221.324	4882
221.391	3345
221.457	3207
221.524	3484
221.590	4892
221.657	20674
221.723	14905
221.789	13309
221.856	11808
221.922	4932
221.989	4356
222.055	4120
222.121	2436
222.188	5591
222.254	4372
222.321	4261
222.387	2443
222.453	2953
222.520	2633
222.586	1292
222.652	2445
222.719	1489
222.785	2040
222.851	1773
222.918	1932
222.984	1972
223.050	1755
223.116	881
223.183	2117
223.249	1637
223.315	1036
223.382	1513
223.448	2065
223.514	1664
223.580	2648
223.647	1309
223.713	632
223.779	1567
223.845	1124
223.911	1695
223.978	838
224.044	1717
224.110	1440
224.176	2716
224.242	2054
224.309	3404
224.375	2219
224.441	1980
224.507	944
224.573	811
224.639	2159
224.705	1450
224.772	1221
224.838	1384
224.904	1648
224.970	2230
225.036	879
225.102	1212
225.168	2340
225.234	2697
225.300	2123
225.366	1643
225.432	1945
225.499	2423
225.565	2801
225.631	2656
225.697	1687
225.763	2516
225.829	2789
225.895	3700
225.961	3144
226.027	3740
226.093	2631
226.159	4980
226.225	8436
226.291	15861
226.357	23880
226.423	11267
226.489	6827
226.554	4882
226.620	5006
226.686	5030
226.752	6531
226.818	13953
226.884	34742
226.950	30376
227.016	11680
227.082	8505
227.148	6266
227.214	4283
227.279	4863
227.345	4907
227.411	6444
227.477	12807
227.543	30343
227.609	31224
227.674	15848
227.740	8394
227.806	7174
227.872	5025
227.938	3738
228.003	3050
228.069	3811
228.135	2879
228.201	2293
228.267	1977
228.332	2206
228.398	1079
228.464	1987
228.530	1757
228.595	3392
228.661	1429
228.727	2192
228.792	2607
228.858	2365
228.924	1240
228.990	3760
229.055	1654
229.121	3455
229.187	2211
229.252	2278
229.318	1261
229.384	1996
229.449	1764
229.515	482
229.581	681
229.646	3289
229.712	1806
229.777	1769
229.843	3156
229.909	2736
229.974	2343
230.040	1775
230.105	1984
230.171	2403
230.236	3481
230.302	4904
230.368	3076
230.433	2181
230.499	2445
230.564	2781
230.630	1011
230.695	1998
230.761	2026
230.826	121
230.892	2712
230.957	801
231.023	1689
231.088	1785
231.154	1790
231.219	2384
231.284	2213
231.350	2482
231.415	1568
231.481	2589
231.546	2370
231.612	1596
231.677	1340
231.742	676
231.808	2965
231.873	1152
231.939	19
232.004	2289
232.069	2554
232.135	1979
232.200	2199
232.265	2124
232.331	982
232.396	1837
232.461	744
232.527	1257
232.592	1591
232.657	2581
232.723	2616
232.788	1664
232.853	2498
232.918	2160
232.984	1182
233.049	1530
233.114	2051
233.179	3430
233.245	3719
233.310	3222
233.375	1057
233.440	2422
233.506	1312
233.571	2010
233.636	1654
233.701	1206
233.766	1559
233.832	2026
233.897	2038
233.962	509
234.027	2972
234.092	2047
234.157	1487
234.222	3623
234.288	3265
234.353	5100
234.418	4902
234.483	2688
234.548	2665
234.613	1560
234.678	2753
234.743	1381
234.808	5123
234.873	2837
234.938	3700
235.004	2387
235.069	2156
235.134	2746
235.199	3069
235.264	2288
235.329	1612
235.394	2684
235.459	2830
235.524	2869
235.589	3022
235.654	2669
235.719	1080
235.784	3269
235.849	2761
235.913	3857
235.978	2897
236.043	3670
236.108	2483
236.173	3114
236.238	3747
236.303	3638
236.368	3661
236.433	4274
236.498	4279
236.563	5638
236.627	11342
236.692	47154
236.757	39952
236.822	13355
236.887	7708
236.952	7619
237.017	5916
237.081	6775
237.146	6243
237.211	17419
237.276	45402
237.341	83553
237.405	32230
237.470	12557
237.535	7738
237.600	6319
237.664	5293
237.729	4199
237.794	4225
237.859	9153
237.923	5459
237.988	3543
238.053	4624
238.118	4317
238.182	8686
238.247	10047
238.312	3566
238.376	3953
238.441	1757
238.506	4765
238.570	1878
238.635	3615
238.700	3371
238.764	2988
238.829	3959
238.893	3771
238.958	3687
239.023	3015
239.087	2686
239.152	3629
239.216	2834
239.281	3788
239.346	3488
239.410	2984
239.475	3363
239.539	7780
239.604	6749
239.668	6295
239.733	7659
239.797	20411
239.862	56614
239.926	37633
239.991	14953
240.055	8784
240.120	5864
240.184	5176
240.249	2434
240.313	3254
240.378	2773
240.442	4124
240.507	6237
240.571	3646
240.635	3215
240.700	3290
240.764	3041
240.829	2254
240.893	993
240.957	2272
241.022	4035
241.086	6252
241.151	3225
241.215	1342
241.279	3369
241.344	2376
241.408	2908
241.472	2014
241.537	2747
241.601	2703
241.665	2414
241.730	1842
241.794	2691
241.858	2258
241.922	2521
241.987	3231
242.051	2157
242.115	1543
242.179	3103
242.244	4627
242.308	3219
242.372	3155
242.436	1649
242.501	2627
242.565	1763
242.629	2325
242.693	3113
242.757	1761
242.822	2342
242.886	2733
242.950	3029
243.014	1403
243.078	2768
243.142	2399
243.206	2880
243.271	3682
243.335	2521
243.399	7678
243.463	29049
243.527	90056
243.591	26048
243.655	8210
243.719	5354
243.783	5886
243.847	6530
243.911	9244
243.975	4076
244.040	2734
244.104	4474
244.168	3736
244.232	2859
244.296	4740
244.360	7408
244.424	3365
244.488	2981
244.552	3474
244.615	1525
244.679	3134
244.743	1998
244.807	2138
244.871	3425
244.935	2913
244.999	1002
245.063	2617
245.127	3864
245.191	5770
245.255	6196
245.319	3680
245.383	1980
245.446	4502
245.510	1414
245.574	3146
245.638	2971
245.702	1630
245.766	3500
245.829	4586
245.893	2045
245.957	2260
246.021	3684
246.085	3337
246.149	3106
246.212	4881
246.276	5355
246.340	3641
246.404	2760
246.467	4154
246.531	1347
246.595	4096
246.659	3327
246.722	1696
246.786	3224
246.850	2854
246.913	2944
246.977	1984
247.041	2373
247.104	2634
247.168	2808
247.232	3941
247.295	7967
247.359	4906
247.423	3026
247.486	3242
247.550	4074
247.614	2583
247.677	2886
247.741	2727
247.804	2687
247.868	5151
247.932	3218
247.995	8312
248.059	3633
248.122	2409
248.186	3632
248.249	4605
248.313	17190
248.376	16032
248.440	7431
248.503	2968
248.567	4244
248.630	2888
248.694	3779
248.757	5778
248.821	18833
248.884	9689
248.948	5566
249.011	10337
249.075	18462
249.138	15481
249.202	5820
249.265	4321
249.328	6455
249.392	4079
249.455	4006
249.519	4519
249.582	5152
249.645	5828
249.709	4803
249.772	4684
249.835	4968
249.899	4996
249.962	6518
250.025	4613
250.089	7153
250.152	7988
250.215	5671
250.279	4710
250.342	6042
250.405	5782
250.468	5557
250.532	7781
250.595	15741
250.658	79107
250.721	150654
250.785	37021
250.848	16169
250.911	11030
250.974	11215
251.038	10100
251.101	13724
251.164	9334
251.227	8868
251.290	10425
251.354	21186
251.417	115999
251.480	118099
251.543	64510
251.606	232760
251.669	166405
251.732	45846
251.795	30823
251.859	38437
251.922	139169
251.985	72795
252.048	21770
252.111	13947
252.174	11156
252.237	15050
252.300	30616
252.363	49466
252.426	166237
252.489	56950
252.552	20177
252.615	13842
252.678	14105
252.741	25080
252.804	56605
252.867	179526
252.930	64060
252.993	21467
253.056	15594
253.119	10778
253.182	10281
253.245	18836
253.308	15965
253.371	21528
253.434	36011
253.497	20628
253.559	91659
253.622	55780
253.685	15887
253.748	10082
253.811	8463
253.874	8074
253.937	6691
254.000	5363
254.062	6441
254.125	7841
254.188	7203
254.251	5195
254.314	4898
254.376	4830
254.439	5914
254.502	4636
254.565	5880
254.628	8796
254.690	4553
254.753	3913
254.816	3461
254.878	4713
254.941	6641
255.004	5863
255.067	4643
255.129	3321
255.192	5427
255.255	7085
255.317	43259
255.380	37914
255.443	13219
255.505	33230
255.568	12682
255.631	5590
255.693	5999
255.756	4083
255.819	5897
255.881	5326
255.944	4352
256.006	4304
256.069	3219
256.132	3269
256.194	3081
256.257	5584
256.319	5270
256.382	7072
256.444	8724
256.507	6572
256.569	4804
256.632	5050
256.694	6870
256.757	21385
256.819	69120
256.882	27541
256.944	10904
257.007	7699
257.069	5779
257.132	5015
257.194	6469
257.257	5169
257.319	4537
257.381	6099
257.444	16701
257.506	83857
257.569	94563
257.631	66345
257.693	22005
257.756	11089
257.818	7636
257.880	6034
257.943	5924
258.005	3794
258.067	4572
258.130	4151
258.192	3584
258.254	3951
258.317	3403
258.379	3415
258.441	6388
258.503	6519
258.566	6630
258.628	7694
258.690	3492
258.753	4194
258.815	4414
258.877	2490
258.939	3678
259.001	4824
259.064	4160
259.126	3094
259.188	4685
259.250	4291
259.312	8751
259.375	38094
259.437	21078
259.499	5345
259.561	4882
259.623	5415
259.685	2898
259.747	4289
259.809	6763
259.872	10760
259.934	16955
259.996	13962
260.058	4723
260.120	3812
260.182	3812
260.244	3804
260.306	3504
260.368	3762
260.430	2914
260.492	4682
260.554	22923
260.616	26205
260.678	8837
260.740	8647
260.802	3963
260.864	4586
260.926	2752
260.988	4799
261.050	4445
261.112	3567
261.174	8954
261.236	7956
261.298	4654
261.359	4605
261.421	6941
261.483	3079
261.545	5446
261.607	2937
261.669	3532
261.731	4070
261.793	6484
261.854	2840
261.916	4517
261.978	3099
262.040	3413
262.102	3276
262.164	3420
262.225	3761
262.287	4125
262.349	3284
262.411	4043
262.472	4153
262.534	3839
262.596	6737
262.658	5039
262.719	2813
262.781	3607
262.843	5455
262.904	4731
262.966	4772
263.028	6767
263.090	28096
263.151	86559
263.213	25630
263.275	9267
263.336	5995
263.398	5635
263.459	3963
263.521	4919
263.583	4830
263.644	4055
263.706	2898
263.767	2032
263.829	3964
263.891	3073
263.952	3264
264.014	3042
264.075	2576
264.137	2256
264.198	3328
264.260	2910
264.321	3745
264.383	2890
264.444	3483
264.506	3781
264.567	3197
264.629	4011
264.690	2002
264.752	3349
264.813	3692
264.875	2602
264.936	3247
264.998	2972
265.059	4889
265.120	5264
265.182	6797
265.243	26533
265.305	31228
265.366	9750
265.427	5457
265.489	5756
265.550	3874
265.611	4822
265.673	4061
265.734	3868
265.795	3477
265.857	3656
265.918	5067
265.979	10270
266.040	50605
266.102	46740
266.163	11341
266.224	6974
266.286	5428
266.347	4036
266.408	4417
266.469	4823
266.530	3177
266.592	3402
266.653	3118
266.714	3435
266.775	3162
266.836	3956
266.898	2674
266.959	3297
267.020	2369
267.081	4120
267.142	3273
267.203	3585
267.264	2817
267.326	4451
267.387	3109
267.448	2653
267.509	3849
267.570	3803
267.631	2838
267.692	2529
267.753	4475
267.814	3101
267.875	3963
267.936	3855
267.997	2877
268.058	3126
268.119	3760
268.180	3090
268.241	3025
268.302	3967
268.363	2423
268.424	3070
268.485	3372
268.546	2244
268.607	2879
268.668	2732
268.729	2814
268.790	3094
268.851	3380
268.912	3262
268.972	4627
269.033	3478
269.094	3190
269.155	4005
269.216	3030
269.277	3786
269.338	3468
269.398	3301
269.459	2423
269.520	3637
269.581	3125
269.642	3081
269.702	2623
269.763	3201
269.824	2971
269.885	2727
269.945	2861
270.006	3312
270.067	2460
270.128	2971
270.188	3864
270.249	2762
270.310	2629
270.370	3860
270.431	3416
270.492	2874
270.553	3104
270.613	3638
270.674	3661
270.734	3285
270.795	2719
270.856	3591
270.916	3572
270.977	3396
271.038	4192
271.098	3802
271.159	3690
271.219	2974
271.280	4232
271.340	3497
271.401	3723
271.462	4014
271.522	3808
271.583	2926
271.643	3574
271.704	3808
271.764	3222
271.825	4383
271.885	12618
271.946	20396
272.006	6431
272.066	7441
272.127	16153
272.187	17032
272.248	10177
272.308	6055
272.369	7179
272.429	6388
272.489	4074
272.550	3404
272.610	4272
272.671	3605
272.731	4281
272.791	4902
272.852	4027
272.912	4417
272.972	2470
273.033	3434
273.093	3066
273.153	3367
273.214	3030
273.274	3630
273.334	4956
273.394	7245
273.455	4319
273.515	5025
273.575	5562
273.635	5092
273.696	5343
273.756	8199
273.816	4285
273.876	4021
273.936	5724
273.997	9565
274.057	3803
274.117	3290
274.177	4590
274.237	8892
274.297	10192
274.358	7207
274.418	6439
274.478	5457
274.538	4004
274.598	4826
274.658	7967
274.718	9205
274.778	4777
274.838	4377
274.898	5719
274.958	11889
275.018	10692
275.078	8459
275.138	5021
275.198	3610
275.258	4405
275.318	4696
275.378	3956
275.438	4582
275.498	4513
275.558	7177
275.618	11354
275.678	6909
275.738	6255
275.798	5351
275.858	4003
275.918	4299
275.978	4210
276.038	4507
276.098	4431
276.157	5136
276.217	6460
276.277	4904
276.337	4139
276.397	4176
276.457	4986
276.517	5198
276.576	4312
276.636	4689
276.696	4330
276.756	5083
276.815	4357
276.875	5663
276.935	4704
276.995	5340
277.055	5328
277.114	8035
277.174	5526
277.234	4842
277.293	3995
277.353	3902
277.413	3328
277.472	3464
277.532	3495
277.592	4995
277.651	4409
277.711	6174
277.771	4572
277.830	7541
277.890	6400
277.950	6663
278.009	12930
278.069	7421
278.128	7260
278.188	6953
278.248	6561
278.307	6507
278.367	7007
278.426	5683
278.486	4976
278.545	5164
278.605	5150
278.664	4532
278.724	5282
278.783	6017
278.843	10229
278.902	6197
278.962	4715
279.021	5329
279.081	6737
279.140	6596
279.199	5138
279.259	6695
279.318	8233
279.378	10787
279.437	19425
279.496	88611
279.556	160720
279.615	112659
279.675	27320
279.734	17844
279.793	28067
279.853	78137
279.912	29939
279.971	13314
280.031	13628
280.090	29541
280.149	60561
280.208	25125
280.268	78492
280.327	85766
280.386	19122
280.445	12745
280.505	9447
280.564	8056
280.623	6701
280.682	6827
280.742	6906
280.801	5790
280.860	5365
280.919	5418
280.978	5721
281.037	5642
281.097	4136
281.156	5793
281.215	4829
281.274	5899
281.333	7981
281.392	6774
281.451	5337
281.510	5685
281.569	4605
281.628	5403
281.688	5671
281.747	6491
281.806	4813
281.865	5278
281.924	4296
281.983	4330
282.042	4268
282.101	4071
282.160	4850
282.219	5074
282.278	4481
282.337	4949
282.396	4246
282.454	5110
282.513	4087
282.572	5043
282.631	4944
282.690	4771
282.749	4062
282.808	4042
282.867	4159
282.926	3672
282.985	3960
283.043	4052
283.102	4652
283.161	4761
283.220	4365
283.279	7079
283.338	4914
283.396	4147
283.455	4730
283.514	4388
283.573	4352
283.631	4647
283.690	5042
283.749	4503
283.808	5062
283.866	4945
283.925	4486
283.984	5528
284.043	5221
284.101	5314
284.160	4180
284.219	5712
284.277	5626
284.336	4689
284.395	6806
284.453	6409
284.512	4491
284.570	5193
284.629	5487
284.688	4610
284.746	5629
284.805	5386
284.863	5687
284.922	6407
284.981	6204
285.039	8043
285.098	11345
285.156	25655
285.215	116077
285.273	118508
285.332	34740
285.390	18016
285.449	12598
285.507	10719
285.566	8418
285.624	7589
285.683	6802
285.741	5869
285.799	5232
285.858	5883
285.916	6028
285.975	5345
286.033	5386
286.091	5899
286.150	5817
286.208	5844
286.267	6528
286.325	5428
286.383	6338
286.442	5945
286.500	5244
286.558	6437
286.616	5983
286.675	6491
286.733	5588
286.791	5359
286.850	6300
286.908	5279
286.966	6357
287.024	5145
287.083	5979
287.141	5765
287.199	6527
287.257	5449
287.315	6335
287.374	6665
287.432	6502
287.490	6172
287.548	6497
287.606	6549
287.664	6608
287.723	6511
287.781	5904
287.839	8083
287.897	8158
287.955	10451
288.013	18007
288.071	42228
288.129	149297
288.187	457081
288.245	201662
288.303	61001
288.361	34420
288.419	26518
288.477	18784
288.535	16240
288.593	11848
288.651	10246
288.709	8311
288.767	8125
288.825	6872
288.883	7069
288.941	6578
288.999	6364
289.057	5785
289.115	6189
289.173	7243
289.231	6265
289.289	5646
289.346	5658
289.404	6098
289.462	6780
289.520	6284
289.578	5288
289.636	4809
289.694	6322
289.751	5439
289.809	6358
289.867	5930
289.925	7180
289.983	5349
290.040	6081
290.098	5706
290.156	5288
290.214	5331
290.271	5356
290.329	6934
290.387	7715
290.444	5549
290.502	4944
290.560	5679
290.617	5529
290.675	5009
290.733	5216
290.790	4436
290.848	5774
290.906	5135
290.963	4982
291.021	5963
291.078	5507
291.136	4894
291.194	5271
291.251	6637
291.309	5419
291.366	5238
291.424	5033
291.481	5290
291.539	5706
291.596	5502
291.654	5390
291.711	5681
291.769	5454
291.826	5650
291.884	6254
291.941	5205
291.999	5521
292.056	5555
292.114	5001
292.171	5381
292.228	6906
292.286	6887
292.343	6086
292.401	6174
292.458	6048
292.515	6420
292.573	7085
292.630	6925
292.687	5618
292.745	5877
292.802	5272
292.859	5811
292.917	7140
292.974	5685
293.031	5382
293.089	6068
293.146	5461
293.203	5497
293.260	6081
293.318	10595
293.375	9610
293.432	5948
293.489	6945
293.546	6710
293.604	5711
293.661	6954
293.718	11747
293.775	7210
293.832	8863
293.889	9887
293.947	16176
294.004	10980
294.061	7191
294.118	7723
294.175	9091
294.232	6961
294.289	6745
294.346	6312
294.403	8224
294.460	5441
294.517	7315
294.574	6076
294.631	6487
294.688	7303
294.745	6940
294.802	12226
294.859	11079
294.916	16263
294.973	17429
295.030	8433
295.087	6445
295.144	6840
295.201	6658
295.258	5551
295.315	5968
295.372	7679
295.429	9667
295.486	7526
295.542	4772
295.599	5769
295.656	5809
295.713	6484
295.770	7725
295.827	6738
295.883	6528
295.940	5660
295.997	6286
296.054	5609
296.111	5548
296.167	6447
296.224	5495
296.281	5806
296.338	5416
296.394	5521
296.451	6233
296.508	7840
296.564	8292
296.621	7973
296.678	12910
296.734	17514
296.791	9287
296.848	6580
296.904	7591
296.961	7364
297.018	9412
297.074	8905
297.131	7222
297.187	6265
297.244	7018
297.301	10767
297.357	16950
297.414	9043
297.470	9370
297.527	8232
297.583	6763
297.640	7276
297.696	5583
297.753	5452
297.809	6529
297.866	5282
297.922	5678
297.979	5222
298.035	5562
298.092	6816
298.148	7429
298.204	7687
298.261	6582
298.317	8438
298.374	15172
298.430	13805
298.486	10311
298.543	7447
298.599	8103
298.656	8167
298.712	11777
298.768	26902
298.824	26852
298.881	11566
298.937	8947
298.993	8387
299.050	8127
299.106	7663
299.162	7108
299.218	8321
299.275	7968
299.331	9208
299.387	12181
299.443	25039
299.500	61560
299.556	58889
299.612	26777
299.668	23721
299.724	57487
299.780	77191
299.837	33280
299.893	23074
299.949	42468
300.005	68069
300.061	52243
300.117	80631
300.173	40869
300.229	18255
300.285	14103
300.341	12922
300.397	11259
300.453	11262
300.510	11721
300.566	18258
300.622	30684
300.678	95951
300.734	130340
300.790	55172
300.845	35968
300.901	50339
300.957	80888
301.013	40518
301.069	19935
301.125	13925
301.181	11855
301.237	11373
301.293	8917
301.349	8463
301.405	7802
301.461	7982
301.516	7808
301.572	6485
301.628	6772
301.684	7125
301.740	7439
301.796	7379
301.851	7676
301.907	7904
301.963	9324
302.019	15710
302.074	38671
302.130	39679
302.186	19338
302.242	11476
302.297	9300
302.353	9033
302.409	8739
302.464	8132
302.520	7898
302.576	9946
302.631	12011
302.687	7793
302.743	7449
302.798	6293
302.854	6438
302.910	7671
302.965	6982
303.021	6821
303.076	7575
303.132	6417
303.187	7837
303.243	6854
303.299	7915
303.354	6747
303.410	6770
303.465	6753
303.521	6085
303.576	5867
303.632	5895
303.687	8230
303.743	12501
303.798	11333
303.853	8165
303.909	6379
303.964	7177
304.020	6676
304.075	6967
304.130	7430
304.186	7783
304.241	8435
304.297	8196
304.352	7193
304.358	7186
304.407	7136
304.449	7588
304.463	7748
304.518	8001
304.539	7925
304.573	7805
304.629	8040
304.630	8023
304.684	7473
304.720	9242
304.739	10102
304.794	13022
304.811	11968
304.850	9497
304.902	6827
304.905	6658
304.960	7387
304.992	8014
305.015	8418
305.071	8275
305.083	7843
305.126	6328
305.173	5555
305.181	5426
305.236	5428
305.264	6045
305.292	6729
305.347	7162
305.354	7198
305.402	7438
305.445	7015
305.457	6837
305.512	8747
305.535	8046
305.567	7177
305.622	7038
305.626	7103
305.678	8669
305.716	11932
305.733	13001
305.788	11847
305.807	10792
305.843	9289
305.897	11741
305.898	11764
305.953	12268
305.988	9709
306.008	8371
306.063	6703
306.078	6428
306.118	5772
306.168	5371
306.173	5350
306.228	5753
306.259	5790
306.283	5680
306.338	6219
306.349	6183
306.393	6229
306.440	6982
306.448	7076
306.503	8353
306.530	7438
306.558	6735
306.613	8116
306.620	8229
306.668	8523
306.711	8095
306.723	7885
306.778	7442
306.801	6729
306.833	6038
306.888	5573
306.892	5592
306.943	5926
306.982	5484
306.997	5250
307.052	5391
307.072	5408
307.107	5539
307.162	5409
307.163	5413
307.217	5582
307.253	6351
307.272	6660
307.327	6521
307.343	6339
307.381	5956
307.434	5880
307.436	5905
307.491	6528
307.524	7149
307.546	7147
307.600	7466
307.614	7102
307.655	6211
307.704	6583
307.710	6661
307.765	6543
307.795	7001
307.819	7516
307.874	8728
307.885	9098
307.929	10890
307.975	14504
307.984	15849
308.038	25217
308.065	33038
308.093	59825
308.148	127915
308.156	144226
308.202	210745
308.246	256647
308.257	254034
308.312	130099
308.336	82607
308.366	52736
308.421	27475
308.426	26194
308.475	19233
308.517	16305
308.530	15449
308.585	13031
308.607	12093
308.639	11006
308.694	10245
308.697	10246
308.748	10417
308.787	10471
308.803	10177
308.857	9522
308.877	9569
308.912	10601
308.967	12648
308.967	12693
309.021	17824
309.058	23390
309.076	31685
309.130	62834
309.148	75900
309.185	163764
309.238	320701
309.239	321061
309.293	339195
309.328	283460
309.348	241650
309.402	103260
309.418	72090
309.457	44960
309.508	26318
309.511	25499
309.566	20061
309.598	17668
309.620	16322
309.674	14114
309.688	13727
309.729	11808
309.778	9349
309.783	9190
309.837	8032
309.868	7955
309.892	7927
309.946	8105
309.959	8350
310.001	8977
310.049	8976
310.055	8778
310.109	7154
310.139	6245
310.163	6028
310.218	5853
310.229	5848
310.272	5533
310.319	5228
310.326	5179
310.381	4925
310.409	4861
310.435	4898
310.489	4790
310.499	4842
310.543	4751
310.589	4456
310.598	4452
310.652	4677
310.679	4774
310.706	4790
310.760	4713
310.769	4756
310.814	4990
310.859	5020
310.868	4967
310.923	4823
310.948	4700
310.977	4709
311.031	5020
311.038	5054
311.085	4730
311.128	4294
311.139	4309
311.193	4721
311.218	4883
311.247	4728
311.301	4451
311.308	4423
311.356	4546
311.398	4742
311.410	4704
311.464	4527
311.488	4484
311.518	4567
311.572	4684
311.578	4710
311.626	4422
311.668	4198
311.680	4268
311.734	4656
311.758	4822
311.788	4728
311.842	4590
311.847	4585
311.896	4577
311.937	4637
311.950	4501
312.004	3910
312.027	3685
312.058	3836
312.112	4134
312.117	4172
312.165	4086
312.207	4040
312.297	4882
312.386	4629
312.476	4831
312.566	3746
312.656	4123
312.745	3882
312.835	4969
312.925	4955
313.015	6467
313.104	5512
313.194	5517
313.284	5334
313.374	5892
313.463	6673
313.553	7198
313.643	6759
313.732	6928
313.822	6801
313.912	7453
314.001	8334
314.091	9455
314.180	8313
314.270	9043
314.360	7978
314.449	7929
314.539	7978
314.628	8462
314.718	9349
314.808	9717
314.897	11626
314.987	11989
315.076	10997
315.166	11366
315.255	12003
315.345	13190
315.434	14150
315.524	18884
315.613	28043
315.703	54871
315.792	209661
315.881	762248
315.971	227496
316.060	39360
316.150	17338
316.239	12617
316.328	10751
316.418	11022
316.507	11955
316.597	13454
316.686	13498
316.775	12913
316.865	12816
316.954	11724
317.043	11602
317.133	12056
317.222	12414
317.311	13469
317.400	14914
317.490	22535
317.579	31185
317.668	51767
317.757	102249
317.847	377523
317.936	1134616
318.025	330061
318.114	264540
318.203	97697
318.293	24301
318.382	20978
318.471	17892
318.560	14585
318.649	12984
318.738	9202
318.828	7936
318.917	7070
319.006	7333
319.095	7332
319.184	8502
319.273	7181
319.362	7520
319.451	7721
319.540	13608
319.629	8851
319.718	6984
319.807	7494
319.896	7438
319.985	15592
320.074	12011
320.163	7646
320.252	11652
320.341	16196
320.430	7555
320.519	7134
320.608	8126
320.697	8862
320.786	9517
320.875	11842
320.964	13271
321.053	12924
321.142	13938
321.230	15960
321.319	18740
321.408	20607
321.497	20883
321.586	24837
321.675	33413
321.764	15308
321.852	13413
321.941	13236
322.030	13683
322.119	15654
322.207	18118
322.296	20509
322.385	23599
322.474	27196
322.562	26370
322.651	20289
322.740	17401
322.829	15882
322.917	13095
323.006	12301
323.095	11722
323.183	9837
323.272	9356
323.361	10385
323.449	15047
323.538	8939
323.626	11596
323.715	10463
323.804	7512
323.892	10283
323.981	8909
324.069	11477
324.158	29702
324.246	41666
324.335	11947
324.424	8814
324.512	9581
324.601	8384
324.689	11287
324.778	14170
324.866	8484
324.954	6566
325.043	6038
325.131	6268
325.220	8545
325.308	8077
325.397	8554
325.485	8795
325.574	6475
325.662	6888
325.750	5983
325.839	6945
325.927	6348
326.015	6821
326.104	5801
326.192	6571
326.280	5742
326.369	6166
326.457	7717
326.545	8279
326.634	6911
326.722	7151
326.810	6502
326.898	9393
326.987	10016
327.075	8878
327.163	8573
327.251	8981
327.340	11060
327.428	14346
327.516	11894
327.604	8648
327.692	7046
327.781	6476
327.869	7676
327.957	8146
328.045	7000
328.133	6965
328.221	5625
328.309	5385
328.397	7012
328.485	8741
328.574	13775
328.662	13638
328.750	8101
328.838	10408
328.926	17381
329.014	8828
329.102	6060
329.190	6831
329.278	5544
329.366	6135
329.454	4615
329.542	5840
329.630	5606
329.718	5860
329.806	5392
329.893	6732
329.981	6318
330.069	11825
330.157	42955
330.245	78945
330.333	31911
330.421	8760
330.509	7282
330.597	7894
330.684	5472
330.772	6275
330.860	6461
330.948	5825
331.036	5976
331.123	6620
331.211	7016
331.299	5545
331.387	5778
331.475	5588
331.562	5639
331.650	5749
331.738	4774
331.825	6102
331.913	5940
332.001	6035
332.089	6187
332.176	5785
332.264	6844
332.352	6489
332.439	6257
332.527	5673
332.614	6830
332.702	14225
332.790	26811
332.877	9373
332.965	7237
333.052	6721
333.140	5921
333.228	6661
333.315	6050
333.403	6352
333.490	6986
333.578	7103
333.665	8754
333.753	10899
333.840	8189
333.928	9209
334.015	11241
334.103	13537
334.190	17627
334.278	22756
334.365	30250
334.452	28319
334.540	19243
334.627	20086
334.715	24140
334.802	38285
334.889	62704
334.977	74872
335.064	40636
335.151	20666
335.239	15049
335.326	13171
335.413	14181
335.501	15317
335.588	14702
335.675	17199
335.762	22486
335.850	30505
335.937	44676
336.024	74372
336.111	111622
336.199	84241
336.286	36395
336.373	21526
336.460	15785
336.547	12380
336.635	11191
336.722	9662
336.809	8840
336.896	8896
336.983	8291
337.070	10728
337.157	11023
337.245	13723
337.332	11799
337.419	8832
337.506	7699
337.593	7346
337.680	7015
337.767	7487
337.854	6373
337.941	7392
338.028	8889
338.115	8893
338.202	7541
338.289	8400
338.376	9692
338.463	7719
338.550	7501
338.637	6841
338.724	6840
338.811	7691
338.898	6581
338.984	6062
339.071	5857
339.158	7408
339.245	7775
339.332	6461
339.419	5886
339.506	6851
339.593	6083
339.679	7204
339.766	6497
339.853	6239
339.940	6970
340.027	5282
340.113	5861
340.200	5365
340.287	5375
340.374	5644
340.460	6143
340.547	4479
340.634	6119
340.720	7964
340.807	6590
340.894	5440
340.980	5320
341.067	5367
341.154	5867
341.240	5566
341.327	5926
341.414	6406
341.500	5180
341.587	6278
341.674	6052
341.760	6518
341.847	5276
341.933	6133
342.020	5362
342.106	6077
342.193	6613
342.279	7621
342.366	6292
342.452	6734
342.539	5229
342.625	6181
342.712	6355
342.798	5849
342.885	4772
342.971	4141
343.058	5035
343.144	5132
343.230	6057
343.317	5473
343.403	5102
343.490	5238
343.576	4692
343.662	4968
343.749	5040
343.835	7309
343.921	7704
344.008	19477
344.094	24304
344.180	9993
344.267	5799
344.353	7587
344.439	6150
344.525	5257
344.612	5043
344.698	4894
344.784	4863
344.870	5646
344.957	5364
345.043	5822
345.129	4512
345.215	4994
345.301	4946
345.387	5067
345.474	5447
345.560	5208
345.646	5082
345.732	5677
345.818	5342
345.904	5287
345.990	5125
346.076	5661
346.162	5686
346.249	6129
346.335	6723
346.421	10028
346.507	8208
346.593	9148
346.679	4548
346.765	8967
346.851	12010
346.937	7747
347.023	7332
347.108	6244
347.194	5838
347.280	6739
347.366	10653
347.452	25942
347.538	22527
347.624	11924
347.710	7882
347.796	6213
347.882	6318
347.967	6809
348.053	6437
348.139	6996
348.225	6734
348.311	5714
348.397	6367
348.482	8039
348.568	8450
348.654	14261
348.740	34098
348.825	22865
348.911	11653
348.997	11044
349.083	10625
349.168	6567
349.254	5989
349.340	5694
349.425	6692
349.511	8243
349.597	12378
349.682	8076
349.768	7484
349.854	7379
349.939	6564
350.025	6410
350.110	6103
350.196	4785
350.282	4751
350.367	6087
350.453	6546
350.538	6780
350.624	5235
350.709	6447
350.795	5302
350.880	5182
350.966	6844
351.051	5652
351.137	4929
351.222	6021
351.308	6423
351.393	6306
351.479	4846
351.564	4132
351.649	5743
351.735	6125
351.820	6054
351.906	5366
351.991	5134
352.076	6227
352.162	6169
352.247	5222
352.332	6201
352.418	5053
352.503	5798
352.588	7653
352.673	6584
352.759	5985
352.844	4623
352.929	6140
353.014	6047
353.100	9795
353.185	13191
353.270	7237
353.355	6193
353.441	7161
353.526	5515
353.611	6755
353.696	6022
353.781	6753
353.866	6263
353.952	5995
354.037	4535
354.122	6428
354.207	5380
354.292	6298
354.377	6126
354.462	5642
354.547	6417
354.632	7901
354.717	10100
354.802	14360
354.887	19632
354.972	10186
355.057	6033
355.142	5868
355.227	7874
355.312	6768
355.397	6160
355.482	7336
355.567	5667
355.652	7044
355.737	6122
355.822	8717
355.907	7022
355.991	6873
356.076	6035
356.161	6297
356.246	5680
356.331	6680
356.416	6665
356.501	15425
356.585	11626
356.670	5641
356.755	8175
356.840	9798
356.924	21607
357.009	31890
357.094	13180
357.179	6799
357.263	6648
357.348	6692
357.433	6231
357.517	7352
357.602	7290
357.687	7464
357.771	9414
357.856	7415
357.941	7884
358.025	18047
358.110	47541
358.195	19313
358.279	7346
358.364	10935
358.448	18680
358.533	13976
358.617	10078
358.702	10442
358.787	8264
358.871	6709
358.956	6898
359.040	7054
359.125	7342
359.209	13774
359.294	19692
359.378	14360
359.462	9784
359.547	6679
359.631	5906
359.716	5403
359.800	5562
359.885	8591
359.969	18452
360.053	53197
360.138	36421
360.222	20186
360.306	7839
360.391	8078
360.475	6853
360.559	7354
360.644	7726
360.728	8231
360.812	13558
360.896	19218
360.981	14865
361.065	30328
361.149	23044
361.233	8782
361.318	7136
361.402	7521
361.486	8542
361.570	8123
361.654	8543
361.739	10213
361.823	18401
361.907	22779
361.991	19732
362.075	34346
362.159	25420
362.243	43883
362.327	99979
362.411	103409
362.495	36446
362.580	21700
362.664	21886
362.748	28270
362.832	50748
362.916	110402
363.000	259296
363.084	259175
363.168	92114
363.252	46539
363.336	38962
363.420	20691
363.503	16812
363.587	15661
363.671	15122
363.755	14616
363.839	17419
363.923	18443
364.007	24185
364.091	33091
364.175	54609
364.258	129163
364.342	317095
364.426	435339
364.510	179819
364.594	56548
364.677	30450
364.761	28710
364.845	19690
364.929	14123
365.013	11114
365.096	11277
365.180	9399
365.264	10565
365.347	12045
365.431	9147
365.515	8363
365.598	8322
365.682	8424
365.766	7355
365.849	7071
365.933	7236
366.017	9518
366.100	8556
366.184	7372
366.267	8884
366.351	9568
366.435	16989
366.518	12551
366.602	7807
366.685	7816
366.769	8051
366.852	8464
366.936	7947
367.019	8924
367.103	7589
367.186	9090
367.270	8562
367.353	8722
367.436	10695
367.520	9423
367.603	9390
367.687	8769
367.770	8896
367.853	9055
367.937	11475
368.020	10238
368.104	7400
368.187	7812
368.270	7941
368.353	7087
368.437	7889
368.520	9207
368.603	7768
368.687	7491
368.770	9355
368.853	6623
368.936	6519
369.020	7373
369.103	5734
369.186	6815
369.269	7383
369.352	10783
369.436	13350
369.519	8084
369.602	5123
369.685	8891
369.768	6846
369.851	6996
369.934	7389
370.018	6891
370.101	6093
370.184	9451
370.267	8193
370.350	10612
370.433	20513
370.516	102256
370.599	305722
370.682	128543
370.765	24540
370.848	16986
370.931	34239
371.014	78668
371.097	32630
371.180	9389
371.263	7531
371.346	6519
371.429	7884
371.511	6229
371.594	7766
371.677	8173
371.760	8916
371.843	9535
371.926	26113
372.009	38598
372.091	14554
372.174	9057
372.257	12826
372.340	7439
372.423	7962
372.505	9238
372.588	7218
372.671	8572
372.754	11418
372.836	9592
372.919	8834
373.002	9208
373.085	8571
373.167	9555
373.250	10857
373.332	16002
373.415	34271
373.498	60643
373.580	114059
373.663	469487
373.746	379106
373.828	61048
373.911	21893
373.993	14574
374.076	13116
374.159	12549
374.241	11787
374.324	15200
374.406	14219
374.489	18780
374.571	29494
374.654	14940
374.736	18246
374.819	22780
374.901	33141
374.983	30891
375.066	14597
375.148	12533
375.231	13370
375.313	14460
375.395	13275
375.478	12062
375.560	13035
375.643	11989
375.725	16046
375.807	26176
375.890	20634
375.972	11336
376.054	9945
376.136	10616
376.219	9600
376.301	13813
376.383	17390
376.465	10319
376.548	8598
376.630	10104
376.712	13473
376.794	9599
376.877	8387
376.959	6944
377.041	7167
377.123	6567
377.205	6796
377.287	10380
377.369	36941
377.452	50270
377.534	14296
377.616	11475
377.698	8893
377.780	6632
377.862	6417
377.944	7550
378.026	7302
378.108	7538
378.190	7496
378.272	8885
378.354	7181
378.436	7594
378.518	6008
378.600	7817
378.682	9295
378.764	16181
378.846	35646
378.928	18534
379.010	8824
379.091	10227
379.173	8182
379.255	6674
379.337	7316
379.419	9812
379.501	13709
379.583	8458
379.664	7174
379.746	5769
379.828	9422
379.910	8107
379.991	9192
380.073	8287
380.155	9531
380.237	7584
380.318	7455
380.400	6992
380.482	8267
380.564	8033
380.645	10453
380.727	8437
380.809	8625
380.890	7865
380.972	7020
381.053	7148
381.135	7851
381.217	6104
381.298	8983
381.380	7838
381.461	8884
381.543	16002
381.624	14886
381.706	8259
381.787	10239
381.869	11961
381.951	18422
382.032	33356
382.113	19528
382.195	7713
382.276	11573
382.358	12204
382.439	13701
382.521	19270
382.602	25420
382.684	13506
382.765	15303
382.846	13761
382.928	15308
383.009	11642
383.090	13203
383.172	22973
383.253	35960
383.334	22685
383.416	21324
383.497	13381
383.578	9739
383.659	11175
383.741	20975
383.822	39107
383.903	22631
383.984	15033
384.066	22907
384.147	16964
384.228	14896
384.309	15317
384.390	16938
384.471	13657
384.553	12821
384.634	11125
384.715	12330
384.796	12535
384.877	13230
384.958	13337
385.039	12426
385.120	12308
385.201	12789
385.282	12817
385.363	14276
385.444	14927
385.525	16268
385.606	20730
385.687	18274
385.768	13272
385.849	14154
385.930	27465
386.011	32115
386.092	16158
386.173	14350
386.254	16149
386.335	16360
386.416	13027
386.496	13895
386.577	14352
386.658	13949
386.739	12243
386.820	14905
386.901	14362
386.981	16658
387.062	20215
387.143	23192
387.224	25136
387.304	26693
387.385	25372
387.466	23659
387.547	26774
387.627	27740
387.708	28301
387.789	30657
387.869	27420
387.950	22211
388.031	18642
388.111	16144
388.192	17839
388.273	18554
388.353	16498
388.434	14094
388.514	14880
388.595	22091
388.676	19291
388.756	14789
388.837	15148
388.917	15094
388.998	13890
389.078	16412
389.159	14354
389.239	12141
389.320	13827
389.400	12084
389.480	14594
389.561	14127
389.641	14918
389.722	12854
389.802	11793
389.883	14812
389.963	15870
390.043	15362
390.124	12274
390.204	14499
390.284	16026
390.365	15869
390.445	33581
390.525	105935
390.605	83787
390.686	22549
390.766	18097
390.846	17918
390.927	14766
391.007	15761
391.087	18651
391.167	17824
391.247	17657
391.328	19788
391.408	19744
391.488	21270
391.568	20524
391.648	22566
391.728	24428
391.808	25729
391.888	26226
391.969	28897
392.049	30876
392.129	34341
392.209	36442
392.289	42851
392.369	42234
392.449	46936
392.529	51026
392.609	60953
392.689	71269
392.769	86992
392.849	107195
392.929	144992
393.009	205034
393.089	329981
393.169	675352
393.248	1630371
393.328	2723936
393.408	2644471
393.488	1263756
393.568	471465
393.648	248844
393.728	159863
393.807	112537
393.887	89073
393.967	73579
394.047	64513
394.127	59493
394.206	67026
394.286	165059
394.366	502551
394.446	401491
394.525	89156
394.605	41926
394.685	36611
394.764	39436
394.844	59888
394.924	59724
395.003	42253
395.083	35193
395.163	29930
395.242	29123
395.322	28425
395.402	26082
395.481	31277
395.561	40770
395.640	93937
395.720	117808
395.799	57392
395.879	44936
395.958	61689
396.038	205670
396.117	641354
396.197	530903
396.276	140893
396.356	85309
396.435	97650
396.515	135432
396.594	224080
396.673	529641
396.753	1512507
396.832	2520052
396.912	1842746
396.991	534234
397.070	215488
397.150	125608
397.229	108016
397.308	166675
397.388	188761
397.467	79423
397.546	45514
397.625	35211
397.705	33777
397.784	28768
397.863	26790
397.942	25502
398.022	22335
398.101	21175
398.180	26235
398.259	27693
398.338	21735
398.417	17009
398.497	16507
398.576	15569
398.655	15679
398.734	25485
398.813	27113
398.892	17246
398.971	15996
399.050	12337
399.129	12509
399.208	12229
399.287	12113
399.366	11158
399.445	11728
399.524	12236
399.603	10559
399.682	10591
399.761	10121
399.840	12267
399.919	12649
399.998	9916
400.077	9418
400.156	7990
400.235	10424
400.313	8844
400.392	8328
400.471	9734
400.550	9900
400.629	7157
400.708	9015
400.786	9466
400.865	7677
400.944	6623
401.023	8392
401.102	7373
401.180	10971
401.259	11861
401.338	7455
401.416	6921
401.495	6349
401.574	7282
401.652	5236
401.731	7351
401.810	6997
401.888	6193
401.967	5868
402.046	7304
402.124	7800
402.203	6598
402.281	7164
402.360	5921
402.438	7499
402.517	5170
402.596	6520
402.674	5610
402.753	7032
402.831	7432
402.910	9986
402.988	30439
403.066	57798
403.145	26824
403.223	30428
403.302	47015
403.380	34787
403.459	31046
403.537	13423
403.615	10077
403.694	7001
403.772	9693
403.850	8227
403.929	9890
404.007	10572
404.085	16291
404.164	11595
404.242	10022
404.320	10961
404.398	10673
404.477	11838
404.555	23212
404.633	17228
404.711	14315
404.789	12676
404.868	7878
404.946	6721
405.024	7305
405.102	5735
405.180	4740
405.258	4356
405.336	8236
405.415	6129
405.493	8378
405.571	8192
405.649	5885
405.727	5549
405.805	9372
405.883	9487
405.961	8282
406.039	7616
406.117	7600
406.195	7682
406.273	8305
406.351	14411
406.429	8833
406.507	5888
406.585	5360
406.663	6148
406.740	6233
406.818	4831
406.896	6195
406.974	7395
407.052	5979
407.130	10483
407.208	10542
407.285	8292
407.363	7486
407.441	7221
407.519	8102
407.596	16670
407.674	67199
407.752	151350
407.830	71201
407.907	14986
407.985	7447
408.063	8547
408.141	6421
408.218	7991
408.296	10829
408.373	13341
408.451	8203
408.529	7181
408.606	8313
408.684	9860
408.762	8900
408.839	7852
408.917	8523
408.994	9907
409.072	10463
409.149	15327
409.227	27858
409.304	35884
409.382	37476
409.459	46872
409.537	55499
409.614	44313
409.692	36087
409.769	42478
409.846	62135
409.924	65106
410.001	42524
410.079	32590
410.156	41776
410.233	56198
410.311	25788
410.388	14565
410.465	13739
410.543	11301
410.620	11541
410.697	12209
410.775	12591
410.852	13376
410.929	15981
411.006	14769
411.083	12535
411.161	10996
411.238	10295
411.315	9495
411.392	8865
411.469	8997
411.547	8058
411.624	6833
411.701	7034
411.778	7625
411.855	7712
411.932	7016
412.009	6434
412.086	6801
412.163	5973
412.240	6791
412.317	9092
412.394	7992
412.471	7378
412.548	5545
412.625	5566
412.702	12224
412.779	35435
412.856	31087
412.933	9890
413.010	8214
413.087	6329
413.164	6406
413.241	6499
413.318	6174
413.395	7779
413.471	5593
413.548	5563
413.625	5720
413.702	4895
413.779	7073
413.855	4847
413.932	3853
414.009	3695
414.086	4819
414.162	10443
414.239	29145
414.316	24838
414.393	10544
414.469	5190
414.546	4711
414.623	3644
414.699	3711
414.776	3234
414.853	4524
414.929	6057
415.006	5393
415.082	6031
415.159	6118
415.236	5687
415.312	5159
415.389	4594
415.465	3418
415.542	5569
415.618	4246
415.695	5178
415.771	2990
415.848	3410
415.924	3870
416.000	3253
416.077	4127
416.153	3249
416.230	3425
416.306	4382
416.383	3959
416.459	3859
416.535	4352
416.612	5116
416.688	9233
416.764	10037
416.841	3863
416.917	3604
416.993	4136
417.069	3642
417.146	4013
417.222	4256
417.298	5686
417.374	8852
417.451	8553
417.527	4862
417.603	4744
417.679	12647
417.755	18787
417.831	7825
417.908	5654
417.984	3763
418.060	3538
418.136	4488
418.212	3322
418.288	4257
418.364	5022
418.440	3991
418.516	5719
418.592	6939
418.668	9985
418.744	7087
418.820	5491
418.896	4220
418.972	3764
419.048	5083
419.124	6057
419.200	4268
419.276	5416
419.352	6032
419.428	7217
419.504	6243
419.579	6273
419.655	6484
419.731	6079
419.807	7580
419.883	7045
419.959	6701
420.034	6066
420.110	7209
420.186	7462
420.262	7465
420.337	8002
420.413	8224
420.489	10504
420.565	10395
420.640	8237
420.716	10318
420.792	8235
420.867	10804
420.943	9445
421.019	10793
421.094	13505
421.170	17145
421.245	13885
421.321	15315
421.397	17814
421.472	41921
421.548	77353
421.623	41550
421.699	25442
421.774	27186
421.850	28941
421.925	35059
422.001	41299
422.076	52014
422.152	63381
422.227	85487
422.302	120189
422.378	183530
422.453	314900
422.529	545713
422.604	772375
422.679	895354
422.755	781369
422.830	434470
422.905	240308
422.981	155048
423.056	106949
423.131	80866
423.207	62754
423.282	49386
423.357	42115
423.432	36079
423.508	35537
423.583	33385
423.658	26991
423.733	22339
423.808	21350
423.883	22670
423.959	28161
424.034	30811
424.109	25309
424.184	18166
424.259	15075
424.334	11636
424.409	10590
424.484	10375
424.559	10906
424.634	9771
424.709	10457
424.784	9416
424.859	9484
424.934	8077
425.009	8277
425.084	8235
425.159	7291
425.234	7864
425.309	6578
425.384	6936
425.459	5561
425.534	7277
425.609	6210
425.683	5835
425.758	4967
425.833	5837
425.908	6364
425.983	5275
426.058	6716
426.132	5736
426.207	4584
426.282	6461
426.357	4688
426.431	5476
426.506	4879
426.581	4638
426.655	4957
426.730	4905
426.805	4614
426.879	5421
426.954	4457
427.029	4421
427.103	6435
427.178	9381
427.253	6426
427.327	4846
427.402	4156
427.476	4511
427.551	4581
427.625	5512
427.700	5711
427.774	3944
427.849	6277
427.923	5727
427.998	8426
428.072	11386
428.147	29546
428.221	149752
428.296	327479
428.370	125984
428.444	21826
428.519	10508
428.593	8676
428.667	10063
428.742	14222
428.816	58352
428.890	235661
428.965	249931
429.039	49843
429.113	12847
429.188	7269
429.262	7272
429.336	7092
429.410	6691
429.485	7311
429.559	8184
429.633	11382
429.707	15799
429.781	53779
429.855	220934
429.930	214543
430.004	52072
430.078	44140
430.152	166181
430.226	483428
430.300	344969
430.374	67494
430.448	22950
430.522	16690
430.596	22005
430.670	85849
430.744	279544
430.818	205938
430.892	37021
430.966	15185
431.040	9096
431.114	4933
431.188	5450
431.262	5561
431.336	5088
431.410	6569
431.484	4706
431.557	7746
431.631	9507
431.705	23104
431.779	124108
431.853	327806
431.927	156617
432.000	24723
432.074	9214
432.148	6337
432.222	4437
432.295	4365
432.369	2912
432.443	3197
432.516	6856
432.590	9391
432.664	5348
432.737	2788
432.811	2223
432.885	2479
432.958	3409
433.032	2367
433.106	2991
433.179	3274
433.253	3366
433.326	4820
433.400	4462
433.473	3015
433.547	2535
433.620	3675
433.694	3484
433.767	3958
433.841	3358
433.914	3977
433.988	2785
434.061	3996
434.134	3063
434.208	3439
434.281	3267
434.355	2694
434.428	3252
434.501	2471
434.575	3129
434.648	4008
434.721	3360
434.795	3899
434.868	4433
434.941	4791
435.014	4908
435.088	4285
435.161	5871
435.234	6641
435.307	8305
435.381	11649
435.454	19587
435.527	31643
435.600	30755
435.673	24298
435.746	18336
435.819	14782
435.892	12371
435.966	8875
436.039	5833
436.112	6032
436.185	4655
436.258	4486
436.331	4311
436.404	4236
436.477	4153
436.550	3699
436.623	3889
436.696	2966
436.769	3560
436.842	3183
436.915	3088
436.987	2668
437.060	1978
437.133	2488
437.206	1946
437.279	2929
437.352	4813
437.425	13563
437.498	29193
437.570	11493
437.643	3069
437.716	2289
437.789	1984
437.861	2049
437.934	1919
438.007	2019
438.080	785
438.152	2086
438.225	3667
438.298	7465
438.370	13463
438.443	5558
438.516	3454
438.588	3156
438.661	2757
438.734	2398
438.806	2312
438.879	1675
438.951	2161
439.024	2701
439.096	2396
439.169	3310
439.241	2332
439.314	2068
439.386	2653
439.459	2200
439.531	1744
439.604	2469
439.676	2882
439.749	3647
439.821	4336
439.893	3806
439.966	2823
440.038	1419
440.110	2353
440.183	2605
440.255	1741
440.327	3654
440.400	4128
440.472	6570
440.544	5079
440.617	3235
440.689	3441
440.761	2649
440.833	2659
440.905	3770
440.978	2475
441.050	2890
441.122	4242
441.194	3058
441.266	2666
441.338	1961
441.411	3835
441.483	5298
441.555	4918
441.627	3919
441.699	4181
441.771	4054
441.843	4762
441.915	5675
441.987	5425
442.059	6619
442.131	7707
442.203	10543
442.275	14427
442.347	25420
442.419	71696
442.491	296153
442.563	441610
442.635	154229
442.706	39618
442.778	19673
442.850	14232
442.922	13327
442.994	13615
443.066	14696
443.137	17145
443.209	24820
443.281	40695
443.353	97178
443.425	351009
443.496	811102
443.568	686339
443.640	255827
443.711	71536
443.783	32520
443.855	18550
443.926	14091
443.998	11511
444.070	10132
444.141	8434
444.213	8083
444.285	8107
444.356	8513
444.428	8531
444.499	8517
444.571	8836
444.642	9848
444.714	7980
444.785	9683
444.857	10171
444.928	13811
445.000	14753
445.071	19769
445.143	27121
445.214	41036
445.285	72012
445.357	192649
445.428	610473
445.500	929003
445.571	668685
445.642	385676
445.714	135943
445.785	50448
445.856	26387
445.928	18395
445.999	14682
446.070	12258
446.141	9727
446.213	9027
446.284	8525
446.355	7663
446.426	5869
446.497	6421
446.569	4864
446.640	4932
446.711	4506
446.782	4407
446.853	4077
446.924	3610
446.995	3093
447.066	4103
447.138	4568
447.209	4367
447.280	2912
447.351	2947
447.422	2801
447.493	1812
447.564	2610
447.635	2449
447.706	3124
447.777	3115
447.847	2805
447.918	1288
447.989	2290
448.060	1964
448.131	2151
448.202	1993
448.273	1327
448.344	1877
448.414	2177
448.485	2318
448.556	2268
448.627	1328
448.698	3898
448.768	3186
448.839	2097
448.910	1305
448.981	2228
449.051	1430
449.122	1597
449.193	1286
449.263	2250
449.334	1841
449.405	2032
449.475	2612
449.546	2203
449.616	2931
449.687	4151
449.758	2485
449.828	2229
449.899	2108
449.969	1892
450.040	1709
450.110	1817
450.181	1863
450.251	1210
450.322	2116
450.392	1873
450.463	1855
450.533	2464
450.604	3511
450.674	3752
450.744	3612
450.815	3408
450.885	4772
450.955	4108
451.026	4236
451.096	3720
451.166	3067
451.237	4931
451.307	6262
451.377	5076
451.447	3379
451.518	2783
451.588	2610
451.658	3751
451.728	2629
451.799	1933
451.869	2447
451.939	1808
452.009	2875
452.079	2894
452.149	3098
452.219	3725
452.289	5564
452.360	5367
452.430	5890
452.500	7294
452.570	13316
452.640	33262
452.710	72755
452.780	67207
452.850	38718
452.920	20703
452.990	12640
453.060	8641
453.129	6194
453.199	4172
453.269	4460
453.339	4019
453.409	3604
453.479	3267
453.549	3168
453.619	3689
453.688	1906
453.758	2914
453.828	2496
453.898	1649
453.968	2647
454.037	2596
454.087	1841
454.107	1454
454.168	1479
454.177	1389
454.247	2527
454.249	2598
454.316	2399
454.330	2372
454.386	1953
454.411	2210
454.456	2369
454.492	2449
454.525	2397
454.574	2874
454.595	3011
454.655	2670
454.665	2529
454.734	2336
454.736	2454
454.804	3230
454.817	3346
454.873	3382
454.898	3380
454.943	3165
454.979	3112
455.013	2946
455.060	2866
455.082	2751
455.141	3173
455.152	3165
455.221	3440
455.222	3534
455.291	5196
455.303	5848
455.360	7826
455.384	9688
455.430	11773
455.465	9855
455.499	8033
455.546	5616
455.569	4567
455.627	4805
455.638	4775
455.707	4890
455.708	4964
455.777	4439
455.789	4649
455.846	5354
455.869	5616
455.916	5796
455.950	6516
455.985	6979
456.031	6797
456.054	6597
456.112	7819
456.124	8029
456.193	8424
456.193	8322
456.262	8340
456.274	8461
456.332	8489
456.355	7722
456.401	6267
456.436	6836
456.470	7349
456.516	8338
456.540	8587
456.597	8320
456.609	8195
456.678	8636
456.678	8549
456.747	8042
456.759	8129
456.817	8475
456.840	9036
456.886	9780
456.920	9876
456.955	10045
457.001	11236
457.024	11519
457.082	11849
457.093	11908
457.162	13732
457.163	13843
457.232	15543
457.243	15927
457.301	16370
457.324	16310
457.370	16794
457.405	18144
457.439	19908
457.485	22473
457.508	24268
457.566	29694
457.577	31711
457.646	46971
457.647	47408
457.715	109994
457.727	123612
457.784	227909
457.808	286836
457.853	357251
457.889	400247
457.922	353811
457.969	260765
457.991	280264
458.050	353648
458.060	375761
458.129	602016
458.130	608736
458.198	533937
458.211	505840
458.267	296356
458.292	206807
458.336	164998
458.372	146580
458.405	194389
458.453	279195
458.474	360031
458.533	629353
458.543	652925
458.611	903171
458.614	910809
458.680	528637
458.694	441019
458.749	244455
458.775	162660
458.818	111947
458.855	82171
458.887	68916
458.936	54103
458.955	50183
459.016	40759
459.024	39823
459.093	34316
459.097	34104
459.162	30180
459.177	29637
459.230	30489
459.257	30882
459.299	32638
459.338	35236
459.368	36345
459.418	38659
459.437	36014
459.499	25413
459.505	25173
459.574	22905
459.579	22874
459.643	22656
459.659	22846
459.711	22422
459.740	22152
459.780	21855
459.820	21623
459.849	21448
459.900	21385
459.917	21129
459.981	19700
459.986	19618
460.054	19137
460.061	19188
460.123	19846
460.141	19921
460.191	20028
460.222	20391
460.260	20666
460.302	20906
460.328	21584
460.382	23369
460.397	24007
460.462	26641
460.465	27245
460.534	42134
460.543	44177
460.602	116615
460.623	143347
460.671	218768
460.703	277307
460.739	236867
460.783	173142
460.808	133886
460.864	32624
460.876	29311
460.944	21901
460.945	21817
461.013	20785
461.024	20623
461.081	20284
461.104	20505
461.150	21378
461.184	21743
461.218	22165
461.264	23203
461.286	23072
461.345	22005
461.355	21805
461.423	21197
461.425	21177
461.491	20989
461.505	21116
461.559	20889
461.585	20500
461.628	20034
461.665	20066
461.696	20149
461.745	19886
461.764	19915
461.825	20149
461.832	20154
461.901	20125
461.905	20160
461.969	20528
461.985	20483
462.037	20714
462.065	21115
462.105	21871
462.145	22277
462.173	22562
462.225	23177
462.241	23025
462.305	22422
462.310	22572
462.378	25197
462.385	25434
462.446	26483
462.465	26971
462.514	26960
462.545	26639
462.582	28842
462.625	31552
462.650	33816
462.705	39166
462.718	38265
462.785	33659
462.786	33576
462.854	26801
462.865	25659
462.922	23118
462.945	22253
462.990	22304
463.025	22197
463.058	22663
463.104	23624
463.126	23513
463.184	23184
463.194	23301
463.262	23355
463.264	23363
463.330	25570
463.344	26071
463.398	29509
463.424	30894
463.466	26570
463.504	22689
463.533	23356
463.583	24274
463.601	24243
463.663	23983
463.669	23904
463.737	23121
463.743	23022
463.805	25127
463.823	25677
463.873	26208
463.903	26473
463.940	26735
463.982	26910
464.008	27518
464.062	28820
464.076	29268
464.142	31343
464.144	31651
464.211	41338
464.221	42756
464.279	66210
464.301	75438
464.347	87753
464.381	96964
464.414	70703
464.461	32561
464.482	31715
464.540	29426
464.550	29331
464.617	29311
464.620	29273
464.685	28965
464.699	28870
464.753	30293
464.779	30883
464.820	32486
464.859	33925
464.888	34094
464.938	34377
464.956	34134
465.018	32771
465.023	32637
465.091	30165
465.098	29872
465.158	30210
465.177	30282
465.226	30902
465.257	31127
465.293	31166
465.336	31246
465.361	31607
465.416	32141
465.428	32483
465.495	34031
465.496	34072
465.563	31123
465.575	30587
465.631	31474
465.654	31750
465.698	33024
465.734	33951
465.765	35927
465.813	38734
465.833	38071
465.893	35888
465.900	35652
465.968	32719
465.972	32465
466.035	35944
466.052	36767
466.102	42619
466.131	45845
466.170	46544
466.210	47224
466.237	43872
466.290	36677
466.304	36894
466.369	37390
466.372	37439
466.439	36827
466.449	36651
466.506	36375
466.528	36181
466.573	38002
466.607	39221
466.641	40539
466.687	42220
466.708	42752
466.766	43836
466.775	43761
466.842	42515
466.845	42364
466.909	46055
466.925	46842
466.977	48691
467.004	49469
467.044	51271
467.083	52882
467.111	52013
467.163	50050
467.178	50532
467.242	51963
467.245	52446
467.312	60070
467.321	60950
467.379	89351
467.400	99393
467.446	122836
467.480	139340
467.559	66753
467.638	52247
467.717	52816
467.796	56574
467.875	59386
467.955	63906
468.034	71354
468.113	79415
468.192	98615
468.271	122076
468.350	156349
468.429	186794
468.508	182466
468.588	130568
468.667	93708
468.746	80208
468.825	70113
468.904	61349
468.983	54547
469.062	50899
469.141	47491
469.220	43644
469.299	43849
469.378	43313
469.456	47459
469.535	46350
469.614	47108
469.693	46187
469.772	41295
469.851	40026
469.930	39998
470.009	38255
470.088	40039
470.166	42040
470.245	43935
470.324	45148
470.403	43649
470.482	41361
470.560	41552
470.639	46556
470.718	45676
470.797	40091
470.875	41315
470.954	44050
471.033	40769
471.111	35179
471.190	35864
471.269	36540
471.347	37398
471.426	38621
471.505	40698
471.583	44229
471.662	41752
471.740	39039
471.819	40048
471.898	42523
471.976	37393
472.055	34952
472.133	37570
472.212	40563
472.290	34467
472.369	35406
472.447	38674
472.526	36406
472.604	38216
472.683	39835
472.761	45219
472.839	47923
472.918	38817
472.996	35490
473.075	37842
473.153	42320
473.231	39951
473.310	39844
473.388	40024
473.466	38704
473.545	39274
473.623	40528
473.701	41137
473.780	40445
473.858	39878
473.936	45777
474.014	42856
474.093	44763
474.171	47214
474.249	43228
474.327	41857
474.405	40732
474.484	43290
474.562	40084
474.640	38545
474.718	38446
474.796	39856
474.874	41006
474.952	40898
475.030	39369
475.108	38991
475.187	43818
475.265	47855
475.343	51699
475.421	54852
475.499	37542
475.577	36679
475.655	35341
475.733	36010
475.811	37720
475.889	39234
475.966	46623
476.044	59501
476.122	57961
476.200	50893
476.278	42128
476.356	34102
476.434	33761
476.512	39175
476.590	46246
476.667	44153
476.745	32530
476.823	33004
476.901	32217
476.979	33709
477.056	32917
477.134	32435
477.212	32668
477.290	32801
477.367	32504
477.445	33093
477.523	30246
477.601	30642
477.678	30572
477.756	30908
477.834	32314
477.911	35181
477.989	37108
478.066	38918
478.144	38949
478.222	42570
478.299	61879
478.377	58645
478.454	39328
478.532	37309
478.609	44327
478.687	43628
478.764	31846
478.842	33751
478.919	33514
478.997	32817
479.074	31198
479.152	32198
479.229	32454
479.307	31573
479.384	30200
479.461	31453
479.539	31623
479.616	32720
479.694	31641
479.771	33461
479.848	37517
479.926	41483
480.003	36618
480.080	35111
480.157	35153
480.235	34871
480.312	37047
480.389	41845
480.467	43424
480.544	44327
480.621	47223
480.698	48134
480.775	45180
480.853	41955
480.930	40490
481.007	41262
481.084	47917
481.161	59634
481.238	46743
481.315	39269
481.392	41027
481.470	44681
481.547	47012
481.624	48255
481.701	50708
481.778	56151
481.855	60799
481.932	68602
482.009	68789
482.086	73439
482.163	86190
482.240	99673
482.317	115811
482.393	97537
482.470	73118
482.547	71273
482.624	64567
482.701	63439
482.778	63143
482.855	62999
482.932	64926
483.009	68535
483.085	75992
483.162	87813
483.239	92192
483.316	85739
483.393	83794
483.469	76858
483.546	72175
483.623	68705
483.699	63795
483.776	60807
483.853	69401
483.930	103571
484.006	106147
484.083	65478
484.160	79984
484.236	86079
484.313	79571
484.389	81746
484.466	103775
484.543	141451
484.619	127008
484.696	113891
484.772	91796
484.849	74540
484.925	66614
485.002	64612
485.078	62302
485.155	65765
485.231	84103
485.308	73370
485.384	70024
485.461	87231
485.537	66713
485.614	51845
485.690	50381
485.766	49990
485.843	54872
485.919	70769
485.995	74480
486.072	50159
486.148	49291
486.224	49617
486.301	49971
486.377	49973
486.453	48992
486.530	51233
486.606	57008
486.682	60153
486.758	55641
486.835	58578
486.911	60622
486.987	64397
487.063	69942
487.139	82495
487.215	97004
487.292	112386
487.368	134347
487.444	177620
487.520	252672
487.596	384839
487.672	768977
487.748	2095724
487.824	3139522
487.900	1649180
487.976	553719
488.052	277725
488.128	183774
488.204	137977
488.280	146736
488.356	188940
488.432	112751
488.508	75319
488.584	71108
488.660	67357
488.736	58759
488.812	54090
488.888	55446
488.964	55799
489.039	62569
489.115	66039
489.191	54581
489.267	55321
489.343	55886
489.418	47465
489.494	44707
489.570	46882
489.646	59488
489.722	59151
489.797	51029
489.873	58923
489.949	100078
490.024	115425
490.100	64093
490.176	70080
490.251	47737
490.327	46017
490.403	45517
490.478	48685
490.554	48622
490.629	51015
490.705	45072
490.781	44212
490.856	43599
490.932	47621
491.007	49456
491.083	43209
491.158	38561
491.234	42163
491.309	48382
491.385	44121
491.460	41024
491.536	41594
491.611	35464
491.686	36213
491.762	35401
491.837	37835
491.913	43407
491.988	45123
492.063	57306
492.139	57427
492.214	50148
492.289	35851
492.365	48880
492.440	69687
492.515	38577
492.590	32302
492.666	30241
492.741	32305
492.816	31947
492.891	31038
492.967	32126
493.042	32899
493.117	31656
493.192	30997
493.267	34236
493.342	49530
493.418	58800
493.493	35642
493.568	33727
493.643	29537
493.718	29512
493.793	30515
493.868	33320
493.943	34692
494.018	31142
494.093	28038
494.168	28309
494.243	28951
494.318	30637
494.393	35509
494.468	42146
494.543	32382
494.618	29068
494.693	28695
494.768	28957
494.842	31480
494.917	34100
494.992	37813
495.067	33976
495.142	33639
495.217	31982
495.292	29550
495.366	31191
495.441	37151
495.516	34620
495.591	30157
495.665	35850
495.740	44337
495.815	35070
495.890	31418
495.964	28054
496.039	32369
496.114	36758
496.188	47992
496.263	41394
496.338	31354
496.412	30182
496.487	30083
496.561	30918
496.636	32493
496.710	32299
496.785	34032
496.860	33392
496.934	32667
497.009	35681
497.083	35500
497.158	36141
497.232	36379
497.307	37022
497.381	43612
497.455	43368
497.530	45403
497.604	44128
497.679	42204
497.753	45667
497.827	51837
497.902	54804
497.976	55541
498.050	55749
498.125	66344
498.199	70277
498.273	65790
498.348	62863
498.422	58853
498.496	54866
498.570	53709
498.645	52446
498.719	47739
498.793	45753
498.867	43469
498.941	44391
499.016	44382
499.090	50106
499.164	42934
499.238	38251
499.312	36941
499.386	37477
499.460	38564
499.534	34963
499.609	34749
499.683	34189
499.757	35299
499.831	36055
499.905	42772
499.979	39948
500.053	33071
500.127	33239
500.201	33455
500.275	34252
500.349	32884
500.422	31035
500.496	33966
500.570	35733
500.644	40126
500.718	41068
500.792	35700
500.866	38940
500.940	38272
501.013	33436
501.087	34148
501.161	37029
501.235	34893
501.309	37940
501.382	42215
501.456	42813
501.530	36384
501.603	32870
501.677	32817
501.751	31256
501.825	34516
501.898	34252
501.972	35866
502.046	33053
502.119	31391
502.193	33318
502.266	33358
502.340	31431
502.413	31532
502.487	33339
502.561	32739
502.634	34707
502.708	38695
502.781	35050
502.855	37278
502.928	34943
503.002	34317
503.075	34871
503.149	36473
503.222	37330
503.295	39657
503.369	42253
503.442	46959
503.516	52874
503.589	63675
503.662	74644
503.736	91862
503.809	121489
503.882	167548
503.956	253361
504.029	468467
504.102	1109310
504.175	1617957
504.249	825410
504.322	357769
504.395	203634
504.468	133592
504.542	96499
504.615	73532
504.688	63616
504.761	50751
504.834	50436
504.907	45265
504.980	42997
505.053	43738
505.127	35858
505.200	37447
505.273	33734
505.346	34119
505.419	33841
505.492	32643
505.565	33074
505.638	33283
505.711	27167
505.784	26105
505.857	24700
505.930	27430
506.003	23904
506.076	26107
506.149	23867
506.221	23987
506.294	25423
506.367	25471
506.440	25639
506.513	25422
506.586	25521
506.659	23845
506.731	22670
506.804	22631
506.877	21863
506.950	24680
507.022	27983
507.095	31604
507.168	30696
507.241	25079
507.313	21531
507.386	22624
507.459	26504
507.531	25254
507.604	24360
507.677	26108
507.749	22420
507.822	25738
507.894	29033
507.967	34969
508.040	25961
508.112	25232
508.185	23451
508.257	22417
508.330	26157
508.402	24291
508.475	24867
508.547	24081
508.620	26657
508.692	48238
508.765	53515
508.837	26419
508.909	23828
508.982	24723
509.054	23590
509.127	22942
509.199	22789
509.271	24117
509.344	23153
509.416	21223
509.488	20198
509.560	22332
509.633	21906
509.705	23052
509.777	20791
509.849	22421
509.922	20514
509.994	22051
510.066	21479
510.138	21997
510.210	30357
510.283	30960
510.355	28801
510.427	24795
510.499	24345
510.571	26813
510.643	25670
510.715	26949
510.787	23321
510.859	24884
510.931	24872
511.003	24695
511.076	25464
511.148	24784
511.219	25048
511.291	25959
511.363	24124
511.435	26730
511.507	27937
511.579	28725
511.651	29107
511.723	31288
511.795	24113
511.867	25746
511.939	26013
512.010	23969
512.082	27336
512.154	26893
512.226	33770
512.298	41205
512.369	35957
512.441	28689
512.513	28264
512.585	23917
512.656	24379
512.728	24017
512.800	24050
512.871	25078
512.943	29503
513.015	27883
513.086	27935
513.158	24216
513.230	23938
513.301	26166
513.373	26609
513.444	27296
513.516	34082
513.588	24769
513.659	24301
513.731	24431
513.802	23086
513.874	25254
513.945	25255
514.016	24304
514.088	25376
514.159	22831
514.231	24647
514.302	28756
514.374	27174
514.445	26454
514.516	37117
514.588	31404
514.659	30430
514.730	30374
514.802	31170
514.873	33584
514.944	41114
515.016	36153
515.087	30801
515.158	33985
515.229	39090
515.301	44580
515.372	51274
515.443	42084
515.514	37667
515.585	36813
515.656	32659
515.728	32673
515.799	34424
515.870	42157
515.941	45210
516.012	40436
516.083	40208
516.154	41223
516.225	34451
516.296	34672
516.367	33097
516.438	35429
516.509	42217
516.580	45690
516.651	49334
516.722	57272
516.793	47172
516.864	37692
516.935	37698
517.006	36669
517.077	36598
517.148	46626
517.219	72334
517.289	92503
517.360	53786
517.431	51613
517.502	47262
517.573	46831
517.643	43482
517.714	52778
517.785	49610
517.856	57335
517.926	66981
517.997	70291
518.068	68630
518.138	77574
518.209	83376
518.280	109010
518.350	183899
518.421	163363
518.492	179189
518.562	243382
518.633	339581
518.703	516415
518.774	976336
518.845	2017778
518.915	1854273
518.986	710028
519.056	331486
519.127	214104
519.197	160540
519.268	131379
519.338	108816
519.408	91456
519.479	80048
519.549	70282
519.620	65418
519.690	58768
519.760	56570
519.831	53789
519.901	52522
519.971	65798
520.042	88874
520.112	65192
520.182	55209
520.253	51629
520.323	48187
520.393	46348
520.463	51117
520.534	61491
520.604	66789
520.674	50924
520.744	53689
520.814	53642
520.885	50801
520.955	46367
521.025	46214
521.095	46403
521.165	53343
521.235	46905
521.305	41283
521.375	42420
521.445	51473
521.515	53377
521.585	50426
521.655	44907
521.725	43838
521.795	44264
521.865	39322
521.935	44256
522.005	42633
522.075	41159
522.145	45560
522.215	53366
522.285	55457
522.355	52356
522.424	45806
522.494	44587
522.564	42955
522.634	42827
522.704	46771
522.774	42968
522.843	43295
522.913	49696
522.983	56977
523.053	52395
523.122	48499
523.192	44083
523.262	45402
523.331	46493
523.401	50482
523.471	45513
523.540	42356
523.610	43380
523.680	49133
523.749	54360
523.819	56795
523.888	52885
523.958	49711
524.027	50269
524.097	50836
524.166	45890
524.236	44323
524.305	47750
524.375	46339
524.444	51038
524.514	57076
524.583	58513
524.653	50574
524.722	51833
524.791	49802
524.861	53817
524.930	55442
524.999	54710
525.069	54676
525.138	55703
525.207	60341
525.277	67709
525.346	72062
525.415	72085
525.484	78726
525.554	90799
525.623	103354
525.692	129628
525.761	158649
525.830	204681
525.900	277094
525.969	424934
526.038	758905
526.107	1481295
526.176	3444786
526.245	2918788
526.314	1047188
526.383	2025452
526.452	2619580
526.522	3224322
526.591	3055882
526.660	717342
526.729	447912
526.797	466352
526.867	633400
526.935	1544027
527.004	3897588
527.073	3108496
527.142	642398
527.211	275005
527.280	175093
527.349	133810
527.418	105185
527.487	88266
527.555	76691
527.624	74474
527.693	72174
527.762	67672
527.831	62326
527.899	58648
527.968	53271
528.037	49244
528.106	51061
528.174	49629
528.243	50652
528.312	51039
528.380	47865
528.449	48360
528.518	53693
528.586	50063
528.655	51732
528.723	52652
528.792	54122
528.861	57129
528.929	63917
528.998	78994
529.066	153560
529.135	277396
529.203	252653
529.272	366876
529.340	438741
529.409	373999
529.477	351180
529.545	341359
529.614	356172
529.682	458651
529.751	475791
529.819	485485
529.887	594843
529.956	535445
530.024	494409
530.092	468905
530.161	455085
530.229	471836
530.297	546554
530.365	503210
530.434	556678
530.502	573385
530.570	491058
530.638	444932
530.707	405698
530.775	381471
530.843	416636
530.911	474605
530.979	456089
531.047	544839
531.115	498932
531.183	450538
531.252	419355
531.320	406418
531.388	410119
531.456	478999
531.524	511393
531.592	516593
531.660	588039
531.728	529656
531.796	502294
531.864	488100
531.932	483621
532.000	494434
532.067	554011
532.135	571927
532.203	589656
532.271	624774
532.339	569183
532.407	547970
532.475	536681
532.542	530840
532.610	524918
532.678	570194
532.746	589805
532.814	609133
532.881	619638
532.949	572849
533.017	547840
533.084	530535
533.152	509639
533.220	504308
533.287	528272
533.355	550002
533.423	550298
533.490	581477
533.558	536944
533.625	512377
533.693	488311
533.761	470642
533.828	459059
533.896	466685
533.963	501522
534.031	498808
534.098	532553
534.166	490462
534.233	458776
534.300	445098
534.368	434579
534.435	425933
534.503	432622
534.570	479952
534.637	499459
534.705	545337
534.772	560568
534.840	707468
534.907	1922471
534.974	2201146
535.041	559837
535.109	398080
535.176	370485
535.243	386653
535.310	379265
535.378	386237
535.445	348383
535.512	326266
535.579	313483
535.646	299883
535.714	294953
535.781	293742
535.848	305278
535.915	308934
535.982	311323
536.049	300954
536.116	277109
536.183	262130
536.250	250339
536.317	244860
536.384	239983
536.451	237759
536.518	254748
536.585	251588
536.652	263700
536.719	245327
536.786	226488
536.853	218041
536.920	213955
536.987	204290
537.053	198025
537.120	200551
537.187	216558
537.254	215344
537.321	219858
537.388	204498
537.454	189364
537.521	181605
537.588	176830
537.654	173532
537.721	168844
537.788	168304
537.855	174590
537.921	179147
537.988	185551
538.055	174986
538.121	158172
538.188	149792
538.254	144857
538.321	139932
538.388	140403
538.454	142395
538.521	145771
538.587	156387
538.654	156741
538.720	149154
538.787	137728
538.853	131533
538.920	127693
538.986	119236
539.053	116767
539.119	117037
539.185	116740
539.252	129205
539.318	131811
539.385	137804
539.451	123848
539.517	119489
539.583	113304
539.650	107560
539.716	108244
539.782	105129
539.849	101042
539.915	106295
539.981	108300
540.047	109983
540.114	105899
540.180	104366
540.246	103986
540.312	103769
540.378	97246
540.444	94363
540.510	94375
540.576	94523
540.643	93137
540.709	94639
540.775	99487
540.841	91501
540.907	89358
540.973	86457
541.039	81447
541.105	84751
541.171	84222
541.237	83692
541.303	82121
541.369	87646
541.435	87632
541.500	87356
541.566	79613
541.632	76447
541.698	76320
541.764	77647
541.830	74229
541.896	71886
541.961	71283
542.027	75478
542.093	79387
542.159	79903
542.224	76501
542.290	75853
542.356	72456
542.421	72127
542.487	67029
542.553	64926
542.618	65570
542.684	66340
542.750	65269
542.815	67999
542.881	66593
542.947	73356
543.012	70550
543.078	64064
543.143	61367
543.209	61883
543.274	60055
543.340	60707
543.405	61549
543.471	62910
543.536	62104
543.602	64901
543.667	63194
543.732	66769
543.798	71416
543.863	69089
543.928	60485
543.994	58197
544.059	59476
544.124	61408
544.190	60336
544.255	61286
544.320	60326
544.386	60620
544.451	64144
544.516	62736
544.581	62250
544.646	63208
544.712	64924
544.777	62735
544.842	60021
544.907	64122
544.972	62386
545.037	63329
545.102	65331
545.168	66272
545.233	65604
545.298	67622
545.363	65453
545.428	67850
545.493	73096
545.558	70594
545.623	67638
545.688	67113
545.753	68415
545.818	70107
545.883	75369
545.947	76343
546.012	78787
546.077	76587
546.142	82079
546.207	83880
546.272	88516
546.337	88155
546.401	92362
546.466	97129
546.531	103496
546.596	132407
546.661	165436
546.725	117710
546.790	119426
546.855	130643
546.919	135045
546.984	147424
547.049	157767
547.113	176712
547.178	193012
547.243	218028
547.307	250481
547.372	272651
547.436	269485
547.501	284649
547.565	303669
547.630	277928
547.695	271046
547.759	270839
547.823	275957
547.888	280652
547.952	284608
548.017	299404
548.081	310482
548.146	296777
548.210	306364
548.274	332786
548.339	319102
548.403	294271
548.468	276487
548.532	279170
548.596	282627
548.660	280116
548.725	306230
548.789	331950
548.853	314264
548.917	302613
548.982	290833
549.046	264182
549.110	244132
549.174	253413
549.238	296154
549.303	320233
549.367	328886
549.431	309400
549.495	294991
549.559	295760
549.623	343651
549.687	367141
549.751	359736
549.815	431704
549.879	428446
549.943	410185
550.007	431643
550.071	426802
550.135	389037
550.199	366244
550.263	359519
550.327	353942
550.391	360384
550.455	393675
550.519	412852
550.582	439849
550.646	505413
550.710	508400
550.774	512066
550.838	526575
550.901	552709
550.965	601051
551.029	649774
551.093	721623
551.156	832611
551.220	981990
551.284	1047946
551.347	774940
551.411	597818
551.475	539271
551.538	537529
551.602	488672
551.666	456408
551.729	422104
551.793	408943
551.856	399773
551.920	389989
551.983	388532
552.047	382487
552.110	386405
552.174	389474
552.237	397035
552.301	364018
552.364	347140
552.428	338134
552.491	351775
552.554	357159
552.618	354721
552.681	373122
552.745	385668
552.808	367221
552.871	369860
552.934	361340
552.998	348065
553.061	340768
553.124	327866
553.187	325892
553.251	336464
553.314	334932
553.377	335238
553.440	360479
553.503	371275
553.567	370331
553.630	353633
553.693	345844
553.756	348105
553.819	332284
553.882	315096
553.945	318680
554.008	317718
554.071	323556
554.134	327016
554.197	301695
554.260	292527
554.323	300153
554.386	308583
554.449	325819
554.512	320179
554.575	309060
554.638	302737
554.701	302945
554.764	297029
554.827	288894
554.889	276806
554.952	257822
555.015	254493
555.078	262800
555.141	264605
555.203	252674
555.266	254805
555.329	252510
555.391	242709
555.454	243037
555.517	238307
555.580	240750
555.642	235338
555.705	220242
555.768	215713
555.830	210705
555.893	198517
555.955	194614
556.018	193121
556.080	195413
556.143	203424
556.206	197866
556.268	194920
556.330	189890
556.393	186246
556.455	184327
556.518	184036
556.580	175570
556.643	167638
556.705	165788
556.767	166336
556.830	161799
556.892	156990
556.955	158702
557.017	152728
557.079	153700
557.142	149924
557.204	153448
557.266	163106
557.328	148856
557.391	134763
557.453	134847
557.515	138725
557.577	142682
557.639	148526
557.701	159283
557.764	169257
557.826	174454
557.888	194171
557.950	210535
558.012	240162
558.074	343531
558.136	888771
558.198	2076390
558.260	676653
558.322	254389
558.384	239064
558.446	260635
558.508	303725
558.570	361755
558.632	440439
558.694	580679
558.756	988754
558.818	2558095
558.880	4019800
558.942	2368809
559.003	2286098
559.065	1066767
559.127	433056
559.189	393769
559.251	434391
559.312	622581
559.374	1464197
559.436	3462438
559.498	2057609
559.559	547417
559.621	419775
559.683	454605
559.744	740771
559.806	2187459
559.868	2909761
559.929	756274
559.991	462181
560.052	744011
560.114	2012876
560.176	1229102
560.237	1191048
560.299	1795707
560.360	385677
560.422	152202
560.483	113891
560.545	98308
560.606	93095
560.667	85966
560.729	76237
560.790	70885
560.852	69713
560.913	67671
560.974	64381
561.036	65091
561.097	64403
561.158	61581
561.220	58533
561.281	56822
561.342	55589
561.403	55849
561.465	55941
561.526	55368
561.587	55144
561.648	52706
561.709	51200
561.771	50865
561.832	51299
561.893	49348
561.954	48648
562.015	50862
562.076	49290
562.137	46705
562.198	46568
562.259	46771
562.320	47757
562.381	48865
562.442	48027
562.503	45665
562.564	45239
562.625	45528
562.686	45029
562.747	43291
562.808	45496
562.869	44808
562.930	48238
562.991	66062
563.051	54659
563.112	44298
563.173	44060
563.234	44025
563.294	41988
563.355	38576
563.416	38719
563.477	39928
563.537	39077
563.598	38908
563.659	38617
563.720	38642
563.780	39561
563.841	40479
563.901	40757
563.962	39968
564.023	37609
564.083	36981
564.144	35453
564.204	35038
564.265	37192
564.325	36725
564.386	38448
564.446	42007
564.507	38923
564.567	34669
564.628	35545
564.688	36223
564.749	36449
564.809	38909
564.869	39900
564.930	33882
564.990	34422
565.050	34580
565.111	34704
565.171	35131
565.231	34204
565.292	34254
565.352	34135
565.412	34035
565.472	36980
565.532	37282
565.593	32644
565.653	34321
565.713	34157
565.773	35450
565.833	35429
565.893	35842
565.953	34527
566.013	34737
566.074	35149
566.134	35425
566.194	36430
566.254	48254
566.314	51990
566.374	37407
566.434	37203
566.494	36112
566.554	35731
566.614	37093
566.673	37941
566.733	39610
566.793	40541
566.853	41318
566.913	44340
566.973	47086
567.033	44628
567.092	39391
567.152	41649
567.212	41518
567.272	43034
567.331	43785
567.391	44170
567.451	48383
567.511	51806
567.570	49958
567.630	47020
567.690	43132
567.749	45988
567.809	45453
567.868	46551
567.928	48849
567.988	52068
568.047	57054
568.107	64909
568.166	75994
568.226	103543
568.285	129946
568.345	120839
568.404	106210
568.464	99006
568.523	93747
568.582	95538
568.642	98727
568.701	113273
568.761	146438
568.820	204982
568.879	201795
568.939	163466
568.998	135151
569.057	114563
569.116	99766
569.176	89020
569.235	81242
569.294	73336
569.353	64498
569.413	59969
569.472	55711
569.531	54616
569.590	53544
569.649	53566
569.708	51218
569.767	46567
569.827	44645
569.886	45995
569.945	45544
570.004	41235
570.063	40551
570.122	41656
570.181	40767
570.240	40575
570.299	39806
570.358	39543
570.417	38659
570.475	38776
570.534	39326
570.593	40973
570.652	45389
570.711	43210
570.770	39180
570.829	39475
570.887	37372
570.946	38074
571.005	37381
571.064	38446
571.122	38146
571.181	37610
571.240	38030
571.299	37193
571.357	36663
571.416	36967
571.475	36177
571.533	39323
571.592	41523
571.650	41653
571.709	43179
571.768	51237
571.826	54090
571.885	53961
571.943	43576
572.002	40267
572.060	37276
572.119	36143
572.177	35501
572.236	36295
572.294	36751
572.352	39787
572.411	40617
572.469	39268
572.528	35635
572.586	37510
572.644	34812
572.703	34702
572.761	33855
572.819	34245
572.877	34069
572.936	35297
572.994	33475
573.052	33611
573.110	35038
573.169	38861
573.227	36378
573.285	36446
573.343	36506
573.401	37434
573.459	36963
573.517	38140
573.576	42367
573.634	42367
573.692	40895
573.750	42844
573.808	40023
573.866	37406
573.924	36595
573.982	37450
574.040	39672
574.098	39162
574.155	35838
574.213	37787
574.271	40777
574.329	48729
574.387	46372
574.445	38317
574.503	35804
574.560	35257
574.618	36284
574.676	36889
574.734	36480
574.792	34871
574.849	32282
574.907	31715
574.965	29754
575.022	28400
575.080	27873
575.138	28740
575.195	27392
575.253	27918
575.311	26831
575.368	29074
575.426	28529
575.483	29182
575.541	28900
575.598	29978
575.656	30478
575.713	32881
575.771	36574
575.828	35554
575.886	30816
575.943	29928
576.001	28664
576.058	28752
576.115	29610
576.173	30654
576.230	30394
576.287	32007
576.345	31255
576.402	33185
576.459	34557
576.517	33950
576.574	32016
576.631	27569
576.688	27226
576.746	26630
576.803	27687
576.860	28972
576.917	30425
576.974	29326
577.031	26807
577.089	27709
577.146	27340
577.203	25767
577.260	29041
577.317	30065
577.374	28713
577.431	26115
577.488	27237
577.545	26834
577.602	27806
577.659	27334
577.716	26697
577.773	28548
577.830	26772
577.886	26947
577.943	26671
578.000	27447
578.057	27713
578.114	27471
578.171	29228
578.227	29086
578.284	28548
578.341	29553
578.398	29819
578.454	31311
578.511	30341
578.568	30648
578.625	30877
578.681	31715
578.738	32797
578.794	33792
578.851	34696
578.908	35070
578.964	33596
579.021	34519
579.077	35411
579.134	38527
579.190	33380
579.247	34444
579.303	34921
579.360	35403
579.416	35910
579.473	36118
579.529	37026
579.586	37876
579.642	39374
579.698	38768
579.755	40883
579.811	41550
579.867	41941
579.924	42613
579.980	44064
580.036	45794
580.093	46190
580.149	48270
580.205	47795
580.261	50078
580.317	51564
580.374	53648
580.430	56394
580.486	54896
580.542	56539
580.598	56848
580.619	58053
580.654	60235
580.692	59967
580.710	59972
580.765	60367
580.767	60471
580.823	61569
580.838	61926
580.879	63176
580.911	64657
580.935	65911
580.984	65820
580.991	65911
581.047	68638
581.057	68273
581.103	67190
581.130	68061
581.159	69113
581.203	70350
581.215	70802
581.270	73557
581.276	73309
581.326	71868
581.349	72286
581.382	73059
581.422	73917
581.438	74431
581.494	74896
581.494	74826
581.550	76457
581.567	76983
581.606	78325
581.640	78747
581.661	79158
581.713	81432
581.717	81699
581.773	81893
581.786	82187
581.829	83474
581.859	84526
581.885	85583
581.932	87708
581.940	88188
581.996	90101
582.004	90237
582.052	91342
582.077	91764
582.107	92513
582.150	94153
582.163	94706
582.219	96677
582.223	96605
582.274	96753
582.296	97668
582.330	99286
582.368	100956
582.386	101828
582.441	103906
582.441	103967
582.497	105384
582.514	106244
582.552	108541
582.587	110214
582.608	111299
582.659	113905
582.663	114168
582.719	117617
582.732	118318
582.774	120743
582.805	123716
582.830	126432
582.877	133580
582.885	134786
582.941	150234
582.950	153711
582.996	171785
583.023	183715
583.052	196693
583.095	192137
583.107	190762
583.162	171365
583.168	169957
583.218	157363
583.240	151856
583.273	144094
583.313	137929
583.328	135571
583.384	127901
583.385	127668
583.439	120924
583.458	120051
583.494	118360
583.531	113916
583.549	111777
583.603	112432
583.605	112412
583.660	102979
583.676	103906
583.715	106867
583.748	105774
583.770	104721
583.820	105231
583.825	105258
583.881	106854
583.893	105188
583.936	99173
583.965	101758
583.991	104117
584.038	105646
584.046	105804
584.101	102168
584.110	103119
584.156	107824
584.183	107601
584.211	107021
584.255	105398
584.266	105070
584.321	113303
584.328	113749
584.376	115771
584.400	113030
584.431	109493
584.472	111301
584.486	111820
584.541	119822
584.545	119847
584.596	118485
584.617	117403
584.651	115383
584.689	118041
584.706	119029
584.761	122194
584.762	122314
584.816	122894
584.834	122611
584.871	121074
584.906	121623
584.926	121832
584.978	123291
584.980	123230
585.035	126801
585.051	127322
585.090	127777
585.123	130351
585.145	132088
585.195	139099
585.200	139611
585.254	150623
585.267	153916
585.309	163615
585.340	173683
585.364	181632
585.412	200148
585.419	202733
585.473	238275
585.484	248824
585.528	295038
585.556	351311
585.583	420096
585.628	634542
585.637	688811
585.692	1301978
585.700	1406085
585.747	1882371
585.772	1578764
585.801	1127673
585.845	563820
585.856	446628
585.910	261230
585.917	249926
585.965	194932
585.989	179531
586.019	162411
586.061	149020
586.074	145031
586.128	132132
586.133	131398
586.183	120231
586.205	116905
586.237	112082
586.277	105202
586.292	102361
586.346	96904
586.349	96855
586.401	92153
586.421	90379
586.455	86984
586.493	84233
586.509	82899
586.564	79246
586.565	79387
586.618	78099
586.637	79463
586.672	82919
586.709	88012
586.727	89889
586.781	94884
586.781	94666
586.835	81660
586.853	78324
586.889	71589
586.925	67545
586.944	65398
586.996	62922
586.998	62705
587.052	60780
587.068	60455
587.106	59136
587.140	58518
587.161	58285
587.212	57824
587.215	57582
587.269	56755
587.284	56736
587.323	56711
587.356	56934
587.377	57032
587.427	57269
587.431	57095
587.485	56898
587.499	57110
587.539	57312
587.571	58652
587.593	59361
587.643	61285
587.648	61283
587.702	61484
587.715	62022
587.755	63003
587.786	63859
587.810	64366
587.858	67366
587.864	67530
587.917	70535
587.930	71561
587.971	73742
588.001	75101
588.025	76457
588.073	81806
588.079	82229
588.133	88335
588.145	90210
588.187	97299
588.217	103773
588.241	108518
588.288	120221
588.295	121697
588.348	137422
588.360	141937
588.402	157287
588.431	170084
588.456	181264
588.503	208016
588.510	211625
588.564	251436
588.575	261792
588.617	301398
588.646	336081
588.671	371845
588.718	460714
588.725	478204
588.778	660461
588.789	710830
588.832	994628
588.861	1229055
588.886	1476740
588.932	1886679
588.939	1904096
588.993	1842070
589.004	1853582
589.047	1604508
589.075	1295572
589.100	1044478
589.147	653586
589.154	619450
589.207	465316
589.218	443429
589.261	403854
589.290	394022
589.314	401912
589.361	445755
589.368	459984
589.421	629307
589.433	679963
589.475	996080
589.504	1249975
589.528	1441143
589.576	1678776
589.582	1643099
589.635	1267006
589.647	1155304
589.689	718609
589.718	467626
589.742	370818
589.790	240311
589.795	230666
589.849	169680
589.861	158880
589.902	134592
589.932	120097
589.955	110867
590.004	95493
590.009	93949
590.062	83568
590.075	81659
590.115	75504
590.146	71494
590.168	68697
590.218	64740
590.222	64056
590.275	59318
590.289	58312
590.328	55450
590.360	53521
590.381	52191
590.431	50956
590.435	50578
590.488	48048
590.503	47757
590.541	46509
590.574	45769
590.594	44791
590.645	43490
590.647	43230
590.700	42730
590.716	42801
590.753	41530
590.787	41167
590.806	40761
590.859	40302
590.859	40057
590.912	40173
590.930	40596
590.965	40152
591.001	40026
591.018	39258
591.071	37567
591.072	37799
591.124	36506
591.143	36442
591.177	36517
591.214	37407
591.230	36969
591.283	36194
591.285	36395
591.336	35468
591.356	35700
591.389	34641
591.427	33735
591.442	33618
591.495	34163
591.498	34454
591.547	33152
591.569	33004
591.600	32561
591.640	32522
591.653	32370
591.706	32851
591.711	33171
591.759	32296
591.782	32287
591.811	32543
591.853	33610
591.864	33406
591.917	33851
591.924	34163
591.969	32754
591.995	32504
592.022	32278
592.066	32690
592.075	32449
592.127	32835
592.137	33213
592.180	32680
592.208	32822
592.233	32803
592.279	33834
592.285	33576
592.338	34096
592.350	34532
592.390	33277
592.421	32975
592.443	32832
592.491	33615
592.495	33278
592.548	33431
592.562	33828
592.600	33726
592.633	34310
592.653	33350
592.704	31624
592.705	31807
592.775	32492
592.846	33328
592.916	33320
592.987	35477
593.058	35282
593.128	35424
593.199	34731
593.270	37046
593.341	38611
593.411	38387
593.482	40679
593.553	39619
593.623	39935
593.694	40667
593.764	40798
593.835	39862
593.906	41367
593.976	40920
594.047	41822
594.117	43123
594.188	42182
594.258	42859
594.329	42658
594.399	43886
594.470	45815
594.540	47307
594.611	47285
594.681	46644
594.751	47497
594.822	48752
594.892	52014
594.963	51010
595.033	52452
595.103	54070
595.174	53755
595.244	55986
595.314	58504
595.384	57039
595.455	59821
595.525	61928
595.595	64631
595.665	65228
595.736	62651
595.806	65215
595.876	66638
595.946	66958
596.016	68629
596.087	70075
596.157	71396
596.227	72735
596.297	75553
596.367	79609
596.437	83913
596.507	83977
596.577	84825
596.647	86926
596.717	91728
596.787	91778
596.857	92763
596.927	96498
596.997	95544
597.067	98298
597.137	102481
597.207	108317
597.277	106458
597.347	103722
597.417	100391
597.487	101821
597.557	105149
597.626	105075
597.696	107115
597.766	106814
597.836	103873
597.906	101977
597.975	104953
598.045	105400
598.115	108965
598.185	115089
598.254	125738
598.324	131767
598.394	135082
598.464	133156
598.533	135677
598.603	131569
598.672	131928
598.742	138581
598.812	140321
598.881	141127
598.951	143501
599.020	144161
599.090	148258
599.159	151972
599.229	150367
599.299	148783
599.368	153719
599.437	154246
599.507	149994
599.576	150263
599.646	152211
599.715	153130
599.785	154817
599.854	155662
599.924	158596
599.993	158674
600.062	164125
600.132	167303
600.201	175877
600.270	187060
600.340	197017
600.409	196677
600.478	198601
600.547	201412
600.617	199086
600.686	186485
600.755	183485
600.824	183985
600.894	188246
600.963	190105
601.032	193448
601.101	194660
601.170	196866
601.239	196742
601.308	204195
601.378	208033
601.447	208239
601.516	214515
601.585	218796
601.654	225223
601.723	229580
601.792	235497
601.861	240565
601.930	250974
601.999	262120
602.068	256037
602.137	257838
602.206	256746
602.275	257018
602.343	259577
602.412	260244
602.481	263710
602.550	263508
602.619	265558
602.688	263922
602.756	268266
602.825	266548
602.894	272829
602.963	268440
603.032	274688
603.100	274630
603.169	267432
603.238	278144
603.307	266857
603.375	269609
603.444	280212
603.513	260980
603.581	272514
603.650	285203
603.719	243782
603.787	233828
603.856	237539
603.924	238345
603.993	243862
604.061	248964
604.130	254090
604.198	261387
604.267	260484
604.335	266969
604.404	265465
604.472	275491
604.541	273030
604.609	283980
604.678	290778
604.746	298023
604.815	307149
604.883	295230
604.951	283502
605.020	292156
605.088	270535
605.156	254978
605.225	252844
605.293	251271
605.361	255924
605.429	249082
605.498	255716
605.566	250530
605.634	260675
605.702	257186
605.771	259700
605.839	262576
605.907	244200
605.975	257102
606.043	242673
606.111	234006
606.180	256829
606.248	223376
606.316	219279
606.384	238641
606.452	179163
606.520	143130
606.588	145119
606.656	147617
606.724	144496
606.792	136693
606.860	125344
606.928	116963
606.996	114775
607.064	113305
607.132	116511
607.200	122911
607.267	126036
607.335	128268
607.403	130354
607.471	127001
607.539	123627
607.607	124473
607.674	111983
607.742	112812
607.810	110349
607.878	111315
607.946	111589
608.013	116126
608.081	117992
608.149	116689
608.216	117858
608.284	121969
608.352	118531
608.419	117420
608.487	115680
608.555	108268
608.622	114178
608.690	118033
608.757	125347
608.825	128584
608.893	123803
608.960	117352
609.028	110137
609.095	111374
609.163	110106
609.230	98236
609.298	90934
609.365	95441
609.432	105281
609.500	113698
609.567	127533
609.635	144031
609.702	152780
609.769	147682
609.837	118368
609.904	107647
609.971	115405
610.039	140462
610.106	200662
610.173	411166
610.241	940037
610.308	558099
610.375	177332
610.442	126338
610.509	113185
610.577	109588
610.644	107678
610.711	111256
610.778	112144
610.845	116498
610.912	123645
610.980	126393
611.047	126962
611.114	125115
611.181	120536
611.248	119850
611.315	127377
611.382	129200
611.449	134173
611.516	137405
611.583	137857
611.650	139406
611.717	144221
611.784	149536
611.851	161106
611.918	185324
611.984	235794
612.051	365343
612.118	749518
612.185	1720956
612.252	1146440
612.319	346127
612.386	227611
612.452	187824
612.519	169186
612.586	159793
612.653	160245
612.719	163179
612.786	154986
612.853	143139
612.919	139293
612.986	139999
613.053	132303
613.120	126662
613.186	127590
613.253	128098
613.319	124232
613.386	122902
613.453	123196
613.519	126080
613.586	122108
613.652	124103
613.719	120255
613.785	125628
613.852	126435
613.918	124203
613.985	126815
614.051	132369
614.118	133789
614.184	128580
614.250	125711
614.317	127311
614.383	126216
614.449	127364
614.516	126652
614.582	128836
614.648	126369
614.715	125914
614.781	124102
614.847	128621
614.914	124536
614.980	120505
615.046	122574
615.112	125174
615.179	126025
615.245	128709
615.311	129462
615.377	136985
615.443	142223
615.509	140083
615.575	145092
615.642	145858
615.708	150770
615.774	161575
615.840	181684
615.906	215290
615.972	288483
616.038	468131
616.104	954567
616.170	2021479
616.236	1728808
616.302	553381
616.368	374208
616.434	259508
616.500	222547
616.565	244297
616.631	322118
616.697	265632
616.763	266820
616.829	418471
616.895	760988
616.961	740772
617.026	341575
617.092	203490
617.158	165683
617.224	151130
617.289	134504
617.355	127309
617.421	123260
617.487	122700
617.552	116143
617.618	113573
617.684	114235
617.749	115919
617.815	112925
617.880	109989
617.946	107882
618.012	111520
618.077	111760
618.143	106528
618.208	107939
618.274	113194
618.339	113452
618.405	94799
618.470	92930
618.536	92987
618.601	92669
618.667	87442
618.732	82818
618.798	84743
618.863	84724
618.928	83947
618.994	85928
619.059	86586
619.124	91431
619.190	88333
619.255	83032
619.320	82323
619.386	80685
619.451	81742
619.516	79369
619.581	80079
619.647	82721
619.712	83335
619.777	80988
619.842	81025
619.907	82632
619.972	85050
620.038	85270
620.103	82565
620.168	82981
620.233	84381
620.298	84540
620.363	87020
620.428	89629
620.493	92641
620.558	92942
620.623	92746
620.688	91148
620.753	90647
620.818	91128
620.883	91253
620.948	90844
621.013	88787
621.078	86529
621.143	85901
621.207	88031
621.272	84959
621.337	82701
621.402	81681
621.467	80887
621.532	81106
621.596	82357
621.661	78620
621.726	78607
621.791	81776
621.855	80258
621.920	80240
621.985	80828
622.049	83704
622.114	83321
622.179	85660
622.243	88804
622.308	87648
622.373	90347
622.437	89652
622.502	83072
622.566	81494
622.631	81952
622.695	84739
622.760	82420
622.824	84115
622.889	82984
622.953	82716
623.018	89002
623.082	88438
623.147	87551
623.211	86686
623.276	86434
623.340	80800
623.404	79604
623.469	80119
623.533	83175
623.597	80037
623.662	79114
623.726	74664
623.790	70367
623.854	70355
623.919	71292
623.983	70152
624.047	69720
624.111	71742
624.176	73748
624.240	74226
624.304	75401
624.368	72251
624.432	71175
624.496	72995
624.560	77591
624.625	76905
624.689	76844
624.753	81106
624.817	73832
624.881	72724
624.945	68925
625.009	67274
625.073	66387
625.137	67442
625.201	69186
625.265	70704
625.329	69234
625.393	67920
625.456	66571
625.520	69611
625.584	69988
625.648	72705
625.712	72929
625.776	72220
625.839	67653
625.903	59717
625.967	55724
626.031	61615
626.095	68363
626.158	64130
626.222	51533
626.286	49815
626.349	46787
626.413	44857
626.477	43929
626.540	43274
626.604	43028
626.668	44322
626.731	42120
626.795	42829
626.858	41827
626.922	39848
626.986	40490
627.049	39497
627.113	43782
627.176	43343
627.240	39074
627.303	40141
627.366	38108
627.430	39583
627.493	39082
627.557	38897
627.620	41144
627.684	40847
627.747	40085
627.810	36819
627.874	35124
627.937	33286
628.000	36073
628.064	34588
628.127	28078
628.190	29272
628.253	28533
628.317	27301
628.380	26713
628.443	26515
628.506	24980
628.569	24168
628.632	22249
628.696	23156
628.759	22215
628.822	21672
628.885	20231
628.948	20850
629.011	20455
629.074	20370
629.137	18616
629.200	18798
629.263	19829
629.326	17686
629.389	19016
629.452	18631
629.515	19418
629.578	18078
629.641	20871
629.704	19286
629.767	17947
629.830	18329
629.892	18139
629.955	17810
630.018	20284
630.081	18633
630.144	19211
630.207	17100
630.269	19021
630.332	18108
630.395	17733
630.458	18492
630.520	16140
630.583	18492
630.646	18827
630.708	18577
630.771	17732
630.834	20491
630.896	18852
630.959	20107
631.021	19516
631.084	19673
631.146	20461
631.209	20473
631.272	20025
631.334	21348
631.397	21431
631.459	23401
631.522	25837
631.584	27007
631.646	30012
631.709	32716
631.771	32471
631.834	31006
631.896	28234
631.958	25966
632.021	23531
632.083	21842
632.145	21200
632.208	19601
632.270	19787
632.332	19200
632.395	17621
632.457	18888
632.519	17404
632.581	19630
632.643	17772
632.706	18846
632.768	16708
632.830	18697
632.892	18857
632.954	18777
633.016	19515
633.078	18826
633.141	19402
633.203	18915
633.265	18660
633.327	18368
633.389	18925
633.451	20843
633.513	20546
633.575	19255
633.637	21021
633.698	22325
633.760	22698
633.822	24852
633.884	25628
633.946	27740
634.008	29728
634.070	32331
634.132	35512
634.193	40114
634.255	46019
634.317	46916
634.379	45126
634.441	38382
634.502	33427
634.564	30859
634.626	29726
634.687	29073
634.749	23222
634.811	23018
634.873	21730
634.934	21199
634.996	21576
635.057	20156
635.119	21897
635.181	23166
635.242	23299
635.304	20927
635.365	24358
635.427	22812
635.488	23146
635.550	23431
635.611	24934
635.673	24123
635.734	30032
635.796	30702
635.857	35731
635.918	39100
635.980	45434
636.041	49283
636.102	53771
636.164	54351
636.225	51553
636.286	43630
636.348	37388
636.409	32231
636.470	27188
636.531	26685
636.593	22987
636.654	22325
636.715	18996
636.776	19720
636.838	18541
636.899	18876
636.960	17104
637.021	18098
637.082	17901
637.143	18445
637.204	16196
637.265	15241
637.326	17106
637.387	17735
637.448	15007
637.509	16592
637.570	16102
637.631	16736
637.692	13933
637.753	13307
637.814	14612
637.875	14842
637.936	14716
637.997	13144
638.058	13365
638.119	14266
638.179	13692
638.240	12773
638.301	13132
638.362	12378
638.423	12287
638.483	13926
638.544	10874
638.605	12655
638.666	11613
638.726	13376
638.787	13678
638.848	12127
638.908	12277
638.969	12162
639.030	11289
639.090	11178
639.151	11108
639.211	13044
639.272	12597
639.332	13905
639.393	15779
639.453	16357
639.514	17698
639.574	14987
639.635	11526
639.695	12577
639.756	11344
639.816	12397
639.877	10674
639.937	12685
639.997	12607
640.058	10849
640.118	11141
640.178	13151
640.239	11627
640.299	12461
640.359	13176
640.420	15304
640.480	18138
640.540	22120
640.600	23411
640.661	19594
640.721	17711
640.781	19245
640.841	15397
640.901	15007
640.961	13497
641.021	14752
641.082	16839
641.142	14170
641.202	13283
641.262	9938
641.322	11882
641.382	10994
641.442	11370
641.502	10313
641.562	11694
641.622	12855
641.682	14189
641.742	19488
641.802	17447
641.861	13851
641.921	10299
641.981	11701
642.041	10309
642.101	11249
642.161	9437
642.221	10341
642.280	10684
642.340	9984
642.400	9916
642.460	12500
642.519	12085
642.579	11218
642.639	13002
642.698	10216
642.758	14562
642.818	12450
642.877	11124
642.937	12094
642.997	12098
643.056	12667
643.116	10930
643.175	14603
643.235	13987
643.294	15239
643.354	19324
643.414	24161
643.473	34924
643.532	38705
643.592	52511
643.651	84418
643.711	149761
643.770	287391
643.830	664019
643.889	1295801
643.948	382270
644.008	82590
644.067	42624
644.126	30641
644.186	23644
644.245	20583
644.304	16574
644.363	18216
644.423	13880
644.482	16112
644.541	17738
644.600	17430
644.659	24243
644.719	33721
644.778	52795
644.837	92408
644.896	191064
644.955	423385
645.014	155090
645.073	36331
645.132	23313
645.191	20121
645.250	18491
645.309	20786
645.368	21093
645.427	31710
645.486	56804
645.545	105732
645.604	32209
645.663	18405
645.722	17633
645.781	21435
645.840	24336
645.898	32209
645.957	49333
646.016	77434
646.075	140195
646.134	269116
646.192	677129
646.251	969461
646.310	192574
646.369	55024
646.427	39156
646.486	27904
646.545	20176
646.603	16674
646.662	15300
646.721	15186
646.779	15308
646.838	17312
646.896	23361
646.955	32692
647.014	52325
647.072	104363
647.131	285127
647.189	145891
647.248	22428
647.306	14411
647.365	12632
647.423	8550
647.481	10713
647.540	8085
647.598	8800
647.657	8780
647.715	9049
647.773	6765
647.832	8794
647.890	6929
647.948	7270
648.007	7679
648.065	6756
648.123	6719
648.181	8569
648.240	7001
648.298	6345
648.356	7519
648.414	7173
648.472	8383
648.531	8915
648.589	7873
648.647	7435
648.705	8223
648.763	7646
648.821	9386
648.879	9574
648.937	11810
648.995	16634
649.053	23386
649.111	35952
649.169	61723
649.227	110885
649.285	232446
649.343	622197
649.401	325158
649.459	47964
649.516	24874
649.574	17052
649.632	20405
649.690	21538
649.748	25463
649.806	37164
649.863	73463
649.921	203364
649.979	146141
650.037	21625
650.094	9252
650.152	9047
650.210	7361
650.268	7254
650.325	6973
650.383	5636
650.440	4796
650.498	5947
650.556	5153
650.613	3694
650.671	5430
650.728	5888
650.786	6866
650.843	10200
650.901	6304
650.958	4892
651.016	5358
651.073	4437
651.131	4108
651.188	3453
651.246	4288
651.303	3564
651.360	4141
651.418	3098
651.475	3895
651.532	2720
651.590	4181
651.647	2713
651.704	3599
651.762	3118
651.819	4156
651.876	3602
651.933	3720
651.990	3375
652.048	2781
652.105	2726
652.162	3991
652.219	2966
652.276	3891
652.333	3349
652.390	2515
652.448	2561
652.505	3128
652.562	2582
652.619	3067
652.676	3180
652.733	4684
652.790	2991
652.847	2446
652.904	3538
652.961	1718
653.017	1767
653.074	3496
653.131	3397
653.188	1881
653.245	3109
653.302	3590
653.359	2706
653.415	2789
653.472	2825
653.529	3068
653.586	2092
653.642	2910
653.699	3978
653.756	3688
653.813	3473
653.869	4561
653.926	3122
653.983	2749
654.039	3100
654.096	2785
654.152	3144
654.209	1798
654.266	2981
654.322	2757
654.379	2967
654.435	3351
654.492	1721
654.548	3538
654.605	2327
654.661	3733
654.717	3249
654.774	3975
654.830	3608
654.887	3266
654.943	3230
655.000	4645
655.056	3711
655.112	3578
655.168	2766
655.225	3843
655.281	3813
655.337	3766
655.394	2559
655.450	3467
655.506	3518
655.562	3646
655.618	4705
655.675	3731
655.731	4680
655.787	4614
655.843	4874
655.899	5721
655.955	6387
656.011	7533
656.067	7560
656.123	10330
656.179	10503
656.235	12225
656.291	10047
656.347	11389
656.403	7899
656.459	7975
656.515	6429
656.571	5515
656.627	5276
656.683	4909
656.739	4408
656.795	4120
656.850	3904
656.906	4408
656.962	4302
657.018	4168
657.074	4675
657.129	6304
657.185	10157
657.241	23800
657.297	15123
657.352	4532
657.408	2988
657.464	3482
657.519	2515
657.575	1963
657.630	2034
657.686	2335
657.742	1488
657.797	2463
657.853	1977
657.908	3855
657.964	2011
658.019	3219
658.075	2103
658.130	3227
658.186	1328
658.241	2649
658.297	1731
658.352	1627
658.407	2185
658.463	2820
658.518	1933
658.573	2844
658.629	1232
658.684	2488
658.739	3007
658.795	1652
658.850	1956
658.905	1681
658.960	2139
659.016	1880
659.071	1938
659.126	1464
659.181	1842
659.236	2819
659.291	2740
659.346	1793
659.401	1371
659.457	2821
659.512	1478
659.567	2634
659.622	1022
659.677	2086
659.732	854
659.787	1816
659.842	1842
659.897	1652
659.952	2351
660.007	2655
660.061	1434
660.116	1145
660.171	1169
660.226	2053
660.281	2205
660.336	1150
660.391	2428
660.445	1954
660.500	2058
660.555	2870
660.610	1070
660.664	3298
660.719	1289
660.774	2462
660.828	1751
660.883	2171
660.938	2042
660.992	1023
661.047	1914
661.101	1579
661.156	1587
661.211	1382
661.265	2326
661.320	2103
661.374	2620
661.429	1972
661.483	2304
661.538	1334
661.592	1261
661.647	1780
661.701	2582
661.755	1767
661.810	1822
661.864	1795
661.919	1849
661.973	2599
662.027	989
662.081	989
662.136	1866
662.190	2015
662.244	2101
662.299	1110
662.353	1618
662.407	2235
662.461	1697
662.515	2373
662.569	1606
662.624	2757
662.678	1449
662.732	1275
662.786	2041
662.840	2159
662.894	1920
662.948	1539
663.002	1766
663.056	2626
663.110	1166
663.164	2126
663.218	1670
663.272	1807
663.326	1761
663.380	2601
663.434	2036
663.488	1505
663.542	2445
663.595	2477
663.649	2133
663.703	2258
663.757	1863
663.811	2053
663.864	2678
663.918	2086
663.972	1416
664.026	2003
664.079	1859
664.133	2655
664.187	2581
664.240	2151
664.294	2801
664.348	2651
664.401	2714
664.455	2488
664.508	2315
664.562	2048
664.615	1865
664.669	1533
664.722	2442
664.776	2146
664.829	2054
664.883	1688
664.936	1688
664.990	2367
665.043	2692
665.097	2036
665.150	2819
665.203	2296
665.257	2641
665.310	2404
665.363	2456
665.417	3039
665.470	2840
665.523	3323
665.576	2759
665.630	3562
665.683	2450
665.736	3511
665.789	2885
665.842	3243
665.895	2306
665.949	2882
666.002	2561
666.055	1877
666.108	2298
666.161	2438
666.214	2294
666.267	3265
666.320	3180
666.373	2391
666.426	2597
666.479	1918
666.532	3088
666.585	3475
666.638	3416
666.691	2106
666.744	3438
666.796	2095
666.849	1883
666.902	3405
666.955	2189
667.008	2636
667.060	1799
667.113	1912
667.166	2962
667.219	2890
667.271	2334
667.324	3182
667.377	2895
667.430	2224
667.482	2014
667.535	2408
667.587	2256
667.640	3055
667.693	2041
667.745	2361
667.798	3562
667.850	2239
667.903	2163
667.955	2400
668.008	2449
668.060	3246
668.113	2298
668.165	2780
668.218	1388
668.270	3010
668.322	2404
668.375	2290
668.427	2338
668.479	1649
668.532	2381
668.584	2941
668.636	2142
668.689	3732
668.741	3086
668.793	2828
668.845	2353
668.898	2622
668.950	3169
669.002	2079
669.054	1652
669.106	2333
669.158	2126
669.211	1800
669.263	2474
669.315	3068
669.367	2900
669.419	2949
669.471	3818
669.523	3835
669.575	3966
669.627	3124
669.679	2075
669.731	2834
669.783	3097
669.835	3212
669.886	2985
669.938	3345
669.990	2895
670.042	3159
670.094	3211
670.146	2499
670.197	2476
670.249	2777
670.301	2565
670.353	3441
670.404	3189
670.456	3291
670.508	4016
670.560	6534
670.611	8892
670.663	14144
670.715	33687
670.766	61335
670.818	22552
670.869	6249
670.921	4667
670.972	5780
671.024	4043
671.075	4067
671.127	4201
671.178	4359
671.230	5260
671.281	6759
671.333	6731
671.384	8975
671.436	11702
671.487	16608
671.538	23468
671.590	37057
671.641	59221
671.692	112360
671.744	225799
671.795	211169
671.846	96821
671.897	46916
671.949	28150
672.000	19439
672.051	13416
672.102	10557
672.153	7884
672.204	7089
672.256	6113
672.307	5363
672.358	5049
672.409	4313
672.460	4410
672.511	3050
672.562	3591
672.613	3088
672.664	3233
672.715	3070
672.766	3427
672.817	3035
672.868	2650
672.919	3771
672.970	1893
673.021	2852
673.071	2315
673.122	2471
673.173	2648
673.224	2100
673.275	2611
673.326	2334
673.376	2630
673.427	1850
673.478	1726
673.528	3479
673.579	2529
673.630	2440
673.680	2718
673.731	2443
673.782	2073
673.832	2202
673.883	2673
673.934	2603
673.984	2052
674.035	2847
674.085	2896
674.136	3107
674.186	2636
674.237	2585
674.287	2188
674.338	3272
674.388	3428
674.438	3349
674.489	4158
674.539	4674
674.589	3976
674.640	3870
674.690	4027
674.740	3723
674.791	3471
674.841	3181
674.891	2669
674.942	2655
674.992	2470
675.042	2497
675.092	2518
675.142	2325
675.193	1977
675.243	2524
675.293	2799
675.343	2530
675.393	2041
675.443	3761
675.493	2011
675.543	2738
675.593	2304
675.643	2863
675.693	2925
675.743	2697
675.793	2523
675.843	1712
675.893	1965
675.943	2201
675.993	1474
676.043	1181
676.093	2187
676.142	1549
676.192	2583
676.242	1960
676.292	1432
676.341	2157
676.391	1746
676.441	1818
676.491	1963
676.540	1245
676.590	1749
676.640	1528
676.689	1065
676.739	1251
676.789	1319
676.838	1636
676.888	1838
676.937	1716
676.987	1552
677.037	1369
677.086	990
677.136	1283
677.185	1710
677.235	1944
677.284	1560
677.333	1666
677.383	1607
677.432	1331
677.482	1494
677.531	1633
677.580	1318
677.630	1548
677.679	943
677.728	1190
677.778	2086
677.827	1333
677.876	1371
677.925	1630
677.975	2005
678.024	2688
678.073	2198
678.122	1736
678.171	2288
678.220	2858
678.269	4385
678.319	4901
678.368	6145
678.417	4747
678.466	3229
678.515	2480
678.564	948
678.613	1293
678.662	1789
678.711	1157
678.760	2232
678.809	1855
678.857	1478
678.906	2415
678.955	1675
679.004	2289
679.053	1738
679.102	2082
679.151	1534
679.199	2072
679.248	1516
679.297	1747
679.346	2399
679.394	1688
679.443	1311
679.492	2363
679.540	2538
679.589	1764
679.638	1907
679.686	1947
679.735	2799
679.784	3296
679.832	4727
679.881	3941
679.929	2069
679.978	1480
680.026	856
680.075	1138
680.123	1309
680.172	1006
680.220	1627
680.268	1623
680.317	1508
680.365	1402
680.414	1567
680.462	1395
680.510	1614
680.559	1781
680.607	1510
680.655	1518
680.703	792
680.752	2212
680.800	1281
680.848	1460
680.896	730
680.945	1511
680.993	609
681.041	736
681.089	933
681.137	1878
681.185	1123
681.233	1419
681.258	1523
681.281	1608
681.329	1343
681.377	341
681.380	402
681.425	1276
681.473	1249
681.502	1898
681.521	2320
681.569	2118
681.617	1357
681.624	1430
681.665	1806
681.713	2619
681.745	2221
681.761	2014
681.809	1610
681.857	1649
681.867	1682
681.904	1724
681.952	1269
681.989	1581
682.000	1663
682.048	1795
682.096	1235
682.111	1173
682.143	982
682.191	2031
682.233	2009
682.239	1994
682.286	1135
682.334	2140
682.354	1849
682.382	1416
682.430	1884
682.476	2335
682.477	2333
682.525	1322
682.572	2168
682.598	1489
682.620	887
682.667	1627
682.715	2036
682.720	2096
682.763	2485
682.810	2223
682.841	2071
682.857	1991
682.905	1284
682.952	2717
682.963	2572
683.000	2012
683.047	2071
683.085	2847
683.095	3035
683.142	2633
683.190	2044
683.206	2186
683.237	2431
683.284	3203
683.328	2773
683.332	2725
683.379	2245
683.426	3146
683.449	2495
683.473	1836
683.521	2462
683.568	2276
683.571	2316
683.615	2654
683.662	2910
683.693	2808
683.709	2742
683.757	2520
683.804	3053
683.814	2883
683.851	2240
683.898	2921
683.936	2764
683.945	2708
683.992	2574
684.039	2546
684.057	2209
684.086	1694
684.133	2768
684.179	2223
684.180	2197
684.227	2514
684.274	3017
684.300	2707
684.321	2461
684.368	2817
684.415	3316
684.422	3365
684.462	3594
684.509	3391
684.543	3581
684.556	3613
684.603	3092
684.649	3750
684.665	3475
684.696	2925
684.743	3496
684.786	2776
684.790	2697
684.837	2563
684.883	2906
684.908	2956
684.930	3054
684.977	3386
685.023	3218
685.029	3228
685.070	3252
685.117	4182
685.150	3705
685.164	3507
685.210	3685
685.257	3136
685.272	3369
685.303	3839
685.350	3941
685.393	4095
685.396	4096
685.443	3380
685.490	3437
685.514	3282
685.536	3217
685.583	3550
685.629	3895
685.636	3825
685.675	3293
685.722	3036
685.757	2943
685.768	2897
685.815	3442
685.861	3482
685.878	3552
685.908	3688
685.954	3337
686.000	3535
686.000	3537
686.047	3903
686.093	3188
686.121	3515
686.139	3668
686.185	4048
686.232	3844
686.242	3919
686.278	4214
686.324	4159
686.363	4276
686.370	4294
686.416	3501
686.463	4305
686.484	4068
686.509	3775
686.555	3723
686.601	4136
686.606	4137
686.647	4082
686.693	3617
686.727	3755
686.739	3849
686.785	4187
686.831	3634
686.848	3843
686.877	4166
686.923	3744
686.969	4354
686.969	4357
687.015	4144
687.061	4290
687.090	4891
687.107	5157
687.153	4506
687.199	4455
687.211	4296
687.245	4071
687.291	4587
687.332	4652
687.336	4652
687.382	4074
687.428	4292
687.453	4736
687.474	5071
687.520	4969
687.565	4317
687.574	4346
687.611	4693
687.657	5459
687.695	5689
687.702	5746
687.748	5646
687.794	6639
687.816	6643
687.839	6260
687.885	5154
687.931	5319
687.937	5236
687.976	5050
688.022	5211
688.058	4947
688.067	4920
688.113	5108
688.158	4936
688.179	4838
688.204	4699
688.249	4967
688.295	5080
688.300	5050
688.340	4977
688.386	5431
688.421	4920
688.431	4745
688.477	5177
688.522	5403
688.542	5437
688.567	5596
688.613	5417
688.658	5623
688.663	5695
688.703	5941
688.749	5276
688.784	5261
688.794	5319
688.839	4740
688.884	5054
688.905	5056
688.930	5086
688.975	4991
689.020	4995
689.026	5077
689.065	5604
689.110	5234
689.146	5143
689.155	5176
689.201	5314
689.246	5716
689.267	5659
689.291	5406
689.336	5850
689.381	5150
689.388	5151
689.426	5356
689.471	4988
689.509	5207
689.516	5280
689.561	5767
689.606	5513
689.630	5757
689.651	5841
689.696	5546
689.741	5348
689.750	5393
689.785	5800
689.830	5811
689.871	6120
689.875	6132
689.920	5464
689.965	5555
689.992	5332
690.010	5238
690.054	5589
690.099	5127
690.112	5191
690.144	5517
690.189	5484
690.233	5985
690.233	5995
690.278	5969
690.323	5887
690.354	5749
690.367	5712
690.412	5951
690.457	6348
690.474	6302
690.501	6076
690.546	5786
690.590	5892
690.595	5838
690.635	5701
690.680	6007
690.716	5385
690.724	5256
690.769	5715
690.813	5954
690.836	5964
690.857	6030
690.902	6132
690.946	6440
690.957	6380
690.991	6293
691.035	7201
691.077	7166
691.080	7154
691.124	7419
691.168	6970
691.198	6807
691.213	6665
691.257	5996
691.301	5843
691.318	5623
691.346	5636
691.390	5945
691.434	6023
691.439	6045
691.478	6188
691.522	5882
691.559	6166
691.567	6266
691.611	6581
691.655	6953
691.680	6856
691.699	6670
691.743	6702
691.787	6355
691.800	6395
691.831	6707
691.875	6646
691.919	6953
691.921	6938
691.964	6589
692.008	6594
692.041	6396
692.052	6386
692.096	6415
692.139	6555
692.162	6508
692.183	6435
692.227	6150
692.271	6182
692.282	6183
692.315	6569
692.359	6622
692.402	7148
692.403	7163
692.447	7229
692.490	7051
692.523	7136
692.534	7128
692.578	6877
692.622	6324
692.643	6360
692.666	6520
692.709	6536
692.753	6087
692.763	6198
692.797	6595
692.840	6290
692.884	6463
692.884	6479
692.928	6415
692.971	6734
693.004	6962
693.015	6997
693.059	6912
693.102	6845
693.124	6795
693.146	6759
693.189	6743
693.233	6894
693.245	6793
693.276	6873
693.320	7593
693.363	7641
693.365	7630
693.407	7244
693.450	7024
693.485	6907
693.493	6972
693.537	7207
693.580	7251
693.605	7513
693.624	7781
693.667	7838
693.710	8063
693.725	8139
693.753	8455
693.797	8955
693.840	9634
693.845	9669
693.883	9550
693.926	9315
693.966	9012
693.970	8972
694.013	8674
694.056	8134
694.086	7796
694.099	7816
694.142	7716
694.185	7922
694.206	7765
694.229	7717
694.272	8070
694.315	8070
694.326	8088
694.358	7967
694.401	7818
694.444	7805
694.446	7772
694.487	7784
694.530	7685
694.566	8030
694.573	8084
694.616	7954
694.659	7832
694.686	7838
694.702	7934
694.745	7989
694.787	8008
694.806	8043
694.830	8015
694.873	7918
694.916	7843
694.926	7777
694.959	7977
695.002	8280
695.044	8671
695.046	8665
695.087	8702
695.130	8809
695.166	8629
695.172	8643
695.215	8608
695.258	8846
695.286	9000
695.301	8992
695.343	8600
695.386	8503
695.406	8419
695.428	8753
695.471	9060
695.514	9658
695.526	9815
695.556	10187
695.599	10642
695.641	10973
695.646	10974
695.684	10508
695.726	10148
695.766	9748
695.769	9770
695.811	9747
695.854	9636
695.886	9645
695.896	9669
695.938	9551
695.981	9630
696.005	9371
696.023	9425
696.065	10004
696.108	10507
696.125	10655
696.150	10814
696.192	10976
696.235	11115
696.245	11171
696.277	11199
696.319	11066
696.361	10854
696.365	10827
696.404	10934
696.446	10769
696.485	10725
696.488	10770
696.530	10902
696.572	11213
696.604	11306
696.614	11277
696.656	11173
696.698	10978
696.724	10844
696.740	10857
696.783	10815
696.825	10831
696.844	10782
696.867	11041
696.909	11443
696.951	11912
696.964	12042
696.992	11878
697.034	11411
697.076	11057
697.083	10981
697.118	11294
697.160	11575
697.202	11786
697.203	11765
697.244	11878
697.286	11906
697.323	11827
697.327	11841
697.369	11854
697.411	11774
697.442	11626
697.453	11699
697.494	11943
697.536	12226
697.562	12366
697.578	12361
697.620	12196
697.661	12108
697.682	12020
697.703	12143
697.744	12357
697.786	12523
697.801	12550
697.828	12483
697.869	12333
697.911	12179
697.921	12121
697.952	12348
697.994	12567
698.035	12756
698.040	12759
698.077	12716
698.118	12497
698.160	12373
698.160	12342
698.201	12482
698.243	12563
698.279	12660
698.284	12720
698.325	12927
698.367	13206
698.399	13332
698.408	13420
698.449	13694
698.491	13958
698.518	14120
698.532	14156
698.573	14139
698.614	14114
698.638	14061
698.656	14110
698.697	14164
698.738	14202
698.757	14178
698.779	14069
698.820	13800
698.862	13541
698.877	13410
698.903	13540
698.944	13688
698.985	13841
698.996	13851
699.026	13840
699.067	13778
699.116	13674
699.235	13225
699.354	14115
699.474	12517
699.593	12777
699.713	13526
699.832	12947
699.951	14050
700.070	12892
700.190	12659
700.309	12691
700.428	12987
700.547	12376
700.667	12112
700.786	12744
700.905	12477
701.024	11887
701.143	11329
701.262	12755
701.381	13296
701.500	12251
701.619	12206
701.738	12514
701.857	12788
701.976	12413
702.095	12411
702.214	13072
702.333	12473
702.452	11850
702.571	12411
702.690	12280
702.809	12192
702.928	11977
703.047	12409
703.165	10913
703.284	12353
703.403	10853
703.522	11667
703.640	11669
703.759	11135
703.878	11172
703.997	11039
704.115	11546
704.234	11093
704.353	11966
704.471	10801
704.590	10289
704.708	9861
704.827	10376
704.946	10398
705.064	10411
705.183	9581
705.301	11389
705.420	10264
705.538	10568
705.656	9573
705.775	9537
705.893	10588
706.012	10602
706.130	9834
706.249	10266
706.367	9604
706.485	10297
706.604	9438
706.722	10139
706.840	11197
706.958	13599
707.077	11137
707.195	9268
707.313	9259
707.431	8751
707.549	8375
707.668	8174
707.786	9401
707.904	8449
708.022	9227
708.140	8921
708.258	9056
708.376	10059
708.494	9304
708.612	10291
708.730	11147
708.848	10686
708.966	9756
709.084	10433
709.202	9104
709.320	7751
709.438	8228
709.556	8213
709.674	8206
709.791	8689
709.909	7684
710.027	8190
710.145	8617
710.263	8727
710.380	8908
710.498	7122
710.616	8509
710.733	7746
710.851	7701
710.969	9194
711.086	7497
711.204	7919
711.322	8414
711.439	8042
711.557	7685
711.674	8598
711.792	8586
711.909	8027
712.027	8059
712.144	7157
712.262	7757
712.379	7857
712.497	7595
712.614	7824
712.732	8456
712.849	7253
712.966	8316
713.084	8325
713.201	8370
713.318	8860
713.436	9489
713.553	10609
713.670	12029
713.787	11186
713.905	9834
714.022	11185
714.139	12406
714.256	19878
714.373	33840
714.490	73204
714.608	219415
714.725	911187
714.842	806100
714.959	70904
715.076	26938
715.193	17193
715.310	14913
715.427	11010
715.544	11594
715.661	10341
715.778	8707
715.895	8972
716.011	9718
716.128	9355
716.245	8369
716.362	8101
716.479	7975
716.596	8282
716.713	8368
716.829	8298
716.946	7273
717.063	7638
717.180	6121
717.296	7475
717.413	7462
717.530	7567
717.646	6593
717.763	6293
717.880	6671
717.996	6854
718.113	6285
718.229	6552
718.346	6039
718.462	5966
718.579	7249
718.695	6034
718.812	6681
718.928	6263
719.045	6662
719.161	7391
719.277	7191
719.394	6705
719.510	8305
719.626	10462
719.743	15069
719.859	28664
719.975	69082
720.092	306070
720.208	620252
720.324	68485
720.440	15690
720.557	10391
720.673	9912
720.789	7323
720.905	7305
721.021	6403
721.137	6723
721.253	6245
721.369	6223
721.486	6128
721.602	5650
721.718	5428
721.834	5456
721.950	6257
722.066	4940
722.181	5123
722.297	5404
722.413	5619
722.529	5812
722.645	5721
722.761	5336
722.877	5887
722.993	8406
723.108	11935
723.224	9453
723.340	6647
723.456	5208
723.571	5501
723.687	5064
723.803	5602
723.918	4884
724.034	4865
724.150	4733
724.265	4585
724.381	4776
724.497	4769
724.612	4366
724.728	4451
724.843	4623
724.959	5631
725.074	5107
725.190	5777
725.305	5767
725.421	4443
725.536	5501
725.651	4719
725.767	4720
725.882	5443
725.997	4593
726.113	5280
726.228	4499
726.343	5536
726.459	4159
726.574	4619
726.689	4961
726.804	4603
726.920	4133
727.035	4988
727.150	3995
727.265	4419
727.380	5070
727.495	5089
727.610	5120
727.725	4208
727.841	5038
727.956	5502
728.071	4824
728.186	4722
728.301	4225
728.416	4866
728.531	4106
728.645	4794
728.760	5460
728.875	4911
728.990	5395
729.105	4954
729.220	4025
729.335	5252
729.449	5148
729.564	4291
729.679	4090
729.794	5006
729.908	5030
730.023	4918
730.138	4789
730.253	4920
730.367	4875
730.482	4632
730.596	4502
730.711	5898
730.826	6715
730.940	6758
731.055	5652
731.169	6465
731.284	6746
731.398	6439
731.513	6707
731.627	8248
731.742	9502
731.856	10475
731.970	13932
732.085	19708
732.199	33598
732.313	66242
732.428	179415
732.542	485982
732.656	254979
732.771	47642
732.885	22947
732.999	16345
733.113	13414
733.227	12537
733.342	11525
733.456	10874
733.570	8446
733.684	8256
733.798	8224
733.912	8121
734.026	7766
734.140	8674
734.254	7453
734.368	7470
734.482	8448
734.596	7794
734.710	6469
734.824	6928
734.938	6803
735.052	6858
735.166	6867
735.280	6773
735.393	6811
735.507	6762
735.621	6418
735.735	6712
735.849	6414
735.962	6400
736.076	5969
736.190	6625
736.303	6922
736.417	6339
736.531	6358
736.644	6566
736.758	6210
736.872	6140
736.985	6184
737.099	5855
737.212	4557
737.326	6266
737.439	6299
737.553	6423
737.666	6181
737.780	5380
737.893	5875
738.007	5797
738.120	5389
738.233	5431
738.347	5718
738.460	5100
738.573	6327
738.687	5417
738.800	5454
738.913	5202
739.026	6331
739.140	6024
739.253	5007
739.366	5654
739.479	5018
739.592	5779
739.705	5245
739.818	6430
739.932	5450
740.045	5510
740.158	5929
740.271	5581
740.384	6042
740.497	6124
740.610	6527
740.723	6392
740.836	6065
740.949	6527
741.062	6318
741.174	6291
741.287	6046
741.400	5223
741.513	5262
741.626	6198
741.739	4989
741.851	5167
741.964	6024
742.077	5328
742.189	6287
742.302	9618
742.415	7271
742.527	6123
742.640	6485
742.753	5197
742.865	5806
742.978	4853
743.090	4752
743.203	5020
743.316	5105
743.428	5116
743.541	5002
743.653	4358
743.766	4737
743.878	5467
743.990	6037
744.103	9668
744.215	12542
744.327	6235
744.440	6128
744.552	5345
744.664	4226
744.777	4726
744.889	4951
745.001	5600
745.113	4811
745.226	4326
745.338	4877
745.450	5184
745.562	4609
745.674	4714
745.786	4714
745.898	4454
746.010	4434
746.122	4755
746.234	3961
746.347	5105
746.459	6389
746.570	6183
746.682	10737
746.794	18440
746.906	6798
747.018	5187
747.130	5239
747.242	4660
747.354	4200
747.466	5878
747.577	4871
747.689	4419
747.801	4781
747.913	3959
748.024	3385
748.136	3725
748.248	4348
748.359	4573
748.471	3632
748.583	3695
748.694	3501
748.806	4305
748.918	3106
749.029	3568
749.141	4872
749.252	4255
749.364	2819
749.475	3500
749.587	4127
749.698	3326
749.809	4789
749.921	3847
750.032	3923
750.144	3489
750.255	3743
750.366	3026
750.478	3922
750.589	3584
750.700	4135
750.811	4264
750.923	3441
751.034	3459
751.145	4234
751.256	3051
751.367	3601
751.479	3839
751.590	2743
751.701	3043
751.812	3587
751.923	3912
752.034	4434
752.145	3813
752.256	4215
752.367	2958
752.478	3661
752.589	4726
752.700	3524
752.811	2923
752.922	4309
753.032	3755
753.143	4271
753.254	2774
753.365	4953
753.476	4494
753.586	4030
753.697	3256
753.808	3142
753.919	3167
754.029	2904
754.140	3784
754.251	3346
754.361	3621
754.472	3729
754.582	2850
754.693	4043
754.804	3564
754.914	2970
755.025	2963
755.135	2818
755.246	3398
755.356	2767
755.466	3113
755.577	2982
755.687	3291
755.798	2744
755.908	2979
756.018	3762
756.129	3621
756.239	2796
756.349	4461
756.460	4910
756.570	5692
756.680	3581
756.790	3627
756.900	3713
757.011	3076
757.121	3158
757.231	2611
757.341	3638
757.451	2514
757.561	2776
757.671	3078
757.781	2740
757.891	3257
758.001	2908
758.111	4144
758.221	4291
758.331	4493
758.441	5027
758.551	4157
758.661	4549
758.771	4335
758.880	4239
758.990	4198
759.100	4498
759.210	3397
759.320	4357
759.429	4885
759.539	6047
759.649	5854
759.758	7740
759.868	8460
759.978	7515
760.087	9718
760.197	9276
760.307	9041
760.416	7520
760.526	6964
760.635	7666
760.745	7327
760.854	9615
760.964	11380
761.073	10064
761.182	8978
761.292	8174
761.401	7097
761.511	5369
761.620	5394
761.729	4711
761.839	3057
761.948	3572
762.057	2797
762.166	3461
762.276	2861
762.385	4297
762.494	3886
762.603	3438
762.712	3680
762.822	3510
762.931	3160
763.040	2647
763.149	2219
763.258	2655
763.367	3784
763.476	2611
763.585	2905
763.694	3412
763.803	3005
763.912	3933
764.021	2946
764.130	2736
764.238	3690
764.347	3314
764.456	2990
764.565	4068
764.674	3025
764.783	2464
764.891	2511
765.000	3001
765.109	2573
765.217	3064
765.326	3314
765.435	2887
765.543	4075
765.652	3507
765.761	4751
765.869	5914
765.978	8500
766.086	14228
766.195	29496
766.303	85216
766.412	282654
766.520	220215
766.629	37281
766.737	13966
766.846	8182
766.954	5342
767.062	5743
767.171	3842
767.279	4163
767.387	2886
767.496	2725
767.604	3101
767.712	2889
767.820	3250
767.928	3205
768.037	2435
768.145	3652
768.253	3715
768.361	2147
768.469	2077
768.577	2600
768.685	3102
768.793	2722
768.901	2797
769.009	2313
769.117	2576
769.225	2685
769.333	5199
769.441	7303
769.549	12836
769.657	28885
769.765	106857
769.873	238589
769.981	60462
770.088	10417
770.196	5953
770.304	5926
770.412	4992
770.519	3490
770.627	3274
770.735	3376
770.842	3039
770.950	3545
771.058	1957
771.165	3079
771.273	3209
771.380	3597
771.488	5116
771.595	4916
771.703	4024
771.810	3581
771.918	3535
772.025	4372
772.133	5328
772.240	5191
772.348	6401
772.455	4698
772.562	3840
772.670	4270
772.777	5585
772.884	4363
772.991	4594
773.099	4090
773.206	4607
773.313	3727
773.420	4943
773.528	3618
773.635	3838
773.742	3880
773.849	4851
773.956	4875
774.063	4841
774.170	4051
774.277	4079
774.384	3708
774.491	2969
774.598	4302
774.705	3491
774.812	4174
774.919	3969
775.026	3323
775.133	4017
775.239	3641
775.346	2636
775.453	3663
775.560	3726
775.667	3621
775.773	2689
775.880	4091
775.987	3617
776.093	4181
776.200	3537
776.307	3251
776.413	4119
776.520	4166
776.627	4158
776.733	3973
776.840	2890
776.946	8825
777.053	16271
777.159	30591
777.266	14559
777.372	26132
777.478	19025
777.585	7702
777.691	4013
777.798	4320
777.904	3259
778.010	3653
778.117	3154
778.223	3513
778.329	3238
778.435	3410
778.542	3758
778.648	3000
778.754	2118
778.860	3317
778.966	3031
779.072	2678
779.178	3430
779.284	2295
779.391	3060
779.497	2115
779.603	4636
779.708	2175
779.815	3700
779.920	4565
780.026	5939
780.132	3401
780.238	1681
780.344	2456
780.450	3854
780.556	2026
780.661	2485
780.767	2950
780.873	2115
780.979	3176
781.085	2770
781.190	2515
781.296	2643
781.402	2364
781.507	2663
781.613	2000
781.719	2290
781.824	2311
781.930	2869
782.035	2637
782.141	1911
782.246	1931
782.352	1832
782.457	2069
782.563	2330
782.668	1487
782.773	1619
782.879	1155
782.984	2863
783.090	2720
783.195	3107
783.300	3251
783.405	1990
783.511	1462
783.616	2573
783.721	2462
783.826	2088
783.932	2199
784.037	2818
784.142	2074
784.247	1509
784.352	2173
784.457	1418
784.562	2300
784.667	1849
784.772	1648
784.877	1343
784.982	2107
785.087	1816
785.192	2547
785.297	1694
785.402	2349
785.507	2544
785.611	2910
785.716	1244
785.821	1533
785.926	2526
786.031	1878
786.135	1930
786.240	2058
786.345	382
786.450	2064
786.554	1502
786.659	759
786.763	462
786.868	2005
786.973	1856
787.077	808
787.182	1901
787.286	1874
787.391	2126
787.495	1960
787.600	1573
787.704	1793
787.809	1925
787.913	1430
788.017	1941
788.122	2197
788.226	1706
788.330	1314
788.435	2177
788.539	1668
788.643	1848
788.747	1032
788.852	1386
788.956	1415
789.060	2220
789.164	1505
789.268	709
789.372	2808
789.476	1666
789.580	672
789.684	1580
789.788	1685
789.892	2153
789.996	1647
790.100	1255
790.204	1383
790.308	2206
790.412	1306
790.516	1064
790.620	1077
790.724	2138
790.828	1758
790.931	748
791.035	2543
791.139	1362
791.242	769
791.346	2202
791.450	2071
791.554	984
791.657	986
791.761	1777
791.864	1201
791.968	1556
792.072	1989
792.175	1405
792.279	1007
792.382	1864
792.486	1736
792.589	1317
792.693	2241
792.796	649
792.899	1817
793.003	2432
793.106	946
793.209	1617
793.313	2159
793.416	314
793.519	1977
793.623	2157
793.726	1283
793.829	783
793.932	588
794.035	-10
794.138	2209
794.242	1828
794.345	1316
794.448	1134
794.551	921
794.654	3751
794.757	3617
794.860	1306
794.963	1067
795.066	1471
795.169	2846
795.272	273
795.375	1633
795.477	642
795.580	1633
795.683	-92
795.786	1720
795.889	280
795.991	1635
796.094	1668
796.197	273
796.300	2911
796.402	1790
796.505	1124
796.608	1928
796.710	2199
796.813	2025
796.915	1457
797.018	1803
797.120	2097
797.223	464
797.326	2434
797.428	652
797.530	994
797.633	2068
797.735	2544
797.838	1086
797.940	2689
798.042	1346
798.145	1343
798.247	2123
798.349	580
798.452	1907
798.554	1364
798.656	1428
798.758	3181
798.860	2577
798.962	1167
799.065	1209
799.167	721
799.269	3072
799.371	3588
799.473	4003
799.575	2279
799.677	2091
799.779	2502
799.881	-16
799.983	2622
800.085	2348
800.187	793
800.289	1490
800.390	1379
800.492	1350
800.594	1458
800.696	1294
800.798	385
800.899	802
801.001	436
801.103	1899
801.205	1711
801.306	1698
801.408	1206
801.509	1603
801.611	1103
801.713	1056
801.814	841
801.916	1503
802.017	619
802.119	399
802.220	1219
802.322	-268
802.423	2299
802.525	-118
802.626	1113
802.727	1191
802.829	2004
802.930	-1023
803.031	2039
803.133	1098
803.234	1634
803.335	1158
803.436	487
803.538	1498
803.639	361
803.740	1290
803.841	965
803.942	1960
804.043	1716
804.144	368
804.245	1579
804.346	398
804.447	490
804.548	881
804.649	1676
804.750	797
804.851	401
804.952	1142
805.053	1212
805.154	254
805.255	1374
805.355	814
805.456	773
805.557	1013
805.658	-595
805.758	1650
805.859	1643
805.960	319
806.061	-325
806.161	307
806.262	772
806.362	-169
806.463	159
806.564	1340
806.664	248
806.765	804
806.865	698
806.966	469
807.066	-248
807.166	1494
807.267	1081
807.367	-33
807.468	1220
807.568	-500
807.668	1861
807.769	597
807.869	411
807.969	161
808.069	1210
808.170	672
808.270	125
808.370	182
808.470	867
808.570	-380
808.670	864
808.770	468
808.870	-317
808.970	939
809.070	534
809.170	-553
809.271	1060
809.370	-28
809.470	1386
809.570	101
809.670	94
809.770	263
809.870	730
809.970	953
810.070	365
810.169	1226
810.269	-593
810.369	1413
810.469	516
810.568	146
810.668	585
810.768	445
810.867	470
810.967	311
811.066	-9
811.166	283
811.265	1026
811.365	-142
811.464	345
811.564	720
811.663	361
811.763	177
811.862	1554
811.962	1185
812.061	677
812.160	795
812.260	662
812.359	300
812.458	62
812.557	642
812.657	624
812.756	1041
812.855	552
812.954	467
813.053	1012
813.153	1030
813.252	92
813.351	353
813.450	979
813.549	443
813.648	482
813.747	498
813.846	1433
813.945	764
814.044	586
814.143	784
814.242	1410
814.341	-5
814.439	1439
814.538	779
814.637	883
814.736	488
814.835	2286
814.933	1149
815.032	1524
815.131	1245
815.229	2703
815.328	3948
815.427	2833
815.525	3509
815.624	2995
815.722	2087
815.821	2889
815.919	3393
816.018	3144
816.116	3004
816.215	3290
816.313	3021
816.412	3940
816.510	4511
816.609	5919
816.707	4789
816.805	4162
816.904	5501
817.002	6247
817.100	6654
817.198	6168
817.296	5769
817.395	6364
817.493	6732
817.591	5830
817.689	7824
817.787	9399
817.885	13710
817.983	22384
818.081	46378
818.179	107761
818.277	250881
818.375	196143
818.473	61751
818.571	25716
818.669	18551
818.767	18110
818.865	15529
818.963	17937
819.061	26176
819.158	44236
819.256	92788
819.354	209605
819.452	410984
819.549	250060
819.647	76258
819.745	33437
819.842	21108
819.940	16215
820.038	11886
820.135	9970
820.233	9725
820.330	6817
820.428	6089
820.525	6615
820.623	5358
820.720	3987
820.818	5458
820.915	6039
821.012	6027
821.110	4252
821.207	4520
821.304	3565
821.402	4947
821.499	7759
821.596	10468
821.693	5904
821.791	3809
821.888	2869
821.985	4370
822.082	3357
822.179	5297
822.276	6498
822.373	3150
822.470	3031
822.567	3205
822.664	2236
822.761	3275
822.858	2568
822.955	2183
823.052	1693
823.149	1914
823.246	2682
823.343	2065
823.440	2648
823.536	3045
823.633	1545
823.730	2137
823.827	3119
823.923	2824
824.020	3021
824.117	4936
824.213	4444
824.310	3536
824.407	2342
824.503	2857
824.600	2490
824.696	2147
824.793	4154
824.889	3330
824.986	3343
825.082	1971
825.179	3534
825.275	2880
825.371	3895
825.468	2556
825.564	286
825.660	1765
825.757	3756
825.853	2485
825.949	882
826.045	2189
826.142	1744
826.238	1877
826.334	2044
826.430	1341
826.526	1730
826.622	2191
826.718	1986
826.814	1381
826.910	2593
827.006	606
827.102	960
827.198	2173
827.294	2100
827.390	2613
827.486	2092
827.582	1142
827.678	1032
827.774	2868
827.869	958
827.965	2837
828.061	609
828.157	2737
828.252	1461
828.348	1231
828.444	1687
828.539	283
828.635	2129
828.731	2455
828.826	1649
828.922	2071
829.017	2356
829.113	3154
829.208	1605
829.304	2776
829.399	4312
829.495	1609
829.590	2541
829.685	1944
829.781	2443
829.876	1780
829.971	892
830.066	949
830.162	2201
830.257	2217
830.352	1186
830.447	3016
830.543	2032
830.638	2192
830.733	4138
830.828	1886
830.923	3940
831.018	2290
831.113	2167
831.208	801
831.303	786
831.398	1634
831.493	2192
831.588	2790
831.683	2033
831.778	998
831.873	1560
831.967	2949
832.062	1730
832.157	1180
832.252	2917
832.346	1503
832.441	1983
832.536	1505
832.631	1997
832.725	1200
832.820	1804
832.914	1962
833.009	578
833.104	1202
833.198	1571
833.293	1285
833.387	2474
833.482	1673
833.576	1849
833.670	4006
833.765	3433
833.859	2668
833.954	2272
834.048	2032
834.142	1998
834.237	1396
834.331	1492
834.425	1779
834.519	517
834.613	1418
834.708	884
834.802	1675
834.896	1253
834.990	1235
835.084	1062
835.178	1012
835.272	1745
835.366	1261
835.460	2350
835.554	1312
835.648	1474
835.742	498
835.836	1946
835.930	445
836.024	1682
836.117	2003
836.211	26
836.305	1172
836.399	854
836.493	493
836.586	2349
836.680	850
836.774	827
836.867	1942
836.961	457
837.055	951
837.148	965
837.242	1087
837.335	764
837.429	955
837.522	960
837.616	475
837.709	465
837.803	482
837.896	2056
837.989	735
838.083	890
838.176	1439
838.269	81
838.363	910
838.456	779
838.549	1299
838.642	1121
838.735	1088
838.829	1874
838.922	-43
839.015	991
839.108	398
839.201	1581
839.294	1644
839.387	903
839.480	60
839.573	575
839.666	1005
839.759	430
839.852	-8
839.945	1109
840.038	194
840.131	606
840.223	967
840.316	948
840.409	384
840.502	1332
840.594	1090
840.687	-587
840.780	749
840.873	-279
840.965	-188
841.058	823
841.150	828
841.243	720
841.336	1223
841.428	739
841.521	705
841.613	673
841.706	1152
841.798	1172
841.890	1583
841.983	130
842.075	1286
842.167	1048
842.260	1068
842.352	1222
842.444	280
842.537	665
842.629	468
842.721	629
842.813	951
842.905	-283
842.997	1263
843.090	424
843.182	621
843.274	576
843.366	1184
843.458	241
843.550	1165
843.642	1172
843.734	249
843.826	11
843.918	558
844.009	746
844.101	-262
844.193	1457
844.285	848
844.377	2514
844.469	4106
844.560	6757
844.652	4306
844.744	2251
844.835	748
844.927	1237
845.019	936
845.110	659
845.202	1106
845.293	213
845.385	682
845.476	1004
845.568	1351
845.659	644
845.751	1176
845.842	574
845.934	518
846.025	611
846.116	1359
846.208	587
846.299	486
846.390	344
846.482	571
846.573	1783
846.664	506
846.755	77
846.846	665
846.937	-595
847.029	549
847.120	707
847.211	491
847.302	1901
847.393	211
847.484	1438
847.575	-636
847.666	716
847.757	428
847.847	1327
847.938	716
848.029	715
848.120	815
848.211	713
848.302	-43
848.392	845
848.483	1478
848.574	1101
848.664	1112
848.755	1226
848.846	846
848.936	467
849.027	2792
849.118	2554
849.208	5554
849.299	10320
849.389	19558
849.480	42723
849.570	81039
849.661	163103
849.751	217476
849.841	67095
849.932	11930
850.022	4645
850.112	4846
850.203	3459
850.293	2196
850.383	2228
850.474	1723
850.564	1498
850.654	1591
850.744	1908
850.834	1809
850.924	1539
851.014	1318
851.104	1264
851.194	647
851.284	1738
851.374	1128
851.464	987
851.554	815
851.644	949
851.734	565
851.824	1248
851.914	1543
852.004	1451
852.094	1327
852.183	1643
852.273	1761
852.363	1414
852.452	2038
852.542	1476
852.632	1253
852.721	2225
852.811	2317
852.901	3536
852.990	4198
853.080	5353
853.169	4886
853.259	5432
853.348	8586
853.438	12636
853.527	18127
853.617	27339
853.706	49826
853.795	92479
853.885	177920
853.974	306776
854.063	533885
854.152	623644
854.242	256234
854.331	75739
854.420	35871
854.509	23111
854.598	16683
854.687	12497
854.777	10417
854.866	6941
854.955	6547
855.044	5096
855.133	4576
855.222	3976
855.311	3259
855.400	3350
855.488	2639
855.577	1847
855.666	2894
855.755	2280
855.844	1797
855.933	1186
856.021	1950
856.110	1958
856.199	1232
856.288	412
856.376	1021
856.465	1079
856.554	2180
856.642	1420
856.731	970
856.819	1864
856.908	580
856.996	1245
857.085	593
857.173	1363
857.262	1757
857.350	856
857.438	537
857.527	686
857.615	866
857.703	1345
857.792	1550
857.880	738
857.968	1214
858.056	51
858.145	184
858.233	350
858.321	731
858.409	1633
858.497	492
858.585	165
858.673	1385
858.761	896
858.849	-204
858.937	737
859.025	1297
859.113	1319
859.201	504
859.289	2507
859.377	1294
859.465	1213
859.552	1044
859.640	210
859.728	446
859.816	494
859.903	1419
859.991	217
860.079	936
860.166	612
860.254	780
860.342	389
860.429	326
860.517	204
860.604	500
860.692	752
860.779	-31
860.867	1020
860.954	607
861.042	73
861.129	247
861.216	490
861.304	635
861.391	749
861.478	487
861.565	1908
861.653	715
861.740	122
861.827	409
861.914	967
862.001	328
862.089	1069
862.176	677
862.263	867
862.350	1042
862.437	540
862.524	431
862.611	1102
862.698	2279
862.785	2524
862.871	2591
862.958	1220
863.045	1983
863.132	1459
863.219	690
863.306	924
863.392	1535
863.479	789
863.566	1160
863.652	855
863.739	265
863.826	1498
863.912	1400
863.999	1136
864.086	1326
864.172	1049
864.259	2251
864.345	2003
864.432	1904
864.518	1768
864.604	2243
864.691	2417
864.777	3117
864.863	4237
864.950	4873
865.036	5800
865.122	9820
865.209	10363
865.295	11512
865.381	12921
865.467	14618
865.553	20788
865.639	31932
865.726	54854
865.812	102969
865.898	178393
865.984	260712
866.070	456735
866.156	392675
866.242	125981
866.328	40375
866.414	22721
866.499	16916
866.585	13121
866.671	11205
866.757	10410
866.843	9160
866.928	8059
867.014	7687
867.100	7198
867.186	6690
867.271	5637
867.357	6451
867.442	5834
867.528	6515
867.614	6190
867.699	7533
867.785	8499
867.870	10154
867.956	10972
868.041	7524
868.127	5927
868.212	7662
868.297	6720
868.383	5787
868.468	6094
868.553	6216
868.639	4638
868.724	4639
868.809	4944
868.894	4829
868.979	4434
869.065	4205
869.150	2702
869.235	4463
869.320	3998
869.405	3758
869.490	4695
869.575	4223
869.660	2722
869.745	4536
869.830	4665
869.915	3395
870.000	4221
870.085	4276
870.169	6142
870.254	6274
870.339	2588
870.424	3314
870.509	3545
870.593	5091
870.678	4152
870.763	3339
870.847	4169
870.932	4365
871.016	5061
871.101	3197
871.186	3657
871.270	4108
871.355	3304
871.439	3489
871.523	4116
871.608	2443
871.692	4080
871.777	5111
871.861	4493
871.945	2395
872.030	4287
872.114	2907
872.198	2274
872.282	3078
872.367	2695
872.451	2771
872.535	2606
872.619	2846
872.703	3618
872.787	3543
872.871	3346
872.955	2472
873.039	2310
873.123	2489
873.207	3039
873.291	2086
873.375	2500
873.459	3913
873.543	2339
873.627	2357
873.711	2766
873.794	4113
873.878	2312
873.962	2116
874.045	1913
874.129	2545
874.137	2508
874.213	2133
874.245	2568
874.296	3274
874.352	3092
874.380	2999
874.460	3099
874.464	3104
874.547	2333
874.568	2515
874.631	3047
874.676	3106
874.714	3154
874.784	2834
874.798	2775
874.881	2683
874.892	2656
874.965	2472
874.999	2913
875.048	3513
875.107	2997
875.131	2786
875.215	1684
875.215	1684
875.298	1478
875.323	1792
875.381	2569
875.430	3750
875.465	4542
875.538	3212
875.548	3026
875.631	2174
875.646	2058
875.714	1559
875.753	2151
875.798	2860
875.861	2849
875.881	2818
875.964	2225
875.968	2231
876.047	2399
876.076	2481
876.130	2702
876.183	2645
876.213	2548
876.291	2472
876.296	2470
876.379	2751
876.398	2558
876.462	1859
876.506	1767
876.545	1810
876.613	2246
876.628	2324
876.711	2380
876.721	2519
876.794	3642
876.828	3104
876.877	2088
876.935	1824
876.960	1829
877.043	2291
877.043	2295
877.125	3319
877.150	3467
877.208	3700
877.258	3044
877.291	2549
877.365	2479
877.374	2495
877.456	2174
877.472	2204
877.539	2392
877.579	2728
877.622	3040
877.687	3033
877.704	3032
877.787	3331
877.794	3321
877.869	3248
877.901	3118
877.952	2596
878.008	2220
878.034	2240
878.115	1950
878.117	1945
878.199	1998
878.222	2179
878.282	2756
878.329	3270
878.364	3432
878.437	3442
878.447	3470
878.529	2309
878.544	2296
878.611	2301
878.651	2700
878.694	3196
878.758	3329
878.776	3338
878.858	2768
878.865	2756
878.941	2459
878.972	2347
879.023	2201
879.078	2341
879.105	2662
879.185	2928
879.187	2922
879.269	2856
879.292	2890
879.351	2977
879.399	2599
879.433	2305
879.506	2779
879.516	2888
879.598	2503
879.613	2500
879.680	2114
879.720	2272
879.762	2788
879.827	2501
879.844	2278
879.926	2730
879.933	2677
880.007	2715
880.040	2703
880.089	2499
880.147	2960
880.171	3246
880.253	3218
880.254	3213
880.335	2244
880.360	2256
880.417	3070
880.467	3766
880.499	3785
880.574	2917
880.580	2892
880.662	2924
880.680	2901
880.744	2551
880.787	2278
880.825	2277
880.893	2704
880.907	2711
880.989	2626
881.000	2631
881.070	3275
881.106	3543
881.152	3420
881.213	2793
881.233	2626
881.315	2475
881.319	2496
881.396	3467
881.426	3332
881.478	3003
881.532	3234
881.559	3266
881.639	3108
881.641	3107
881.722	3104
881.745	3018
881.803	3274
881.852	3472
881.885	3332
881.958	2696
881.966	2658
882.047	3054
882.064	2998
882.129	2661
882.171	2552
882.210	2406
882.277	2246
882.291	2362
882.372	3453
882.383	3489
882.454	4090
882.489	4287
882.535	3633
882.596	3227
882.616	3303
882.697	3248
882.702	3228
882.778	2823
882.808	2848
882.859	2872
882.914	2710
882.940	2717
883.020	2640
883.021	2650
883.102	3448
883.127	3798
883.183	4367
883.233	4111
883.264	3497
883.339	2589
883.345	2592
883.426	2222
883.445	2288
883.507	2411
883.551	2362
883.587	2670
883.657	3584
883.668	3719
883.749	3799
883.763	3826
883.830	3126
883.869	2929
883.910	2952
883.975	2819
883.991	2869
884.072	3041
884.081	3070
884.152	3629
884.187	3760
884.233	4221
884.292	4815
884.314	4318
884.394	2228
884.398	2130
884.475	1875
884.504	1825
884.555	2093
884.610	2188
884.636	2434
884.716	3729
884.716	3744
884.797	4547
884.821	4625
884.877	4085
884.927	3869
884.958	3658
885.033	3105
885.038	3072
885.118	2326
885.139	2161
885.199	2280
885.244	2456
885.279	2859
885.350	3656
885.359	3772
885.439	4417
885.456	4546
885.520	4329
885.561	4174
885.600	3586
885.667	2684
885.680	2827
885.760	3457
885.773	3524
885.840	2706
885.878	2448
885.920	2686
885.984	2921
886.000	3050
886.080	3592
886.089	3619
886.160	3519
886.195	3597
886.240	3449
886.300	3072
886.320	3103
886.400	3391
886.406	3380
886.480	2835
886.511	2768
886.560	2959
886.616	2866
886.640	2875
886.720	3240
886.722	3233
886.800	3080
886.827	3095
886.879	3296
886.932	3504
886.959	3909
887.038	4896
887.039	4895
887.119	3735
887.143	3411
887.198	3372
887.248	3373
887.278	3542
887.354	3858
887.358	3895
887.437	4366
887.459	4543
887.517	3992
887.564	3213
887.596	3205
887.669	3600
887.676	3557
887.755	2682
887.774	2486
887.835	2799
887.880	3082
887.914	3222
887.985	3220
887.994	3352
888.073	4658
888.090	4899
888.153	5208
888.195	5355
888.232	4856
888.300	3946
888.311	3853
888.391	3088
888.405	2952
888.470	3022
888.510	3035
888.549	2967
888.615	2830
888.628	3014
888.708	4060
888.720	4225
888.787	4554
888.825	4637
888.866	3980
888.930	3039
888.945	3110
889.024	3476
889.035	3503
889.103	4420
889.140	4916
889.182	4237
889.245	3234
889.261	3479
889.340	4562
889.349	4679
889.419	3833
889.454	3384
889.498	3250
889.559	3058
889.577	3342
889.656	4558
889.664	4670
889.735	4756
889.768	4776
889.814	4264
889.873	3559
889.978	4118
890.083	4127
890.187	4765
890.292	4506
890.397	4131
890.501	3837
890.606	4221
890.710	3965
890.815	6492
890.919	5769
891.024	9062
891.128	9841
891.233	6881
891.337	5073
891.442	5277
891.546	4208
891.650	4052
891.755	2995
891.859	5288
891.963	5089
892.068	4855
892.172	3343
892.276	3403
892.380	4564
892.484	8008
892.589	12615
892.693	13340
892.797	5511
892.901	3945
893.005	3351
893.109	4841
893.213	5417
893.317	3557
893.421	1576
893.525	2688
893.629	3062
893.733	4736
893.837	3696
893.941	4085
894.045	2553
894.148	2884
894.252	3398
894.356	3790
894.460	5096
894.564	3210
894.667	2672
894.771	3015
894.875	2037
894.978	3486
895.082	3184
895.186	4436
895.289	3014
895.393	2686
895.496	4323
895.600	3728
895.703	2392
895.807	3015
895.910	3954
896.014	3166
896.117	2773
896.221	3555
896.324	3838
896.427	2834
896.531	2750
896.634	3645
896.737	3289
896.840	3292
896.944	4267
897.047	4237
897.150	3346
897.253	2058
897.356	2028
897.460	1455
897.563	2083
897.666	3434
897.769	3760
897.872	2716
897.975	2701
898.078	3174
898.181	2679
898.284	2320
898.387	4473
898.490	4307
898.593	2709
898.695	2579
898.798	2944
898.901	3153
899.004	3370
899.107	2952
899.209	2991
899.312	4566
899.415	3039
899.518	2119
899.620	2084
899.723	2841
899.826	3046
899.928	2642
900.031	2848
900.133	4441
900.236	3704
900.338	2252
900.441	2494
900.543	3289
900.646	3234
900.748	2454
900.851	4010
900.953	2784
901.055	3092
901.158	2614
901.260	2294
901.362	2156
901.465	1937
901.567	3218
901.669	3588
901.771	2774
901.873	3317
901.976	2522
902.078	2984
902.180	2930
902.282	2298
902.384	3707
902.486	3691
902.588	3680
902.690	1960
902.792	3329
902.894	3147
902.996	3892
903.098	3774
903.200	3022
903.302	2443
903.404	2244
903.505	2027
903.607	3646
903.709	4276
903.811	3974
903.913	3031
904.014	2087
904.116	1918
904.218	2532
904.319	3551
904.421	5431
904.523	6011
904.624	3971
904.726	2864
904.827	3558
904.929	3272
905.030	3026
905.132	4422
905.233	3516
905.335	2056
905.436	2683
905.537	2678
905.639	2482
905.740	2684
905.841	3969
905.943	3853
906.044	4183
906.145	3308
906.247	2261
906.348	2349
906.449	3029
906.550	3521
906.651	2951
906.752	1836
906.854	1864
906.955	2090
907.056	2651
907.157	3282
907.258	3904
907.359	1449
907.460	2122
907.561	1785
907.662	3047
907.762	2399
907.863	2854
907.964	3434
908.065	2689
908.166	1974
908.267	2723
908.367	1968
908.468	2254
908.569	2169
908.670	4029
908.770	1999
908.871	3166
908.971	3346
909.072	2981
909.173	2586
909.273	2729
909.374	3577
909.474	3442
909.575	3449
909.675	3080
909.776	3862
909.876	3474
909.977	3426
910.077	4191
910.177	4266
910.278	3678
910.378	3323
910.478	3525
910.579	4066
910.679	3896
910.779	3383
910.879	4237
910.980	3712
911.080	3521
911.180	2160
911.280	2528
911.380	1771
911.480	3291
911.580	3259
911.680	4094
911.780	3033
911.880	3875
911.980	2795
912.080	2865
912.180	2603
912.280	3017
912.380	2553
912.480	2972
912.580	2341
912.679	2739
912.779	2955
912.879	3371
912.979	2149
913.078	2877
913.178	2169
913.278	1928
913.377	2260
913.477	1890
913.577	2293
913.676	3865
913.776	3636
913.875	3603
913.975	3191
914.074	3084
914.174	3094
914.273	2274
914.373	3017
914.472	2692
914.572	2773
914.671	2643
914.770	4033
914.870	2278
914.969	1572
915.068	2932
915.167	2961
915.267	2848
915.366	2719
915.465	3351
915.564	2514
915.663	3853
915.763	3012
915.862	3825
915.961	3595
916.060	2596
916.159	2697
916.258	2358
916.357	2674
916.456	2927
916.555	3832
916.654	2780
916.752	3954
916.851	3304
916.950	3086
917.049	2763
917.148	2134
917.247	3535
917.345	2030
917.444	2638
917.543	2706
917.642	3016
917.740	3191
917.839	4394
917.937	4420
918.036	3825
918.135	2663
918.233	2598
918.332	2301
918.430	2781
918.529	2459
918.627	3144
918.726	2673
918.824	3308
918.923	2856
919.021	3480
919.119	1681
919.218	2873
919.316	3405
919.414	4199
919.512	3332
919.611	4604
919.709	3878
919.807	3740
919.905	4716
920.003	4218
920.102	3673
920.200	4352
920.298	4182
920.396	4260
920.494	3983
920.592	3130
920.690	3982
920.788	5017
920.886	3985
920.984	4893
921.082	4585
921.180	4991
921.277	4734
921.375	4861
921.473	7100
921.571	6636
921.669	6798
921.766	5967
921.864	6786
921.962	6586
922.060	6343
922.157	5570
922.255	6612
922.352	6514
922.450	6711
922.548	7467
922.645	7220
922.743	10366
922.840	13793
922.938	16868
923.035	16804
923.133	18735
923.230	17281
923.327	18396
923.425	17284
923.522	17858
923.619	15330
923.717	14410
923.814	14056
923.911	13983
924.008	13557
924.106	14548
924.203	13851
924.300	14904
924.397	14085
924.494	14021
924.591	13662
924.688	13065
924.786	13891
924.883	14131
924.979	14567
925.077	15164
925.173	14141
925.270	14688
925.367	14232
925.464	16632
925.561	17332
925.658	19175
925.755	18175
925.852	19684
925.948	17641
926.045	17783
926.142	18504
926.239	19046
926.335	15483
926.432	17055
926.529	18870
926.625	18976
926.722	15747
926.818	13700
926.915	14371
927.011	13765
927.108	12043
927.204	13057
927.301	12779
927.397	13033
927.494	14703
927.590	10455
927.687	10883
927.783	14469
927.879	13912
927.976	12436
928.072	11099
928.168	12970
928.264	13867
928.361	12001
928.457	14201
928.553	11695
928.649	10459
928.745	13057
928.841	11029
928.937	11696
929.033	11002
929.129	11014
929.225	13294
929.321	12074
929.417	10049
929.513	12186
929.609	10579
929.705	11406
929.801	12893
929.897	9742
929.993	9772
930.089	11913
930.184	11101
930.280	11556
930.376	13112
930.471	9316
930.567	9500
930.663	11082
930.758	9473
930.854	10056
930.950	9961
931.045	9213
931.141	9470
931.236	12291
931.332	10933
931.427	9142
931.523	12422
931.618	11448
931.714	7482
931.809	9007
931.905	11348
932.000	8261
932.095	7613
932.191	11502
932.286	12626
932.381	10132
932.476	8002
932.572	9437
932.667	8741
932.762	8328
932.857	10100
932.952	12114
933.047	10266
933.142	8020
933.237	9753
933.332	10340
933.427	10935
933.522	10568
933.617	7948
933.712	9579
933.807	11743
933.902	12055
933.997	11877
934.092	8937
934.187	9223
934.282	9606
934.376	10326
934.471	10879
934.566	8825
934.661	8407
934.755	10468
934.850	10928
934.945	8712
935.039	9091
935.134	6865
935.228	8528
935.323	12066
935.417	8898
935.512	6534
935.606	7825
935.701	10247
935.795	10856
935.890	9844
935.984	7779
936.079	7043
936.173	8688
936.267	7979
936.362	7199
936.456	8758
936.550	11358
936.644	9048
936.738	6941
936.833	7604
936.927	6165
937.021	7704
937.115	9061
937.209	8920
937.303	8094
937.397	5862
937.491	8249
937.585	9605
937.679	8751
937.773	7024
937.867	6356
937.961	6862
938.055	9346
938.149	8668
938.243	6888
938.337	6151
938.430	7842
938.524	11727
938.618	13831
938.712	9330
938.805	8451
938.899	9029
938.993	11129
939.086	9402
939.180	14145
939.274	13974
939.367	10204
939.461	9890
939.554	7009
939.648	6408
939.741	7427
939.835	7462
939.928	10045
940.022	9080
940.115	8404
940.208	8331
940.302	10472
940.395	10722
940.488	8228
940.582	7376
940.675	6020
940.768	6365
940.861	9172
940.954	8257
941.048	6991
941.141	5188
941.234	7786
941.327	8382
941.420	8954
941.513	9418
941.606	8311
941.699	8419
941.792	10403
941.885	8514
941.978	9111
942.071	7992
942.164	6950
942.257	6319
942.349	7112
942.442	8601
942.535	5855
942.628	5737
942.721	6180
942.813	6622
942.906	8232
942.999	6664
943.091	5388
943.184	5331
943.277	6003
943.369	5966
943.462	4842
943.554	6175
943.647	5805
943.739	7440
943.832	8945
943.924	3888
944.017	4630
944.109	4756
944.201	6516
944.294	6071
944.386	6614
944.478	5138
944.571	5350
944.663	5492
944.755	6917
944.847	7402
944.940	5807
945.032	3831
945.124	5332
945.216	6238
945.308	5847
945.400	6725
945.492	6259
945.584	7635
945.676	7509
945.768	7615
945.860	7214
945.952	7794
946.044	7486
946.136	6264
946.228	5662
946.320	5184
946.412	6598
946.503	7435
946.595	7851
946.687	4937
946.779	4537
946.870	4853
946.962	4911
947.054	5497
947.145	6458
947.237	5266
947.329	5308
947.420	5810
947.512	5367
947.603	3759
947.695	5056
947.786	4133
947.878	5247
947.969	5586
948.061	6989
948.152	5945
948.243	4010
948.335	4505
948.426	4344
948.517	4584
948.609	6509
948.700	5884
948.791	5304
948.882	4195
948.973	4650
949.065	5345
949.156	5435
949.247	3716
949.338	5159
949.429	6349
949.520	6093
949.611	4864
949.702	6366
949.793	5503
949.884	5490
949.975	4997
950.066	4060
950.157	4237
950.247	4196
950.338	4061
950.429	4859
950.520	4233
950.611	5238
950.701	4765
950.792	6182
950.883	5525
950.973	5004
951.064	5662
951.155	5694
951.245	5545
951.336	5248
951.427	5643
951.517	7055
951.608	6318
951.698	4357
951.788	4521
951.879	4222
951.969	3682
952.060	3759
952.150	5738
952.240	6211
952.331	4544
952.421	6858
952.511	3590
952.602	4327
952.692	3935
952.782	3447
952.872	4232
952.962	4369
953.052	4909
953.143	4941
953.233	4504
953.323	4252
953.413	4914
953.503	6028
953.593	4587
953.683	5086
953.773	3531
953.863	5104
953.953	5540
954.042	7206
954.132	7503
954.222	8073
954.312	6180
954.402	5728
954.492	5060
954.581	5585
954.671	4500
954.761	4789
954.850	5304
954.940	2856
955.030	3021
955.119	3411
955.209	3474
955.298	4673
955.388	4204
955.477	5540
955.567	2824
955.656	4286
955.746	2550
955.835	3767
955.925	3735
956.014	5219
956.103	5100
956.193	5931
956.282	5555
956.371	4593
956.461	4248
956.550	4075
956.639	3773
956.728	4023
956.817	4058
956.906	4392
956.995	4803
957.085	4051
957.174	4075
957.263	4150
957.352	3822
957.441	4184
957.530	4610
957.619	3938
957.708	3553
957.796	3521
957.885	4418
957.974	3611
958.063	4194
958.152	2756
958.241	2873
958.329	3333
958.418	3416
958.507	3140
958.596	5135
958.684	3563
958.773	4498
958.861	3305
958.950	3431
959.039	3529
959.127	3490
959.216	4301
959.304	4050
959.393	4131
959.481	4607
959.570	3626
959.658	2900
959.746	3349
959.835	2935
959.923	3252
960.011	2480
960.100	4496
960.188	3927
960.276	4399
960.365	3821
960.453	2809
960.541	1631
960.629	3373
960.717	2127
960.805	2626
960.893	2671
960.981	3941
961.069	4878
961.158	5678
961.245	5590
961.333	5179
961.421	3579
961.509	3782
961.597	3760
961.685	3896
961.773	4034
961.861	4566
961.949	3900
962.036	2307
962.124	3260
962.212	3407
962.299	3430
962.387	3198
962.475	3041
962.562	2428
962.650	3915
962.738	2823
962.825	2517
962.913	2114
963.000	3249
963.088	4213
963.175	4044
963.263	3877
963.350	3208
963.438	3384
963.525	2580
963.612	3769
963.700	3127
963.787	4116
963.874	3893
963.962	3061
964.049	2657
964.136	3293
964.223	2210
964.310	3960
964.398	3521
964.485	2828
964.572	3844
964.659	3952
964.746	2980
964.833	2865
964.920	2713
965.007	2332
965.094	2521
965.181	3144
965.268	3844
965.355	3298
965.441	3592
965.528	3437
965.615	4102
965.702	2894
965.789	2677
965.875	3852
965.962	4002
966.049	3052
966.136	5398
966.222	6727
966.309	8577
966.395	8964
966.482	6237
966.569	4149
966.655	2681
966.742	2761
966.828	3036
966.915	2742
967.001	2893
967.087	2869
967.174	2369
967.260	3487
967.347	2931
967.433	4039
967.519	6315
967.605	7332
967.692	4413
967.778	3168
967.864	3009
967.950	3103
968.036	3425
968.123	3693
968.209	3186
968.295	1830
968.381	3603
968.467	3484
968.553	2884
968.639	5278
968.725	6438
968.811	13831
968.897	10199
968.983	3941
969.069	2408
969.154	3564
969.240	2569
969.326	2130
969.412	2443
969.497	2949
969.583	2961
969.669	4119
969.755	4292
969.840	4596
969.926	8412
970.012	11812
970.097	21236
970.183	20203
970.268	7523
970.354	4290
970.439	3209
970.525	3497
970.610	2671
970.696	4335
970.781	2408
970.866	2675
970.952	2762
971.037	2749
971.122	3267
971.208	3252
971.293	3066
971.378	1934
971.463	3232
971.549	3150
971.634	2530
971.719	2985
971.804	2642
971.889	3068
971.974	2229
972.059	3233
972.144	1872
972.229	2892
972.314	2109
972.399	2634
972.484	1240
972.569	2744
972.654	918
972.739	3536
972.824	2098
972.908	2237
972.993	2233
973.078	2494
973.163	1994
973.247	3619
973.332	1791
973.417	3942
973.501	2367
973.586	3649
973.671	3711
973.755	2394
973.840	3515
973.924	3893
974.009	4253
974.093	4547
974.178	4321
974.262	2726
974.346	2135
974.431	3439
974.515	3077
974.600	3458
974.684	3363
974.768	2645
974.852	3406
974.937	3148
975.021	3678
975.105	2934
975.189	2526
975.273	2946
975.358	1693
975.442	1866
975.526	3090
975.610	2403
975.694	2773
975.778	3414
975.862	2910
975.946	822
976.030	4413
976.114	2821
976.198	2305
976.281	2838
976.365	3194
976.449	3029
976.533	1937
976.617	2534
976.700	1947
976.784	2087
976.868	2484
976.951	2750
977.035	2235
977.119	2350
977.202	2240
977.286	2810
977.369	4015
977.453	6412
977.536	4578
977.620	4102
977.703	3926
977.787	3051
977.870	3358
977.953	4289
978.037	1524
978.120	3083
978.203	3204
978.287	3382
978.370	2894
978.453	2908
978.536	2597
978.620	4036
978.703	2813
978.786	2449
978.869	1913
978.952	1856
979.035	3109
979.118	3433
979.201	2768
979.284	3120
979.367	2667
979.450	3623
979.533	2619
979.616	3779
979.699	3421
979.782	3909
979.865	3116
979.948	2177
980.030	1896
980.113	2702
980.196	2376
980.279	2664
980.361	2362
980.444	2734
980.526	3490
980.609	5140
980.692	5964
980.774	5407
980.857	3175
980.939	4822
981.022	2923
981.104	3273
981.187	3131
981.269	3309
981.352	2972
981.434	2470
981.516	3417
981.599	4404
981.681	3460
981.763	3090
981.846	3196
981.928	2394
982.010	3582
982.092	2906
982.174	4553
982.256	2736
982.339	3123
982.421	2894
982.503	2603
982.585	2515
982.667	2644
982.749	3366
982.831	2973
982.913	3024
982.995	4008
983.077	2608
983.158	4270
983.240	2239
983.322	3937
983.404	6448
983.486	5595
983.568	5141
983.649	3529
983.731	4304
983.813	3695
983.894	3948
983.976	3570
984.058	3448
984.139	4274
984.221	2611
984.302	4636
984.384	4386
984.465	2987
984.547	3869
984.628	2339
984.710	4654
984.791	4011
984.872	4131
984.954	4053
985.035	4191
985.116	3606
985.198	2796
985.279	4979
985.360	3950
985.441	3272
985.522	4131
985.604	4047
985.685	2755
985.766	3639
985.847	5345
985.928	2559
986.009	3013
986.090	3111
986.171	3894
986.252	4515
986.333	4345
986.414	3442
986.495	3661
986.576	3493
986.656	4600
986.737	4488
986.818	4638
986.899	3824
986.980	4307
987.060	4313
987.141	4528
987.222	4871
987.302	4928
987.383	6206
987.464	5119
987.544	5741
987.625	4890
987.705	5443
987.786	6486
987.866	4877
987.947	4983
988.027	5711
988.108	4994
988.188	5279
988.268	5362
988.349	5035
988.429	5150
988.509	4740
988.589	4609
988.670	3215
988.750	5939
988.830	5310
988.910	5740
988.990	4501
989.070	4483
989.151	4213
989.231	4016
989.311	3756
989.391	4352
989.471	3969
989.551	4351
989.631	3752
989.711	4936
989.791	3490
989.870	3567
989.950	4525
990.030	4287
990.110	3962
990.190	3187
990.269	3933
990.349	3760
990.429	4272
990.509	3347
990.588	2770
990.668	4857
990.747	3221
990.827	3275
990.907	3358
990.986	3565
991.066	3818
991.145	2667
991.225	3046
991.304	3177
991.383	3941
991.463	3723
991.542	2702
991.622	3215
991.701	2306
991.780	3283
991.859	3178
991.939	2950
992.018	3167
992.097	3486
992.176	2772
992.256	2804
992.335	2851
992.414	4097
992.493	2245
992.572	2599
992.651	3370
992.730	2976
992.809	2936
992.888	2973
992.967	2418
993.046	4053
993.125	2123
993.203	2873
993.282	2572
993.361	3674
993.440	3172
993.519	2761
993.597	3204
993.676	2782
993.755	3607
993.834	3070
993.912	1167
993.991	2929
994.069	2006
994.148	3321
994.226	1698
994.305	2756
994.384	1898
994.462	3125
994.540	1174
994.619	2509
994.697	2363
994.776	1587
994.854	2567
994.932	2079
995.011	2298
995.089	1973
995.167	2878
995.245	1809
995.324	1449
995.402	2418
995.480	2847
995.558	2000
995.636	1522
995.714	1350
995.792	3069
995.870	1744
995.948	1552
996.026	2344
996.104	1054
996.182	1983
996.260	1375
996.338	2013
996.416	1757
996.494	2157
996.572	2939
996.649	1608
996.727	1744
996.805	2610
996.883	1730
996.960	1629
997.038	1895
997.116	2462
997.193	1427
997.271	2077
997.348	1261
997.426	1625
997.504	1464
997.581	2596
997.658	1771
997.736	301
997.813	777
997.891	2191
997.968	1862
998.046	885
998.123	1221
998.200	2300
998.277	601
998.355	1921
998.432	48
998.509	595
998.586	1749
998.663	1801
998.741	1156
998.818	824
998.895	881
998.972	2358
999.049	1492
999.126	1230
999.203	698
999.280	2017
999.357	1009
999.434	1267
999.511	1604
999.587	2004
999.664	582
999.741	1610
999.818	841
999.895	1788
999.971	1363
1000.048	-58
1000.125	1725
1000.202	274
1000.278	1469
1000.355	1911
1000.431	798
1000.508	507
1000.584	781
1000.661	1150
1000.738	551
1000.814	1065
1000.890	1319
1000.967	793
1001.043	1592
1001.120	459
1001.196	1018
1001.272	731
1001.349	150
1001.425	1324
1001.501	896
1001.577	416
1001.654	988
1001.730	487
1001.806	928
1001.882	615
1001.958	1228
1002.034	2236
1002.110	361
1002.186	-54
1002.262	53
1002.338	-18
1002.414	615
1002.490	1252
1002.566	260
1002.642	302
1002.718	370
1002.794	506
1002.870	830
1002.945	383
1003.021	54
1003.097	568
1003.173	412
1003.248	120
1003.324	863
1003.400	1473
1003.475	-153
1003.551	485
1003.626	746
1003.702	-4
1003.777	521
1003.853	-250
1003.928	160
1004.004	-133
1004.079	166
1004.155	537
1004.230	-255
1004.305	1359
1004.381	-135
1004.456	726
1004.531	-63
1004.607	331
1004.682	-145
1004.757	178
1004.832	-544
1004.907	358
1004.982	468
1005.057	745
1005.133	-336
1005.208	680
1005.283	-160
1005.358	713
1005.433	-897
1005.508	-428
1005.583	-767
1005.657	294
1005.732	461
1005.807	-163
1005.882	183
1005.957	419
1006.032	173
1006.106	661
1006.181	461
1006.256	536
1006.331	-378
1006.405	81
1006.480	310
1006.554	-429
1006.629	-185
1006.704	77
1006.778	-269
1006.853	-112
1006.927	-62
1007.002	-973
1007.076	-298
1007.150	-184
1007.225	541
1007.299	799
1007.373	-268
1007.448	-130
1007.522	570
1007.596	-236
1007.671	-481
1007.745	854
1007.819	-875
1007.893	271
1007.967	764
1008.041	-786
1008.115	101
1008.190	-115
1008.264	211
1008.338	187
1008.412	-41
1008.486	293
1008.560	204
1008.633	-238
1008.707	-1207
1008.781	704
1008.855	63
1008.929	31
1009.003	-887
1009.076	-151
1009.150	-378
1009.224	226
1009.298	-376
1009.371	-360
1009.445	296
1009.519	-860
1009.592	-855
1009.666	-89
1009.739	-343
1009.813	-1203
1009.886	742
1009.960	-280
1010.033	-239
1010.107	-336
1010.180	-1610
1010.253	-305
1010.327	-843
1010.400	228
1010.473	-784
1010.547	1372
1010.620	-668
1010.693	2
1010.766	-1138
1010.840	891
1010.913	352
1010.986	-794
1011.059	-1189
1011.132	510
1011.205	726
1011.278	339
1011.351	-128
1011.424	442
1011.497	-396
1011.570	-317
1011.643	-1385
1011.716	-428
1011.789	-545
1011.862	-824
1011.934	-466
1012.007	-1682
1012.080	-1132
1012.153	-783
1012.225	-33
1012.298	-1418
1012.371	-1285
1012.443	287
1012.516	-645
1012.588	384
1012.661	-477
1012.733	-1240
1012.806	-355
1012.879	-134
1012.951	-1163
1013.023	-746
1013.096	-1114
1013.168	-1193
1013.241	-250
1013.313	-1062
1013.385	-991
1013.458	-905
1013.530	-983
1013.602	-1603
1013.674	-321
1013.746	-585
1013.819	-1818
1013.891	-890
1013.963	-1241
1014.035	-1088
1014.107	-964
1014.179	-359
1014.251	-1429
1014.323	-257
1014.395	-882
1014.467	-1231
1014.539	-876
1014.611	-1215
1014.683	-491
1014.754	-1372
1014.826	-1341
1014.898	-922
1014.970	-1623
1015.042	-579
1015.113	-760
1015.185	-1374
1015.257	-1353
1015.328	-538
1015.400	-718
1015.471	-993
1015.543	-2083
1015.615	-354
1015.686	-1199
1015.757	-762
1015.829	-450
1015.901	-331
1015.972	-1050
1016.043	-636
1016.115	-792
1016.186	-701
1016.257	-979
1016.328	-904
1016.400	-1177
1016.471	-1827
1016.542	-1480
1016.613	-276
1016.685	-833
1016.756	-447
1016.827	-853
1016.898	-502
1016.969	-131
1017.040	-1256
1017.111	-1194
1017.182	-1698
1017.253	-1213
1017.324	-1225
1017.395	-1729
1017.466	-702
1017.537	-1281
1017.608	-708
1017.678	-1024
1017.749	-1345
1017.820	-1066
1017.891	-1826
1017.961	-719
1018.032	62
1018.103	-1285
1018.173	-569
1018.244	-1445
1018.315	-825
1018.385	-754
1018.456	-321
1018.526	-1205
1018.597	-1025
1018.667	-963
1018.738	-1231
1018.808	-1134
1018.878	-721
1018.949	-1068
1019.019	-577
1019.089	-1023
1019.160	-367
1019.230	-2305
1019.300	-758
1019.371	-1283
1019.441	150
1019.511	-1517
1019.581	-1034
1019.651	-1198
1019.721	-638
1019.791	-1190
1019.861	-1078
1019.931	-1162
1020.001	-716
1020.071	-957
1020.141	-573
1020.211	-483
1020.281	-1888
1020.351	-1494
1020.421	-302
1020.491	-1006
1020.560	-1415
1020.630	-1693
1020.700	-853
1020.770	-1139
1020.839	-747
1020.909	-1165
1020.979	-931
1021.048	-1702
1021.118	-1401
1021.187	-1307
1021.257	-991
1021.326	-347
1021.396	-1198
1021.465	-863
1021.535	142
1021.604	-1012
1021.674	-835
1021.743	-246
1021.812	-579
1021.882	-806
1021.951	-595
1022.020	-625
1022.089	-929
1022.159	-1912
1022.228	-1099
1022.297	-1165
1022.366	-794
1022.435	-2215
1022.504	-626
1022.573	-884
1022.642	-786
1022.711	-1687
1022.781	-637
1022.849	-1353
1022.918	-809
1022.987	-1525
1023.056	-1791
1023.125	-1127
1023.194	-1214
1023.263	-1065
1023.331	-873
1023.400	-1502
1023.469	-1029
1023.538	-1423
1023.606	-2037
1023.675	-888
1023.744	-1234
1023.812	-2327
1023.881	-732
1023.949	-1195
1024.018	-1051
1024.086	-641
1024.155	-1249
1024.223	-2222
1024.292	-843
1024.360	-1510
1024.429	-794
1024.497	-2063
1024.565	-1316
1024.634	-1527
1024.702	-1669
1024.770	-1221
1024.838	-1916
1024.907	-769
1024.975	-1138
1025.043	-305
1025.111	-1753
1025.179	-468
1025.247	-889
1025.315	-945
1025.383	-1320
1025.451	-972
1025.519	-886
1025.587	-626
1025.655	-870
1025.723	-926
1025.791	-778
1025.859	-574
1025.927	-34
1025.995	-1853
1026.062	-1148
1026.130	-944
1026.198	-852
1026.266	-1604
1026.333	-633
1026.401	-1863
1026.469	-379
1026.536	-1552
1026.604	-960
1026.671	-1189
1026.739	-1396
1026.806	-1483
1026.874	-1228
1026.941	-1476
1027.009	-1617
1027.076	-2017
1027.144	-816
1027.211	-1481
1027.278	-1704
1027.345	-1431
1027.413	-530
1027.480	-1078
1027.547	-788
1027.614	-1523
1027.682	-405
1027.749	-2253
1027.816	-1361
1027.883	-902
1027.950	-1039
1028.017	-2090
1028.084	-667
1028.151	-1257
1028.218	-1182
1028.285	-2142
1028.352	-1897
1028.419	-1863
1028.486	-1678
1028.553	-632
1028.619	-1328
1028.686	-1189
1028.753	-859
1028.820	-1548
1028.886	-1421
1028.953	-625
1029.020	-1455
1029.086	-1596
1029.153	-2673
1029.220	-1662
1029.286	-806
1029.353	-340
1029.419	-1712
1029.486	-762
1029.552	-1111
1029.619	-2321
1029.685	-1306
1029.751	-1218
1029.818	-220
1029.884	-904
1029.951	176
1030.017	-2338
1030.083	-939
1030.149	-1352
1030.216	-1263
1030.282	-1685
1030.348	-878
1030.414	-2219
1030.480	-1227
1030.546	-1564
1030.612	-692
1030.678	-1062
1030.744	-730
1030.810	-1312
1030.876	-810
1030.942	-1563
1031.008	-1299
1031.074	-2342
1031.140	-712
1031.206	-1574
1031.272	-1885
1031.337	-737
1031.403	-994
1031.469	-1497
1031.534	-2055
1031.600	213
1031.666	-885
1031.731	-1765
1031.797	-1070
1031.863	-1615
1031.928	-1428
1031.994	-2143
1032.059	-825
1032.125	-1230
1032.190	-1252
1032.256	-1825
1032.321	-1980
1032.386	-614
1032.452	-921
1032.517	-1577
1032.582	-973
1032.647	-1882
1032.713	-1337
1032.778	-1686
1032.843	-566
1032.908	-1283
1032.974	-1430
1033.039	-2150
1033.104	-292
1033.169	-1567
1033.234	-1473
1033.299	-869
1033.364	-383
1033.429	-1078
1033.494	-282
1033.559	-1039
1033.624	75
1033.688	223
1033.753	-542
1033.818	661
1033.883	1522
1033.948	2816
1034.013	3293
1034.077	4888
1034.142	7344
1034.207	10344
1034.271	15030
1034.336	20149
1034.400	16028
1034.465	9599
1034.530	3923
1034.594	2158
1034.658	-299
1034.723	-888
1034.787	-310
1034.852	-236
1034.916	-957
1034.981	-1955
1035.045	-667
1035.109	-1450
1035.173	-385
1035.238	-1355
1035.302	-737
1035.366	-1711
1035.430	-766
1035.495	-1595
1035.559	-834
1035.623	-744
1035.687	-764
1035.751	-1452
1035.815	-770
1035.879	-1406
1035.943	-1154
1036.007	-1427
1036.071	-816
1036.135	-1620
1036.198	-1316
1036.262	-2004
1036.326	-1311
1036.390	-1128
1036.454	-2277
1036.517	-1806
1036.581	-1242
1036.645	-2021
1036.709	-735
1036.772	-2187
1036.836	-1483
1036.900	-1511
1036.963	-769
1037.026	-1387
1037.090	-1291
1037.154	-1051
1037.217	-1358
1037.280	-1017
1037.344	-354
1037.407	-1094
1037.471	-284
1037.534	-1437
1037.597	51
1037.661	327
1037.724	723
1037.787	-407
1037.850	-483
1037.913	-714
1037.977	-402
1038.040	-1335
1038.103	-939
1038.166	-1254
1038.229	-1546
1038.292	-1559
1038.355	-1648
1038.418	-1781
1038.481	-1246
1038.544	-1627
1038.607	-1919
1038.670	-843
1038.732	-2321
1038.795	-1973
1038.858	-1405
1038.921	-2162
1038.984	-555
1039.046	-1824
1039.109	-1108
1039.172	-1257
1039.234	-1666
1039.297	-1322
1039.360	-2175
1039.422	-2131
1039.485	-1141
1039.547	-3321
1039.610	-1865
1039.672	-1899
1039.734	-716
1039.797	-1412
1039.859	-1091
1039.922	-1302
1039.984	-1224
1040.046	-2596
1040.109	-1302
1040.171	-1869
1040.233	-1198
1040.295	-1800
1040.358	-1518
1040.420	-1620
1040.482	-1070
1040.544	-2061
1040.606	-960
1040.668	-1531
1040.730	-1700
1040.792	-1714
1040.854	-1509
1040.916	-1571
1040.978	-2006
1041.040	-707
1041.102	-757
1041.164	-1418
1041.225	-1292
1041.287	-1947
1041.349	-1496
1041.411	-1654
1041.472	-1662
1041.534	-2186
1041.596	-2518
1041.657	-1509
1041.719	-1521
1041.781	-2207
1041.842	-2170
1041.904	-1944
1041.965	-1728
1042.027	-2040
1042.088	-1767
1042.150	-2243
1042.211	-1420
1042.272	-1690
1042.334	-1654
1042.395	-1773
1042.456	-1830
1042.518	-1665
1042.579	-1323
1042.640	-1119
1042.701	-1344
1042.763	-2609
1042.824	-2347
1042.885	-1297
1042.946	-1536
1043.007	-1362
1043.068	-2203
1043.129	-1612
1043.190	-911
1043.251	-1874
1043.312	-1609
1043.373	-561
1043.434	-1827
1043.495	-2034
1043.556	-1452
1043.616	-1858
1043.677	-1869
1043.738	-2454
1043.799	-1624
1043.859	-2042
1043.920	-1726
1043.981	-2294
1044.041	-1179
1044.102	-2205
1044.162	-1742
1044.223	-2792
1044.284	-2211
1044.344	-1462
1044.405	-1694
1044.465	-1549
1044.525	-725
1044.586	-1778
1044.646	-1763
1044.707	-999
1044.767	-1247
1044.827	-1254
1044.887	-1511
1044.948	-620
1045.008	-1375
1045.068	-1669
1045.128	-2000
1045.188	-1844
1045.249	-1462
1045.309	-1851
1045.369	-1361
1045.429	-1434
1045.489	-1882
1045.549	-1668
1045.609	-1464
1045.669	-2517
1045.729	-2056
1045.789	-1517
1045.848	-1961
1045.908	-1189
1045.968	-1294
1046.028	-631
1046.088	-775
1046.147	-1072
1046.207	-836
1046.267	-1134
1046.326	-1009
1046.386	-697
1046.446	-1136
1046.505	-1350
1046.565	149
1046.624	-1248
1046.684	91
1046.743	61
1046.803	-439
1046.862	346
1046.922	0
