'Start Wavelength	183.907
'End Wavelength	1046.922
'Gate Delay	5.000
'Gate Width (ms)	1.050
'Laser Output Level	0.000
'X Position	0.000
'Y Position	0.000
'Z Position	0.000
'Grid Point Number	1.000
'Shot Number	100.000
183.907	140.000
183.977	-731.000
184.047	-819
184.116	448
184.186	466
184.256	-20
184.325	-297
184.395	-74
184.465	546
184.534	881
184.604	8
184.674	333
184.743	385
184.813	-109
184.883	-350
184.952	248
185.022	782
185.092	1017
185.161	263
185.231	815
185.301	927
185.370	1212
185.440	114
185.509	-101
185.579	-428
185.649	289
185.718	-259
185.788	882
185.857	371
185.927	-15
185.996	-178
186.066	-73
186.136	-278
186.205	556
186.275	328
186.344	582
186.414	29
186.483	-892
186.553	989
186.622	2192
186.692	-49
186.761	-210
186.831	452
186.900	68
186.970	131
187.039	715
187.109	1748
187.178	634
187.248	772
187.317	667
187.387	-12
187.456	1747
187.526	1404
187.595	1001
187.664	129
187.734	491
187.803	199
187.873	1019
187.942	1801
188.012	1393
188.081	-649
188.150	830
188.220	1897
188.289	2038
188.358	330
188.428	436
188.497	155
188.567	640
188.636	-154
188.705	244
188.775	-19
188.844	138
188.913	488
188.983	12
189.052	321
189.121	508
189.191	184
189.260	1838
189.329	3174
189.399	1915
189.468	1594
189.537	575
189.606	1126
189.676	1448
189.745	582
189.814	1264
189.883	630
189.953	2290
190.022	2969
190.091	12377
190.161	19284
190.230	6028
190.299	1559
190.368	947
190.437	1110
190.507	1688
190.576	981
190.645	801
190.714	-98
190.783	1032
190.853	978
190.922	586
190.991	946
191.060	1084
191.129	-197
191.198	1435
191.268	471
191.337	827
191.406	800
191.475	903
191.544	913
191.613	1506
191.682	312
191.752	230
191.821	10
191.890	740
191.959	746
192.028	990
192.097	882
192.166	732
192.235	-208
192.304	1092
192.373	831
192.442	1067
192.511	826
192.580	523
192.650	479
192.719	1560
192.788	1257
192.857	1305
192.926	957
192.995	1535
193.064	2574
193.133	4269
193.202	5059
193.271	4076
193.340	3052
193.409	3845
193.478	2848
193.547	4839
193.615	7758
193.684	7177
193.753	3706
193.822	3221
193.891	1733
193.960	1246
194.029	1002
194.098	2169
194.167	640
194.236	1791
194.305	590
194.374	1135
194.443	727
194.512	1211
194.580	1563
194.649	1463
194.718	1172
194.787	769
194.856	203
194.925	2149
194.994	4
195.062	1538
195.131	891
195.200	1064
195.269	1373
195.338	1676
195.407	2410
195.475	2427
195.544	1761
195.613	1789
195.682	1296
195.751	1312
195.819	1681
195.888	1856
195.957	2394
196.026	944
196.094	1448
196.163	2003
196.232	1331
196.301	1101
196.369	1280
196.438	1430
196.507	1409
196.576	2394
196.644	1660
196.713	1243
196.782	1571
196.850	1256
196.919	1954
196.988	2667
197.056	949
197.125	2188
197.194	1181
197.262	2012
197.331	1578
197.400	1865
197.468	1304
197.537	2500
197.606	3018
197.674	6502
197.743	18331
197.812	7626
197.880	16831
197.949	11762
198.017	13948
198.086	10639
198.155	4900
198.223	6307
198.292	19807
198.360	9635
198.429	4965
198.497	4689
198.566	10195
198.635	18663
198.703	5534
198.772	5808
198.840	22640
198.909	26949
198.977	6516
199.046	5733
199.114	4095
199.183	4067
199.251	2895
199.320	2403
199.388	2305
199.457	2216
199.525	2182
199.594	2143
199.662	2220
199.731	2122
199.799	2168
199.867	3306
199.936	2222
200.004	2373
200.073	1924
200.141	1857
200.210	1869
200.278	2364
200.346	1661
200.415	2716
200.483	3320
200.552	2692
200.620	2122
200.688	2148
200.757	1808
200.825	2317
200.893	2166
200.962	2100
201.030	1315
201.098	1755
201.167	3002
201.235	2213
201.303	2407
201.372	2315
201.440	2522
201.508	2146
201.577	2576
201.645	2424
201.713	2050
201.781	2131
201.850	1994
201.918	1980
201.986	2182
202.055	2632
202.123	1408
202.191	1963
202.259	2250
202.327	2632
202.396	2480
202.464	2401
202.532	2340
202.600	3680
202.669	2274
202.737	2287
202.805	2184
202.873	2512
202.941	3161
203.009	2764
203.078	1601
203.146	3093
203.214	2224
203.282	1634
203.350	2562
203.418	3201
203.487	3447
203.555	2259
203.623	2868
203.691	3044
203.759	1840
203.827	2921
203.895	2485
203.963	2690
204.031	2072
204.099	3093
204.168	2363
204.236	4008
204.304	3184
204.372	3397
204.440	3502
204.508	2821
204.576	3049
204.644	2881
204.712	2596
204.780	3472
204.848	3055
204.916	3348
204.984	2225
205.052	4146
205.120	3027
205.188	2930
205.256	2663
205.324	4120
205.392	3587
205.460	5701
205.528	5769
205.596	4455
205.664	3739
205.732	5903
205.799	21091
205.867	39435
205.935	9102
206.003	5768
206.071	4076
206.139	6212
206.207	5179
206.275	3808
206.343	3558
206.411	3803
206.478	3253
206.546	4734
206.614	3741
206.682	3912
206.750	4211
206.818	5736
206.885	5765
206.953	3035
207.021	4223
207.089	4327
207.157	3804
207.225	5659
207.292	5288
207.360	4799
207.428	3893
207.496	4396
207.563	4381
207.631	3441
207.699	3049
207.767	3703
207.834	2718
207.902	4017
207.970	3619
208.038	3909
208.105	3408
208.173	6020
208.241	8821
208.309	6928
208.376	5021
208.444	9699
208.512	8877
208.579	3951
208.647	5641
208.715	6491
208.782	4785
208.850	3842
208.918	2986
208.985	3713
209.053	4744
209.120	4961
209.188	3595
209.256	4533
209.323	3491
209.391	4207
209.459	5834
209.526	4516
209.594	4039
209.661	4402
209.729	4622
209.796	4809
209.864	5007
209.932	3811
209.999	5525
210.067	5107
210.134	4646
210.202	4931
210.269	6218
210.337	6328
210.404	5957
210.472	5667
210.539	4856
210.607	4688
210.674	4688
210.742	5088
210.809	4822
210.877	5229
210.944	5679
211.012	4896
211.079	6474
211.146	5419
211.214	5890
211.281	6995
211.349	6845
211.416	6024
211.484	6142
211.551	6519
211.618	5905
211.686	6075
211.753	5805
211.821	6179
211.888	6378
211.955	6354
212.023	5418
212.090	6878
212.157	7583
212.225	8799
212.292	21118
212.359	46300
212.427	143387
212.494	60523
212.561	18529
212.629	12827
212.696	10744
212.763	9766
212.831	7684
212.898	7687
212.965	6279
213.032	6809
213.100	6195
213.167	6536
213.234	6182
213.301	6975
213.369	6529
213.436	6682
213.503	6031
213.570	6447
213.638	6983
213.705	6652
213.772	5356
213.839	5612
213.906	6380
213.973	5796
214.041	5453
214.108	5771
214.175	5741
214.242	5614
214.309	5725
214.376	6258
214.444	6895
214.511	7584
214.578	7010
214.645	6892
214.712	7159
214.779	6987
214.846	5869
214.913	7457
214.980	8726
215.048	9701
215.115	8993
215.182	7086
215.249	6673
215.316	6680
215.383	6358
215.450	5293
215.517	5547
215.584	5050
215.651	4819
215.718	4700
215.785	5432
215.852	4546
215.919	5561
215.986	4344
216.053	4696
216.120	5154
216.187	5245
216.254	5408
216.321	5757
216.388	6087
216.455	6181
216.522	6293
216.589	6402
216.656	6927
216.722	8752
216.789	10072
216.856	11550
216.923	10577
216.990	9149
217.057	8041
217.124	8126
217.191	8782
217.258	10842
217.324	14918
217.391	18181
217.458	14365
217.525	9696
217.592	9092
217.659	7311
217.725	9115
217.792	7755
217.859	7829
217.926	5909
217.993	6363
218.059	5529
218.126	5439
218.193	5669
218.260	5985
218.327	4971
218.393	4934
218.460	5195
218.527	3864
218.594	5221
218.660	4898
218.727	5771
218.794	4677
218.860	5101
218.927	4726
218.994	4178
219.061	4504
219.127	4932
219.194	4784
219.261	5275
219.327	3885
219.394	4764
219.461	3931
219.527	4126
219.594	5195
219.661	3792
219.727	3763
219.794	5112
219.860	5130
219.927	6104
219.994	6596
220.060	7497
220.127	7446
220.193	7033
220.260	7931
220.326	12957
220.393	20488
220.460	30607
220.526	20264
220.593	12156
220.659	13059
220.726	14155
220.792	51168
220.859	38310
220.925	36907
220.992	53419
221.058	64592
221.125	76215
221.191	59098
221.258	20955
221.324	12843
221.391	10265
221.457	8521
221.524	8857
221.590	17223
221.657	74631
221.723	52589
221.789	44173
221.856	39024
221.922	20084
221.989	11514
222.055	8996
222.121	6901
222.188	8251
222.254	7069
222.321	5863
222.387	5319
222.453	4587
222.520	5617
222.586	5010
222.652	5478
222.719	4725
222.785	5251
222.851	4443
222.918	4471
222.984	4842
223.050	4111
223.116	3606
223.183	5995
223.249	4292
223.315	3578
223.382	4109
223.448	4390
223.514	3456
223.580	3884
223.647	4281
223.713	4066
223.779	4066
223.845	3863
223.911	4300
223.978	4071
224.044	4693
224.110	4474
224.176	4400
224.242	4370
224.309	3271
224.375	4229
224.441	3851
224.507	3655
224.573	2901
224.639	4098
224.705	3587
224.772	4929
224.838	2970
224.904	4039
224.970	3526
225.036	4170
225.102	2171
225.168	4225
225.234	3432
225.300	4485
225.366	3446
225.432	4144
225.499	4552
225.565	4379
225.631	5181
225.697	6228
225.763	7229
225.829	9050
225.895	8513
225.961	12527
226.027	10862
226.093	8180
226.159	11744
226.225	18289
226.291	41960
226.357	77731
226.423	34563
226.489	17839
226.554	11916
226.620	11800
226.686	12262
226.752	17597
226.818	35893
226.884	101593
226.950	92417
227.016	32336
227.082	17383
227.148	12121
227.214	10926
227.279	8884
227.345	6615
227.411	6657
227.477	6306
227.543	10180
227.609	8519
227.674	6384
227.740	5896
227.806	8154
227.872	7736
227.938	6030
228.003	5589
228.069	4940
228.135	4685
228.201	5366
228.267	4525
228.332	3906
228.398	3706
228.464	4786
228.530	4136
228.595	4547
228.661	3600
228.727	5084
228.792	4990
228.858	4308
228.924	5654
228.990	10628
229.055	6026
229.121	8467
229.187	4580
229.252	3516
229.318	3918
229.384	3853
229.449	3123
229.515	2697
229.581	2845
229.646	5280
229.712	3547
229.777	4214
229.843	3662
229.909	5882
229.974	6116
230.040	6800
230.105	7348
230.171	9079
230.236	15061
230.302	29391
230.368	15262
230.433	10039
230.499	8994
230.564	8220
230.630	6100
230.695	6147
230.761	6253
230.826	4168
230.892	6273
230.957	5046
231.023	5074
231.088	4786
231.154	5220
231.219	5520
231.284	4908
231.350	6644
231.415	4706
231.481	6039
231.546	4748
231.612	5314
231.677	3869
231.742	4218
231.808	5209
231.873	4081
231.939	2967
232.004	5473
232.069	4779
232.135	5636
232.200	5373
232.265	4813
232.331	3500
232.396	4548
232.461	4700
232.527	3814
232.592	3798
232.657	4421
232.723	3854
232.788	4035
232.853	4000
232.918	4262
232.984	3808
233.049	3413
233.114	2898
233.179	4507
233.245	3999
233.310	4749
233.375	2869
233.440	4381
233.506	3800
233.571	3882
233.636	3506
233.701	4041
233.766	3818
233.832	4438
233.897	3173
233.962	1931
234.027	4684
234.092	3474
234.157	3156
234.222	3948
234.288	4103
234.353	7021
234.418	7371
234.483	6932
234.548	6686
234.613	6370
234.678	7254
234.743	6572
234.808	8840
234.873	7547
234.938	6593
235.004	6046
235.069	6385
235.134	5662
235.199	6894
235.264	5345
235.329	4782
235.394	6396
235.459	6744
235.524	5118
235.589	6765
235.654	5845
235.719	4135
235.784	5980
235.849	5853
235.913	6242
235.978	7041
236.043	6936
236.108	6362
236.173	5827
236.238	6634
236.303	5876
236.368	5601
236.433	8117
236.498	8884
236.563	13604
236.627	30676
236.692	130037
236.757	105864
236.822	33875
236.887	20889
236.952	20365
237.017	16007
237.081	15766
237.146	20131
237.211	51180
237.276	129122
237.341	224034
237.405	80403
237.470	30548
237.535	20604
237.600	15149
237.664	12180
237.729	10463
237.794	14322
237.859	29360
237.923	15044
237.988	8324
238.053	8025
238.118	7850
238.182	13516
238.247	14152
238.312	6448
238.376	6636
238.441	3914
238.506	7418
238.570	4158
238.635	6474
238.700	5860
238.764	4518
238.829	7193
238.893	6761
238.958	6782
239.023	5459
239.087	6060
239.152	6086
239.216	4633
239.281	6397
239.346	6087
239.410	5913
239.475	5113
239.539	10875
239.604	9050
239.668	6170
239.733	4392
239.797	7415
239.862	13834
239.926	9097
239.991	5956
240.055	5609
240.120	3952
240.184	4671
240.249	3507
240.313	3316
240.378	3698
240.442	6391
240.507	7753
240.571	4843
240.635	3616
240.700	5590
240.764	3335
240.829	3991
240.893	2556
240.957	5131
241.022	5545
241.086	6640
241.151	4073
241.215	3492
241.279	4780
241.344	4482
241.408	6313
241.472	6860
241.537	8383
241.601	8380
241.665	6466
241.730	6267
241.794	7059
241.858	6971
241.922	6977
241.987	7364
242.051	6753
242.115	6280
242.179	6312
242.244	6666
242.308	7516
242.372	6543
242.436	6464
242.501	7021
242.565	6318
242.629	6596
242.693	6726
242.757	6464
242.822	6901
242.886	7313
242.950	7121
243.014	6344
243.078	6688
243.142	7919
243.206	7445
243.271	9436
243.335	11796
243.399	24664
243.463	113716
243.527	333142
243.591	96830
243.655	28836
243.719	18096
243.783	16420
243.847	30128
243.911	39122
243.975	14585
244.040	9275
244.104	9269
244.168	7839
244.232	6989
244.296	15826
244.360	32911
244.424	10182
244.488	8293
244.552	6317
244.615	4681
244.679	6307
244.743	4805
244.807	4378
244.871	4570
244.935	5265
244.999	3872
245.063	4785
245.127	7116
245.191	22997
245.255	22598
245.319	7449
245.383	4087
245.446	6526
245.510	4219
245.574	4471
245.638	4668
245.702	3576
245.766	5276
245.829	5288
245.893	4541
245.957	5055
246.021	6587
246.085	5671
246.149	5716
246.212	6710
246.276	8305
246.340	5413
246.404	4774
246.467	6426
246.531	3925
246.595	7468
246.659	5509
246.722	5242
246.786	4752
246.850	5045
246.913	4584
246.977	4641
247.041	4462
247.104	4318
247.168	4545
247.232	6739
247.295	10517
247.359	6578
247.423	5399
247.486	5439
247.550	5327
247.614	4048
247.677	4946
247.741	5050
247.804	4558
247.868	7020
247.932	5062
247.995	10789
248.059	6367
248.122	4980
248.186	6794
248.249	7847
248.313	26366
248.376	24636
248.440	11381
248.503	6705
248.567	8064
248.630	7004
248.694	8687
248.757	14020
248.821	30590
248.884	17959
248.948	13737
249.011	17672
249.075	28917
249.138	24024
249.202	13164
249.265	11081
249.328	12682
249.392	10296
249.455	11297
249.519	11579
249.582	11285
249.645	12689
249.709	12056
249.772	12313
249.835	12392
249.899	12840
249.962	12980
250.025	11672
250.089	15514
250.152	17191
250.215	15690
250.279	14979
250.342	15987
250.405	16731
250.468	18034
250.532	27160
250.595	55170
250.658	291319
250.721	517300
250.785	131837
250.848	57918
250.911	39152
250.974	33363
251.038	30733
251.101	31745
251.164	27271
251.227	27977
251.290	37789
251.354	79531
251.417	417585
251.480	415432
251.543	254694
251.606	813960
251.669	589646
251.732	176288
251.795	106440
251.859	137057
251.922	480678
251.985	252523
252.048	74868
252.111	48922
252.174	37928
252.237	41031
252.300	72277
252.363	178984
252.426	564142
252.489	195951
252.552	66321
252.615	44076
252.678	42137
252.741	65362
252.804	200239
252.867	614205
252.930	216978
252.993	69587
253.056	44599
253.119	32954
253.182	35217
253.245	90427
253.308	51631
253.371	21083
253.434	17414
253.497	15560
253.559	16040
253.622	12413
253.685	11876
253.748	11206
253.811	9648
253.874	11072
253.937	8712
254.000	9082
254.062	10125
254.125	11199
254.188	9850
254.251	8222
254.314	7393
254.376	7680
254.439	8417
254.502	7482
254.565	8119
254.628	9830
254.690	6542
254.753	5938
254.816	6292
254.878	4863
254.941	7874
255.004	8327
255.067	5745
255.129	4712
255.192	5478
255.255	3424
255.317	5699
255.380	5036
255.443	4368
255.505	3705
255.568	4417
255.631	3615
255.693	4731
255.756	3646
255.819	5874
255.881	4795
255.944	5028
256.006	4375
256.069	4347
256.132	3873
256.194	5211
256.257	7225
256.319	6097
256.382	7107
256.444	8655
256.507	8288
256.569	7302
256.632	9309
256.694	14526
256.757	58076
256.819	191971
256.882	72904
256.944	25354
257.007	15897
257.069	12507
257.132	9953
257.194	10020
257.257	7764
257.319	8835
257.381	13471
257.444	40351
257.506	226713
257.569	212449
257.631	51164
257.693	27411
257.756	19308
257.818	12289
257.880	10035
257.943	8814
258.005	7394
258.067	6859
258.130	6118
258.192	6637
258.254	6390
258.317	6333
258.379	5906
258.441	7200
258.503	7449
258.566	8820
258.628	10987
258.690	5629
258.753	6949
258.815	7308
258.877	6618
258.939	6201
259.001	6529
259.064	6035
259.126	6089
259.188	7398
259.250	6040
259.312	6359
259.375	8029
259.437	6901
259.499	5480
259.561	5890
259.623	5547
259.685	5650
259.747	4791
259.809	8447
259.872	13054
259.934	21725
259.996	17777
260.058	7601
260.120	4987
260.182	5264
260.244	4273
260.306	4499
260.368	4377
260.430	3738
260.492	4454
260.554	6256
260.616	4609
260.678	7521
260.740	10627
260.802	4954
260.864	4663
260.926	3514
260.988	4672
261.050	4623
261.112	4001
261.174	10683
261.236	10218
261.298	5311
261.359	6874
261.421	7258
261.483	4224
261.545	5276
261.607	3926
261.669	4323
261.731	4325
261.793	7436
261.854	3091
261.916	5556
261.978	3947
262.040	4578
262.102	4203
262.164	5274
262.225	4396
262.287	4022
262.349	3660
262.411	4247
262.472	4689
262.534	4238
262.596	6407
262.658	5387
262.719	3651
262.781	5223
262.843	6941
262.904	6499
262.966	9194
263.028	20874
263.090	113681
263.151	363945
263.213	96630
263.275	27238
263.336	16679
263.398	13056
263.459	8489
263.521	7600
263.583	6924
263.644	5174
263.706	4140
263.767	3494
263.829	3369
263.891	3803
263.952	2940
264.014	2749
264.075	3113
264.137	3789
264.198	3854
264.260	2153
264.321	3065
264.383	3218
264.444	3954
264.506	3292
264.567	2798
264.629	4592
264.690	2714
264.752	3343
264.813	3087
264.875	3150
264.936	4148
264.998	3648
265.059	5540
265.120	5919
265.182	12675
265.243	85266
265.305	82716
265.366	17835
265.427	9752
265.489	7918
265.550	4361
265.611	4679
265.673	3356
265.734	3631
265.795	4155
265.857	5080
265.918	8222
265.979	24099
266.040	153026
266.102	115840
266.163	24655
266.224	13135
266.286	9207
266.347	6926
266.408	5190
266.469	4038
266.530	3837
266.592	2873
266.653	3465
266.714	3093
266.775	2542
266.836	2397
266.898	3130
266.959	3894
267.020	3552
267.081	4927
267.142	3518
267.203	3453
267.264	2437
267.326	4933
267.387	2320
267.448	2873
267.509	4412
267.570	3756
267.631	2811
267.692	2800
267.753	3345
267.814	2970
267.875	3511
267.936	4564
267.997	3433
268.058	5211
268.119	3745
268.180	3555
268.241	2523
268.302	2507
268.363	1943
268.424	2836
268.485	2694
268.546	2080
268.607	2078
268.668	2450
268.729	2113
268.790	3151
268.851	2173
268.912	2897
268.972	2982
269.033	2977
269.094	1909
269.155	3170
269.216	2587
269.277	1844
269.338	2405
269.398	3233
269.459	3149
269.520	3693
269.581	3742
269.642	3299
269.702	2570
269.763	3536
269.824	3217
269.885	3334
269.945	2998
270.006	3617
270.067	2643
270.128	2774
270.188	1775
270.249	1953
270.310	2143
270.370	3345
270.431	2898
270.492	2105
270.553	2200
270.613	2728
270.674	3117
270.734	1969
270.795	2621
270.856	3045
270.916	1749
270.977	2469
271.038	2819
271.098	2039
271.159	2008
271.219	1933
271.280	3092
271.340	3131
271.401	1961
271.462	3791
271.522	3072
271.583	2667
271.643	2071
271.704	2913
271.764	1973
271.825	3961
271.885	13989
271.946	23005
272.006	5742
272.066	7834
272.127	13739
272.187	4973
272.248	3236
272.308	3703
272.369	6948
272.429	4403
272.489	3289
272.550	2385
272.610	3055
272.671	2830
272.731	2592
272.791	2480
272.852	1239
272.912	1927
272.972	2230
273.033	2866
273.093	1460
273.153	3001
273.214	2048
273.274	2285
273.334	3875
273.394	6070
273.455	2454
273.515	3262
273.575	3818
273.635	3529
273.696	4029
273.756	7698
273.816	2820
273.876	2896
273.936	4052
273.997	7914
274.057	2833
274.117	2638
274.177	2473
274.237	8052
274.297	8058
274.358	4620
274.418	4765
274.478	3656
274.538	1440
274.598	2262
274.658	6266
274.718	7283
274.778	3351
274.838	2050
274.898	3856
274.958	9978
275.018	8513
275.078	5985
275.138	1955
275.198	1514
275.258	1902
275.318	2555
275.378	2131
275.438	2137
275.498	2225
275.558	5602
275.618	9754
275.678	4458
275.738	3131
275.798	2255
275.858	2122
275.918	2082
275.978	1960
276.038	2046
276.098	1897
276.157	2079
276.217	3189
276.277	2246
276.337	2037
276.397	2104
276.457	1965
276.517	1092
276.576	2245
276.636	1423
276.696	2433
276.756	2502
276.815	1952
276.875	1676
276.935	1459
276.995	2060
277.055	1929
277.114	1458
277.174	1010
277.234	2926
277.293	1523
277.353	1283
277.413	1437
277.472	1426
277.532	1823
277.592	2436
277.651	1702
277.711	3534
277.771	1697
277.830	3840
277.890	3213
277.950	3267
278.009	8623
278.069	4772
278.128	3913
278.188	3312
278.248	2951
278.307	4567
278.367	3891
278.426	3082
278.486	2760
278.545	2096
278.605	2481
278.664	2362
278.724	2423
278.783	4318
278.843	7162
278.902	3496
278.962	2638
279.021	2886
279.081	3703
279.140	3533
279.199	2491
279.259	4589
279.318	6381
279.378	8332
279.437	9384
279.496	27218
279.556	163645
279.615	134373
279.675	24661
279.734	12762
279.793	12115
279.853	12024
279.912	6789
279.971	4925
280.031	3363
280.090	5990
280.149	7512
280.208	13040
280.268	82514
280.327	90875
280.386	15435
280.445	7948
280.505	5939
280.564	5087
280.623	3688
280.682	4144
280.742	3247
280.801	2256
280.860	1255
280.919	1988
280.978	1993
281.037	2432
281.097	1568
281.156	3432
281.215	1745
281.274	2183
281.333	3917
281.392	2700
281.451	2307
281.510	2338
281.569	2766
281.628	3872
281.688	3965
281.747	2719
281.806	1706
281.865	2565
281.924	1364
281.983	1630
282.042	1714
282.101	1371
282.160	911
282.219	1350
282.278	1497
282.337	2302
282.396	2106
282.454	1986
282.513	1631
282.572	2690
282.631	1733
282.690	1292
282.749	1218
282.808	1636
282.867	2398
282.926	1584
282.985	1271
283.043	1544
283.102	952
283.161	2219
283.220	1905
283.279	3763
283.338	1659
283.396	2590
283.455	1885
283.514	1601
283.573	2018
283.631	1666
283.690	1458
283.749	1986
283.808	2273
283.866	1761
283.925	1907
283.984	2652
284.043	1524
284.101	1200
284.160	814
284.219	3229
284.277	1749
284.336	2023
284.395	3630
284.453	3667
284.512	2325
284.570	2286
284.629	2048
284.688	2346
284.746	1284
284.805	2157
284.863	2044
284.922	3392
284.981	3319
285.039	4803
285.098	9539
285.156	26916
285.215	157785
285.273	146830
285.332	40611
285.390	17964
285.449	11994
285.507	8994
285.566	6225
285.624	5000
285.683	3401
285.741	3719
285.799	3228
285.858	2457
285.916	3065
285.975	2884
286.033	2282
286.091	3000
286.150	2910
286.208	3661
286.267	2918
286.325	3312
286.383	3317
286.442	3480
286.500	2122
286.558	3074
286.616	4149
286.675	4090
286.733	3238
286.791	3366
286.850	3603
286.908	3555
286.966	4437
287.024	4697
287.083	3510
287.141	3679
287.199	3996
287.257	4729
287.315	4905
287.374	5860
287.432	6408
287.490	6358
287.548	6686
287.606	6575
287.664	7688
287.723	8213
287.781	9344
287.839	11574
287.897	15597
287.955	26561
288.013	54708
288.071	140898
288.129	531559
288.187	1448116
288.245	653599
288.303	198599
288.361	108685
288.419	75441
288.477	53371
288.535	39128
288.593	27550
288.651	19119
288.709	14343
288.767	10958
288.825	9384
288.883	7860
288.941	7584
288.999	6512
289.057	6063
289.115	5057
289.173	5482
289.231	5974
289.289	5084
289.346	4802
289.404	5112
289.462	4921
289.520	4289
289.578	4235
289.636	3317
289.694	4587
289.751	4234
289.809	4072
289.867	4035
289.925	4343
289.983	3143
290.040	3475
290.098	3547
290.156	3146
290.214	2840
290.271	2965
290.329	2949
290.387	2810
290.444	2416
290.502	2242
290.560	2055
290.617	1691
290.675	1816
290.733	2196
290.790	1647
290.848	2276
290.906	2194
290.963	2055
291.021	1955
291.078	1500
291.136	1096
291.194	1264
291.251	1469
291.309	2069
291.366	1162
291.424	1488
291.481	1035
291.539	1655
291.596	1567
291.654	599
291.711	1091
291.769	1484
291.826	631
291.884	978
291.941	1206
291.999	1342
292.056	-124
292.114	1017
292.171	-160
292.228	1523
292.286	979
292.343	829
292.401	767
292.458	876
292.515	53
292.573	996
292.630	1132
292.687	2200
292.745	744
292.802	1610
292.859	1275
292.917	3267
292.974	1624
293.031	680
293.089	538
293.146	972
293.203	746
293.260	478
293.318	1428
293.375	1340
293.432	1064
293.489	972
293.546	460
293.604	2314
293.661	2882
293.718	6738
293.775	2320
293.832	2012
293.889	1212
293.947	622
294.004	1040
294.061	127
294.118	-115
294.175	2078
294.232	714
294.289	2004
294.346	1083
294.403	3457
294.460	1682
294.517	981
294.574	1030
294.631	207
294.688	962
294.745	1645
294.802	6140
294.859	4755
294.916	1720
294.973	1529
295.030	1024
295.087	1133
295.144	916
295.201	1563
295.258	814
295.315	916
295.372	1905
295.429	5195
295.486	2289
295.542	814
295.599	2201
295.656	2518
295.713	1660
295.770	3373
295.827	1327
295.883	1976
295.940	1591
295.997	1050
296.054	1543
296.111	1456
296.167	1249
296.224	1534
296.281	1145
296.338	1070
296.394	463
296.451	942
296.508	1743
296.564	3085
296.621	2852
296.678	9150
296.734	12545
296.791	4004
296.848	2008
296.904	2010
296.961	2652
297.018	7017
297.074	8159
297.131	3701
297.187	2380
297.244	2764
297.301	5771
297.357	10790
297.414	4029
297.470	2478
297.527	1519
297.583	1540
297.640	1365
297.696	1346
297.753	373
297.809	1759
297.866	1280
297.922	1526
297.979	184
298.035	1241
298.092	1016
298.148	2166
298.204	2600
298.261	1336
298.317	3843
298.374	9898
298.430	5179
298.486	2576
298.543	2244
298.599	4133
298.656	9115
298.712	24524
298.768	108335
298.824	98176
298.881	25195
298.937	10866
298.993	8141
299.050	6207
299.106	4876
299.162	2942
299.218	3509
299.275	2612
299.331	1892
299.387	2739
299.443	9145
299.500	12251
299.556	5929
299.612	3551
299.668	1659
299.724	5598
299.780	5886
299.837	2565
299.893	1293
299.949	5905
300.005	7162
300.061	6180
300.117	13441
300.173	5354
300.229	3029
300.285	1891
300.341	1916
300.397	1212
300.453	976
300.510	887
300.566	1812
300.622	3123
300.678	11229
300.734	15282
300.790	6892
300.845	6341
300.901	5736
300.957	8016
301.013	4701
301.069	1609
301.125	1299
301.181	1360
301.237	1131
301.293	1552
301.349	538
301.405	1009
301.461	-141
301.516	495
301.572	134
301.628	916
301.684	-351
301.740	1046
301.796	1642
301.851	1132
301.907	1830
301.963	3823
302.019	11057
302.074	34701
302.130	32634
302.186	12697
302.242	5058
302.297	4320
302.353	3043
302.409	3184
302.464	2936
302.520	1564
302.576	4592
302.631	4815
302.687	2747
302.743	2362
302.798	1233
302.854	1246
302.910	1734
302.965	1753
303.021	2614
303.076	2974
303.132	1934
303.187	2112
303.243	2123
303.299	2334
303.354	1501
303.410	2627
303.465	1539
303.521	1779
303.576	1020
303.632	2455
303.687	2686
303.743	7144
303.798	4938
303.853	2420
303.909	1713
303.964	1083
304.020	1752
304.075	1818
304.130	1562
304.186	1747
304.241	2550
304.297	2885
304.352	2303
304.358	2326
304.407	2513
304.449	1577
304.463	1260
304.518	2222
304.539	1803
304.573	1122
304.629	1619
304.630	1629
304.684	2170
304.720	4678
304.739	5912
304.794	7998
304.811	7207
304.850	5079
304.902	3622
304.905	3569
304.960	4662
304.992	6544
305.015	7609
305.071	6373
305.083	5659
305.126	3133
305.173	2280
305.181	2172
305.236	1995
305.264	2130
305.292	2281
305.347	2275
305.354	2468
305.402	4377
305.445	6326
305.457	6633
305.512	9009
305.535	7275
305.567	4930
305.622	5602
305.626	5736
305.678	11305
305.716	20511
305.733	22578
305.788	15961
305.807	13227
305.843	10407
305.897	11673
305.898	11668
305.953	11689
305.988	8676
306.008	6991
306.063	4397
306.078	3754
306.118	2781
306.168	2394
306.173	2362
306.228	2745
306.259	2753
306.283	2970
306.338	3837
306.349	4113
306.393	6384
306.440	11071
306.448	11364
306.503	8288
306.530	6719
306.558	7257
306.613	12448
306.620	12795
306.668	11559
306.711	9248
306.723	8721
306.778	6360
306.801	5644
306.833	5157
306.888	4420
306.892	4341
306.943	3717
306.982	4053
306.997	4222
307.052	4170
307.072	4138
307.107	4204
307.162	4817
307.163	4814
307.217	5232
307.253	5560
307.272	5668
307.327	6180
307.343	6145
307.381	6129
307.434	6198
307.436	6276
307.491	8318
307.524	9639
307.546	10005
307.600	10421
307.614	10278
307.655	9875
307.704	10656
307.710	10853
307.765	11471
307.795	12249
307.819	13746
307.874	17833
307.885	18661
307.929	24489
307.975	31849
307.984	35765
308.038	66323
308.065	88009
308.093	185319
308.148	407047
308.156	453017
308.202	701936
308.246	880964
308.257	837253
308.312	392960
308.336	219383
308.366	148639
308.421	71695
308.426	65667
308.475	48183
308.517	36559
308.530	34618
308.585	28484
308.607	26346
308.639	24717
308.694	22555
308.697	22467
308.748	23070
308.787	24526
308.803	25089
308.857	25955
308.877	26420
308.912	30289
308.967	37758
308.967	37803
309.021	57435
309.058	73682
309.076	102142
309.130	200655
309.148	238421
309.185	565364
309.238	1104341
309.239	1108123
309.293	1178793
309.328	1071377
309.348	893463
309.402	369650
309.418	237952
309.457	158751
309.508	81087
309.511	79286
309.566	57267
309.598	44489
309.620	40188
309.674	31602
309.688	29664
309.729	25546
309.778	20034
309.783	19624
309.837	16280
309.868	15000
309.892	14654
309.946	14054
309.959	14046
310.001	14678
310.049	15062
310.055	14758
310.109	11495
310.139	9710
310.163	8929
310.218	7701
310.229	7457
310.272	7289
310.319	7093
310.326	7048
310.381	6512
310.409	6322
310.435	6169
310.489	5897
310.499	5812
310.543	6170
310.589	6510
310.598	6428
310.652	6063
310.679	5771
310.706	5668
310.760	5382
310.769	5341
310.814	5320
310.859	5358
310.868	5405
310.923	5482
310.948	5483
310.977	5286
311.031	4907
311.038	4866
311.085	4780
311.128	4504
311.139	4519
311.193	4576
311.218	4645
311.247	4921
311.301	5261
311.308	5290
311.356	5039
311.398	4866
311.410	4814
311.464	4420
311.488	4254
311.518	4451
311.572	4761
311.578	4781
311.626	4887
311.668	4952
311.680	5014
311.734	5195
311.758	5274
311.788	5109
311.842	4805
311.847	4754
311.896	4834
311.937	4887
311.950	4890
312.004	4836
312.027	4804
312.058	4779
312.112	4705
312.117	4683
312.165	4973
312.207	5196
312.297	5039
312.386	3870
312.476	4300
312.566	5429
312.656	4869
312.745	5466
312.835	4662
312.925	5621
313.015	5723
313.104	6436
313.194	5456
313.284	4059
313.374	4726
313.463	4999
313.553	4860
313.643	4791
313.732	5251
313.822	4910
313.912	5510
314.001	5254
314.091	5498
314.180	5215
314.270	5745
314.360	6132
314.449	5668
314.539	4741
314.628	5257
314.718	5631
314.808	5433
314.897	5887
314.987	6169
315.076	6635
315.166	6199
315.255	6809
315.345	7122
315.434	7368
315.524	7713
315.613	10702
315.703	17326
315.792	49393
315.881	228909
315.971	73216
316.060	15224
316.150	8974
316.239	8323
316.328	5779
316.418	6571
316.507	5243
316.597	6511
316.686	6174
316.775	6278
316.865	8413
316.954	5598
317.043	5503
317.133	5506
317.222	5591
317.311	5505
317.400	6828
317.490	9404
317.579	12245
317.668	17268
317.757	31391
317.847	100653
317.936	415217
318.025	111429
318.114	65002
318.203	26877
318.293	9186
318.382	8875
318.471	7513
318.560	7508
318.649	9546
318.738	5323
318.828	5055
318.917	3872
319.006	4378
319.095	6219
319.184	10446
319.273	6798
319.362	5761
319.451	4369
319.540	4393
319.629	4336
319.718	5706
319.807	4682
319.896	4746
319.985	12304
320.074	6632
320.163	3832
320.252	4922
320.341	3363
320.430	3461
320.519	4136
320.608	3526
320.697	4282
320.786	5122
320.875	4566
320.964	5582
321.053	7080
321.142	7503
321.230	7070
321.319	7251
321.408	8737
321.497	7726
321.586	6751
321.675	5990
321.764	6249
321.852	5349
321.941	6882
322.030	5901
322.119	6688
322.207	9399
322.296	8445
322.385	8008
322.474	9290
322.562	13190
322.651	8791
322.740	7255
322.829	8026
322.917	7733
323.006	5660
323.095	5758
323.183	4558
323.272	5176
323.361	7390
323.449	17667
323.538	7050
323.626	11276
323.715	7351
323.804	4799
323.892	9980
323.981	7319
324.069	4705
324.158	8110
324.246	6604
324.335	3869
324.424	5213
324.512	4842
324.601	4323
324.689	8254
324.778	15910
324.866	6727
324.954	3707
325.043	3583
325.131	4279
325.220	6033
325.308	5668
325.397	5418
325.485	4238
325.574	3319
325.662	2782
325.750	3346
325.839	3926
325.927	3403
326.015	2934
326.104	3769
326.192	4665
326.280	4171
326.369	3289
326.457	3611
326.545	4200
326.634	3908
326.722	3456
326.810	3589
326.898	3783
326.987	4232
327.075	3392
327.163	5493
327.251	3559
327.340	6460
327.428	10229
327.516	4064
327.604	3652
327.692	3765
327.781	3435
327.869	4158
327.957	3510
328.045	3182
328.133	3374
328.221	3604
328.309	3688
328.397	2859
328.485	3639
328.574	4388
328.662	7033
328.750	5570
328.838	3409
328.926	4425
329.014	3567
329.102	3011
329.190	4727
329.278	4529
329.366	4098
329.454	4316
329.542	3650
329.630	4197
329.718	4407
329.806	5083
329.893	6977
329.981	12512
330.069	33856
330.157	135709
330.245	428876
330.333	211228
330.421	29031
330.509	10681
330.597	9126
330.684	6888
330.772	4825
330.860	4511
330.948	4265
331.036	3685
331.123	3354
331.211	3239
331.299	3193
331.387	3566
331.475	4089
331.562	2900
331.650	2597
331.738	2394
331.825	3160
331.913	2744
332.001	2445
332.089	2981
332.176	3410
332.264	5643
332.352	4786
332.439	3026
332.527	2532
332.614	2282
332.702	2942
332.790	2628
332.877	3459
332.965	5987
333.052	2563
333.140	2663
333.228	4646
333.315	2593
333.403	3204
333.490	4490
333.578	3329
333.665	4738
333.753	4596
333.840	2824
333.928	3849
334.015	5508
334.103	7048
334.190	14329
334.278	7641
334.365	8419
334.452	8135
334.540	5671
334.627	5612
334.715	6631
334.802	9213
334.889	26558
334.977	32177
335.064	12619
335.151	6699
335.239	5507
335.326	4449
335.413	8041
335.501	9288
335.588	5411
335.675	4938
335.762	4910
335.850	7143
335.937	10847
336.024	17850
336.111	36225
336.199	27991
336.286	11298
336.373	6834
336.460	3993
336.547	3485
336.635	3805
336.722	4408
336.809	3529
336.896	2586
336.983	5091
337.070	9333
337.157	13411
337.245	12216
337.332	8995
337.419	2877
337.506	2709
337.593	3231
337.680	3571
337.767	6502
337.854	3798
337.941	3728
338.028	6913
338.115	6244
338.202	3671
338.289	4251
338.376	10709
338.463	4579
338.550	5006
338.637	4581
338.724	3125
338.811	4367
338.898	2580
338.984	2596
339.071	2256
339.158	2609
339.245	3453
339.332	2836
339.419	3412
339.506	3524
339.593	1409
339.679	2519
339.766	2088
339.853	2771
339.940	3202
340.027	2046
340.113	2682
340.200	2638
340.287	2228
340.374	2320
340.460	3350
340.547	1352
340.634	2873
340.720	6693
340.807	3812
340.894	2851
340.980	1826
341.067	2593
341.154	2746
341.240	2604
341.327	3486
341.414	2339
341.500	2138
341.587	2721
341.674	2665
341.760	3446
341.847	2754
341.933	2084
342.020	1748
342.106	2120
342.193	1645
342.279	3142
342.366	1719
342.452	2732
342.539	2314
342.625	3543
342.712	7089
342.798	3210
342.885	2656
342.971	1917
343.058	2202
343.144	2104
343.230	2270
343.317	2913
343.403	1893
343.490	2323
343.576	1465
343.662	2958
343.749	1834
343.835	2729
343.921	5559
344.008	25610
344.094	56246
344.180	10582
344.267	4532
344.353	7587
344.439	7791
344.525	3422
344.612	3094
344.698	2158
344.784	2666
344.870	2314
344.957	2441
345.043	3076
345.129	1932
345.215	3363
345.301	1994
345.387	2625
345.474	2149
345.560	2449
345.646	2374
345.732	2080
345.818	1754
345.904	2818
345.990	2450
346.076	2553
346.162	2547
346.249	2073
346.335	2628
346.421	7132
346.507	8530
346.593	12681
346.679	3087
346.765	2840
346.851	3312
346.937	2802
347.023	3233
347.108	1824
347.194	3059
347.280	2927
347.366	2711
347.452	8179
347.538	20556
347.624	12303
347.710	7206
347.796	1894
347.882	2193
347.967	2383
348.053	2012
348.139	2617
348.225	1870
348.311	1907
348.397	1868
348.482	2659
348.568	2752
348.654	2808
348.740	7020
348.825	6085
348.911	4690
348.997	8276
349.083	16536
349.168	2924
349.254	1952
349.340	2886
349.425	1748
349.511	2064
349.597	2656
349.682	2816
349.768	6505
349.854	3469
349.939	2311
350.025	1930
350.110	2714
350.196	1837
350.282	1136
350.367	2213
350.453	2396
350.538	2130
350.624	1916
350.709	2531
350.795	1425
350.880	1860
350.966	2524
351.051	2886
351.137	2481
351.222	2098
351.308	3059
351.393	5098
351.479	2475
351.564	1388
351.649	2170
351.735	1985
351.820	2258
351.906	2341
351.991	2286
352.076	4246
352.162	5481
352.247	1939
352.332	1982
352.418	2470
352.503	2656
352.588	7569
352.673	5700
352.759	2244
352.844	1972
352.929	2073
353.014	2154
353.100	1658
353.185	3380
353.270	3005
353.355	3558
353.441	2193
353.526	2113
353.611	3322
353.696	2459
353.781	3305
353.866	2160
353.952	2812
354.037	1881
354.122	4185
354.207	4229
354.292	2985
354.377	1982
354.462	2109
354.547	2193
354.632	2720
354.717	2430
354.802	2125
354.887	2173
354.972	2382
355.057	2226
355.142	1981
355.227	2321
355.312	2189
355.397	2637
355.482	6758
355.567	2917
355.652	3388
355.737	3477
355.822	7827
355.907	6419
355.991	3337
356.076	1864
356.161	2588
356.246	2070
356.331	2904
356.416	3071
356.501	20816
356.585	19906
356.670	2026
356.755	3734
356.840	4040
356.924	15282
357.009	64074
357.094	21588
357.179	4399
357.263	2581
357.348	3419
357.433	3043
357.517	2857
357.602	3076
357.687	2416
357.771	3138
357.856	3940
357.941	5160
358.025	19061
358.110	100584
358.195	41298
358.279	4484
358.364	3454
358.448	5169
358.533	12357
358.617	8919
358.702	9400
358.787	4271
358.871	2770
358.956	2939
359.040	1547
359.125	1944
359.209	1715
359.294	2939
359.378	3512
359.462	3318
359.547	2505
359.631	890
359.716	598
359.800	1421
359.885	1999
359.969	1623
360.053	2394
360.138	2088
360.222	1976
360.306	2858
360.391	2921
360.475	3494
360.559	4321
360.644	5687
360.728	3621
360.812	11192
360.896	31468
360.981	9063
361.065	3586
361.149	3573
361.233	2974
361.318	1006
361.402	1822
361.486	1917
361.570	1998
361.654	2359
361.739	4413
361.823	20504
361.907	35053
361.991	6576
362.075	4409
362.159	4563
362.243	8531
362.327	16055
362.411	27109
362.495	11235
362.580	5429
362.664	4700
362.748	4803
362.832	8159
362.916	14224
363.000	45246
363.084	81445
363.168	58195
363.252	12863
363.336	6192
363.420	5396
363.503	8918
363.587	9962
363.671	3995
363.755	3630
363.839	5574
363.923	3651
364.007	5183
364.091	6345
364.175	8761
364.258	28962
364.342	51975
364.426	110986
364.510	56432
364.594	16054
364.677	10977
364.761	27470
364.845	20270
364.929	5808
365.013	4344
365.096	4841
365.180	3824
365.264	4591
365.347	13138
365.431	6166
365.515	2466
365.598	1714
365.682	3885
365.766	1380
365.849	2142
365.933	2013
366.017	2817
366.100	1609
366.184	1755
366.267	2831
366.351	2295
366.435	1505
366.518	1554
366.602	2082
366.685	2683
366.769	1853
366.852	2361
366.936	2399
367.019	2453
367.103	1389
367.186	3560
367.270	1822
367.353	1448
367.436	2920
367.520	1602
367.603	2918
367.687	1533
367.770	2336
367.853	3212
367.937	6053
368.020	9019
368.104	2430
368.187	2539
368.270	3206
368.353	2056
368.437	3621
368.520	7665
368.603	4465
368.687	5168
368.770	9278
368.853	3303
368.936	4280
369.020	2480
369.103	1757
369.186	730
369.269	1998
369.352	2529
369.436	2758
369.519	3266
369.602	750
369.685	3347
369.768	1476
369.851	2532
369.934	2604
370.018	1681
370.101	1587
370.184	4439
370.267	3892
370.350	3760
370.433	5223
370.516	24136
370.599	75461
370.682	34599
370.765	9796
370.848	8335
370.931	13170
371.014	5853
371.097	2154
371.180	3255
371.263	2818
371.346	1187
371.429	2171
371.511	1720
371.594	1470
371.677	3011
371.760	3911
371.843	4560
371.926	33607
372.009	86142
372.091	22107
372.174	6998
372.257	14850
372.340	5487
372.423	3067
372.505	4293
372.588	2172
372.671	4941
372.754	12023
372.836	6714
372.919	4175
373.002	7126
373.085	3009
373.167	4362
373.250	6326
373.332	15519
373.415	38313
373.498	101109
373.580	44845
373.663	133117
373.746	151806
373.828	23612
373.911	7579
373.993	3856
374.076	6838
374.159	6801
374.241	5201
374.324	10628
374.406	8605
374.489	18349
374.571	49546
374.654	16387
374.736	9096
374.819	27094
374.901	50465
374.983	58532
375.066	10428
375.148	3595
375.231	6573
375.313	10918
375.395	4330
375.478	3431
375.560	3795
375.643	3200
375.725	8394
375.807	38399
375.890	27032
375.972	6979
376.054	4211
376.136	6563
376.219	4098
376.301	8579
376.383	26050
376.465	10031
376.548	4233
376.630	5561
376.712	17364
376.794	8499
376.877	2928
376.959	2157
377.041	2869
377.123	2007
377.205	2579
377.287	853
377.369	1681
377.452	1441
377.534	2609
377.616	2147
377.698	1274
377.780	956
377.862	1798
377.944	3194
378.026	1517
378.108	1839
378.190	2315
378.272	2698
378.354	2174
378.436	1784
378.518	1467
378.600	2251
378.682	4209
378.764	6292
378.846	5466
378.928	1522
379.010	2230
379.091	1985
379.173	1866
379.255	1411
379.337	1958
379.419	2523
379.501	10153
379.583	4462
379.664	2531
379.746	2211
379.828	6813
379.910	7484
379.991	8423
380.073	2712
380.155	2845
380.237	2422
380.318	1885
380.400	1306
380.482	3511
380.564	3246
380.645	2091
380.727	2266
380.809	3186
380.890	1512
380.972	1232
381.053	2052
381.135	2467
381.217	3148
381.298	7660
381.380	3589
381.461	4118
381.543	20155
381.624	23829
381.706	4228
381.787	2984
381.869	4198
381.951	13439
382.032	61576
382.113	36927
382.195	4008
382.276	4195
382.358	4996
382.439	14829
382.521	24286
382.602	45400
382.684	15064
382.765	18958
382.846	16093
382.928	15887
383.009	9505
383.090	7666
383.172	23871
383.253	36732
383.334	15218
383.416	26242
383.497	14163
383.578	4831
383.659	6998
383.741	21435
383.822	60149
383.903	29671
383.984	13210
384.066	25475
384.147	15050
384.228	5935
384.309	4616
384.390	4484
384.471	4428
384.553	3594
384.634	3808
384.715	3859
384.796	2958
384.877	3275
384.958	7909
385.039	7185
385.120	4443
385.201	4097
385.282	4212
385.363	5043
385.444	4177
385.525	7936
385.606	18567
385.687	15161
385.768	5664
385.849	4918
385.930	27982
386.011	52599
386.092	14676
386.173	5722
386.254	6726
386.335	5846
386.416	3321
386.496	6047
386.577	8493
386.658	4783
386.739	3649
386.820	4369
386.901	4091
386.981	5024
387.062	4224
387.143	5378
387.224	8453
387.304	9552
387.385	7425
387.466	4930
387.547	6135
387.627	6161
387.708	7302
387.789	15361
387.869	17195
387.950	9044
388.031	4994
388.111	2420
388.192	5160
388.273	5625
388.353	4536
388.434	4448
388.514	5959
388.595	19804
388.676	22351
388.756	8951
388.837	8074
388.917	6417
388.998	2706
389.078	5558
389.159	5258
389.239	4113
389.320	5820
389.400	2878
389.480	5949
389.561	9148
389.641	7733
389.722	5482
389.802	4430
389.883	7045
389.963	13815
390.043	8921
390.124	6085
390.204	9214
390.284	13725
390.365	19536
390.445	95434
390.525	559162
390.605	501565
390.686	65950
390.766	17076
390.846	10542
390.927	6716
391.007	6425
391.087	7237
391.167	6328
391.247	6169
391.328	8446
391.408	7756
391.488	8005
391.568	6517
391.648	8062
391.728	9448
391.808	9515
391.888	9185
391.969	10937
392.049	12899
392.129	11899
392.209	13663
392.289	19635
392.369	17122
392.449	16922
392.529	17123
392.609	20785
392.689	22201
392.769	31033
392.849	35036
392.929	41570
393.009	59397
393.089	88875
393.169	178541
393.248	670256
393.328	2526502
393.408	2595082
393.488	661376
393.568	173140
393.648	83140
393.728	52605
393.807	40593
393.887	37164
393.967	33499
394.047	36438
394.127	43892
394.206	80611
394.286	318607
394.366	1502923
394.446	1610572
394.525	354654
394.605	84500
394.685	42567
394.764	32659
394.844	28879
394.924	28816
395.003	21063
395.083	20018
395.163	18537
395.242	18529
395.322	19318
395.402	18839
395.481	22503
395.561	23362
395.640	35180
395.720	49907
395.799	49229
395.879	62573
395.958	119244
396.038	482036
396.117	1970235
396.197	2143682
396.276	554909
396.356	146720
396.435	80621
396.515	66938
396.594	77269
396.673	154658
396.753	710906
396.832	2253734
396.912	1447397
396.991	256833
397.070	79714
397.150	43047
397.229	32118
397.308	34973
397.388	47147
397.467	29141
397.546	16647
397.625	12166
397.705	14247
397.784	10516
397.863	9422
397.942	8793
398.022	8157
398.101	6782
398.180	11399
398.259	7668
398.338	6991
398.417	5844
398.497	4856
398.576	6254
398.655	4337
398.734	4506
398.813	4736
398.892	5357
398.971	8337
399.050	5190
399.129	3110
399.208	3258
399.287	3928
399.366	2970
399.445	2832
399.524	2690
399.603	1940
399.682	3727
399.761	3587
399.840	8927
399.919	8258
399.998	2770
400.077	1689
400.156	844
400.235	4312
400.313	1642
400.392	1523
400.471	4331
400.550	6848
400.629	1521
400.708	2429
400.786	1821
400.865	2371
400.944	1530
401.023	4228
401.102	2013
401.180	1808
401.259	1803
401.338	2152
401.416	2492
401.495	1393
401.574	2384
401.652	1407
401.731	2380
401.810	862
401.888	1703
401.967	1532
402.046	1120
402.124	1635
402.203	1120
402.281	3040
402.360	1143
402.438	2908
402.517	72
402.596	1624
402.674	2078
402.753	881
402.831	1381
402.910	2430
402.988	2318
403.066	6165
403.145	4489
403.223	4460
403.302	6811
403.380	5305
403.459	4366
403.537	2202
403.615	2041
403.694	952
403.772	2901
403.850	1712
403.929	1669
404.007	1002
404.085	3049
404.164	1286
404.242	955
404.320	4763
404.398	10715
404.477	10467
404.555	27638
404.633	24016
404.711	7934
404.789	5246
404.868	1804
404.946	1322
405.024	1471
405.102	800
405.180	1047
405.258	265
405.336	2087
405.415	502
405.493	1934
405.571	2563
405.649	768
405.727	-47
405.805	2210
405.883	2233
405.961	2288
406.039	1214
406.117	274
406.195	2234
406.273	3818
406.351	17823
406.429	10678
406.507	2606
406.585	997
406.663	2398
406.740	1906
406.818	742
406.896	1546
406.974	2330
407.052	1000
407.130	9993
407.208	13516
407.285	4214
407.363	2073
407.441	3515
407.519	3632
407.596	10091
407.674	68444
407.752	340592
407.830	244466
407.907	26370
407.985	5505
408.063	3047
408.141	2963
408.218	2352
408.296	1795
408.373	1494
408.451	2153
408.529	1843
408.606	1659
408.684	2194
408.762	1911
408.839	1329
408.917	1509
408.994	1136
409.072	953
409.149	1901
409.227	4527
409.304	5230
409.382	5744
409.459	6834
409.537	9570
409.614	7384
409.692	5394
409.769	6193
409.846	8938
409.924	12023
410.001	5885
410.079	4949
410.156	4546
410.233	6372
410.311	10238
410.388	4075
410.465	2413
410.543	920
410.620	2494
410.697	1831
410.775	2761
410.852	644
410.929	2716
411.006	3449
411.083	2114
411.161	1333
411.238	1715
411.315	1902
411.392	1091
411.469	2473
411.547	1591
411.624	545
411.701	1671
411.778	2381
411.855	2006
411.932	2025
412.009	1422
412.086	1461
412.163	1216
412.240	1520
412.317	1704
412.394	832
412.471	1356
412.548	906
412.625	110
412.702	1690
412.779	2151
412.856	2043
412.933	1059
413.010	1998
413.087	3105
413.164	2222
413.241	3898
413.318	306
413.395	2515
413.471	1546
413.548	884
413.625	1624
413.702	426
413.779	639
413.855	1198
413.932	472
414.009	-30
414.086	1424
414.162	585
414.239	1304
414.316	2941
414.393	7078
414.469	1274
414.546	849
414.623	698
414.699	441
414.776	415
414.853	-9
414.929	1547
415.006	965
415.082	1304
415.159	386
415.236	945
415.312	1083
415.389	1741
415.465	747
415.542	805
415.618	84
415.695	820
415.771	418
415.848	866
415.924	1122
416.000	350
416.077	1355
416.153	631
416.230	702
416.306	149
416.383	417
416.459	1555
416.535	299
416.612	289
416.688	776
416.764	422
416.841	559
416.917	433
416.993	895
417.069	754
417.146	2762
417.222	5277
417.298	2015
417.374	182
417.451	603
417.527	-129
417.603	702
417.679	587
417.755	605
417.831	-96
417.908	712
417.984	-295
418.060	-270
418.136	1100
418.212	860
418.288	847
418.364	863
418.440	8
418.516	1242
418.592	1054
418.668	1149
418.744	2166
418.820	1603
418.896	293
418.972	-285
419.048	813
419.124	1904
419.200	187
419.276	1330
419.352	497
419.428	902
419.504	391
419.579	561
419.655	937
419.731	926
419.807	1699
419.883	1727
419.959	1362
420.034	1003
420.110	1617
420.186	3205
420.262	2964
420.337	1441
420.413	1457
420.489	1765
420.565	2265
420.640	1225
420.716	1959
420.792	1679
420.867	2083
420.943	1263
421.019	2906
421.094	2113
421.170	3022
421.245	1862
421.321	4312
421.397	7071
421.472	52715
421.548	190744
421.623	99743
421.699	13108
421.774	5861
421.850	5145
421.925	4588
422.001	5530
422.076	6711
422.152	7301
422.227	9403
422.302	14720
422.378	21617
422.453	41484
422.529	121843
422.604	542176
422.679	1122926
422.755	569546
422.830	126102
422.905	43916
422.981	23204
423.056	14709
423.131	11352
423.207	8464
423.282	6845
423.357	6173
423.432	5232
423.508	5218
423.583	4107
423.658	4351
423.733	3773
423.808	3305
423.883	3118
423.959	4095
424.034	4057
424.109	4779
424.184	2490
424.259	2087
424.334	1567
424.409	1375
424.484	1653
424.559	1578
424.634	883
424.709	1409
424.784	2557
424.859	2468
424.934	1239
425.009	2415
425.084	3871
425.159	1441
425.234	241
425.309	533
425.384	564
425.459	-52
425.534	230
425.609	664
425.683	323
425.758	-21
425.833	800
425.908	534
425.983	693
426.058	4073
426.132	1617
426.207	323
426.282	2245
426.357	-1186
426.431	890
426.506	1419
426.581	837
426.655	730
426.730	52
426.805	90
426.879	965
426.954	366
427.029	572
427.103	5069
427.178	12028
427.253	5172
427.327	1114
427.402	-175
427.476	821
427.551	313
427.625	793
427.700	851
427.774	1094
427.849	1948
427.923	651
427.998	1017
428.072	1182
428.147	5516
428.221	36088
428.296	145208
428.370	77764
428.444	7297
428.519	2404
428.593	2380
428.667	2121
428.742	3586
428.816	9851
428.890	70642
428.965	124588
429.039	25989
429.113	4566
429.188	989
429.262	1263
429.336	1862
429.410	1600
429.485	1915
429.559	1611
429.633	1913
429.707	2753
429.781	7071
429.855	62124
429.930	97154
430.004	22561
430.078	11381
430.152	43419
430.226	247680
430.300	249673
430.374	33276
430.448	5454
430.522	5823
430.596	7933
430.670	17430
430.744	97451
430.818	115443
430.892	17039
430.966	1826
431.040	1658
431.114	532
431.188	888
431.262	763
431.336	279
431.410	1214
431.484	730
431.557	2137
431.631	1561
431.705	3685
431.779	27232
431.853	134841
431.927	90229
432.000	9771
432.074	3017
432.148	1060
432.222	-100
432.295	684
432.369	229
432.443	118
432.516	4288
432.590	12055
432.664	4568
432.737	447
432.811	181
432.885	-707
432.958	1074
433.032	290
433.106	74
433.179	-392
433.253	556
433.326	321
433.400	18
433.473	282
433.547	437
433.620	-165
433.694	143
433.767	-89
433.841	-330
433.914	283
433.988	438
434.061	306
434.134	-401
434.208	202
434.281	-305
434.355	-147
434.428	269
434.501	201
434.575	-24
434.648	-789
434.721	-454
434.795	-264
434.868	-237
434.941	-261
435.014	-503
435.088	-296
435.161	467
435.234	1167
435.307	218
435.381	830
435.454	1810
435.527	3996
435.600	3908
435.673	3564
435.746	1571
435.819	1346
435.892	830
435.966	318
436.039	336
436.112	1058
436.185	0
436.258	270
436.331	16
436.404	-630
436.477	111
436.550	-79
436.623	408
436.696	-91
436.769	25
436.842	-214
436.915	449
436.987	269
437.060	-142
437.133	34
437.206	-147
437.279	-238
437.352	194
437.425	-64
437.498	-143
437.570	187
437.643	-13
437.716	-168
437.789	-483
437.861	-338
437.934	187
438.007	-54
438.080	192
438.152	177
438.225	651
438.298	8296
438.370	22579
438.443	8290
438.516	205
438.588	452
438.661	-683
438.734	-423
438.806	93
438.879	370
438.951	-337
439.024	215
439.096	-440
439.169	359
439.241	166
439.314	227
439.386	233
439.459	1441
439.531	642
439.604	157
439.676	953
439.749	-182
439.821	128
439.893	-142
439.966	377
440.038	127
440.110	788
440.183	-257
440.255	-498
440.327	500
440.400	1382
440.472	8623
440.544	5105
440.617	600
440.689	1179
440.761	572
440.833	444
440.905	219
440.978	237
441.050	-353
441.122	252
441.194	-564
441.266	-69
441.338	-530
441.411	144
441.483	1791
441.555	2798
441.627	865
441.699	531
441.771	122
441.843	1070
441.915	530
441.987	920
442.059	369
442.131	1144
442.203	1834
442.275	1387
442.347	2693
442.419	7623
442.491	46524
442.563	118172
442.635	39823
442.706	5412
442.778	2405
442.850	971
442.922	786
442.994	1755
443.066	1364
443.137	1933
443.209	2459
443.281	5091
443.353	12222
443.425	60472
443.496	246473
443.568	211423
443.640	63741
443.711	9725
443.783	4478
443.855	1511
443.926	937
443.998	1084
444.070	1401
444.141	740
444.213	556
444.285	821
444.356	523
444.428	1151
444.499	976
444.571	149
444.642	325
444.714	1004
444.785	1446
444.857	1192
444.928	1215
445.000	2244
445.071	1882
445.143	3092
445.214	3661
445.285	9325
445.357	27237
445.428	161591
445.500	398986
445.571	192667
445.642	87726
445.714	20490
445.785	6114
445.856	2593
445.928	1865
445.999	1374
446.070	623
446.141	1503
446.213	964
446.284	147
446.355	445
446.426	128
446.497	-425
446.569	293
446.640	-258
446.711	582
446.782	-409
446.853	402
446.924	79
446.995	-275
447.066	219
447.138	303
447.209	-39
447.280	-1017
447.351	-55
447.422	-404
447.493	281
447.564	-349
447.635	-952
447.706	-481
447.777	-10
447.847	49
447.918	-714
447.989	615
448.060	-440
448.131	641
448.202	0
448.273	508
448.344	228
448.414	-395
448.485	-441
448.556	147
448.627	153
448.698	685
448.768	-38
448.839	-455
448.910	-120
448.981	402
449.051	40
449.122	541
449.193	568
449.263	751
449.334	1015
449.405	770
449.475	1721
449.546	826
449.616	1963
449.687	1616
449.758	1683
449.828	831
449.899	991
449.969	1188
450.040	1123
450.110	1070
450.181	860
450.251	1231
450.322	1309
450.392	929
450.463	497
450.533	-29
450.604	541
450.674	-312
450.744	890
450.815	54
450.885	776
450.955	1265
451.026	-236
451.096	632
451.166	-603
451.237	-464
451.307	1159
451.377	275
451.447	13
451.518	1062
451.588	-514
451.658	616
451.728	1094
451.799	1229
451.869	999
451.939	862
452.009	-48
452.079	-59
452.149	286
452.219	-460
452.289	529
452.360	276
452.430	-124
452.500	466
452.570	1002
452.640	4431
452.710	8434
452.780	9103
452.850	4197
452.920	1839
452.990	1035
453.060	1330
453.129	189
453.199	-416
453.269	1040
453.339	1658
453.409	2281
453.479	2767
453.549	3211
453.619	3599
453.688	1290
453.758	953
453.828	1162
453.898	57
453.968	224
454.037	512
454.087	210
454.107	82
454.168	-59
454.177	-89
454.247	-32
454.249	7
454.316	660
454.330	650
454.386	621
454.411	645
454.456	618
454.492	520
454.525	443
454.574	1152
454.595	1458
454.655	477
454.665	310
454.734	228
454.736	239
454.804	373
454.817	556
454.873	1297
454.898	1251
454.943	1125
454.979	690
455.013	308
455.060	-34
455.082	-238
455.141	185
455.152	325
455.221	1833
455.222	1879
455.291	5151
455.303	7104
455.360	14856
455.384	26002
455.430	45506
455.465	31182
455.499	17834
455.546	7303
455.569	2555
455.627	1151
455.638	883
455.707	404
455.708	411
455.777	-127
455.789	77
455.846	832
455.869	752
455.916	730
455.950	820
455.985	774
456.031	373
456.054	246
456.112	-321
456.124	-434
456.193	665
456.193	661
456.262	602
456.274	618
456.332	848
456.355	741
456.401	503
456.436	504
456.470	433
456.516	197
456.540	57
456.597	86
456.609	82
456.678	174
456.678	169
456.747	31
456.759	-37
456.817	-525
456.840	-237
456.886	415
456.920	495
456.955	600
457.001	444
457.024	298
457.082	-127
457.093	-187
457.162	466
457.163	473
457.232	225
457.243	204
457.301	118
457.324	42
457.370	-70
457.405	392
457.439	822
457.485	598
457.508	552
457.566	538
457.577	528
457.646	1564
457.647	1567
457.715	2453
457.727	2985
457.784	5596
457.808	7496
457.853	10388
457.889	12834
457.922	13685
457.969	8238
457.991	7276
458.050	8482
458.060	8634
458.129	17095
458.130	17305
458.198	21636
458.211	19486
458.267	9629
458.292	6519
458.336	3410
458.372	3112
458.405	4013
458.453	6100
458.474	7472
458.533	14489
458.543	15318
458.611	32379
458.614	32380
458.680	20810
458.694	16649
458.749	6208
458.775	4467
458.818	2153
458.855	1555
458.887	1282
458.936	955
458.955	775
459.016	620
459.024	647
459.093	960
459.097	967
459.162	478
459.177	425
459.230	663
459.257	824
459.299	1195
459.338	1509
459.368	1510
459.418	1618
459.437	1524
459.499	637
459.505	643
459.574	1204
459.579	1241
459.643	828
459.659	668
459.711	539
459.740	526
459.780	355
459.820	360
459.849	545
459.900	489
459.917	421
459.981	822
459.986	851
460.054	819
460.061	849
460.123	1121
460.141	1192
460.191	1274
460.222	1252
460.260	1398
460.302	1698
460.328	1824
460.382	1994
460.397	2129
460.462	2387
460.465	2581
460.534	8013
460.543	8816
460.602	34874
460.623	45425
460.671	69810
460.703	101545
460.739	110644
460.783	98165
460.808	83587
460.864	16551
460.876	9219
460.944	3225
460.945	3160
461.013	1429
461.024	1358
461.081	977
461.104	996
461.150	1394
461.184	1321
461.218	1258
461.264	1342
461.286	1257
461.345	986
461.355	983
461.423	928
461.425	934
461.491	669
461.505	576
461.559	632
461.585	659
461.628	737
461.665	1053
461.696	1202
461.745	1247
461.764	1144
461.825	734
461.832	842
461.901	1505
461.905	1575
461.969	776
461.985	592
462.037	1494
462.065	1909
462.105	1231
462.145	557
462.173	676
462.225	914
462.241	954
462.305	1247
462.310	1252
462.378	1223
462.385	1201
462.446	1153
462.465	1206
462.514	1292
462.545	1178
462.582	1018
462.625	1253
462.650	1484
462.705	1485
462.718	1389
462.785	1106
462.786	1106
462.854	1069
462.865	1055
462.922	619
462.945	463
462.990	971
463.025	1399
463.058	1335
463.104	1244
463.126	1152
463.184	736
463.194	854
463.262	1747
463.264	1776
463.330	1146
463.344	1085
463.398	1579
463.424	1580
463.466	1115
463.504	905
463.533	1074
463.583	1253
463.601	1140
463.663	866
463.669	906
463.737	1355
463.743	1377
463.805	1342
463.823	1374
463.873	1563
463.903	1787
463.940	1728
463.982	1352
464.008	1222
464.062	1209
464.076	1325
464.142	1542
464.144	1532
464.211	1204
464.221	1153
464.279	775
464.301	665
464.347	654
464.381	581
464.414	782
464.461	1208
464.482	1443
464.540	1767
464.550	1628
464.617	907
464.620	877
464.685	2581
464.699	2956
464.753	4475
464.779	5293
464.820	6521
464.859	7777
464.888	6865
464.938	4815
464.956	4800
465.018	4839
465.023	4857
465.091	4941
465.098	4961
465.158	4682
465.177	4590
465.226	4891
465.257	5082
465.293	5032
465.336	4846
465.361	4618
465.416	4205
465.428	4281
465.495	4749
465.496	4757
465.563	4959
465.575	5044
465.631	5353
465.654	5464
465.698	5301
465.734	5100
465.765	5265
465.813	5518
465.833	5568
465.893	5642
465.900	5638
465.968	5606
465.972	5592
466.035	5870
466.052	5963
466.102	6346
466.131	6520
466.170	6254
466.210	5981
466.237	6789
466.290	8280
466.304	8099
466.369	7310
466.372	7362
466.439	8638
466.449	8812
466.506	8890
466.528	8887
466.573	9367
466.607	9666
466.641	9389
466.687	9057
466.708	9590
466.766	10986
466.775	11065
466.842	11561
466.845	11570
466.909	12084
466.925	12197
466.977	12100
467.004	12009
467.044	11626
467.083	11220
467.111	11770
467.163	12767
467.178	13007
467.242	13927
467.245	13850
467.312	11882
467.321	11607
467.379	10689
467.400	10332
467.446	9996
467.480	9729
467.559	9202
467.638	7740
467.717	7459
467.796	7208
467.875	7448
467.955	7289
468.034	7046
468.113	7191
468.192	8060
468.271	6673
468.350	7901
468.429	8536
468.508	10094
468.588	7494
468.667	5935
468.746	6367
468.825	5720
468.904	5099
468.983	5440
469.062	4349
469.141	5809
469.220	4936
469.299	4265
469.378	5870
469.456	10760
469.535	9195
469.614	7748
469.693	6627
469.772	8298
469.851	6372
469.930	7227
470.009	5852
470.088	6256
470.166	6859
470.245	5537
470.324	5968
470.403	5405
470.482	6250
470.560	5852
470.639	5559
470.718	6315
470.797	5406
470.875	5748
470.954	4841
471.033	5614
471.111	4834
471.190	5134
471.269	3897
471.347	4858
471.426	4884
471.505	6497
471.583	6863
471.662	7818
471.740	6227
471.819	6992
471.898	5193
471.976	6601
472.055	5339
472.133	6184
472.212	8000
472.290	5650
472.369	4629
472.447	5895
472.526	4839
472.604	5431
472.683	5241
472.761	4588
472.839	4243
472.918	4957
472.996	4178
473.075	5038
473.153	4003
473.231	4068
473.310	4084
473.388	4346
473.466	4771
473.545	6163
473.623	6450
473.701	5726
473.780	5794
473.858	3947
473.936	5560
474.014	5505
474.093	5712
474.171	6107
474.249	5804
474.327	4220
474.405	3691
474.484	5295
474.562	4555
474.640	4840
474.718	5805
474.796	6089
474.874	7059
474.952	4736
475.030	5049
475.108	6729
475.187	8452
475.265	7579
475.343	6337
475.421	6553
475.499	5640
475.577	5953
475.655	3899
475.733	4105
475.811	4568
475.889	4057
475.966	5214
476.044	3784
476.122	2973
476.200	3685
476.278	2890
476.356	3109
476.434	3593
476.512	3868
476.590	2906
476.667	4245
476.745	2647
476.823	3482
476.901	2737
476.979	2982
477.056	3311
477.134	3563
477.212	3334
477.290	3138
477.367	2693
477.445	2319
477.523	2006
477.601	2888
477.678	1870
477.756	3754
477.834	2463
477.911	2837
477.989	1839
478.066	2620
478.144	2221
478.222	2968
478.299	3028
478.377	3866
478.454	3550
478.532	2520
478.609	2251
478.687	3269
478.764	2740
478.842	2968
478.919	3237
478.997	3203
479.074	2345
479.152	2671
479.229	2853
479.307	2585
479.384	2862
479.461	2488
479.539	1878
479.616	3179
479.694	1952
479.771	2739
479.848	2069
479.926	633
480.003	2687
480.080	3445
480.157	1995
480.235	1870
480.312	2106
480.389	2623
480.467	1761
480.544	2081
480.621	2093
480.698	1509
480.775	1726
480.853	2538
480.930	865
481.007	2916
481.084	3790
481.161	8513
481.238	5666
481.315	1599
481.392	1005
481.470	1507
481.547	2025
481.624	1609
481.701	2197
481.778	1618
481.855	1339
481.932	1321
482.009	2014
482.086	1330
482.163	2054
482.240	3061
482.317	2153
482.393	3112
482.470	2304
482.547	1929
482.624	2181
482.701	1334
482.778	1093
482.855	1862
482.932	849
483.009	2471
483.085	2593
483.162	5393
483.239	5903
483.316	2046
483.393	1937
483.469	2587
483.546	2703
483.623	2656
483.699	987
483.776	2435
483.853	1828
483.930	2907
484.006	2794
484.083	6116
484.160	19400
484.236	39610
484.313	31740
484.389	21486
484.466	18495
484.543	17643
484.619	17836
484.696	19498
484.772	18022
484.849	17092
484.925	15971
485.002	17181
485.078	16633
485.155	16058
485.231	14550
485.308	15829
485.384	15285
485.461	16006
485.537	15757
485.614	16126
485.690	14340
485.766	15118
485.843	14118
485.919	15144
485.995	14687
486.072	14280
486.148	14622
486.224	13893
486.301	13685
486.377	13955
486.453	13238
486.530	16464
486.606	22394
486.682	24575
486.758	21004
486.835	18969
486.911	16752
486.987	17694
487.063	16474
487.139	17900
487.215	20209
487.292	18891
487.368	16151
487.444	16901
487.520	17165
487.596	20600
487.672	28232
487.748	58932
487.824	90691
487.900	40106
487.976	17004
488.052	14103
488.128	13730
488.204	11697
488.280	12614
488.356	12849
488.432	11847
488.508	12151
488.584	10592
488.660	11122
488.736	11114
488.812	11418
488.888	13514
488.964	13835
489.039	12438
489.115	14182
489.191	14091
489.267	10851
489.343	9412
489.418	10403
489.494	10592
489.570	8610
489.646	10213
489.722	9788
489.797	9461
489.873	9341
489.949	9842
490.024	10345
490.100	8209
490.176	8685
490.251	9044
490.327	9155
490.403	6972
490.478	9196
490.554	7509
490.629	7957
490.705	7055
490.781	9190
490.856	6529
490.932	8275
491.007	7423
491.083	8464
491.158	7104
491.234	7522
491.309	7577
491.385	7514
491.460	6056
491.536	7454
491.611	7565
491.686	6218
491.762	7037
491.837	6847
491.913	8756
491.988	8042
492.063	8610
492.139	6856
492.214	6105
492.289	7287
492.365	4308
492.440	5981
492.515	3765
492.590	6846
492.666	3980
492.741	6271
492.816	5566
492.891	4737
492.967	6684
493.042	5058
493.117	6275
493.192	7313
493.267	11210
493.342	42100
493.418	67076
493.493	16516
493.568	4711
493.643	4363
493.718	4680
493.793	4124
493.868	5288
493.943	3405
494.018	4575
494.093	3922
494.168	3617
494.243	4156
494.318	3784
494.393	4222
494.468	3891
494.543	3117
494.618	2892
494.693	4018
494.768	2123
494.842	4373
494.917	3349
494.992	3837
495.067	4618
495.142	2486
495.217	3284
495.292	2763
495.366	3001
495.441	2959
495.516	3024
495.591	3215
495.665	5016
495.740	9810
495.815	6767
495.890	3705
495.964	1125
496.039	5131
496.114	5702
496.188	9367
496.263	10379
496.338	3749
496.412	3251
496.487	4929
496.561	4018
496.636	4850
496.710	5010
496.785	5309
496.860	5828
496.934	4861
497.009	5388
497.083	6171
497.158	7104
497.232	7272
497.307	7838
497.381	9772
497.455	10227
497.530	11881
497.604	11690
497.679	13864
497.753	18778
497.827	28490
497.902	32089
497.976	30917
498.050	28287
498.125	33042
498.199	41942
498.273	45971
498.348	47198
498.422	37741
498.496	29157
498.570	23007
498.645	17244
498.719	14393
498.793	11820
498.867	10378
498.941	9958
499.016	9446
499.090	13652
499.164	10399
499.238	6203
499.312	5205
499.386	5872
499.460	5014
499.534	3408
499.609	4443
499.683	3924
499.757	2965
499.831	3740
499.905	7582
499.979	7695
500.053	2587
500.127	4221
500.201	2321
500.275	2158
500.349	2694
500.422	2210
500.496	2702
500.570	3268
500.644	5796
500.718	7729
500.792	4131
500.866	2556
500.940	2675
501.013	3672
501.087	665
501.161	930
501.235	987
501.309	3955
501.382	5105
501.456	6066
501.530	2288
501.603	1093
501.677	2685
501.751	294
501.825	2326
501.898	2266
501.972	2669
502.046	1954
502.119	840
502.193	1649
502.266	2438
502.340	1920
502.413	1015
502.487	3237
502.561	874
502.634	1596
502.708	3033
502.781	734
502.855	1899
502.928	-65
503.002	1743
503.075	-74
503.149	517
503.222	1365
503.295	1491
503.369	1341
503.442	783
503.516	1906
503.589	3445
503.662	3069
503.736	2060
503.809	3925
503.882	3000
503.956	4253
504.029	9040
504.102	25276
504.175	44794
504.249	17042
504.322	6124
504.395	2621
504.468	1637
504.542	311
504.615	999
504.688	1234
504.761	-858
504.834	835
504.907	831
504.980	1019
505.053	1110
505.127	-2052
505.200	3226
505.273	-31
505.346	1268
505.419	55
505.492	2411
505.565	1396
505.638	4505
505.711	1221
505.784	23
505.857	1113
505.930	1600
506.003	-1760
506.076	2521
506.149	-686
506.221	-624
506.294	1146
506.367	-95
506.440	1403
506.513	1725
506.586	634
506.659	-281
506.731	2
506.804	69
506.877	-406
506.950	848
507.022	508
507.095	-1132
507.168	1135
507.241	1042
507.313	115
507.386	-47
507.459	585
507.531	333
507.604	-182
507.677	1684
507.749	-703
507.822	1624
507.894	6414
507.967	13247
508.040	7678
508.112	6069
508.185	4590
508.257	3018
508.330	5174
508.402	2867
508.475	2368
508.547	4162
508.620	3296
508.692	3282
508.765	3936
508.837	3152
508.909	3116
508.982	3254
509.054	4036
509.127	3336
509.199	3140
509.271	2623
509.344	2741
509.416	2892
509.488	2691
509.560	2496
509.633	2101
509.705	2951
509.777	2104
509.849	3390
509.922	2214
509.994	2623
510.066	4357
510.138	4270
510.210	14306
510.283	13610
510.355	9847
510.427	8752
510.499	6863
510.571	6822
510.643	5081
510.715	6950
510.787	4519
510.859	7469
510.931	5442
511.003	5560
511.076	5493
511.148	4451
511.219	4156
511.291	6244
511.363	5571
511.435	4897
511.507	3858
511.579	4631
511.651	5366
511.723	4732
511.795	4246
511.867	4767
511.939	4256
512.010	4192
512.082	5774
512.154	3321
512.226	4694
512.298	9829
512.369	14112
512.441	11326
512.513	9545
512.585	6589
512.656	7595
512.728	6279
512.800	6915
512.871	6785
512.943	6477
513.015	5505
513.086	6627
513.158	5790
513.230	4532
513.301	5680
513.373	7436
513.444	6609
513.516	5219
513.588	5866
513.659	5746
513.731	5831
513.802	3571
513.874	6713
513.945	6126
514.016	4774
514.088	4761
514.159	4109
514.231	6248
514.302	11558
514.374	10567
514.445	7432
514.516	9301
514.588	7294
514.659	7117
514.730	7009
514.802	9348
514.873	12745
514.944	17053
515.016	9787
515.087	7660
515.158	7124
515.229	9752
515.301	15044
515.372	27342
515.443	14961
515.514	9226
515.585	6611
515.656	7519
515.728	6251
515.799	4741
515.870	6059
515.941	4951
516.012	5270
516.083	9490
516.154	8913
516.225	7996
516.296	7990
516.367	6511
516.438	5058
516.509	4755
516.580	6327
516.651	8308
516.722	13303
516.793	12096
516.864	5540
516.935	6095
517.006	6347
517.077	5941
517.148	7995
517.219	14585
517.289	26267
517.360	8561
517.431	6278
517.502	3913
517.573	5523
517.643	5538
517.714	6986
517.785	7645
517.856	5112
517.926	7643
517.997	5892
518.068	5006
518.138	7568
518.209	5365
518.280	11308
518.350	37000
518.421	23896
518.492	7471
518.562	7251
518.633	6986
518.703	8836
518.774	18901
518.845	52054
518.915	68577
518.986	17969
519.056	8043
519.127	8240
519.197	8681
519.268	8755
519.338	6659
519.408	4632
519.479	5194
519.549	3955
519.620	5357
519.690	3997
519.760	3862
519.831	3360
519.901	2977
519.971	3125
520.042	2680
520.112	2359
520.182	3819
520.253	3787
520.323	2959
520.393	2476
520.463	5022
520.534	938
520.604	4114
520.674	3987
520.744	1537
520.814	3284
520.885	3612
520.955	3055
521.025	4650
521.095	4064
521.165	3896
521.235	2503
521.305	2066
521.375	3619
521.445	3265
521.515	2073
521.585	2959
521.655	958
521.725	3199
521.795	4559
521.865	337
521.935	5063
522.005	1660
522.075	1479
522.145	3045
522.215	1305
522.285	2948
522.355	2368
522.424	2880
522.494	1832
522.564	3187
522.634	3732
522.704	6662
522.774	3611
522.843	2743
522.913	2335
522.983	1675
523.053	791
523.122	1611
523.192	955
523.262	1459
523.331	3588
523.401	3040
523.471	1386
523.540	2158
523.610	1454
523.680	1619
523.749	2705
523.819	2218
523.888	3263
523.958	1744
524.027	2506
524.097	1624
524.166	942
524.236	333
524.305	2924
524.375	1272
524.444	539
524.514	3293
524.583	1154
524.653	651
524.722	2594
524.791	557
524.861	3313
524.930	558
524.999	215
525.069	2355
525.138	1326
525.207	578
525.277	2555
525.346	1407
525.415	1216
525.484	1620
525.554	2044
525.623	2844
525.692	6496
525.761	4502
525.830	4760
525.900	6231
525.969	9780
526.038	16652
526.107	33598
526.176	119181
526.245	120943
526.314	32782
526.383	52648
526.452	91051
526.522	135008
526.591	178575
526.660	25616
526.729	11704
526.797	14936
526.867	17054
526.935	58036
527.004	272174
527.073	255627
527.142	20865
527.211	6126
527.280	3531
527.349	2746
527.418	232
527.487	2214
527.555	123
527.624	-97
527.693	-230
527.762	2225
527.831	-1203
527.899	799
527.968	697
528.037	-214
528.106	1620
528.174	2123
528.243	869
528.312	613
528.380	1071
528.449	204
528.518	1677
528.586	-1115
528.655	1222
528.723	432
528.792	-529
528.861	-439
528.929	-1159
528.998	757
529.066	342
529.135	329
529.203	47
529.272	-1302
529.340	805
529.409	1477
529.477	-413
529.545	-603
529.614	2162
529.682	-1462
529.751	-520
529.819	1907
529.887	-541
529.956	-45
530.024	879
530.092	-588
530.161	-15
530.229	-409
530.297	-521
530.365	1027
530.434	-468
530.502	-844
530.570	870
530.638	-1412
530.707	-447
530.775	1184
530.843	-171
530.911	-50
530.979	-152
531.047	-890
531.115	-410
531.183	-11
531.252	-10
531.320	69
531.388	-994
531.456	203
531.524	-1563
531.592	1333
531.660	2151
531.728	-408
531.796	-680
531.864	140
531.932	264
532.000	-771
532.067	-484
532.135	184
532.203	1192
532.271	-1072
532.339	542
532.407	1641
532.475	1203
532.542	-293
532.610	953
532.678	-687
532.746	2311
532.814	6487
532.881	2652
532.949	713
533.017	773
533.084	-33
533.152	-235
533.220	-141
533.287	-614
533.355	-219
533.423	-353
533.490	-185
533.558	-143
533.625	494
533.693	814
533.761	874
533.828	635
533.896	-1113
533.963	1194
534.031	1871
534.098	1589
534.166	196
534.233	-629
534.300	1394
534.368	1276
534.435	246
534.503	1517
534.570	2683
534.637	1887
534.705	2498
534.772	4214
534.840	6948
534.907	47873
534.974	91767
535.041	10463
535.109	2803
535.176	286
535.243	2151
535.310	500
535.378	689
535.445	1161
535.512	254
535.579	863
535.646	-380
535.714	841
535.781	3633
535.848	3427
535.915	2603
535.982	1200
536.049	547
536.116	2774
536.183	901
536.250	-120
536.317	939
536.384	732
536.451	1355
536.518	962
536.585	-290
536.652	1794
536.719	1704
536.786	-668
536.853	245
536.920	2323
536.987	1990
537.053	-357
537.120	4385
537.187	4096
537.254	140
537.321	-262
537.388	2222
537.454	84
537.521	954
537.588	-58
537.654	3339
537.721	4138
537.788	4001
537.855	2342
537.921	2073
537.988	1952
538.055	3188
538.121	470
538.188	1338
538.254	1613
538.321	1709
538.388	3128
538.454	1772
538.521	1499
538.587	2702
538.654	1009
538.720	1155
538.787	1416
538.853	2236
538.920	1389
538.986	1296
539.053	1251
539.119	1911
539.185	1091
539.252	2439
539.318	1282
539.385	3733
539.451	3598
539.517	4022
539.583	3196
539.650	1992
539.716	4092
539.782	3127
539.849	1321
539.915	2095
539.981	661
540.047	1322
540.114	1286
540.180	2682
540.246	747
540.312	1551
540.378	2825
540.444	3224
540.510	2142
540.576	4626
540.643	1476
540.709	712
540.775	1034
540.841	1290
540.907	2784
540.973	4948
541.039	4532
541.105	4300
541.171	2257
541.237	2403
541.303	3272
541.369	4229
541.435	2695
541.500	3353
541.566	1216
541.632	2393
541.698	1910
541.764	3221
541.830	1332
541.896	939
541.961	2326
542.027	2023
542.093	1911
542.159	3022
542.224	1637
542.290	4990
542.356	3473
542.421	4220
542.487	3057
542.553	2162
542.618	2796
542.684	2069
542.750	1709
542.815	2590
542.881	1937
542.947	3441
543.012	4664
543.078	2340
543.143	1174
543.209	3007
543.274	2160
543.340	3039
543.405	3096
543.471	2969
543.536	2985
543.602	2778
543.667	1435
543.732	3461
543.798	2040
543.863	3801
543.928	1480
543.994	2263
544.059	2515
544.124	2160
544.190	2508
544.255	3456
544.320	2273
544.386	1534
544.451	3265
544.516	2659
544.581	2252
544.646	3653
544.712	7067
544.777	4319
544.842	2116
544.907	2183
544.972	2963
545.037	2940
545.102	4413
545.168	3182
545.233	3663
545.298	3880
545.363	3268
545.428	4049
545.493	4325
545.558	3824
545.623	2734
545.688	3471
545.753	3508
545.818	2896
545.883	4342
545.947	2854
546.012	4419
546.077	2868
546.142	3957
546.207	3785
546.272	4456
546.337	3806
546.401	5393
546.466	4930
546.531	4143
546.596	5715
546.661	4958
546.725	6433
546.790	3905
546.855	5658
546.919	3416
546.984	6918
547.049	5396
547.113	7662
547.178	6861
547.243	9486
547.307	10552
547.372	11720
547.436	10870
547.501	12200
547.565	11592
547.630	13302
547.695	11091
547.759	11571
547.823	10491
547.888	12540
547.952	12824
548.017	14158
548.081	17449
548.146	16298
548.210	12597
548.274	13900
548.339	13776
548.403	13619
548.468	11621
548.532	11380
548.596	12260
548.660	12048
548.725	12321
548.789	14487
548.853	15073
548.917	13650
548.982	12635
549.046	11286
549.110	9828
549.174	10531
549.238	12872
549.303	12875
549.367	15532
549.431	13709
549.495	12444
549.559	11658
549.623	14084
549.687	16555
549.751	14707
549.815	17606
549.879	19258
549.943	16454
550.007	18240
550.071	18783
550.135	16272
550.199	14637
550.263	15900
550.327	15573
550.391	16217
550.455	18287
550.519	18101
550.582	18304
550.646	20335
550.710	21945
550.774	21142
550.838	22147
550.901	22286
550.965	23756
551.029	24712
551.093	27135
551.156	29934
551.220	36774
551.284	49772
551.347	37399
551.411	26505
551.475	22417
551.538	22581
551.602	21349
551.666	19460
551.729	16435
551.793	18177
551.856	18191
551.920	16783
551.983	17025
552.047	16207
552.110	17062
552.174	18277
552.237	18126
552.301	15152
552.364	14566
552.428	14184
552.491	14417
552.554	15793
552.618	14502
552.681	15322
552.745	14989
552.808	14966
552.871	17985
552.934	16599
552.998	15712
553.061	14132
553.124	15212
553.187	14077
553.251	14559
553.314	14981
553.377	15470
553.440	19079
553.503	30023
553.567	47621
553.630	19999
553.693	15621
553.756	15125
553.819	14529
553.882	13507
553.945	14840
554.008	14882
554.071	13588
554.134	14492
554.197	12863
554.260	12433
554.323	13771
554.386	14228
554.449	13136
554.512	14629
554.575	11938
554.638	12483
554.701	12830
554.764	12431
554.827	11777
554.889	11678
554.952	10102
555.015	9728
555.078	9655
555.141	11272
555.203	10967
555.266	10326
555.329	10554
555.391	9935
555.454	9658
555.517	9920
555.580	8984
555.642	9469
555.705	9864
555.768	10419
555.830	10370
555.893	8596
555.955	7495
556.018	7871
556.080	7796
556.143	8669
556.206	7407
556.268	7568
556.330	7938
556.393	7747
556.455	6934
556.518	6920
556.580	6862
556.643	6143
556.705	7067
556.767	5768
556.830	6907
556.892	5778
556.955	5866
557.017	6027
557.079	6035
557.142	5843
557.204	6180
557.266	6572
557.328	6147
557.391	4797
557.453	5373
557.515	5428
557.577	5049
557.639	6242
557.701	6038
557.764	5564
557.826	7267
557.888	7458
557.950	7834
558.012	10129
558.074	12616
558.136	33322
558.198	106523
558.260	46783
558.322	11483
558.384	12656
558.446	15650
558.508	19467
558.570	23428
558.632	28117
558.694	36629
558.756	60849
558.818	202452
558.880	682235
558.942	250765
559.003	118061
559.065	70951
559.127	21585
559.189	20760
559.251	23542
559.312	32189
559.374	83980
559.436	360141
559.498	233008
559.559	28361
559.621	21427
559.683	21516
559.744	34593
559.806	129310
559.868	272200
559.929	52841
559.991	18731
560.052	27987
560.114	94823
560.176	74852
560.237	45856
560.299	102015
560.360	23607
560.422	4875
560.483	3790
560.545	2896
560.606	2519
560.667	2619
560.729	2504
560.790	1738
560.852	1235
560.913	2116
560.974	2196
561.036	1215
561.097	1478
561.158	1942
561.220	1990
561.281	579
561.342	1269
561.403	1966
561.465	1356
561.526	2742
561.587	3913
561.648	513
561.709	2375
561.771	1916
561.832	2017
561.893	1850
561.954	1950
562.015	1840
562.076	1854
562.137	992
562.198	1086
562.259	1785
562.320	1624
562.381	743
562.442	1602
562.503	1659
562.564	1813
562.625	1740
562.686	1655
562.747	1259
562.808	1021
562.869	648
562.930	1273
562.991	594
563.051	1891
563.112	984
563.173	1816
563.234	1206
563.294	1402
563.355	1620
563.416	2006
563.477	601
563.537	1786
563.598	1080
563.659	1514
563.720	278
563.780	671
563.841	928
563.901	2128
563.962	815
564.023	1924
564.083	881
564.144	1233
564.204	844
564.265	736
564.325	1066
564.386	1167
564.446	1538
564.507	1990
564.567	2670
564.628	2224
564.688	1245
564.749	1094
564.809	1654
564.869	1992
564.930	1489
564.990	3037
565.050	2429
565.111	1941
565.171	1821
565.231	1594
565.292	2195
565.352	1000
565.412	2028
565.472	2222
565.532	1955
565.593	2007
565.653	1742
565.713	1803
565.773	2569
565.833	2128
565.893	3100
565.953	2052
566.013	3096
566.074	3440
566.134	3571
566.194	3747
566.254	3244
566.314	4011
566.374	3540
566.434	5042
566.494	4859
566.554	6129
566.614	6737
566.673	6577
566.733	7179
566.793	7751
566.853	8238
566.913	9391
566.973	9947
567.033	9518
567.092	7487
567.152	7778
567.212	8918
567.272	9445
567.331	10555
567.391	11862
567.451	13502
567.511	15707
567.570	14397
567.630	12184
567.690	11244
567.749	12648
567.809	15231
567.868	17663
567.928	21618
567.988	25964
568.047	33297
568.107	44260
568.166	66280
568.226	123052
568.285	196773
568.345	161324
568.404	110559
568.464	87285
568.523	76185
568.582	75046
568.642	83610
568.701	110660
568.761	181844
568.820	336402
568.879	338874
568.939	213098
568.998	137800
569.057	95727
569.116	69544
569.176	51663
569.235	39769
569.294	32677
569.353	26823
569.413	22652
569.472	19029
569.531	16213
569.590	14026
569.649	12508
569.708	10608
569.767	11144
569.827	7820
569.886	8385
569.945	7298
570.004	7335
570.063	7199
570.122	6602
570.181	6511
570.240	5338
570.299	4153
570.358	5207
570.417	3659
570.475	4337
570.534	4335
570.593	3941
570.652	3485
570.711	3591
570.770	5101
570.829	7066
570.887	7455
570.946	4277
571.005	3226
571.064	2364
571.122	2531
571.181	1637
571.240	2753
571.299	1519
571.357	2763
571.416	2236
571.475	1465
571.533	2987
571.592	2118
571.650	988
571.709	1464
571.768	1434
571.826	1945
571.885	2546
571.943	1385
572.002	1126
572.060	1617
572.119	1333
572.177	1671
572.236	1110
572.294	1793
572.352	2005
572.411	1621
572.469	827
572.528	856
572.586	1736
572.644	1281
572.703	1865
572.761	895
572.819	1328
572.877	1387
572.936	1115
572.994	482
573.052	1440
573.110	1138
573.169	1232
573.227	1270
573.285	2069
573.343	774
573.401	1150
573.459	1474
573.517	1233
573.576	1943
573.634	2216
573.692	876
573.750	1522
573.808	1818
573.866	2047
573.924	1935
573.982	2137
574.040	1460
574.098	1937
574.155	1625
574.213	1694
574.271	1069
574.329	787
574.387	1422
574.445	1242
574.503	1929
574.560	1417
574.618	1461
574.676	1788
574.734	686
574.792	825
574.849	302
574.907	446
574.965	1602
575.022	1003
575.080	1079
575.138	1851
575.195	-84
575.253	-43
575.311	1366
575.368	1496
575.426	971
575.483	1854
575.541	2283
575.598	1404
575.656	1467
575.713	1537
575.771	1733
575.828	2161
575.886	1066
575.943	1669
576.001	862
576.058	1066
576.115	135
576.173	1308
576.230	1482
576.287	1003
576.345	1440
576.402	2065
576.459	1294
576.517	1048
576.574	1552
576.631	966
576.688	1415
576.746	1682
576.803	1524
576.860	1217
576.917	1826
576.974	702
577.031	976
577.089	2190
577.146	1352
577.203	2128
577.260	3118
577.317	1898
577.374	707
577.431	1330
577.488	975
577.545	1376
577.602	1037
577.659	993
577.716	1826
577.773	2056
577.830	866
577.886	1888
577.943	1106
578.000	1462
578.057	1239
578.114	2214
578.171	755
578.227	1776
578.284	522
578.341	2094
578.398	1047
578.454	1620
578.511	1257
578.568	1796
578.625	20
578.681	1090
578.738	924
578.794	655
578.851	1182
578.908	1120
578.964	299
579.021	1035
579.077	1088
579.134	1118
579.190	851
579.247	2312
579.303	1504
579.360	1956
579.416	1908
579.473	1311
579.529	791
579.586	1003
579.642	822
579.698	1376
579.755	2524
579.811	2749
579.867	1727
579.924	1815
579.980	1167
580.036	1691
580.093	1413
580.149	2358
580.205	3103
580.261	2041
580.317	1879
580.374	1521
580.430	1665
580.486	1702
580.542	803
580.598	1717
580.619	1581
580.654	1344
580.692	1781
580.710	1993
580.765	913
580.767	875
580.823	2641
580.838	2398
580.879	1725
580.911	1694
580.935	1666
580.984	1449
580.991	1420
581.047	2479
581.057	2341
581.103	1685
581.130	1707
581.159	1723
581.203	2114
581.215	2214
581.270	1954
581.276	1966
581.326	2114
581.349	2004
581.382	1729
581.422	1316
581.438	1153
581.494	1606
581.494	1611
581.550	1812
581.567	2006
581.606	2377
581.640	2117
581.661	1943
581.713	2807
581.717	2878
581.773	1991
581.786	2025
581.829	2027
581.859	1747
581.885	1612
581.932	2318
581.940	2424
581.996	2317
582.004	2372
582.052	2575
582.077	2588
582.107	2656
582.150	2850
582.163	2862
582.219	2563
582.223	2558
582.274	2665
582.296	2558
582.330	2314
582.368	3026
582.386	3397
582.441	2644
582.441	2639
582.497	2448
582.514	2406
582.552	2638
582.587	3456
582.608	3825
582.659	3211
582.663	3161
582.719	3581
582.732	3534
582.774	3389
582.805	3337
582.830	3352
582.877	3650
582.885	3697
582.941	4021
582.950	4018
582.996	3874
583.023	4178
583.052	4674
583.095	3731
583.107	3404
583.162	4081
583.168	4231
583.218	5503
583.240	4854
583.273	4167
583.313	4373
583.328	4384
583.384	5211
583.385	5175
583.439	4092
583.458	4206
583.494	4350
583.531	4823
583.549	5173
583.603	5299
583.605	5304
583.660	5014
583.676	5338
583.715	6046
583.748	6056
583.770	5976
583.820	5828
583.825	5849
583.881	5764
583.893	5788
583.936	5726
583.965	5563
583.991	5501
584.038	6310
584.046	6465
584.101	6153
584.110	6264
584.156	6684
584.183	6592
584.211	6476
584.255	6551
584.266	6654
584.321	7452
584.328	7513
584.376	7813
584.400	7833
584.431	7905
584.472	8312
584.486	8461
584.541	8096
584.545	8138
584.596	8750
584.617	8456
584.651	8329
584.689	9144
584.706	9397
584.761	9487
584.762	9476
584.816	9522
584.834	9638
584.871	10106
584.906	10693
584.926	10811
584.978	10164
584.980	10168
585.035	11341
585.051	11557
585.090	12531
585.123	13605
585.145	14229
585.195	14590
585.200	14744
585.254	17509
585.267	18189
585.309	20755
585.340	23342
585.364	24849
585.412	25326
585.419	25457
585.473	27390
585.484	27874
585.528	32844
585.556	38215
585.583	52241
585.628	81366
585.637	94744
585.692	197364
585.700	216270
585.747	281512
585.772	260323
585.801	171276
585.845	60083
585.856	49681
585.910	29371
585.917	27089
585.965	23656
585.989	22424
586.019	22025
586.061	21592
586.074	21551
586.128	21442
586.133	21387
586.183	22099
586.205	22312
586.237	22640
586.277	22848
586.292	22834
586.346	23309
586.349	23263
586.401	23765
586.421	24017
586.455	24616
586.493	25294
586.509	25952
586.564	27386
586.565	27365
586.618	28187
586.637	28750
586.672	30817
586.709	32227
586.727	32941
586.781	36088
586.781	36165
586.835	34341
586.853	34221
586.889	34460
586.925	34091
586.944	34622
586.996	36727
586.998	36860
587.052	38591
587.068	38870
587.106	40498
587.140	41809
587.161	42656
587.212	45219
587.215	45488
587.269	47985
587.284	48799
587.323	51185
587.356	52499
587.377	53855
587.427	57182
587.431	57592
587.485	61073
587.499	61919
587.539	66246
587.571	69569
587.593	71990
587.643	77026
587.648	77804
587.702	84018
587.715	85531
587.755	91964
587.786	96301
587.810	100756
587.858	109633
587.864	111135
587.917	123728
587.930	126458
587.971	138871
588.001	147413
588.025	156699
588.073	175147
588.079	178520
588.133	205647
588.145	211335
588.187	237458
588.217	255608
588.241	275300
588.288	314423
588.295	321723
588.348	377304
588.360	389026
588.402	448290
588.431	489066
588.456	534392
588.503	622168
588.510	640302
588.564	780236
588.575	809264
588.617	979818
588.646	1099294
588.671	1270366
588.718	1605910
588.725	1699350
588.778	2436909
588.789	2593412
588.832	3494760
588.861	4132651
588.886	4310630
588.932	4570708
588.939	4565244
588.993	4171020
589.004	4103520
589.047	4391838
589.075	4459724
589.100	3895332
589.147	2807761
589.154	2710756
589.207	1988033
589.218	1843108
589.261	1684527
589.290	1584473
589.314	1648984
589.361	1788387
589.368	1870019
589.421	2546052
589.433	2695507
589.475	3601554
589.504	4255484
589.528	4342094
589.576	4317938
589.582	4326106
589.635	4199077
589.647	4133196
589.689	2987756
589.718	2188422
589.742	1813128
589.790	1108719
589.795	1076438
589.849	768222
589.861	696839
589.902	580806
589.932	495064
589.955	458357
590.004	379771
590.009	375498
590.062	318389
590.075	303568
590.115	275107
590.146	251705
590.168	241029
590.218	215227
590.222	214205
590.275	192421
590.289	186141
590.328	175113
590.360	165280
590.381	160156
590.431	145927
590.435	145795
590.488	135399
590.503	132180
590.541	125903
590.574	119528
590.594	117262
590.645	110050
590.647	110190
590.700	103654
590.716	101275
590.753	97649
590.787	93762
590.806	92432
590.859	87356
590.859	87617
590.912	84060
590.930	82670
590.965	80945
591.001	78719
591.018	78124
591.071	75163
591.072	74849
591.124	72207
591.143	71034
591.177	69757
591.214	67637
591.230	67184
591.283	64911
591.285	64562
591.336	62569
591.356	61565
591.389	61501
591.427	60700
591.442	60152
591.495	57247
591.498	56806
591.547	55327
591.569	54415
591.600	54226
591.640	53345
591.653	53370
591.706	52568
591.711	52272
591.759	51331
591.782	50576
591.811	50228
591.853	49075
591.864	49062
591.917	48131
591.924	47796
591.969	47691
591.995	47282
592.022	46373
592.066	44473
592.075	44867
592.127	46123
592.137	46160
592.180	45004
592.208	43958
592.233	43483
592.279	42082
592.285	42334
592.338	42990
592.350	42959
592.390	42143
592.421	41239
592.443	41400
592.491	41197
592.495	41395
592.548	41786
592.562	41722
592.600	41092
592.633	40233
592.653	40034
592.704	38875
592.705	39092
592.775	38686
592.846	37801
592.916	37810
592.987	37360
593.058	37140
593.128	35887
593.199	35262
593.270	33805
593.341	34493
593.411	34736
593.482	34131
593.553	34996
593.623	34662
593.694	34435
593.764	33923
593.835	33184
593.906	33799
593.976	33314
594.047	32929
594.117	35171
594.188	33610
594.258	33639
594.329	33357
594.399	33477
594.470	34385
594.540	34196
594.611	33624
594.681	35337
594.751	36613
594.822	41791
594.892	44073
594.963	40402
595.033	37993
595.103	36083
595.174	35217
595.244	35864
595.314	37184
595.384	36564
595.455	36885
595.525	38131
595.595	38608
595.665	37550
595.736	35923
595.806	38230
595.876	37049
595.946	37749
596.016	37521
596.087	38601
596.157	37978
596.227	38558
596.297	39312
596.367	41779
596.437	43147
596.507	43563
596.577	43321
596.647	43046
596.717	45228
596.787	45853
596.857	46676
596.927	46755
596.997	47806
597.067	46719
597.137	49007
597.207	48457
597.277	47441
597.347	44728
597.417	44624
597.487	44768
597.557	44726
597.626	45478
597.696	45816
597.766	46473
597.836	43992
597.906	41053
597.975	40056
598.045	42335
598.115	43179
598.185	43787
598.254	49246
598.324	54262
598.394	52729
598.464	52257
598.533	51144
598.603	48403
598.672	47797
598.742	48059
598.812	47343
598.881	49577
598.951	49394
599.020	49171
599.090	50481
599.159	52170
599.229	48663
599.299	48007
599.368	49621
599.437	48507
599.507	45398
599.576	43623
599.646	43941
599.715	43297
599.785	41870
599.854	40879
599.924	39885
599.993	38895
600.062	39383
600.132	41360
600.201	42341
600.270	49399
600.340	51533
600.409	50438
600.478	50460
600.547	51772
600.617	46943
600.686	37458
600.755	33809
600.824	33938
600.894	32252
600.963	32064
601.032	31806
601.101	30896
601.170	29913
601.239	28449
601.308	27810
601.378	27508
601.447	27839
601.516	28285
601.585	29007
601.654	28439
601.723	29939
601.792	29416
601.861	29916
601.930	32825
601.999	32738
602.068	30875
602.137	31266
602.206	31926
602.275	33388
602.343	31859
602.412	33171
602.481	32485
602.550	33395
602.619	34536
602.688	34862
602.756	33295
602.825	35595
602.894	35997
602.963	36065
603.032	37449
603.100	36306
603.169	37504
603.238	36767
603.307	36947
603.375	38570
603.444	37584
603.513	39463
603.581	39455
603.650	40532
603.719	38566
603.787	40132
603.856	42755
603.924	43714
603.993	44349
604.061	45771
604.130	49057
604.198	49204
604.267	50056
604.335	50600
604.404	51885
604.472	51295
604.541	52310
604.609	53452
604.678	53693
604.746	52767
604.815	54093
604.883	54755
604.951	57699
605.020	55801
605.088	58229
605.156	59449
605.225	60343
605.293	58650
605.361	59827
605.429	61651
605.498	63273
605.566	64535
605.634	67381
605.702	69956
605.771	72147
605.839	70956
605.907	70363
605.975	67314
606.043	66536
606.111	64814
606.180	66724
606.248	66224
606.316	66515
606.384	63677
606.452	64670
606.520	66333
606.588	70026
606.656	70197
606.724	68938
606.792	64630
606.860	56480
606.928	53393
606.996	51021
607.064	49999
607.132	51244
607.200	54672
607.267	55216
607.335	56856
607.403	58835
607.471	55928
607.539	54102
607.607	56052
607.674	48652
607.742	50505
607.810	48405
607.878	48514
607.946	49670
608.013	52255
608.081	52899
608.149	52354
608.216	56387
608.284	56563
608.352	56885
608.419	54886
608.487	55909
608.555	53210
608.622	56377
608.690	59776
608.757	66169
608.825	67003
608.893	64529
608.960	61467
609.028	58270
609.095	59370
609.163	57990
609.230	52390
609.298	48557
609.365	50285
609.432	54781
609.500	59229
609.567	67065
609.635	77553
609.702	82066
609.769	78731
609.837	61595
609.904	54086
609.971	58560
610.039	72044
610.106	101321
610.173	220080
610.241	557647
610.308	297575
610.375	80831
610.442	60121
610.509	54995
610.577	55586
610.644	55815
610.711	55735
610.778	58953
610.845	60774
610.912	64671
610.980	69965
611.047	72028
611.114	67561
611.181	63403
611.248	62435
611.315	67408
611.382	68781
611.449	71175
611.516	73412
611.583	72195
611.650	71537
611.717	74881
611.784	79907
611.851	85863
611.918	97471
611.984	127140
612.051	209972
612.118	497716
612.185	1347473
612.252	824327
612.319	154922
612.386	107576
612.452	93421
612.519	86250
612.586	82509
612.653	84346
612.719	85302
612.786	81447
612.853	75397
612.919	72970
612.986	75649
613.053	69102
613.120	65671
613.186	62389
613.253	64179
613.319	64000
613.386	63205
613.453	64699
613.519	65276
613.586	62813
613.652	67082
613.719	63429
613.785	66551
613.852	66603
613.918	66043
613.985	70916
614.051	83308
614.118	117351
614.184	112521
614.250	71098
614.317	68106
614.383	66044
614.449	68053
614.516	67189
614.582	67204
614.648	65728
614.715	65966
614.781	63979
614.847	63399
614.914	63680
614.980	62733
615.046	64188
615.112	67042
615.179	70681
615.245	79325
615.311	101331
615.377	163695
615.443	180851
615.509	106688
615.575	86698
615.642	80966
615.708	83240
615.774	91824
615.840	107707
615.906	143480
615.972	235713
616.038	478655
616.104	854923
616.170	1810914
616.236	1532295
616.302	273184
616.368	165000
616.434	112471
616.500	97241
616.565	108603
616.631	139748
616.697	112700
616.763	114819
616.829	186705
616.895	357264
616.961	342648
617.026	129125
617.092	77760
617.158	70054
617.224	65729
617.289	61579
617.355	56363
617.421	55349
617.487	54899
617.552	51207
617.618	50840
617.684	49634
617.749	52564
617.815	48286
617.880	46033
617.946	46933
618.012	47928
618.077	48797
618.143	46540
618.208	46918
618.274	50986
618.339	51446
618.405	41280
618.470	41540
618.536	40025
618.601	40214
618.667	37127
618.732	33561
618.798	33628
618.863	34322
618.928	32797
618.994	34798
619.059	34896
619.124	34823
619.190	32862
619.255	32194
619.320	33344
619.386	33799
619.451	32287
619.516	31154
619.581	32446
619.647	33138
619.712	32198
619.777	31796
619.842	31673
619.907	31706
619.972	32556
620.038	33380
620.103	31816
620.168	30336
620.233	31931
620.298	31417
620.363	32577
620.428	34384
620.493	35187
620.558	34236
620.623	35127
620.688	35054
620.753	35066
620.818	36227
620.883	36192
620.948	35170
621.013	35456
621.078	34035
621.143	34307
621.207	36366
621.272	33594
621.337	33204
621.402	32961
621.467	32769
621.532	31877
621.596	32988
621.661	31930
621.726	31581
621.791	31102
621.855	31809
621.920	30499
621.985	30861
622.049	33346
622.114	32413
622.179	33577
622.243	33620
622.308	33619
622.373	37420
622.437	36800
622.502	32553
622.566	32826
622.631	31930
622.695	34690
622.760	33533
622.824	34180
622.889	33311
622.953	32804
623.018	37113
623.082	37156
623.147	36296
623.211	35083
623.276	35279
623.340	32305
623.404	31869
623.469	31798
623.533	32130
623.597	31037
623.662	30492
623.726	28481
623.790	27291
623.854	25473
623.919	27406
623.983	26453
624.047	28644
624.111	27982
624.176	28883
624.240	29223
624.304	32083
624.368	29464
624.432	29555
624.496	30782
624.560	32852
624.625	32703
624.689	32831
624.753	33340
624.817	32300
624.881	30784
624.945	27561
625.009	25911
625.073	28598
625.137	28328
625.201	30404
625.265	29582
625.329	29055
625.393	29357
625.456	30311
625.520	30639
625.584	30614
625.648	32174
625.712	33513
625.776	35314
625.839	33566
625.903	25540
625.967	23254
626.031	27501
626.095	32093
626.158	29365
626.222	20911
626.286	20342
626.349	19749
626.413	17426
626.477	18344
626.540	19190
626.604	17779
626.668	18549
626.731	17295
626.795	17432
626.858	16295
626.922	17679
626.986	17499
627.049	15206
627.113	19080
627.176	18143
627.240	17764
627.303	17700
627.366	17512
627.430	17696
627.493	17853
627.557	17008
627.620	18422
627.684	18554
627.747	19036
627.810	16110
627.874	16206
627.937	14760
628.000	16751
628.064	16408
628.127	11901
628.190	13748
628.253	13162
628.317	12395
628.380	11875
628.443	11488
628.506	11409
628.569	11609
628.632	11160
628.696	11867
628.759	11373
628.822	10075
628.885	9581
628.948	10329
629.011	10042
629.074	10426
629.137	9302
629.200	9397
629.263	9952
629.326	8573
629.389	8781
629.452	9275
629.515	9565
629.578	8738
629.641	9856
629.704	8841
629.767	9345
629.830	9591
629.892	8878
629.955	7893
630.018	10428
630.081	9343
630.144	10262
630.207	7770
630.269	9844
630.332	8251
630.395	8633
630.458	8654
630.520	7207
630.583	9478
630.646	9922
630.708	8602
630.771	8454
630.834	10178
630.896	9170
630.959	9384
631.021	9085
631.084	8755
631.146	9951
631.209	10532
631.272	8489
631.334	9217
631.397	9667
631.459	10192
631.522	11807
631.584	11309
631.646	13449
631.709	13794
631.771	14413
631.834	13565
631.896	12516
631.958	11132
632.021	12120
632.083	9188
632.145	9438
632.208	8247
632.270	9776
632.332	8889
632.395	8907
632.457	10134
632.519	8523
632.581	10054
632.643	8788
632.706	9621
632.768	7987
632.830	9614
632.892	10094
632.954	8391
633.016	9461
633.078	8980
633.141	9134
633.203	8885
633.265	8768
633.327	8872
633.389	8647
633.451	10215
633.513	9128
633.575	9534
633.637	9274
633.698	8778
633.760	10798
633.822	11291
633.884	11424
633.946	11260
634.008	12404
634.070	13771
634.132	15931
634.193	17391
634.255	19313
634.317	18913
634.379	19357
634.441	15713
634.502	15215
634.564	17623
634.626	19800
634.687	22941
634.749	14014
634.811	10598
634.873	10720
634.934	9560
634.996	9905
635.057	8597
635.119	9398
635.181	10654
635.242	11766
635.304	8301
635.365	11069
635.427	9108
635.488	9751
635.550	8806
635.611	11390
635.673	8079
635.734	12640
635.796	11663
635.857	14608
635.918	15745
635.980	17987
636.041	19001
636.102	21631
636.164	20951
636.225	20787
636.286	16973
636.348	15955
636.409	13100
636.470	11298
636.531	10992
636.593	10205
636.654	9642
636.715	9391
636.776	8411
636.838	8184
636.899	9720
636.960	9160
637.021	10079
637.082	12382
637.143	12250
637.204	6943
637.265	6678
637.326	8098
637.387	8068
637.448	6792
637.509	7909
637.570	7626
637.631	8511
637.692	6844
637.753	6008
637.814	6897
637.875	5810
637.936	8361
637.997	7589
638.058	8143
638.119	7149
638.179	6750
638.240	6126
638.301	5957
638.362	5612
638.423	5728
638.483	6989
638.544	5300
638.605	7707
638.666	6058
638.726	5958
638.787	7546
638.848	5572
638.908	5638
638.969	5572
639.030	5529
639.090	5367
639.151	5394
639.211	6327
639.272	6213
639.332	6611
639.393	6833
639.453	6519
639.514	7479
639.574	6638
639.635	5138
639.695	6325
639.756	4956
639.816	5777
639.877	5374
639.937	6268
639.997	6949
640.058	4753
640.118	4687
640.178	5469
640.239	4704
640.299	5625
640.359	4839
640.420	6330
640.480	8042
640.540	9405
640.600	9894
640.661	9124
640.721	9882
640.781	16793
640.841	19218
640.901	7536
640.961	6685
641.021	6413
641.082	7192
641.142	5998
641.202	6611
641.262	3971
641.322	5880
641.382	4384
641.442	5997
641.502	4655
641.562	5581
641.622	6071
641.682	6618
641.742	8031
641.802	7401
641.861	6453
641.921	4546
641.981	5345
642.041	5759
642.101	5044
642.161	4150
642.221	5267
642.280	4512
642.340	4832
642.400	4260
642.460	6074
642.519	5288
642.579	5288
642.639	5594
642.698	3444
642.758	7626
642.818	5014
642.877	5155
642.937	5187
642.997	5291
643.056	6519
643.116	4032
643.175	6792
643.235	6329
643.294	6723
643.354	8904
643.414	10355
643.473	14537
643.532	20533
643.592	33208
643.651	58905
643.711	108989
643.770	224517
643.830	556906
643.889	1267017
643.948	287662
644.008	37559
644.067	20980
644.126	13701
644.186	12471
644.245	9504
644.304	6993
644.363	10103
644.423	5997
644.482	7480
644.541	8572
644.600	6504
644.659	11724
644.719	15035
644.778	25456
644.837	45438
644.896	97133
644.955	236959
645.014	77974
645.073	14792
645.132	9119
645.191	9757
645.250	7419
645.309	8690
645.368	9241
645.427	13216
645.486	22002
645.545	41533
645.604	12178
645.663	8391
645.722	8449
645.781	11070
645.840	12543
645.898	19060
645.957	30720
646.016	49748
646.075	98016
646.134	197533
646.192	540058
646.251	854424
646.310	113424
646.369	24450
646.427	17932
646.486	11394
646.545	10099
646.603	8154
646.662	7186
646.721	6734
646.779	6848
646.838	6617
646.896	10228
646.955	14320
647.014	24502
647.072	49729
647.131	143608
647.189	70128
647.248	8398
647.306	6880
647.365	5888
647.423	3114
647.481	6202
647.540	3373
647.598	4657
647.657	4585
647.715	5742
647.773	2965
647.832	4121
647.890	2333
647.948	3894
648.007	4000
648.065	2450
648.123	3310
648.181	5580
648.240	5585
648.298	4013
648.356	3764
648.414	3646
648.472	2825
648.531	4239
648.589	3483
648.647	3660
648.705	2485
648.763	4234
648.821	4790
648.879	4457
648.937	6576
648.995	7731
649.053	12089
649.111	20408
649.169	37628
649.227	69361
649.285	147644
649.343	449665
649.401	217935
649.459	23076
649.516	13560
649.574	14373
649.632	28181
649.690	34713
649.748	16039
649.806	20007
649.863	38098
649.921	97451
649.979	68737
650.037	8911
650.094	3817
650.152	4474
650.210	4085
650.268	5005
650.325	6941
650.383	11672
650.440	3668
650.498	3142
650.556	2803
650.613	2861
650.671	3517
650.728	2668
650.786	3218
650.843	4274
650.901	1604
650.958	2639
651.016	3089
651.073	2258
651.131	1542
651.188	2424
651.246	2395
651.303	1683
651.360	2717
651.418	1829
651.475	3141
651.532	1552
651.590	2694
651.647	1317
651.704	2346
651.762	1445
651.819	2130
651.876	2223
651.933	1442
651.990	2261
652.048	1038
652.105	1383
652.162	2217
652.219	1639
652.276	2758
652.333	2448
652.390	492
652.448	2513
652.505	1494
652.562	1989
652.619	2460
652.676	3744
652.733	4983
652.790	973
652.847	1280
652.904	1626
652.961	353
653.017	1829
653.074	2542
653.131	2101
653.188	382
653.245	1219
653.302	1696
653.359	1933
653.415	2351
653.472	569
653.529	1536
653.586	1553
653.642	1182
653.699	2295
653.756	747
653.813	1417
653.869	2378
653.926	998
653.983	1487
654.039	2071
654.096	1147
654.152	2163
654.209	589
654.266	1619
654.322	289
654.379	2108
654.435	1574
654.492	1655
654.548	2586
654.605	929
654.661	4435
654.717	1661
654.774	1612
654.830	2486
654.887	3382
654.943	3023
655.000	6001
655.056	4073
655.112	2420
655.168	931
655.225	941
655.281	2003
655.337	1378
655.394	1566
655.450	2195
655.506	2316
655.562	2417
655.618	2473
655.675	1696
655.731	2678
655.787	2395
655.843	3351
655.899	2863
655.955	3611
656.011	3698
656.067	3533
656.123	4772
656.179	4689
656.235	7358
656.291	4219
656.347	6074
656.403	3598
656.459	3409
656.515	3313
656.571	2888
656.627	3781
656.683	2565
656.739	2270
656.795	1942
656.850	2366
656.906	2187
656.962	3073
657.018	1579
657.074	2179
657.129	3456
657.185	4044
657.241	8904
657.297	5404
657.352	2024
657.408	629
657.464	1850
657.519	945
657.575	1090
657.630	932
657.686	1935
657.742	543
657.797	1003
657.853	1566
657.908	1837
657.964	878
658.019	1618
658.075	905
658.130	2222
658.186	181
658.241	1454
658.297	140
658.352	1150
658.407	1939
658.463	1158
658.518	1262
658.573	629
658.629	599
658.684	345
658.739	1769
658.795	700
658.850	1148
658.905	919
658.960	805
659.016	1066
659.071	1079
659.126	1653
659.181	739
659.236	2339
659.291	2374
659.346	809
659.401	1151
659.457	2352
659.512	2172
659.567	2212
659.622	1063
659.677	497
659.732	26
659.787	557
659.842	617
659.897	536
659.952	1442
660.007	1236
660.061	607
660.116	487
660.171	487
660.226	1177
660.281	1610
660.336	1309
660.391	1437
660.445	1091
660.500	1479
660.555	805
660.610	1200
660.664	1679
660.719	667
660.774	804
660.828	543
660.883	632
660.938	864
660.992	-159
661.047	898
661.101	267
661.156	611
661.211	502
661.265	871
661.320	664
661.374	1293
661.429	381
661.483	1363
661.538	287
661.592	1254
661.647	1918
661.701	6092
661.755	2595
661.810	761
661.864	-95
661.919	-102
661.973	1225
662.027	900
662.081	582
662.136	56
662.190	1549
662.244	890
662.299	530
662.353	1526
662.407	483
662.461	556
662.515	868
662.569	-85
662.624	1569
662.678	391
662.732	23
662.786	721
662.840	666
662.894	835
662.948	686
663.002	463
663.056	570
663.110	161
663.164	705
663.218	-53
663.272	789
663.326	1629
663.380	1534
663.434	294
663.488	-331
663.542	205
663.595	350
663.649	470
663.703	1245
663.757	154
663.811	70
663.864	957
663.918	675
663.972	-162
664.026	698
664.079	306
664.133	142
664.187	1499
664.240	902
664.294	815
664.348	1867
664.401	627
664.455	465
664.508	1094
664.562	228
664.615	1865
664.669	125
664.722	569
664.776	425
664.829	1193
664.883	407
664.936	444
664.990	513
665.043	612
665.097	562
665.150	1094
665.203	204
665.257	941
665.310	643
665.363	1159
665.417	633
665.470	963
665.523	403
665.576	1085
665.630	265
665.683	625
665.736	212
665.789	470
665.842	698
665.895	425
665.949	949
666.002	1260
666.055	-33
666.108	1427
666.161	-83
666.214	983
666.267	651
666.320	1135
666.373	201
666.426	1001
666.479	260
666.532	747
666.585	875
666.638	594
666.691	901
666.744	1186
666.796	163
666.849	120
666.902	524
666.955	665
667.008	50
667.060	927
667.113	464
667.166	70
667.219	465
667.271	12
667.324	806
667.377	488
667.430	433
667.482	1220
667.535	1143
667.587	584
667.640	200
667.693	116
667.745	381
667.798	832
667.850	319
667.903	1039
667.955	-46
668.008	719
668.060	739
668.113	488
668.165	943
668.218	-293
668.270	1258
668.322	410
668.375	207
668.427	1032
668.479	335
668.532	-69
668.584	1444
668.636	178
668.689	378
668.741	303
668.793	-539
668.845	221
668.898	744
668.950	488
669.002	1848
669.054	574
669.106	177
669.158	1002
669.211	303
669.263	1094
669.315	2169
669.367	2530
669.419	2311
669.471	4853
669.523	6615
669.575	11224
669.627	7544
669.679	4162
669.731	3155
669.783	4101
669.835	5324
669.886	4629
669.938	1928
669.990	1737
670.042	100
670.094	1067
670.146	832
670.197	490
670.249	846
670.301	846
670.353	1324
670.404	3007
670.456	3058
670.508	5381
670.560	9126
670.611	15544
670.663	24600
670.715	62869
670.766	104914
670.818	30783
670.869	4544
670.921	2383
670.972	2059
671.024	500
671.075	1266
671.127	797
671.178	16
671.230	887
671.281	1712
671.333	1192
671.384	1488
671.436	2494
671.487	3941
671.538	5875
671.590	9933
671.641	15713
671.692	30478
671.744	57804
671.795	40244
671.846	11979
671.897	4575
671.949	2795
672.000	1438
672.051	1349
672.102	1103
672.153	142
672.204	1086
672.256	764
672.307	773
672.358	-45
672.409	934
672.460	288
672.511	532
672.562	-746
672.613	-316
672.664	793
672.715	1344
672.766	-66
672.817	186
672.868	-337
672.919	90
672.970	449
673.021	796
673.071	-159
673.122	558
673.173	42
673.224	-701
673.275	-884
673.326	-280
673.376	-5
673.427	-340
673.478	-587
673.528	507
673.579	-115
673.630	-360
673.680	694
673.731	-975
673.782	-601
673.832	67
673.883	50
673.934	-494
673.984	357
674.035	-101
674.085	329
674.136	-478
674.186	-367
674.237	-396
674.287	172
674.338	159
674.388	316
674.438	-413
674.489	600
674.539	657
674.589	107
674.640	125
674.690	169
674.740	-360
674.791	-635
674.841	101
674.891	-237
674.942	-504
674.992	-469
675.042	-1078
675.092	-162
675.142	-740
675.193	-885
675.243	-980
675.293	-712
675.343	-786
675.393	-642
675.443	-463
675.493	-560
675.543	-770
675.593	73
675.643	-828
675.693	386
675.743	-874
675.793	-288
675.843	-566
675.893	-386
675.943	-181
675.993	-431
676.043	142
676.093	682
676.142	182
676.192	-434
676.242	-36
676.292	-825
676.341	-1077
676.391	-740
676.441	-1214
676.491	-278
676.540	-952
676.590	-60
676.640	-367
676.689	-436
676.739	-699
676.789	-456
676.838	-690
676.888	-214
676.937	-669
676.987	-366
677.037	-692
677.086	-867
677.136	-527
677.185	-399
677.235	-480
677.284	-394
677.333	-975
677.383	-1013
677.432	-430
677.482	-162
677.531	-646
677.580	-349
677.630	-719
677.679	-122
677.728	-344
677.778	-158
677.827	-1594
677.876	-749
677.925	-949
677.975	-373
678.024	498
678.073	-778
678.122	-763
678.171	-632
678.220	-862
678.269	785
678.319	128
678.368	323
678.417	-189
678.466	-403
678.515	309
678.564	-1247
678.613	-908
678.662	-623
678.711	-904
678.760	-734
678.809	-774
678.857	-1057
678.906	-251
678.955	-761
679.004	70
679.053	717
679.102	418
679.151	-459
679.199	-119
679.248	-232
679.297	-765
679.346	-98
679.394	-645
679.443	-1141
679.492	-879
679.540	-347
679.589	-1077
679.638	-358
679.686	-278
679.735	-494
679.784	-236
679.832	-636
679.881	-512
679.929	-9
679.978	-1548
680.026	-1145
680.075	-804
680.123	-960
680.172	-372
680.220	-611
680.268	-439
680.317	-1564
680.365	-1297
680.414	-995
680.462	-534
680.510	20
680.559	-740
680.607	-678
680.655	-131
680.703	-687
680.752	-1076
680.800	-809
680.848	-1067
680.896	-614
680.945	-1183
680.993	-851
681.041	-1281
681.089	525
681.137	34
681.185	-1278
681.233	-1152
681.258	-975
681.281	-818
681.329	-461
681.377	-1380
681.380	-1362
681.425	-1191
681.473	-474
681.502	-688
681.521	-863
681.569	-350
681.617	-821
681.624	-844
681.665	-1043
681.713	-455
681.745	-191
681.761	-78
681.809	-1083
681.857	-426
681.867	-519
681.904	-873
681.952	-504
681.989	-231
682.000	-170
682.048	-346
682.096	-861
682.111	-789
682.143	-622
682.191	-1010
682.233	-326
682.239	-242
682.286	-17
682.334	-514
682.354	-673
682.382	-881
682.430	-444
682.476	-541
682.477	-553
682.525	-260
682.572	-8
682.598	168
682.620	348
682.667	-605
682.715	467
682.720	452
682.763	136
682.810	-76
682.841	-286
682.857	-379
682.905	-449
682.952	165
682.963	45
683.000	-426
683.047	-982
683.085	-162
683.095	61
683.142	-242
683.190	437
683.206	97
683.237	-613
683.284	162
683.328	-411
683.332	-463
683.379	322
683.426	65
683.449	-106
683.473	-273
683.521	-65
683.568	-51
683.571	-14
683.615	368
683.662	759
683.693	445
683.709	263
683.757	156
683.804	173
683.814	261
683.851	463
683.898	98
683.936	73
683.945	63
683.992	144
684.039	549
684.057	415
684.086	221
684.133	334
684.179	-754
684.180	-797
684.227	132
684.274	563
684.300	10
684.321	-418
684.368	364
684.415	741
684.422	608
684.462	-201
684.509	-70
684.543	560
684.556	769
684.603	999
684.649	292
684.665	473
684.696	850
684.743	872
684.786	553
684.790	526
684.837	-75
684.883	1088
684.908	1351
684.930	1507
684.977	960
685.023	571
685.029	609
685.070	901
685.117	284
685.150	442
685.164	500
685.210	1188
685.257	564
685.272	760
685.303	1214
685.350	875
685.393	1626
685.396	1670
685.443	521
685.490	910
685.514	829
685.536	836
685.583	1384
685.629	914
685.636	870
685.675	395
685.722	778
685.757	633
685.768	645
685.815	672
685.861	1064
685.878	998
685.908	732
685.954	-4
686.000	857
686.000	872
686.047	870
686.093	1342
686.121	1057
686.139	784
686.185	999
686.232	1153
686.242	1077
686.278	980
686.324	1422
686.363	1556
686.370	1554
686.416	1356
686.463	1611
686.484	1612
686.509	1666
686.555	1075
686.601	1411
686.606	1458
686.647	1712
686.693	1348
686.727	1004
686.739	934
686.785	976
686.831	1476
686.848	1662
686.877	1817
686.923	1158
686.969	1002
686.969	1003
687.015	935
687.061	1864
687.090	1902
687.107	1832
687.153	1366
687.199	1963
687.211	1761
687.245	1293
687.291	1422
687.332	1900
687.336	1950
687.382	2150
687.428	1832
687.453	1856
687.474	1936
687.520	2212
687.565	2523
687.574	2503
687.611	2543
687.657	3366
687.695	3749
687.702	3902
687.748	5320
687.794	7452
687.816	7174
687.839	5886
687.885	3862
687.931	2707
687.937	2518
687.976	2241
688.022	2205
688.058	1917
688.067	1875
688.113	1800
688.158	1974
688.179	1752
688.204	1633
688.249	1962
688.295	2061
688.300	2117
688.340	2371
688.386	2711
688.421	2470
688.431	2426
688.477	2174
688.522	2294
688.542	2431
688.567	2581
688.613	2219
688.658	2046
688.663	2103
688.703	2655
688.749	2600
688.784	2458
688.794	2352
688.839	2562
688.884	2285
688.905	2083
688.930	2024
688.975	1953
689.020	2004
689.026	2079
689.065	2453
689.110	2207
689.146	1959
689.155	1969
689.201	2492
689.246	3069
689.267	3094
689.291	2871
689.336	2677
689.381	2243
689.388	2230
689.426	2566
689.471	2743
689.509	2817
689.516	2806
689.561	2713
689.606	2801
689.630	2707
689.651	2607
689.696	2718
689.741	2670
689.750	2692
689.785	2797
689.830	2713
689.871	2284
689.875	2252
689.920	2138
689.965	2715
689.992	2559
690.010	2498
690.054	2751
690.099	2921
690.112	2896
690.144	2785
690.189	2416
690.233	2622
690.233	2628
690.278	2300
690.323	2288
690.354	2282
690.367	2386
690.412	2640
690.457	2814
690.474	2887
690.501	2776
690.546	2566
690.590	2257
690.595	2228
690.635	2477
690.680	2966
690.716	3131
690.724	3122
690.769	3277
690.813	3722
690.836	3422
690.857	3376
690.902	3926
690.946	4843
690.957	4890
690.991	4977
691.035	5548
691.077	5918
691.080	5925
691.124	5158
691.168	5170
691.198	4976
691.213	4798
691.257	4517
691.301	4176
691.318	3832
691.346	3587
691.390	3861
691.434	3463
691.439	3508
691.478	3932
691.522	3765
691.559	3820
691.567	3845
691.611	3773
691.655	3766
691.680	3792
691.699	3754
691.743	3584
691.787	3364
691.800	3349
691.831	3604
691.875	3960
691.919	3772
691.921	3777
691.964	4033
692.008	3739
692.041	3600
692.052	3608
692.096	4026
692.139	4472
692.162	4405
692.183	4173
692.227	4004
692.271	3765
692.282	3669
692.315	3679
692.359	3949
692.402	3799
692.403	3807
692.447	3890
692.490	4077
692.523	4018
692.534	4037
692.578	4208
692.622	3865
692.643	4058
692.666	4140
692.709	4173
692.753	3872
692.763	3805
692.797	3889
692.840	4081
692.884	4441
692.884	4453
692.928	4224
692.971	4554
693.004	4161
693.015	4096
693.059	4104
693.102	4310
693.124	4414
693.146	4440
693.189	4084
693.233	4219
693.245	4196
693.276	4447
693.320	4630
693.363	4717
693.365	4717
693.407	4585
693.450	4315
693.485	4146
693.493	4256
693.537	4793
693.580	5167
693.605	5394
693.624	5468
693.667	5903
693.710	5979
693.725	6071
693.753	7304
693.797	9272
693.840	11339
693.845	11538
693.883	10508
693.926	8811
693.966	7554
693.970	7504
694.013	6820
694.056	6443
694.086	5958
694.099	5805
694.142	5446
694.185	4872
694.206	4701
694.229	4756
694.272	4414
694.315	4738
694.326	4729
694.358	4813
694.401	4718
694.444	4796
694.446	4798
694.487	5298
694.530	5171
694.566	5500
694.573	5499
694.616	5203
694.659	5182
694.686	4893
694.702	4975
694.745	5350
694.787	5593
694.806	5831
694.830	5713
694.873	5260
694.916	4718
694.926	4562
694.959	4564
695.002	4871
695.044	4902
695.046	4887
695.087	4669
695.130	4672
695.166	4364
695.172	4380
695.215	4630
695.258	5055
695.286	5167
695.301	5227
695.343	5342
695.386	5635
695.406	5673
695.428	5659
695.471	5453
695.514	5524
695.526	5527
695.556	5670
695.599	5782
695.641	5733
695.646	5747
695.684	5871
695.726	5661
695.766	5612
695.769	5615
695.811	5422
695.854	5161
695.886	4957
695.896	5057
695.938	5428
695.981	5699
696.005	5881
696.023	5938
696.065	6112
696.108	6205
696.125	6257
696.150	6218
696.192	6125
696.235	5934
696.245	5853
696.277	5815
696.319	5770
696.361	5829
696.365	5807
696.404	6075
696.446	6521
696.485	6727
696.488	6727
696.530	6553
696.572	6411
696.604	6215
696.614	6266
696.656	6497
696.698	6586
696.724	6691
696.740	6571
696.783	6221
696.825	5902
696.844	5669
696.867	5863
696.909	6351
696.951	6657
696.964	6786
696.992	6789
697.034	6622
697.076	6507
697.083	6466
697.118	6767
697.160	7091
697.202	7520
697.203	7508
697.244	7156
697.286	6723
697.323	6309
697.327	6378
697.369	6875
697.411	7306
697.442	7617
697.453	7655
697.494	7766
697.536	7847
697.562	7832
697.578	7743
697.620	7546
697.661	7359
697.682	7206
697.703	7225
697.744	7234
697.786	7261
697.801	7246
697.828	7426
697.869	7668
697.911	7928
697.921	7967
697.952	7692
697.994	7279
698.035	6939
698.040	6867
698.077	7140
698.118	7475
698.160	7778
698.160	7756
698.201	7701
698.243	7634
698.279	7600
698.284	7644
698.325	7788
698.367	7992
698.399	8047
698.408	8049
698.449	8027
698.491	7969
698.518	7909
698.532	7945
698.573	8007
698.614	8007
698.638	8011
698.656	8011
698.697	7954
698.738	7875
698.757	7818
698.779	7901
698.820	8007
698.862	8133
698.877	8152
698.903	8339
698.944	8603
698.985	8864
698.996	8913
699.026	8598
699.067	8128
699.116	7547
699.235	8067
699.354	9080
699.474	7381
699.593	9039
699.713	8824
699.832	9182
699.951	9534
700.070	9973
700.190	9022
700.309	10063
700.428	9843
700.547	9969
700.667	8527
700.786	9794
700.905	8569
701.024	9753
701.143	8405
701.262	9034
701.381	8329
701.500	8726
701.619	8360
701.738	8440
701.857	8331
701.976	9219
702.095	8055
702.214	8250
702.333	8321
702.452	8357
702.571	7744
702.690	8571
702.809	7559
702.928	8673
703.047	8543
703.165	8197
703.284	8191
703.403	8807
703.522	8439
703.640	9424
703.759	9172
703.878	8217
703.997	7331
704.115	9247
704.234	8363
704.353	7955
704.471	7534
704.590	7589
704.708	6994
704.827	7645
704.946	6235
705.064	6590
705.183	7241
705.301	6966
705.420	6695
705.538	7647
705.656	6855
705.775	6942
705.893	10661
706.012	10612
706.130	6501
706.249	7215
706.367	6832
706.485	7254
706.604	6736
706.722	8199
706.840	10093
706.958	19376
707.077	10432
707.195	6180
707.313	6586
707.431	6973
707.549	5687
707.668	7030
707.786	6807
707.904	6543
708.022	5938
708.140	6712
708.258	6226
708.376	6375
708.494	6165
708.612	7429
708.730	6220
708.848	6138
708.966	5865
709.084	7179
709.202	5834
709.320	6573
709.438	5622
709.556	6450
709.674	5914
709.791	6263
709.909	5545
710.027	6935
710.145	6028
710.263	7032
710.380	6313
710.498	6084
710.616	5399
710.733	5607
710.851	6406
710.969	6555
711.086	5966
711.204	6853
711.322	5092
711.439	6167
711.557	6227
711.674	6969
711.792	5957
711.909	6418
712.027	6534
712.144	5848
712.262	5992
712.379	5987
712.497	5606
712.614	6059
712.732	5402
712.849	6611
712.966	5521
713.084	6192
713.201	5386
713.318	5636
713.436	6269
713.553	5616
713.670	6376
713.787	6875
713.905	6010
714.022	6727
714.139	6051
714.256	9717
714.373	12455
714.490	27853
714.608	79518
714.725	363759
714.842	282483
714.959	17633
715.076	8943
715.193	8373
715.310	7470
715.427	7179
715.544	5571
715.661	7998
715.778	6394
715.895	5991
716.011	6274
716.128	6416
716.245	5839
716.362	5812
716.479	6225
716.596	7629
716.713	7155
716.829	7281
716.946	6399
717.063	6540
717.180	6268
717.296	5794
717.413	5727
717.530	6277
717.646	5079
717.763	6428
717.880	4652
717.996	5418
718.113	4567
718.229	4694
718.346	4664
718.462	6644
718.579	5595
718.695	6064
718.812	5761
718.928	5736
719.045	5084
719.161	5576
719.277	6220
719.394	7258
719.510	5611
719.626	6453
719.743	7164
719.859	11137
719.975	23066
720.092	95181
720.208	170526
720.324	17167
720.440	6076
720.557	5989
720.673	5772
720.789	5534
720.905	5135
721.021	5729
721.137	4628
721.253	5506
721.369	4216
721.486	5347
721.602	3975
721.718	4915
721.834	4421
721.950	4704
722.066	4236
722.181	5761
722.297	4227
722.413	6070
722.529	6198
722.645	6297
722.761	4592
722.877	4995
722.993	4744
723.108	6257
723.224	6032
723.340	5310
723.456	5551
723.571	6083
723.687	5339
723.803	5221
723.918	4338
724.034	4945
724.150	3842
724.265	4553
724.381	4419
724.497	5039
724.612	3932
724.728	5016
724.843	4440
724.959	6380
725.074	6500
725.190	6728
725.305	5569
725.421	4827
725.536	4890
725.651	5691
725.767	4800
725.882	5008
725.997	3541
726.113	4705
726.228	4384
726.343	4734
726.459	3306
726.574	4686
726.689	3660
726.804	4859
726.920	4043
727.035	5185
727.150	4610
727.265	6035
727.380	5230
727.495	6426
727.610	5149
727.725	6196
727.841	5526
727.956	8051
728.071	5695
728.186	5012
728.301	4028
728.416	4750
728.531	4965
728.645	6571
728.760	7741
728.875	11649
728.990	10066
729.105	8040
729.220	6063
729.335	6513
729.449	4572
729.564	4291
729.679	4114
729.794	5296
729.908	3730
730.023	5072
730.138	3637
730.253	4688
730.367	3843
730.482	4528
730.596	3896
730.711	4960
730.826	7452
730.940	8789
731.055	4568
731.169	4001
731.284	3898
731.398	4464
731.513	3390
731.627	4295
731.742	4529
731.856	4927
731.970	5157
732.085	6470
732.199	8074
732.313	13556
732.428	33704
732.542	105164
732.656	46762
732.771	9468
732.885	6244
732.999	6301
733.113	5537
733.227	5903
733.342	5027
733.456	5547
733.570	5123
733.684	4595
733.798	4332
733.912	5812
734.026	4616
734.140	4707
734.254	4934
734.368	5255
734.482	4835
734.596	4445
734.710	4538
734.824	4703
734.938	5037
735.052	5160
735.166	4577
735.280	5608
735.393	4507
735.507	4569
735.621	4352
735.735	4079
735.849	4211
735.962	4930
736.076	4855
736.190	5372
736.303	4706
736.417	5673
736.531	4352
736.644	5097
736.758	4983
736.872	5707
736.985	5123
737.099	4773
737.212	4060
737.326	5748
737.439	5045
737.553	5278
737.666	4779
737.780	5115
737.893	4118
738.007	4258
738.120	4045
738.233	5778
738.347	4471
738.460	5082
738.573	4341
738.687	4623
738.800	4223
738.913	5146
739.026	4351
739.140	5193
739.253	3541
739.366	4647
739.479	3525
739.592	4290
739.705	3780
739.818	5047
739.932	3977
740.045	5632
740.158	3718
740.271	5206
740.384	6229
740.497	7991
740.610	8509
740.723	8476
740.836	8788
740.949	8639
741.062	5952
741.174	6134
741.287	5452
741.400	7269
741.513	9119
741.626	10594
741.739	7210
741.851	5750
741.964	6137
742.077	6987
742.189	8268
742.302	16318
742.415	13150
742.527	8210
742.640	5658
742.753	5327
742.865	4140
742.978	4573
743.090	3438
743.203	3833
743.316	4110
743.428	3876
743.541	3383
743.653	3446
743.766	2866
743.878	3913
743.990	4534
744.103	8304
744.215	13784
744.327	6315
744.440	4374
744.552	3713
744.664	3055
744.777	4491
744.889	2040
745.001	4206
745.113	2561
745.226	3103
745.338	2999
745.450	3267
745.562	3266
745.674	3647
745.786	2782
745.898	3626
746.010	3113
746.122	2974
746.234	3489
746.347	3606
746.459	3025
746.570	4764
746.682	9246
746.794	20551
746.906	8871
747.018	4499
747.130	3341
747.242	3523
747.354	3538
747.466	4167
747.577	2625
747.689	3969
747.801	3382
747.913	3262
748.024	2706
748.136	3092
748.248	1838
748.359	3638
748.471	2737
748.583	3570
748.694	3290
748.806	4031
748.918	2476
749.029	2771
749.141	3343
749.252	3422
749.364	1728
749.475	2049
749.587	2033
749.698	3264
749.809	3296
749.921	2540
750.032	2267
750.144	2155
750.255	1656
750.366	2565
750.478	2418
750.589	3226
750.700	1609
750.811	2716
750.923	2838
751.034	2588
751.145	2697
751.256	2194
751.367	2563
751.479	3125
751.590	2117
751.701	2798
751.812	2102
751.923	2930
752.034	2994
752.145	3194
752.256	1918
752.367	3587
752.478	2272
752.589	3339
752.700	2421
752.811	2182
752.922	2026
753.032	2370
753.143	2091
753.254	2820
753.365	2599
753.476	2697
753.586	1322
753.697	2076
753.808	1906
753.919	2922
754.029	1480
754.140	2959
754.251	2046
754.361	2813
754.472	2699
754.582	2702
754.693	2249
754.804	2149
754.914	681
755.025	1761
755.135	1631
755.246	3066
755.356	2022
755.466	2889
755.577	1620
755.687	2436
755.798	1684
755.908	3330
756.018	2141
756.129	3005
756.239	1414
756.349	2464
756.460	2013
756.570	3329
756.680	1561
756.790	2909
756.900	2115
757.011	2252
757.121	2117
757.231	2770
757.341	1938
757.451	2336
757.561	2051
757.671	2783
757.781	518
757.891	3184
758.001	1719
758.111	1804
758.221	2476
758.331	2114
758.441	1530
758.551	2733
758.661	2371
758.771	2839
758.880	1961
758.990	2221
759.100	2296
759.210	2822
759.320	2255
759.429	2015
759.539	2569
759.649	2307
759.758	2571
759.868	3345
759.978	2986
760.087	3917
760.197	3077
760.307	3307
760.416	2767
760.526	2282
760.635	2019
760.745	3405
760.854	2967
760.964	3479
761.073	2788
761.182	3905
761.292	1861
761.401	3160
761.511	1884
761.620	2751
761.729	1953
761.839	2883
761.948	1992
762.057	2340
762.166	2889
762.276	1944
762.385	3316
762.494	3396
762.603	2617
762.712	3575
762.822	1429
762.931	2227
763.040	1225
763.149	2274
763.258	1330
763.367	2546
763.476	2064
763.585	3332
763.694	1865
763.803	3080
763.912	1982
764.021	2980
764.130	2888
764.238	3343
764.347	2182
764.456	2739
764.565	3163
764.674	3064
764.783	2511
764.891	2713
765.000	3060
765.109	4453
765.217	3258
765.326	4354
765.435	4873
765.543	6199
765.652	6088
765.761	9245
765.869	13819
765.978	23724
766.086	45490
766.195	105090
766.303	316505
766.412	949669
766.520	591219
766.629	97151
766.737	34289
766.846	22091
766.954	15471
767.062	12748
767.171	8927
767.279	8298
767.387	6075
767.496	5916
767.604	4986
767.712	5768
767.820	3541
767.928	4437
768.037	3765
768.145	5140
768.253	4967
768.361	4314
768.469	4442
768.577	4137
768.685	3876
768.793	4955
768.901	3664
769.009	5696
769.117	4891
769.225	7060
769.333	10121
769.441	19771
769.549	42637
769.657	107797
769.765	404288
769.873	714297
769.981	142837
770.088	27175
770.196	13620
770.304	11913
770.412	8438
770.519	5727
770.627	4301
770.735	4385
770.842	3343
770.950	3786
771.058	3287
771.165	4377
771.273	3272
771.380	3340
771.488	2717
771.595	2718
771.703	2368
771.810	4202
771.918	2990
772.025	3644
772.133	3074
772.240	3062
772.348	2423
772.455	4007
772.562	2260
772.670	2864
772.777	2192
772.884	3431
772.991	1957
773.099	3085
773.206	2969
773.313	3033
773.420	2315
773.528	3100
773.635	1787
773.742	2989
773.849	2683
773.956	2482
774.063	2539
774.170	2303
774.277	2597
774.384	2786
774.491	1355
774.598	2750
774.705	1608
774.812	2437
774.919	2441
775.026	2501
775.133	2332
775.239	3131
775.346	2254
775.453	2293
775.560	2007
775.667	2830
775.773	951
775.880	3395
775.987	1799
776.093	2992
776.200	1800
776.307	2079
776.413	2663
776.520	2286
776.627	2738
776.733	3699
776.840	2987
776.946	7133
777.053	15311
777.159	39756
777.266	21752
777.372	32671
777.478	26582
777.585	14140
777.691	2586
777.798	2859
777.904	3071
778.010	2722
778.117	2615
778.223	2614
778.329	1084
778.435	2243
778.542	2394
778.648	1532
778.754	1116
778.860	1660
778.966	2152
779.072	2326
779.178	1634
779.284	2603
779.391	1761
779.497	1043
779.603	3914
779.708	2174
779.815	4109
779.920	10116
780.026	9156
780.132	1955
780.238	508
780.344	2390
780.450	2535
780.556	1549
780.661	1709
780.767	1670
780.873	997
780.979	2228
781.085	130
781.190	2018
781.296	1311
781.402	1638
781.507	1005
781.613	2621
781.719	970
781.824	1559
781.930	2292
782.035	2093
782.141	2113
782.246	2054
782.352	1131
782.457	1258
782.563	1167
782.668	1276
782.773	1163
782.879	2075
782.984	1856
783.090	2903
783.195	2631
783.300	2209
783.405	1873
783.511	1973
783.616	1474
783.721	2568
783.826	2130
783.932	3204
784.037	1981
784.142	3134
784.247	1738
784.352	2165
784.457	2123
784.562	1652
784.667	1491
784.772	3019
784.877	1668
784.982	2671
785.087	1768
785.192	2002
785.297	2131
785.402	2030
785.507	1017
785.611	2547
785.716	1509
785.821	656
785.926	1578
786.031	1517
786.135	752
786.240	1668
786.345	72
786.450	2350
786.554	1013
786.659	726
786.763	32
786.868	1962
786.973	2937
787.077	152
787.182	707
787.286	1236
787.391	160
787.495	1532
787.600	639
787.704	862
787.809	778
787.913	610
788.017	746
788.122	1051
788.226	826
788.330	20
788.435	417
788.539	1176
788.643	354
788.747	1380
788.852	472
788.956	370
789.060	-167
789.164	1487
789.268	430
789.372	856
789.476	320
789.580	855
789.684	71
789.788	793
789.892	402
789.996	954
790.100	677
790.204	1335
790.308	-229
790.412	481
790.516	1325
790.620	16
790.724	1351
790.828	1068
790.931	-207
791.035	2381
791.139	399
791.242	560
791.346	1394
791.450	1139
791.554	537
791.657	1179
791.761	2272
791.864	2187
791.968	970
792.072	2217
792.175	1412
792.279	1217
792.382	1803
792.486	1327
792.589	646
792.693	1918
792.796	173
792.899	3569
793.003	1745
793.106	617
793.209	1442
793.313	2710
793.416	-208
793.519	2495
793.623	1314
793.726	1500
793.829	1546
793.932	2375
794.035	554
794.138	3064
794.242	2310
794.345	2317
794.448	926
794.551	2021
794.654	6235
794.757	6277
794.860	936
794.963	1647
795.066	637
795.169	2025
795.272	-292
795.375	1294
795.477	-206
795.580	1075
795.683	-1418
795.786	385
795.889	-971
795.991	1304
796.094	384
796.197	-577
796.300	1107
796.402	-22
796.505	260
796.608	411
796.710	783
796.813	1119
796.915	365
797.018	1103
797.120	-230
797.223	288
797.326	1397
797.428	655
797.530	18
797.633	321
797.735	306
797.838	73
797.940	1285
798.042	409
798.145	57
798.247	1908
798.349	-822
798.452	1200
798.554	-102
798.656	-466
798.758	394
798.860	956
798.962	-246
799.065	769
799.167	-1143
799.269	2156
799.371	6
799.473	1829
799.575	-89
799.677	359
799.779	1387
799.881	-202
799.983	426
800.085	631
800.187	227
800.289	-127
800.390	143
800.492	745
800.594	1462
800.696	3
800.798	207
800.899	488
801.001	-399
801.103	398
801.205	-579
801.306	1005
801.408	-622
801.509	1386
801.611	-264
801.713	516
801.814	-442
801.916	743
802.017	-655
802.119	-155
802.220	112
802.322	-736
802.423	972
802.525	-477
802.626	93
802.727	930
802.829	-210
802.930	-1364
803.031	1265
803.133	990
803.234	-109
803.335	455
803.436	-376
803.538	508
803.639	-1093
803.740	1147
803.841	-310
803.942	550
804.043	219
804.144	-445
804.245	254
804.346	-439
804.447	-622
804.548	611
804.649	722
804.750	281
804.851	-466
804.952	122
805.053	-238
805.154	-425
805.255	628
805.355	-8
805.456	-30
805.557	-342
805.658	-241
805.758	455
805.859	181
805.960	619
806.061	-821
806.161	261
806.262	-201
806.362	-145
806.463	487
806.564	836
806.664	-788
806.765	923
806.865	50
806.966	431
807.066	206
807.166	1670
807.267	260
807.367	169
807.468	-57
807.568	-526
807.668	876
807.769	1068
807.869	-588
807.969	97
808.069	-340
808.170	442
808.270	-781
808.370	726
808.470	171
808.570	-1136
808.670	-305
808.770	27
808.870	-372
808.970	548
809.070	33
809.170	-201
809.271	698
809.370	612
809.470	866
809.570	-393
809.670	-280
809.770	252
809.870	616
809.970	43
810.070	-309
810.169	861
810.269	-1345
810.369	1382
810.469	-609
810.568	604
810.668	-618
810.768	615
810.867	-758
810.967	-316
811.066	139
811.166	509
811.265	317
811.365	-499
811.464	345
811.564	1533
811.663	176
811.763	123
811.862	155
811.962	210
812.061	256
812.160	105
812.260	404
812.359	-505
812.458	-387
812.557	893
812.657	-471
812.756	277
812.855	-87
812.954	100
813.053	639
813.153	636
813.252	-747
813.351	825
813.450	-602
813.549	24
813.648	459
813.747	252
813.846	686
813.945	440
814.044	-331
814.143	1164
814.242	1040
814.341	-124
814.439	1107
814.538	545
814.637	539
814.736	1047
814.835	953
814.933	1080
815.032	757
815.131	1287
815.229	851
815.328	1941
815.427	1194
815.525	2580
815.624	1893
815.722	2129
815.821	2093
815.919	2284
816.018	1333
816.116	3227
816.215	1742
816.313	2364
816.412	1905
816.510	2353
816.609	4098
816.707	3339
816.805	3494
816.904	3176
817.002	3465
817.100	5283
817.198	5323
817.296	6740
817.395	6020
817.493	9028
817.591	9576
817.689	15785
817.787	21261
817.885	37637
817.983	71880
818.081	165779
818.179	400989
818.277	918114
818.375	611349
818.473	170425
818.571	69429
818.669	47151
818.767	42095
818.865	43856
818.963	49258
819.061	76142
819.158	140639
819.256	314393
819.354	745742
819.452	1356947
819.549	735162
819.647	221845
819.745	93353
819.842	55767
819.940	38850
820.038	29455
820.135	20956
820.233	17438
820.330	12793
820.428	10860
820.525	9409
820.623	8592
820.720	6242
820.818	7288
820.915	5799
821.012	6975
821.110	4872
821.207	5457
821.304	3410
821.402	6283
821.499	8067
821.596	15534
821.693	8312
821.791	4743
821.888	2989
821.985	3247
822.082	2082
822.179	5366
822.276	6418
822.373	3478
822.470	1165
822.567	2226
822.664	546
822.761	2643
822.858	-195
822.955	1297
823.052	1182
823.149	1161
823.246	315
823.343	1450
823.440	1218
823.536	697
823.633	405
823.730	1580
823.827	988
823.923	1178
824.020	2618
824.117	3335
824.213	4272
824.310	3391
824.407	1248
824.503	294
824.600	498
824.696	494
824.793	717
824.889	1294
824.986	232
825.082	1133
825.179	-36
825.275	248
825.371	333
825.468	1698
825.564	20
825.660	632
825.757	238
825.853	722
825.949	248
826.045	887
826.142	-31
826.238	647
826.334	871
826.430	-505
826.526	634
826.622	422
826.718	602
826.814	-18
826.910	124
827.006	-504
827.102	-493
827.198	1250
827.294	187
827.390	472
827.486	477
827.582	-598
827.678	-247
827.774	1025
827.869	-835
827.965	904
828.061	-841
828.157	75
828.252	336
828.348	-67
828.444	225
828.539	-632
828.635	-256
828.731	1139
828.826	-906
828.922	110
829.017	-483
829.113	584
829.208	220
829.304	-250
829.399	320
829.495	-421
829.590	324
829.685	437
829.781	-448
829.876	80
829.971	-460
830.066	-251
830.162	-497
830.257	-230
830.352	-677
830.447	1006
830.543	199
830.638	-522
830.733	626
830.828	-8
830.923	619
831.018	814
831.113	393
831.208	-134
831.303	-383
831.398	21
831.493	-547
831.588	863
831.683	-1107
831.778	-21
831.873	-486
831.967	864
832.062	-584
832.157	-313
832.252	-76
832.346	306
832.441	353
832.536	-361
832.631	488
832.725	-345
832.820	-467
832.914	-407
833.009	-998
833.104	-116
833.198	254
833.293	23
833.387	-738
833.482	84
833.576	-832
833.670	206
833.765	-331
833.859	-354
833.954	166
834.048	605
834.142	-14
834.237	-69
834.331	-57
834.425	84
834.519	-1123
834.613	195
834.708	-1017
834.802	-408
834.896	-1005
834.990	-665
835.084	-1036
835.178	29
835.272	-820
835.366	-297
835.460	223
835.554	-268
835.648	-778
835.742	-514
835.836	-768
835.930	-2048
836.024	-463
836.117	208
836.211	-1747
836.305	317
836.399	-553
836.493	-826
836.586	127
836.680	-714
836.774	-680
836.867	719
836.961	-1549
837.055	274
837.148	-265
837.242	168
837.335	-1196
837.429	-7
837.522	-817
837.616	-602
837.709	-220
837.803	-1027
837.896	-679
837.989	-424
838.083	-88
838.176	-34
838.269	-1086
838.363	-92
838.456	-598
838.549	219
838.642	-1465
838.735	975
838.829	53
838.922	-1442
839.015	-484
839.108	-824
839.201	-171
839.294	-257
839.387	-895
839.480	-1030
839.573	-666
839.666	-706
839.759	-1198
839.852	-160
839.945	-576
840.038	-88
840.131	-816
840.223	-203
840.316	-39
840.409	158
840.502	-1379
840.594	457
840.687	-1288
840.780	69
840.873	-1089
840.965	129
841.058	-1154
841.150	437
841.243	-1506
841.336	127
841.428	-428
841.521	-947
841.613	-698
841.706	-161
841.798	-987
841.890	812
841.983	-1755
842.075	172
842.167	-817
842.260	-721
842.352	-940
842.444	-296
842.537	-533
842.629	756
842.721	-949
842.813	-68
842.905	-1663
842.997	-379
843.090	-1336
843.182	-120
843.274	-1766
843.366	275
843.458	-8
843.550	167
843.642	-750
843.734	-101
843.826	-959
843.918	718
844.009	253
844.101	-93
844.193	-202
844.285	222
844.377	2525
844.469	6055
844.560	9175
844.652	9048
844.744	2368
844.835	-125
844.927	40
845.019	552
845.110	-849
845.202	-533
845.293	-616
845.385	-307
845.476	-1175
845.568	283
845.659	-1036
845.751	693
845.842	-1173
845.934	-294
846.025	-1555
846.116	-404
846.208	-901
846.299	-947
846.390	-869
846.482	-1111
846.573	-240
846.664	-447
846.755	-808
846.846	418
846.937	-1305
847.029	148
847.120	-47
847.211	-433
847.302	485
847.393	-890
847.484	245
847.575	-865
847.666	-1436
847.757	-718
847.847	-1147
847.938	852
848.029	-749
848.120	-993
848.211	-1140
848.302	-410
848.392	-1064
848.483	208
848.574	-1246
848.664	-90
848.755	-44
848.846	-260
848.936	-627
849.027	718
849.118	-704
849.208	544
849.299	248
849.389	3423
849.480	6591
849.570	15268
849.661	29889
849.751	49047
849.841	15277
849.932	2342
850.022	106
850.112	1798
850.203	-29
850.293	-191
850.383	-506
850.474	-864
850.564	-1185
850.654	400
850.744	-731
850.834	198
850.924	-730
851.014	-476
851.104	-927
851.194	-477
851.284	-487
851.374	-299
851.464	-676
851.554	-152
851.644	-1467
851.734	46
851.824	-838
851.914	-581
852.004	202
852.094	-3
852.183	-136
852.273	621
852.363	-799
852.452	-373
852.542	-861
852.632	370
852.721	-636
852.811	-333
852.901	1
852.990	1113
853.080	-122
853.169	1839
853.259	150
853.348	1350
853.438	1220
853.527	3673
853.617	5145
853.706	11334
853.795	22991
853.885	56840
853.974	106437
854.063	200487
854.152	297104
854.242	99609
854.331	14775
854.420	5127
854.509	3233
854.598	2889
854.687	1712
854.777	2554
854.866	802
854.955	1877
855.044	8
855.133	1154
855.222	880
855.311	738
855.400	238
855.488	1031
855.577	-154
855.666	1302
855.755	669
855.844	71
855.933	-556
856.021	1618
856.110	-103
856.199	-456
856.288	-507
856.376	853
856.465	-1129
856.554	754
856.642	-182
856.731	1133
856.819	324
856.908	-267
856.996	-449
857.085	-142
857.173	-748
857.262	-884
857.350	-915
857.438	-511
857.527	-739
857.615	-408
857.703	-403
857.792	-899
857.880	-829
857.968	-875
858.056	-767
858.145	526
858.233	-1570
858.321	-584
858.409	328
858.497	-231
858.585	-1774
858.673	-302
858.761	-891
858.849	399
858.937	-827
859.025	-120
859.113	802
859.201	413
859.289	1886
859.377	1375
859.465	738
859.552	367
859.640	-569
859.728	286
859.816	-270
859.903	1150
859.991	-869
860.079	-679
860.166	-1140
860.254	201
860.342	197
860.429	-333
860.517	-609
860.604	630
860.692	-353
860.779	-165
860.867	-1192
860.954	-487
861.042	-1152
861.129	-482
861.216	-531
861.304	-1089
861.391	-754
861.478	-471
861.565	-207
861.653	-4
861.740	-1536
861.827	217
861.914	-610
862.001	77
862.089	-971
862.176	-480
862.263	-1007
862.350	-551
862.437	-697
862.524	165
862.611	401
862.698	1886
862.785	2013
862.871	3458
862.958	390
863.045	354
863.132	-55
863.219	-425
863.306	-1191
863.392	438
863.479	17
863.566	-344
863.652	-544
863.739	-388
863.826	-309
863.912	517
863.999	-777
864.086	344
864.172	-895
864.259	-328
864.345	-654
864.432	376
864.518	-287
864.604	913
864.691	-291
864.777	453
864.863	275
864.950	1767
865.036	612
865.122	1749
865.209	1366
865.295	2211
865.381	1991
865.467	2783
865.553	3071
865.639	4911
865.726	11120
865.812	25045
865.898	47620
865.984	72583
866.070	138021
866.156	139981
866.242	33011
866.328	7081
866.414	2198
866.499	2737
866.585	820
866.671	1464
866.757	463
866.843	1018
866.928	54
867.014	130
867.100	822
867.186	-65
867.271	243
867.357	849
867.442	481
867.528	1476
867.614	1844
867.699	3800
867.785	5292
867.870	8337
867.956	11039
868.041	6651
868.127	3337
868.212	6592
868.297	5406
868.383	2788
868.468	2274
868.553	2690
868.639	1007
868.724	542
868.809	375
868.894	-27
868.979	151
869.065	573
869.150	-998
869.235	41
869.320	-735
869.405	-439
869.490	-286
869.575	-487
869.660	37
869.745	527
869.830	-744
869.915	423
870.000	123
870.085	1115
870.169	1316
870.254	3081
870.339	-37
870.424	210
870.509	-28
870.593	460
870.678	-260
870.763	358
870.847	834
870.932	1258
871.016	1184
871.101	1570
871.186	453
871.270	211
871.355	-700
871.439	566
871.523	887
871.608	1313
871.692	558
871.777	2140
871.861	951
871.945	841
872.030	-34
872.114	-470
872.198	-395
872.282	-298
872.367	-228
872.451	-967
872.535	-105
872.619	-338
872.703	-687
872.787	470
872.871	7
872.955	-54
873.039	-696
873.123	-261
873.207	-251
873.291	-275
873.375	-671
873.459	-339
873.543	625
873.627	-231
873.711	489
873.794	587
873.878	-371
873.962	703
874.045	283
874.129	1118
874.137	1040
874.213	257
874.245	608
874.296	1178
874.352	609
874.380	329
874.460	227
874.464	223
874.547	367
874.568	505
874.631	888
874.676	428
874.714	49
874.784	1163
874.798	1384
874.881	1516
874.892	1397
874.965	582
874.999	602
875.048	602
875.107	549
875.131	546
875.215	584
875.215	584
875.298	309
875.323	141
875.381	-298
875.430	454
875.465	1013
875.538	272
875.548	174
875.631	-418
875.646	-358
875.714	-153
875.753	-80
875.798	79
875.861	-27
875.881	-100
875.964	-806
875.968	-766
876.047	126
876.076	98
876.130	-121
876.183	-70
876.213	46
876.291	239
876.296	239
876.379	-295
876.398	-148
876.462	449
876.506	179
876.545	-53
876.613	262
876.628	333
876.711	-211
876.721	-68
876.794	884
876.828	463
876.877	-107
876.935	917
876.960	1370
877.043	1211
877.043	1212
877.125	1594
877.150	1722
877.208	1967
877.258	1921
877.291	1883
877.365	1578
877.374	1535
877.456	1403
877.472	1348
877.539	1193
877.579	1399
877.622	1559
877.687	1288
877.704	1251
877.787	1870
877.794	1796
877.869	713
877.901	662
877.952	761
878.008	464
878.034	333
878.115	707
878.117	711
878.199	301
878.222	443
878.282	971
878.329	805
878.364	630
878.437	340
878.447	307
878.529	-432
878.544	-239
878.611	624
878.651	611
878.694	549
878.758	302
878.776	284
878.858	-53
878.865	-10
878.941	300
878.972	156
879.023	52
879.078	205
879.105	228
879.185	102
879.187	98
879.269	226
879.292	67
879.351	-228
879.399	-173
879.433	-129
879.506	-51
879.516	-31
879.598	356
879.613	244
879.680	-405
879.720	-281
879.762	-80
879.827	-310
879.844	-414
879.926	132
879.933	69
880.007	-353
880.040	-286
880.089	-78
880.147	-191
880.171	-250
880.253	230
880.254	229
880.335	39
880.360	11
880.417	200
880.467	202
880.499	50
880.574	14
880.580	24
880.662	-430
880.680	-415
880.744	-81
880.787	-21
880.825	-210
880.893	-73
880.907	-6
880.989	-541
881.000	-433
881.070	428
881.106	233
881.152	-80
881.213	368
881.233	432
881.315	-445
881.319	-441
881.396	7
881.426	-37
881.478	-148
881.532	119
881.559	195
881.639	-552
881.641	-564
881.722	117
881.745	68
881.803	-24
881.852	-8
881.885	45
881.958	-109
881.966	-163
882.047	441
882.064	295
882.129	-157
882.171	-58
882.210	113
882.277	-231
882.291	-319
882.372	138
882.383	50
882.454	-245
882.489	-40
882.535	-2
882.596	-168
882.616	-171
882.697	-61
882.702	-75
882.778	-402
882.808	-311
882.859	-313
882.914	-715
882.940	-690
883.020	-183
883.021	-178
883.102	-144
883.127	-24
883.183	18
883.233	-47
883.264	-35
883.339	385
883.345	420
883.426	-177
883.445	-120
883.507	-55
883.551	-117
883.587	-66
883.657	13
883.668	51
883.749	168
883.763	264
883.830	203
883.869	-136
883.910	-313
883.975	-157
883.991	-111
884.072	-185
884.081	-192
884.152	-37
884.187	-40
884.233	-12
884.292	394
884.314	312
884.394	-734
884.398	-764
884.475	-361
884.504	-111
884.555	154
884.610	189
884.636	75
884.716	-487
884.716	-482
884.797	591
884.821	753
884.877	328
884.927	95
884.958	156
885.033	18
885.038	4
885.118	-8
885.139	-28
885.199	-371
885.244	-510
885.279	-260
885.350	9
885.359	11
885.439	335
885.456	211
885.520	-329
885.561	-93
885.600	131
885.667	-122
885.680	-219
885.760	-146
885.773	-273
885.840	-560
885.878	-436
885.920	-19
885.984	371
886.000	263
886.080	18
886.089	-40
886.160	-172
886.195	-162
886.240	-66
886.300	-61
886.320	-51
886.400	139
886.406	141
886.480	-291
886.511	-366
886.560	-432
886.616	-930
886.640	-944
886.720	-554
886.722	-545
886.800	-55
886.827	99
886.879	192
886.932	111
886.959	127
887.038	583
887.039	584
887.119	123
887.143	-0
887.198	-90
887.248	-180
887.278	-216
887.354	-200
887.358	-192
887.437	-149
887.459	-121
887.517	347
887.564	598
887.596	479
887.669	562
887.676	529
887.755	-342
887.774	-454
887.835	-117
887.880	-61
887.914	106
887.985	642
887.994	566
888.073	-241
888.090	-402
888.153	177
888.195	484
888.232	98
888.300	-412
888.311	-301
888.391	329
888.405	458
888.470	-131
888.510	-582
888.549	-136
888.615	825
888.628	692
888.708	-355
888.720	-490
888.787	97
888.825	349
888.866	-63
888.930	-585
888.945	-442
889.024	198
889.035	294
889.103	-121
889.140	-348
889.182	78
889.245	735
889.261	671
889.340	281
889.349	244
889.419	508
889.454	622
889.498	382
889.559	86
889.577	200
889.656	684
889.664	734
889.735	316
889.768	117
889.814	369
889.873	704
889.978	987
890.083	196
890.187	17
890.292	-280
890.397	-45
890.501	-357
890.606	-740
890.710	27
890.815	554
890.919	404
891.024	719
891.128	688
891.233	316
891.337	1249
891.442	12
891.546	126
891.650	203
891.755	481
891.859	643
891.963	272
892.068	336
892.172	487
892.276	-1069
892.380	694
892.484	514
892.589	372
892.693	948
892.797	183
892.901	381
893.005	369
893.109	470
893.213	829
893.317	-173
893.421	677
893.525	195
893.629	595
893.733	149
893.837	-5
893.941	-187
894.045	992
894.148	-392
894.252	-282
894.356	-884
894.460	281
894.564	-68
894.667	-129
894.771	-356
894.875	176
894.978	-613
895.082	462
895.186	210
895.289	474
895.393	506
895.496	167
895.600	-531
895.703	236
895.807	-491
895.910	385
896.014	-745
896.117	193
896.221	389
896.324	802
896.427	112
896.531	-178
896.634	247
896.737	474
896.840	-89
896.944	-328
897.047	-40
897.150	729
897.253	-227
897.356	829
897.460	-371
897.563	220
897.666	-45
897.769	216
897.872	404
897.975	277
898.078	-357
898.181	-519
898.284	-142
898.387	929
898.490	63
898.593	262
898.695	-274
898.798	-646
898.901	-86
899.004	165
899.107	202
899.209	220
899.312	33
899.415	415
899.518	-276
899.620	744
899.723	39
899.826	334
899.928	-223
900.031	54
900.133	-179
900.236	43
900.338	-354
900.441	-482
900.543	184
900.646	-177
900.748	-89
900.851	-247
900.953	-146
901.055	1116
901.158	-155
901.260	586
901.362	77
901.465	483
901.567	-207
901.669	484
901.771	181
901.873	-668
901.976	605
902.078	737
902.180	-600
902.282	310
902.384	360
902.486	605
902.588	319
902.690	710
902.792	858
902.894	2122
902.996	1390
903.098	326
903.200	112
903.302	904
903.404	413
903.505	371
903.607	92
903.709	1241
903.811	-78
903.913	172
904.014	753
904.116	468
904.218	342
904.319	1151
904.421	1999
904.523	4518
904.624	2722
904.726	618
904.827	1438
904.929	3683
905.030	1858
905.132	860
905.233	579
905.335	-111
905.436	375
905.537	193
905.639	160
905.740	890
905.841	1297
905.943	2397
906.044	2194
906.145	2261
906.247	73
906.348	1051
906.449	295
906.550	827
906.651	508
906.752	219
906.854	280
906.955	-56
907.056	561
907.157	-364
907.258	981
907.359	417
907.460	-17
907.561	122
907.662	62
907.762	1003
907.863	-192
907.964	-378
908.065	437
908.166	972
908.267	-135
908.367	-73
908.468	-51
908.569	-348
908.670	247
908.770	459
908.871	0
908.971	413
909.072	272
909.173	-141
909.273	365
909.374	-293
909.474	-36
909.575	579
909.675	-70
909.776	1460
909.876	-676
909.977	-5
910.077	-485
910.177	-429
910.278	-129
910.378	-361
910.478	-650
910.579	87
910.679	156
910.779	686
910.879	-51
910.980	271
911.080	-441
911.180	627
911.280	-898
911.380	62
911.480	-49
911.580	772
911.680	154
911.780	131
911.880	-358
911.980	63
912.080	236
912.180	36
912.280	264
912.380	74
912.480	-213
912.580	-223
912.679	402
912.779	231
912.879	280
912.979	513
913.078	-671
913.178	-272
913.278	-306
913.377	-207
913.477	256
913.577	-16
913.676	-487
913.776	-29
913.875	159
913.975	195
914.074	29
914.174	-34
914.273	146
914.373	943
914.472	-384
914.572	-157
914.671	58
914.770	48
914.870	-75
914.969	1
915.068	28
915.167	-316
915.267	-31
915.366	711
915.465	-386
915.564	283
915.663	-97
915.763	-279
915.862	535
915.961	44
916.060	-650
916.159	185
916.258	-633
916.357	-6
916.456	344
916.555	-337
916.654	-85
916.752	-348
916.851	-436
916.950	121
917.049	-91
917.148	-62
917.247	-167
917.345	-484
917.444	9
917.543	610
917.642	529
917.740	-123
917.839	319
917.937	844
918.036	-419
918.135	-524
918.233	-364
918.332	407
918.430	136
918.529	421
918.627	-784
918.726	-369
918.824	-450
918.923	-371
919.021	100
919.119	-231
919.218	-10
919.316	-31
919.414	-453
919.512	266
919.611	698
919.709	284
919.807	284
919.905	201
920.003	-66
920.102	120
920.200	-385
920.298	-790
920.396	77
920.494	789
920.592	-79
920.690	1010
920.788	-142
920.886	-140
920.984	490
921.082	264
921.180	388
921.277	-304
921.375	388
921.473	18
921.571	-75
921.669	475
921.766	-290
921.864	-288
921.962	5
922.060	584
922.157	751
922.255	-93
922.352	93
922.450	531
922.548	96
922.645	-215
922.743	928
922.840	784
922.938	-108
923.035	454
923.133	783
923.230	1003
923.327	107
923.425	1311
923.522	1077
923.619	155
923.717	70
923.814	628
923.911	559
924.008	1572
924.106	937
924.203	531
924.300	1282
924.397	51
924.494	350
924.591	39
924.688	418
924.786	667
924.883	-338
924.979	1253
925.077	1120
925.173	805
925.270	280
925.367	868
925.464	666
925.561	1425
925.658	1635
925.755	1525
925.852	1950
925.948	2522
926.045	3921
926.142	6353
926.239	6924
926.335	6965
926.432	6661
926.529	6953
926.625	9304
926.722	5594
926.818	3730
926.915	2792
927.011	764
927.108	894
927.204	586
927.301	1058
927.397	394
927.494	377
927.590	448
927.687	322
927.783	622
927.879	408
927.976	-266
928.072	-38
928.168	-121
928.264	-356
928.361	541
928.457	225
928.553	-129
928.649	426
928.745	304
928.841	780
928.937	-288
929.033	-187
929.129	141
929.225	673
929.321	541
929.417	293
929.513	-33
929.609	-232
929.705	487
929.801	93
929.897	-22
929.993	321
930.089	265
930.184	635
930.280	118
930.376	899
930.471	-638
930.567	-97
930.663	668
930.758	132
930.854	212
930.950	560
931.045	113
931.141	1136
931.236	798
931.332	-462
931.427	-197
931.523	1001
931.618	51
931.714	242
931.809	-147
931.905	319
932.000	-887
932.095	-295
932.191	493
932.286	548
932.381	-360
932.476	169
932.572	446
932.667	588
932.762	220
932.857	31
932.952	-342
933.047	-349
933.142	96
933.237	339
933.332	13
933.427	42
933.522	1234
933.617	376
933.712	-520
933.807	248
933.902	-799
933.997	293
934.092	-320
934.187	289
934.282	15
934.376	104
934.471	264
934.566	887
934.661	-65
934.755	-199
934.850	-260
934.945	808
935.039	531
935.134	90
935.228	-198
935.323	444
935.417	-169
935.512	-19
935.606	-682
935.701	506
935.795	511
935.890	857
935.984	-174
936.079	-186
936.173	-81
936.267	-553
936.362	-657
936.456	503
936.550	210
936.644	-321
936.738	-582
936.833	-536
936.927	100
937.021	-54
937.115	-89
937.209	-535
937.303	465
937.397	-20
937.491	-466
937.585	582
937.679	-297
937.773	72
937.867	-107
937.961	514
938.055	31
938.149	820
938.243	-41
938.337	18
938.430	1062
938.524	3665
938.618	8508
938.712	9779
938.805	2892
938.899	901
938.993	1844
939.086	3509
939.180	8308
939.274	18314
939.367	9328
939.461	1972
939.554	172
939.648	226
939.741	138
939.835	-79
939.928	-86
940.022	784
940.115	-530
940.208	596
940.302	580
940.395	732
940.488	-927
940.582	-53
940.675	-91
940.768	-128
940.861	78
940.954	-66
941.048	-442
941.141	-106
941.234	428
941.327	2243
941.420	1810
941.513	489
941.606	-353
941.699	485
941.792	361
941.885	484
941.978	-217
942.071	83
942.164	214
942.257	229
942.349	-53
942.442	-15
942.535	-388
942.628	154
942.721	222
942.813	-1586
942.906	38
942.999	-62
943.091	-791
943.184	-275
943.277	-373
943.369	-14
943.462	-9
943.554	130
943.647	-173
943.739	162
943.832	-111
943.924	-64
944.017	-669
944.109	-695
944.201	-1001
944.294	147
944.386	337
944.478	-452
944.571	414
944.663	-470
944.755	-354
944.847	143
944.940	-281
945.032	-455
945.124	-144
945.216	-64
945.308	70
945.400	-360
945.492	-567
945.584	310
945.676	-714
945.768	304
945.860	-98
945.952	370
946.044	726
946.136	1231
946.228	-92
946.320	-85
946.412	-763
946.503	-298
946.595	-408
946.687	-238
946.779	-195
946.870	-258
946.962	-338
947.054	-180
947.145	628
947.237	-578
947.329	-262
947.420	-333
947.512	-654
947.603	111
947.695	-639
947.786	-866
947.878	-439
947.969	375
948.061	-419
948.152	-592
948.243	-599
948.335	344
948.426	-1395
948.517	229
948.609	-808
948.700	-8
948.791	-428
948.882	-317
948.973	-919
949.065	796
949.156	-443
949.247	-121
949.338	-185
949.429	-804
949.520	-793
949.611	-1444
949.702	-177
949.793	171
949.884	-233
949.975	-463
950.066	-1294
950.157	-298
950.247	-607
950.338	-1080
950.429	-774
950.520	-467
950.611	-1193
950.701	40
950.792	-394
950.883	134
950.973	370
951.064	-705
951.155	-823
951.245	-409
951.336	-818
951.427	-778
951.517	511
951.608	-390
951.698	-1816
951.788	-139
951.879	-922
951.969	-589
952.060	-1342
952.150	-494
952.240	625
952.331	-1681
952.421	47
952.511	-779
952.602	-90
952.692	-527
952.782	-564
952.872	-738
952.962	-499
953.052	-694
953.143	-1286
953.233	260
953.323	-368
953.413	-148
953.503	-981
953.593	73
953.683	-1401
953.773	-741
953.863	-79
953.953	-950
954.042	-152
954.132	-1041
954.222	-1111
954.312	-750
954.402	-638
954.492	-401
954.581	-1360
954.671	-517
954.761	-748
954.850	155
954.940	-1051
955.030	-641
955.119	-1177
955.209	-130
955.298	-1061
955.388	-193
955.477	148
955.567	-900
955.656	286
955.746	223
955.835	-1273
955.925	-646
956.014	-386
956.103	-1247
956.193	-338
956.282	-607
956.371	-1138
956.461	-713
956.550	-825
956.639	-206
956.728	-1162
956.817	-858
956.906	-989
956.995	36
957.085	-823
957.174	-1102
957.263	-1159
957.352	-407
957.441	-1351
957.530	-738
957.619	-344
957.708	-924
957.796	-896
957.885	-663
957.974	-452
958.063	-591
958.152	-1751
958.241	-660
958.329	-1212
958.418	-756
958.507	-1909
958.596	-379
958.684	-2110
958.773	-72
958.861	-782
958.950	-831
959.039	-894
959.127	-462
959.216	-1560
959.304	-1073
959.393	-636
959.481	-1376
959.570	-1016
959.658	-1688
959.746	-883
959.835	-726
959.923	-1443
960.011	-1128
960.100	-643
960.188	-205
960.276	-974
960.365	-1122
960.453	-138
960.541	-1188
960.629	-215
960.717	-1284
960.805	-1338
960.893	-1008
960.981	-1495
961.069	455
961.158	-1166
961.245	-552
961.333	-1239
961.421	-1663
961.509	-1572
961.597	-419
961.685	-952
961.773	-909
961.861	-1336
961.949	-698
962.036	-1786
962.124	-909
962.212	-549
962.299	-1328
962.387	-1370
962.475	209
962.562	-1478
962.650	-173
962.738	-979
962.825	-914
962.913	-1294
963.000	-1388
963.088	-1463
963.175	-1198
963.263	-913
963.350	-1418
963.438	-891
963.525	-1549
963.612	-856
963.700	-1674
963.787	-1280
963.874	-937
963.962	-114
964.049	-686
964.136	-628
964.223	-849
964.310	-1286
964.398	-875
964.485	-1345
964.572	-866
964.659	-1365
964.746	-681
964.833	-1474
964.920	-1274
965.007	-992
965.094	-969
965.181	-1150
965.268	-842
965.355	-1276
965.441	-867
965.528	-1595
965.615	-352
965.702	-1232
965.789	-1092
965.875	-2061
965.962	-593
966.049	-1834
966.136	-1306
966.222	-1341
966.309	-1106
966.395	-1805
966.482	-1233
966.569	-1519
966.655	-951
966.742	-1499
966.828	26
966.915	-1368
967.001	-1234
967.087	-1235
967.174	-935
967.260	-1242
967.347	-690
967.433	-1010
967.519	-715
967.605	-1512
967.692	-1110
967.778	-756
967.864	-1468
967.950	-883
968.036	-1422
968.123	-527
968.209	-935
968.295	-2258
968.381	81
968.467	-1002
968.553	-1177
968.639	-841
968.725	-1736
968.811	-824
968.897	-992
968.983	-684
969.069	-1100
969.154	-815
969.240	-308
969.326	-1602
969.412	-960
969.497	-919
969.583	-963
969.669	-632
969.755	-571
969.840	-1258
969.926	-1231
970.012	-1506
970.097	-979
970.183	-417
970.268	-1381
970.354	-1278
970.439	-2082
970.525	-115
970.610	-2431
970.696	-186
970.781	-1046
970.866	-2265
970.952	-895
971.037	-1666
971.122	-483
971.208	-1533
971.293	-816
971.378	-1634
971.463	-974
971.549	-1189
971.634	-655
971.719	-1440
971.804	-1344
971.889	-548
971.974	-524
972.059	-895
972.144	-314
972.229	-1380
972.314	-1582
972.399	-1635
972.484	-1084
972.569	-1251
972.654	-1518
972.739	-1331
972.824	-1372
972.908	-925
972.993	-1809
973.078	-1455
973.163	-593
973.247	-1088
973.332	-2344
973.417	244
973.501	-1102
973.586	-1607
973.671	-1730
973.755	-1932
973.840	-503
973.924	-594
974.009	-597
974.093	-1521
974.178	-466
974.262	-676
974.346	-1305
974.431	-620
974.515	-1674
974.600	-1252
974.684	-1348
974.768	-1234
974.852	-329
974.937	-2220
975.021	-1349
975.105	-1234
975.189	-1456
975.273	-810
975.358	-1553
975.442	-1626
975.526	-497
975.610	-1967
975.694	-1769
975.778	-991
975.862	-1620
975.946	-2383
976.030	-31
976.114	-1672
976.198	-1133
976.281	-1071
976.365	-601
976.449	-1950
976.533	-1247
976.617	-1231
976.700	-1028
976.784	-1137
976.868	-2166
976.951	-1816
977.035	-943
977.119	-1228
977.202	-628
977.286	-545
977.369	-1448
977.453	-529
977.536	-1128
977.620	-1381
977.703	-564
977.787	-2321
977.870	-755
977.953	-625
978.037	-2027
978.120	-523
978.203	-1044
978.287	-974
978.370	-1107
978.453	-639
978.536	-647
978.620	-847
978.703	-746
978.786	-1191
978.869	-2047
978.952	-2377
979.035	285
979.118	-897
979.201	-1005
979.284	-1246
979.367	-1710
979.450	-1192
979.533	-1444
979.616	-1786
979.699	-371
979.782	-1206
979.865	-1131
979.948	-1583
980.030	-1434
980.113	-1242
980.196	-1593
980.279	-952
980.361	-1418
980.444	-1109
980.526	150
980.609	-1207
980.692	-1383
980.774	-1178
980.857	-1561
980.939	-1035
981.022	-1137
981.104	-1832
981.187	-1912
981.269	-410
981.352	-1273
981.434	-2035
981.516	-910
981.599	-973
981.681	-992
981.763	-1275
981.846	-755
981.928	-954
982.010	-1505
982.092	-1803
982.174	-957
982.256	-1709
982.339	-1001
982.421	-1554
982.503	-757
982.585	-2729
982.667	-2047
982.749	-493
982.831	-1294
982.913	-1584
982.995	-1272
983.077	-1172
983.158	-1040
983.240	-3000
983.322	-635
983.404	-737
983.486	-1498
983.568	-856
983.649	-1819
983.731	-533
983.813	-1539
983.894	-621
983.976	-1666
984.058	-2195
984.139	-463
984.221	-2640
984.302	-121
984.384	-1313
984.465	-2288
984.547	-1119
984.628	-1782
984.710	-1162
984.791	-694
984.872	-1065
984.954	-1769
985.035	-901
985.116	-1264
985.198	-1558
985.279	-613
985.360	-2012
985.441	-1089
985.522	-1768
985.604	-1666
985.685	-2599
985.766	-64
985.847	-599
985.928	-1551
986.009	-1323
986.090	-1373
986.171	-1201
986.252	-1571
986.333	-979
986.414	-1266
986.495	-765
986.576	-1486
986.656	-1856
986.737	-870
986.818	-1276
986.899	-1602
986.980	-1824
987.060	-349
987.141	-2131
987.222	-1082
987.302	-1472
987.383	-1031
987.464	-1505
987.544	-1123
987.625	-1870
987.705	-1039
987.786	-928
987.866	-1117
987.947	-1521
988.027	-1223
988.108	-1497
988.188	-826
988.268	-1117
988.349	-1124
988.429	-2397
988.509	-1726
988.589	-1073
988.670	-1795
988.750	-575
988.830	-1354
988.910	-1976
988.990	-597
989.070	-940
989.151	-839
989.231	-1388
989.311	-1342
989.391	-1954
989.471	-799
989.551	-1492
989.631	-1480
989.711	-1559
989.791	-1398
989.870	-2383
989.950	-368
990.030	-1685
990.110	-1050
990.190	-1886
990.269	-868
990.349	-2534
990.429	-1373
990.509	-442
990.588	-1720
990.668	-1300
990.747	-843
990.827	-1849
990.907	-566
990.986	-1482
991.066	-1817
991.145	-1802
991.225	-1436
991.304	-1199
991.383	-1027
991.463	-2073
991.542	-983
991.622	-2382
991.701	-1984
991.780	-1856
991.859	-1546
991.939	-1759
992.018	-1712
992.097	-2101
992.176	-1750
992.256	-1637
992.335	-2375
992.414	-1446
992.493	-1092
992.572	-1640
992.651	-711
992.730	-1368
992.809	-1617
992.888	-2633
992.967	-1865
993.046	-1441
993.125	-2406
993.203	-2208
993.282	-937
993.361	-1582
993.440	-1100
993.519	-3242
993.597	-1247
993.676	-2062
993.755	-397
993.834	-2274
993.912	-2126
993.991	-762
994.069	-2677
994.148	-2125
994.226	-1968
994.305	-1336
994.384	-2296
994.462	-375
994.540	-2104
994.619	-1105
994.697	-2072
994.776	-2647
994.854	-1006
994.932	-2206
995.011	-1153
995.089	-2111
995.167	-1367
995.245	-1716
995.324	-2826
995.402	-1693
995.480	-2160
995.558	-2574
995.636	-2521
995.714	-2244
995.792	-250
995.870	-2332
995.948	-1945
996.026	-2072
996.104	-2678
996.182	-892
996.260	-2211
996.338	-2196
996.416	-2040
996.494	-2016
996.572	-586
996.649	-2311
996.727	-2011
996.805	-1348
996.883	-2278
996.960	-2364
997.038	-1512
997.116	-1335
997.193	-2213
997.271	-897
997.348	-1675
997.426	-1951
997.504	-2173
997.581	-1208
997.658	-1320
997.736	-2589
997.813	-1873
997.891	-1216
997.968	-2540
998.046	-1801
998.123	-1971
998.200	-1672
998.277	-1921
998.355	-1412
998.432	-2996
998.509	-995
998.586	-982
998.663	-1436
998.741	-2031
998.818	-2186
998.895	-1760
998.972	-1492
999.049	-1799
999.126	-2433
999.203	-1137
999.280	-1456
999.357	-1640
999.434	-1945
999.511	-1408
999.587	-1531
999.664	-2156
999.741	-1973
999.818	-2020
999.895	-2401
999.971	-2263
1000.048	-1968
1000.125	-1443
1000.202	-1587
1000.278	-1373
1000.355	-2151
1000.431	-2573
1000.508	-1929
1000.584	-1551
1000.661	-1178
1000.738	-2648
1000.814	-1240
1000.890	-1708
1000.967	-2098
1001.043	-1132
1001.120	-3041
1001.196	-1947
1001.272	-2844
1001.349	-2178
1001.425	-2674
1001.501	-2046
1001.577	-1910
1001.654	-1773
1001.730	-2129
1001.806	-1287
1001.882	-2645
1001.958	-2074
1002.034	-1853
1002.110	-1913
1002.186	-2181
1002.262	-2737
1002.338	-3058
1002.414	-1292
1002.490	-2082
1002.566	-2519
1002.642	-2603
1002.718	-1455
1002.794	-2330
1002.870	-1508
1002.945	-2445
1003.021	-1938
1003.097	-1546
1003.173	-613
1003.248	-3111
1003.324	-1448
1003.400	-1912
1003.475	-2010
1003.551	-1363
1003.626	-2818
1003.702	-2173
1003.777	-1351
1003.853	-1920
1003.928	-2485
1004.004	-2476
1004.079	-1554
1004.155	-1936
1004.230	-2972
1004.305	-648
1004.381	-1954
1004.456	-2662
1004.531	-1870
1004.607	-1969
1004.682	-1577
1004.757	-1801
1004.832	-1921
1004.907	-2772
1004.982	-2377
1005.057	-2010
1005.133	-2766
1005.208	-2358
1005.283	-1837
1005.358	-414
1005.433	-3077
1005.508	-2353
1005.583	-2593
1005.657	-2522
1005.732	-1907
1005.807	-1972
1005.882	-1687
1005.957	-1681
1006.032	-1935
1006.106	-2165
1006.181	-1655
1006.256	-1832
1006.331	-2722
1006.405	-2032
1006.480	-1485
1006.554	-2108
1006.629	-1819
1006.704	-2202
1006.778	-2317
1006.853	-2254
1006.927	-1916
1007.002	-2091
1007.076	-1712
1007.150	-1547
1007.225	-1930
1007.299	-1670
1007.373	-2397
1007.448	-2294
1007.522	-1650
1007.596	-2235
1007.671	-2106
1007.745	-1415
1007.819	-2025
1007.893	-2166
1007.967	-1248
1008.041	-3382
1008.115	-1320
1008.190	-2937
1008.264	-2138
1008.338	-3232
1008.412	-1852
1008.486	-1754
1008.560	-1599
1008.633	-2855
1008.707	-1973
1008.781	-1266
1008.855	-2272
1008.929	-2497
1009.003	-2739
1009.076	-1721
1009.150	-1659
1009.224	-2931
1009.298	-1343
1009.371	-1872
1009.445	-1913
1009.519	-2893
1009.592	-2640
1009.666	-2358
1009.739	-1709
1009.813	-2846
1009.886	-1263
1009.960	-2815
1010.033	-1728
1010.107	-1547
1010.180	-1628
1010.253	-1168
1010.327	-1810
1010.400	-1184
1010.473	-826
1010.547	-801
1010.620	-1450
1010.693	-562
1010.766	-275
1010.840	-1015
1010.913	-1027
1010.986	-906
1011.059	-971
1011.132	-787
1011.205	493
1011.278	-352
1011.351	49
1011.424	625
1011.497	-152
1011.570	-949
1011.643	-1415
1011.716	-2137
1011.789	-2422
1011.862	-1873
1011.934	-1216
1012.007	-3015
1012.080	-1879
1012.153	-1272
1012.225	-1033
1012.298	-2537
1012.371	-2637
1012.443	-1700
1012.516	-2112
1012.588	-1670
1012.661	-1523
1012.733	-2609
1012.806	-1358
1012.879	-2128
1012.951	-1807
1013.023	-3539
1013.096	-1945
1013.168	-3653
1013.241	-1853
1013.313	-2448
1013.385	-2432
1013.458	-2011
1013.530	-1004
1013.602	-1928
1013.674	-1679
1013.746	-2419
1013.819	-2449
1013.891	-2143
1013.963	-1930
1014.035	-2296
1014.107	-1294
1014.179	-2074
1014.251	-2494
1014.323	-2142
1014.395	-1277
1014.467	-1940
1014.539	-1691
1014.611	-2318
1014.683	-1960
1014.754	-2071
1014.826	-2545
1014.898	-2104
1014.970	-2062
1015.042	-1829
1015.113	-1539
1015.185	-2833
1015.257	-2433
1015.328	-1766
1015.400	-2348
1015.471	-2357
1015.543	-2578
1015.615	-1956
1015.686	-2290
1015.757	-2497
1015.829	-1427
1015.901	-2607
1015.972	-1508
1016.043	-2117
1016.115	-2146
1016.186	-1618
1016.257	-2059
1016.328	-1915
1016.400	-1640
1016.471	-2273
1016.542	-1960
1016.613	-1767
1016.685	-2448
1016.756	-1822
1016.827	-2461
1016.898	-2318
1016.969	-1494
1017.040	-2891
1017.111	-1915
1017.182	-2393
1017.253	-2702
1017.324	-2982
1017.395	-2124
1017.466	-1458
1017.537	-2642
1017.608	-1973
1017.678	-2738
1017.749	-3213
1017.820	-1983
1017.891	-3022
1017.961	-2307
1018.032	-2751
1018.103	-1702
1018.173	-2254
1018.244	-1832
1018.315	-2689
1018.385	-2465
1018.456	-1717
1018.526	-1993
1018.597	-2537
1018.667	-2960
1018.738	-1960
1018.808	-2576
1018.878	-2548
1018.949	-1992
1019.019	-3037
1019.089	-2131
1019.160	-1604
1019.230	-2273
1019.300	-1684
1019.371	-1999
1019.441	-1739
1019.511	-2317
1019.581	-1969
1019.651	-2233
1019.721	-2176
1019.791	-1654
1019.861	-2122
1019.931	-2278
1020.001	-2652
1020.071	-2227
1020.141	-2603
1020.211	-2102
1020.281	-3496
1020.351	-2654
1020.421	-1787
1020.491	-2023
1020.560	-2474
1020.630	-1624
1020.700	-2755
1020.770	-2865
1020.839	-2676
1020.909	-2290
1020.979	-3007
1021.048	-2032
1021.118	-1739
1021.187	-1757
1021.257	-1130
1021.326	-2390
1021.396	-2752
1021.465	-2071
1021.535	-2573
1021.604	-2288
1021.674	-2372
1021.743	-2741
1021.812	-2620
1021.882	-3012
1021.951	-2642
1022.020	-1696
1022.089	-3169
1022.159	-2968
1022.228	-1623
1022.297	-3162
1022.366	-1285
1022.435	-2006
1022.504	-2915
1022.573	-2571
1022.642	-2558
1022.711	-2143
1022.781	-2689
1022.849	-2176
1022.918	-2242
1022.987	-2500
1023.056	-2974
1023.125	-2325
1023.194	-2490
1023.263	-2849
1023.331	-1837
1023.400	-2883
1023.469	-2964
1023.538	-1831
1023.606	-2298
1023.675	-2715
1023.744	-3278
1023.812	-2970
1023.881	-2134
1023.949	-2142
1024.018	-2418
1024.086	-2651
1024.155	-2617
1024.223	-3171
1024.292	-2779
1024.360	-2095
1024.429	-2938
1024.497	-2346
1024.565	-2635
1024.634	-2088
1024.702	-3239
1024.770	-2168
1024.838	-2875
1024.907	-2690
1024.975	-2456
1025.043	-1529
1025.111	-2706
1025.179	-2290
1025.247	-2530
1025.315	-2543
1025.383	-2296
1025.451	-1873
1025.519	-2523
1025.587	-2582
1025.655	-2158
1025.723	-2366
1025.791	-2149
1025.859	-1873
1025.927	-2598
1025.995	-1598
1026.062	-2441
1026.130	-2377
1026.198	-2262
1026.266	-2332
1026.333	-1814
1026.401	-1964
1026.469	-2597
1026.536	-2683
1026.604	-2453
1026.671	-2213
1026.739	-2388
1026.806	-2138
1026.874	-2655
1026.941	-2176
1027.009	-2245
1027.076	-2379
1027.144	-2148
1027.211	-2868
1027.278	-2256
1027.345	-1886
1027.413	-2291
1027.480	-4150
1027.547	-2217
1027.614	-1650
1027.682	-2795
1027.749	-2310
1027.816	-1942
1027.883	-2643
1027.950	-1814
1028.017	-2446
1028.084	-2416
1028.151	-2525
1028.218	-2824
1028.285	-1736
1028.352	-2969
1028.419	-2573
1028.486	-2368
1028.553	-2421
1028.619	-3325
1028.686	-2180
1028.753	-2598
1028.820	-2823
1028.886	-2624
1028.953	-1997
1029.020	-2572
1029.086	-2980
1029.153	-2222
1029.220	-2326
1029.286	-2537
1029.353	-2113
1029.419	-3161
1029.486	-2433
1029.552	-2232
1029.619	-2038
1029.685	-2883
1029.751	-2717
1029.818	-2149
1029.884	-2930
1029.951	-1101
1030.017	-2139
1030.083	-2463
1030.149	-2239
1030.216	-2726
1030.282	-2351
1030.348	-2577
1030.414	-1966
1030.480	-2644
1030.546	-2413
1030.612	-2130
1030.678	-2919
1030.744	-2442
1030.810	-2852
1030.876	-2658
1030.942	-2383
1031.008	-2690
1031.074	-2660
1031.140	-2679
1031.206	-2988
1031.272	-2542
1031.337	-1656
1031.403	-2661
1031.469	-2921
1031.534	-2032
1031.600	-2067
1031.666	-2782
1031.731	-2915
1031.797	-2441
1031.863	-2635
1031.928	-3044
1031.994	-2569
1032.059	-2631
1032.125	-1790
1032.190	-3426
1032.256	-2669
1032.321	-3052
1032.386	-2136
1032.452	-2485
1032.517	-2367
1032.582	-2111
1032.647	-1655
1032.713	-2875
1032.778	-2070
1032.843	-2630
1032.908	-2860
1032.974	-1849
1033.039	-2107
1033.104	-2730
1033.169	-2686
1033.234	-3393
1033.299	-2238
1033.364	-2062
1033.429	-2083
1033.494	-2901
1033.559	-2657
1033.624	-3736
1033.688	-2733
1033.753	-1745
1033.818	-2989
1033.883	-2815
1033.948	-2986
1034.013	-1844
1034.077	-1633
1034.142	-2427
1034.207	-2680
1034.271	-2462
1034.336	-1736
1034.400	-1764
1034.465	-2466
1034.530	-2429
1034.594	-2392
1034.658	-2485
1034.723	-2565
1034.787	-3001
1034.852	-2417
1034.916	-2828
1034.981	-2300
1035.045	-2000
1035.109	-2361
1035.173	-2685
1035.238	-2358
1035.302	-2475
1035.366	-1664
1035.430	-2764
1035.495	-2481
1035.559	-2176
1035.623	-2239
1035.687	-2638
1035.751	-2324
1035.815	-2499
1035.879	-1611
1035.943	-1874
1036.007	-2295
1036.071	-2448
1036.135	-2851
1036.198	-2340
1036.262	-2201
1036.326	-2590
1036.390	-2106
1036.454	-2404
1036.517	-1622
1036.581	-3286
1036.645	-1795
1036.709	-2603
1036.772	-1938
1036.836	-2567
1036.900	-1607
1036.963	-2757
1037.026	-1646
1037.090	-2818
1037.154	-1919
1037.217	-2889
1037.280	-3086
1037.344	-1905
1037.407	-2789
1037.471	-3314
1037.534	-2396
1037.597	-2630
1037.661	-2422
1037.724	-2478
1037.787	-2963
1037.850	-2352
1037.913	-2643
1037.977	-2067
1038.040	-2926
1038.103	-2074
1038.166	-3123
1038.229	-2257
1038.292	-2453
1038.355	-2302
1038.418	-3446
1038.481	-2420
1038.544	-2219
1038.607	-2566
1038.670	-2617
1038.732	-2433
1038.795	-2599
1038.858	-1931
1038.921	-1834
1038.984	-2386
1039.046	-2205
1039.109	-2705
1039.172	-1234
1039.234	-3115
1039.297	-2886
1039.360	-3371
1039.422	-2813
1039.485	-3308
1039.547	-2749
1039.610	-2834
1039.672	-2048
1039.734	-2262
1039.797	-2648
1039.859	-3034
1039.922	-2038
1039.984	-2627
1040.046	-2012
1040.109	-2439
1040.171	-2902
1040.233	-2633
1040.295	-2340
1040.358	-2432
1040.420	-2303
1040.482	-3096
1040.544	-2315
1040.606	-2047
1040.668	-2456
1040.730	-2538
1040.792	-2789
1040.854	-2775
1040.916	-1953
1040.978	-2126
1041.040	-2051
1041.102	-2522
1041.164	-2621
1041.225	-2685
1041.287	-2191
1041.349	-2794
1041.411	-2827
1041.472	-2688
1041.534	-2350
1041.596	-2962
1041.657	-2260
1041.719	-2545
1041.781	-1561
1041.842	-3893
1041.904	-2760
1041.965	-3135
1042.027	-2549
1042.088	-2864
1042.150	-2185
1042.211	-2038
1042.272	-2002
1042.334	-3546
1042.395	-2003
1042.456	-3286
1042.518	-2272
1042.579	-2577
1042.640	-1780
1042.701	-2812
1042.763	-2467
1042.824	-2348
1042.885	-3125
1042.946	-2250
1043.007	-2413
1043.068	-1608
1043.129	-2656
1043.190	-2512
1043.251	-2578
1043.312	-2579
1043.373	-1991
1043.434	-2129
1043.495	-2255
1043.556	-2566
1043.616	-2077
1043.677	-2466
1043.738	-1964
1043.799	-2947
1043.859	-1941
1043.920	-2199
1043.981	-2307
1044.041	-1943
1044.102	-2491
1044.162	-2489
1044.223	-3420
1044.284	-2392
1044.344	-2070
1044.405	-2032
1044.465	-2295
1044.525	-3178
1044.586	-2379
1044.646	-2094
1044.707	-2170
1044.767	-2422
1044.827	-2895
1044.887	-2762
1044.948	-1881
1045.008	-1910
1045.068	-2499
1045.128	-2587
1045.188	-2012
1045.249	-2064
1045.309	-2865
1045.369	-2701
1045.429	-1541
1045.489	-2899
1045.549	-1618
1045.609	-2694
1045.669	-2458
1045.729	-2655
1045.789	-1588
1045.848	-2847
1045.908	-1484
1045.968	-2080
1046.028	-2041
1046.088	-2186
1046.147	-1484
1046.207	-1975
1046.267	-1974
1046.326	-1214
1046.386	-1724
1046.446	-2185
1046.505	-1333
1046.565	-1860
1046.624	-2051
1046.684	-1470
1046.743	-812
1046.803	-585
1046.862	-844
1046.922	0
