'Start Wavelength	183.907
'End Wavelength	1046.922
'Gate Delay	5.000
'Gate Width (ms)	1.050
'Laser Output Level	0.000
'X Position	0.000
'Y Position	0.000
'Z Position	0.000
'Grid Point Number	1.000
'Shot Number	100.000
183.907	597.000
183.977	-271.000
184.047	571
184.116	-488
184.186	362
184.256	113
184.325	310
184.395	-622
184.465	929
184.534	307
184.604	289
184.674	-103
184.743	394
184.813	810
184.883	358
184.952	1119
185.022	937
185.092	883
185.161	901
185.231	791
185.301	952
185.370	-237
185.440	486
185.509	259
185.579	929
185.649	605
185.718	649
185.788	1074
185.857	516
185.927	-312
185.996	590
186.066	163
186.136	759
186.205	348
186.275	895
186.344	175
186.414	413
186.483	223
186.553	2009
186.622	1807
186.692	264
186.761	388
186.831	443
186.900	-220
186.970	615
187.039	107
187.109	1122
187.178	521
187.248	650
187.317	807
187.387	461
187.456	1947
187.526	2368
187.595	1001
187.664	175
187.734	946
187.803	750
187.873	396
187.942	1197
188.012	660
188.081	22
188.150	468
188.220	1629
188.289	1443
188.358	688
188.428	312
188.497	269
188.567	-34
188.636	18
188.705	1090
188.775	1359
188.844	307
188.913	1052
188.983	449
189.052	893
189.121	866
189.191	2276
189.260	2740
189.329	3547
189.399	2187
189.468	1137
189.537	748
189.606	1962
189.676	1951
189.745	883
189.814	2323
189.883	1130
189.953	2239
190.022	4974
190.091	13130
190.161	17146
190.230	7233
190.299	2739
190.368	1443
190.437	1696
190.507	1838
190.576	2092
190.645	950
190.714	1023
190.783	249
190.853	1791
190.922	1029
190.991	551
191.060	1301
191.129	873
191.198	1124
191.268	313
191.337	1207
191.406	1593
191.475	538
191.544	339
191.613	730
191.682	315
191.752	875
191.821	1519
191.890	1077
191.959	667
192.028	1017
192.097	1127
192.166	136
192.235	805
192.304	1383
192.373	359
192.442	426
192.511	1084
192.580	1030
192.650	990
192.719	915
192.788	1152
192.857	1430
192.926	349
192.995	649
193.064	3638
193.133	2937
193.202	4163
193.271	4024
193.340	2373
193.409	3448
193.478	2820
193.547	4318
193.615	6416
193.684	5395
193.753	3090
193.822	1376
193.891	1657
193.960	1027
194.029	755
194.098	1419
194.167	634
194.236	1463
194.305	1412
194.374	1328
194.443	1602
194.512	1483
194.580	1158
194.649	1104
194.718	1210
194.787	804
194.856	564
194.925	1607
194.994	2026
195.062	1177
195.131	776
195.200	1443
195.269	1228
195.338	1242
195.407	1402
195.475	2945
195.544	1905
195.613	662
195.682	1179
195.751	1046
195.819	827
195.888	1274
195.957	2697
196.026	521
196.094	1472
196.163	1808
196.232	879
196.301	1368
196.369	1794
196.438	1339
196.507	1776
196.576	1915
196.644	1629
196.713	1145
196.782	1035
196.850	1346
196.919	1279
196.988	1671
197.056	1759
197.125	1982
197.194	1644
197.262	1853
197.331	1713
197.400	1547
197.468	2369
197.537	2204
197.606	2538
197.674	6051
197.743	16240
197.812	6706
197.880	14958
197.949	10548
198.017	12914
198.086	9357
198.155	4316
198.223	5715
198.292	18688
198.360	8443
198.429	4932
198.497	4652
198.566	10153
198.635	18159
198.703	6011
198.772	6492
198.840	19885
198.909	23151
198.977	6550
199.046	4963
199.114	3797
199.183	3904
199.251	2784
199.320	1938
199.388	1647
199.457	1930
199.525	2040
199.594	1275
199.662	2500
199.731	1807
199.799	2293
199.867	1929
199.936	2011
200.004	2094
200.073	1964
200.141	1517
200.210	1685
200.278	2109
200.346	2210
200.415	1924
200.483	2870
200.552	1510
200.620	1594
200.688	2158
200.757	1817
200.825	1189
200.893	2279
200.962	2314
201.030	1750
201.098	1210
201.167	1592
201.235	1847
201.303	1960
201.372	1935
201.440	1936
201.508	1973
201.577	2127
201.645	1558
201.713	1745
201.781	1645
201.850	2189
201.918	2427
201.986	1693
202.055	2362
202.123	2662
202.191	1454
202.259	2385
202.327	1439
202.396	1945
202.464	2053
202.532	1483
202.600	2799
202.669	2606
202.737	2283
202.805	1770
202.873	1815
202.941	2587
203.009	2177
203.078	2148
203.146	1962
203.214	1588
203.282	1800
203.350	2997
203.418	1668
203.487	2908
203.555	2683
203.623	2773
203.691	1947
203.759	1657
203.827	2243
203.895	2581
203.963	2820
204.031	1596
204.099	2426
204.168	2395
204.236	2786
204.304	3513
204.372	2705
204.440	2580
204.508	3181
204.576	2143
204.644	3215
204.712	2429
204.780	2728
204.848	2275
204.916	2578
204.984	2852
205.052	2832
205.120	2807
205.188	3027
205.256	2664
205.324	2676
205.392	2884
205.460	4383
205.528	6439
205.596	4135
205.664	3935
205.732	5864
205.799	19993
205.867	39472
205.935	11730
206.003	5954
206.071	5128
206.139	6137
206.207	4722
206.275	4037
206.343	3666
206.411	3593
206.478	3700
206.546	3751
206.614	4605
206.682	3613
206.750	2784
206.818	5235
206.885	4967
206.953	2635
207.021	3873
207.089	3153
207.157	3744
207.225	4905
207.292	4560
207.360	3355
207.428	4602
207.496	2279
207.563	2960
207.631	3721
207.699	2622
207.767	3305
207.834	3115
207.902	2839
207.970	3219
208.038	2239
208.105	3214
208.173	4539
208.241	9763
208.309	6326
208.376	3990
208.444	9329
208.512	7958
208.579	2812
208.647	4509
208.715	4912
208.782	3825
208.850	3459
208.918	3571
208.985	3599
209.053	3543
209.120	3245
209.188	3273
209.256	3019
209.323	2930
209.391	3605
209.459	4986
209.526	3220
209.594	2741
209.661	3886
209.729	4272
209.796	3704
209.864	3925
209.932	2902
209.999	4604
210.067	3594
210.134	4016
210.202	4268
210.269	3997
210.337	5358
210.404	4605
210.472	4292
210.539	4218
210.607	3910
210.674	4078
210.742	4484
210.809	4413
210.877	4430
210.944	4863
211.012	3716
211.079	6036
211.146	4066
211.214	5304
211.281	5333
211.349	4921
211.416	5504
211.484	5242
211.551	5193
211.618	4962
211.686	4716
211.753	4669
211.821	5412
211.888	4857
211.955	5927
212.023	5694
212.090	6567
212.157	7554
212.225	8642
212.292	21653
212.359	46130
212.427	108937
212.494	56949
212.561	19766
212.629	11447
212.696	9168
212.763	8299
212.831	6275
212.898	7228
212.965	5153
213.032	5234
213.100	5444
213.167	5562
213.234	5792
213.301	4444
213.369	6005
213.436	4326
213.503	4670
213.570	5040
213.638	4599
213.705	4870
213.772	4630
213.839	4834
213.906	5341
213.973	4404
214.041	4858
214.108	5206
214.175	4873
214.242	4511
214.309	4436
214.376	5176
214.444	5222
214.511	5731
214.578	5310
214.645	4891
214.712	6004
214.779	5346
214.846	4585
214.913	5672
214.980	6162
215.048	6321
215.115	7001
215.182	5834
215.249	5494
215.316	4527
215.383	5401
215.450	4526
215.517	4344
215.584	3685
215.651	3533
215.718	4603
215.785	4726
215.852	3855
215.919	3967
215.986	4725
216.053	4578
216.120	4031
216.187	3271
216.254	4806
216.321	4920
216.388	5064
216.455	5142
216.522	5364
216.589	6071
216.656	5756
216.722	6775
216.789	7476
216.856	8929
216.923	7538
216.990	7207
217.057	6280
217.124	7483
217.191	7173
217.258	8147
217.324	9254
217.391	11478
217.458	9595
217.525	8093
217.592	6532
217.659	6194
217.725	7016
217.792	7151
217.859	6401
217.926	4836
217.993	4816
218.059	5263
218.126	5186
218.193	4893
218.260	4741
218.327	4431
218.393	4491
218.460	4633
218.527	4083
218.594	3935
218.660	4282
218.727	5121
218.794	3563
218.860	4457
218.927	3738
218.994	4177
219.061	3996
219.127	4037
219.194	4105
219.261	4137
219.327	3847
219.394	4622
219.461	3093
219.527	3704
219.594	3984
219.661	4397
219.727	2960
219.794	5409
219.860	3914
219.927	5066
219.994	4844
220.060	5306
220.127	6227
220.193	6024
220.260	6550
220.326	9629
220.393	14071
220.460	19192
220.526	13449
220.593	9553
220.659	10320
220.726	13059
220.792	40280
220.859	30203
220.925	24966
220.992	35389
221.058	47012
221.125	60072
221.191	46858
221.258	17629
221.324	10327
221.391	9034
221.457	7231
221.524	8482
221.590	14183
221.657	58608
221.723	44610
221.789	35844
221.856	33733
221.922	17792
221.989	10398
222.055	7626
222.121	5946
222.188	7082
222.254	6709
222.321	6055
222.387	4247
222.453	4459
222.520	5051
222.586	3882
222.652	4869
222.719	4339
222.785	5129
222.851	4340
222.918	5092
222.984	4825
223.050	3649
223.116	3211
223.183	4508
223.249	3701
223.315	3887
223.382	3566
223.448	3306
223.514	3551
223.580	2968
223.647	4058
223.713	3699
223.779	3773
223.845	3587
223.911	4330
223.978	3428
224.044	4007
224.110	3654
224.176	4934
224.242	4221
224.309	3419
224.375	3215
224.441	3880
224.507	3925
224.573	2783
224.639	3363
224.705	3268
224.772	3222
224.838	3594
224.904	3507
224.970	3632
225.036	3638
225.102	3234
225.168	3382
225.234	3895
225.300	3609
225.366	3789
225.432	3641
225.499	3738
225.565	3286
225.631	4998
225.697	5478
225.763	6711
225.829	7575
225.895	7371
225.961	10886
226.027	10492
226.093	8049
226.159	11001
226.225	14413
226.291	29939
226.357	50809
226.423	24872
226.489	13448
226.554	10331
226.620	10472
226.686	10821
226.752	14425
226.818	28353
226.884	66264
226.950	60173
227.016	24227
227.082	14409
227.148	9952
227.214	7519
227.279	6595
227.345	6639
227.411	5739
227.477	5073
227.543	8246
227.609	6955
227.674	6305
227.740	5558
227.806	6118
227.872	8319
227.938	5199
228.003	5886
228.069	4634
228.135	4009
228.201	4366
228.267	5009
228.332	4171
228.398	3880
228.464	3998
228.530	3739
228.595	4185
228.661	3394
228.727	3642
228.792	5333
228.858	4616
228.924	5394
228.990	10613
229.055	6522
229.121	8206
229.187	4588
229.252	3457
229.318	2876
229.384	3879
229.449	3758
229.515	2457
229.581	2898
229.646	4734
229.712	3073
229.777	3406
229.843	3922
229.909	5443
229.974	7082
230.040	7089
230.105	7772
230.171	9935
230.236	16472
230.302	27850
230.368	15984
230.433	9336
230.499	8506
230.564	7538
230.630	6275
230.695	6123
230.761	6492
230.826	4297
230.892	6607
230.957	4047
231.023	4997
231.088	5080
231.154	4546
231.219	6050
231.284	5568
231.350	5338
231.415	4608
231.481	5699
231.546	4807
231.612	4233
231.677	3637
231.742	3776
231.808	4945
231.873	3926
231.939	3558
232.004	4780
232.069	5147
232.135	4781
232.200	5688
232.265	4812
232.331	4504
232.396	3577
232.461	3942
232.527	4385
232.592	3647
232.657	3563
232.723	3978
232.788	3972
232.853	4774
232.918	3987
232.984	3361
233.049	3705
233.114	3270
233.179	3517
233.245	4744
233.310	5755
233.375	3304
233.440	3977
233.506	4377
233.571	3933
233.636	3924
233.701	3231
233.766	3995
233.832	5167
233.897	3762
233.962	2601
234.027	4458
234.092	4075
234.157	3555
234.222	4069
234.288	5001
234.353	8193
234.418	7607
234.483	7001
234.548	6253
234.613	5710
234.678	6417
234.743	5631
234.808	9445
234.873	6725
234.938	6526
235.004	6585
235.069	5305
235.134	4660
235.199	5806
235.264	5261
235.329	4811
235.394	5870
235.459	6659
235.524	4817
235.589	5900
235.654	5745
235.719	4034
235.784	5692
235.849	5176
235.913	6808
235.978	6474
236.043	6687
236.108	6030
236.173	4724
236.238	7051
236.303	5150
236.368	4783
236.433	7506
236.498	9254
236.563	11510
236.627	24925
236.692	88554
236.757	76377
236.822	28540
236.887	17968
236.952	17896
237.017	13816
237.081	13938
237.146	17363
237.211	40152
237.276	90037
237.341	152694
237.405	64244
237.470	26191
237.535	16748
237.600	13422
237.664	10850
237.729	8562
237.794	11477
237.859	21549
237.923	12380
237.988	7517
238.053	7669
238.118	6708
238.182	14337
238.247	14531
238.312	6488
238.376	6315
238.441	4564
238.506	5502
238.570	4175
238.635	5846
238.700	5677
238.764	4449
238.829	7066
238.893	7168
238.958	6748
239.023	5896
239.087	5389
239.152	6098
239.216	4119
239.281	5709
239.346	4788
239.410	5458
239.475	4826
239.539	11870
239.604	9974
239.668	5700
239.733	5716
239.797	6002
239.862	11069
239.926	9224
239.991	5790
240.055	4796
240.120	3699
240.184	4448
240.249	3140
240.313	3801
240.378	3711
240.442	5862
240.507	10003
240.571	5200
240.635	4477
240.700	5990
240.764	4066
240.829	3599
240.893	2679
240.957	3764
241.022	6292
241.086	7958
241.151	4186
241.215	3284
241.279	4959
241.344	5162
241.408	7008
241.472	5419
241.537	7107
241.601	7108
241.665	5956
241.730	5592
241.794	7617
241.858	6118
241.922	6688
241.987	6785
242.051	6211
242.115	5175
242.179	6386
242.244	6006
242.308	6203
242.372	6654
242.436	6605
242.501	6789
242.565	5782
242.629	5902
242.693	6935
242.757	5852
242.822	5742
242.886	7588
242.950	7315
243.014	5784
243.078	7559
243.142	7489
243.206	7461
243.271	11076
243.335	13842
243.399	29258
243.463	116341
243.527	296101
243.591	97219
243.655	30553
243.719	18640
243.783	16444
243.847	28639
243.911	39148
243.975	16788
244.040	9927
244.104	9452
244.168	8334
244.232	6756
244.296	15249
244.360	31811
244.424	10288
244.488	7195
244.552	6958
244.615	5171
244.679	6435
244.743	4511
244.807	4615
244.871	4709
244.935	4611
244.999	3263
245.063	4884
245.127	7037
245.191	20933
245.255	22162
245.319	7172
245.383	3626
245.446	6064
245.510	4038
245.574	3824
245.638	5141
245.702	2797
245.766	5375
245.829	4800
245.893	4368
245.957	5145
246.021	6575
246.085	4384
246.149	5435
246.212	6450
246.276	6596
246.340	4758
246.404	5988
246.467	6263
246.531	3772
246.595	6870
246.659	5724
246.722	4521
246.786	5117
246.850	4478
246.913	5564
246.977	3580
247.041	5091
247.104	5287
247.168	4897
247.232	4795
247.295	8247
247.359	6406
247.423	4317
247.486	3864
247.550	4770
247.614	4471
247.677	4750
247.741	4773
247.804	4970
247.868	7479
247.932	4800
247.995	8778
248.059	4299
248.122	4105
248.186	5747
248.249	7250
248.313	19587
248.376	17767
248.440	9753
248.503	4999
248.567	7835
248.630	6958
248.694	8690
248.757	12211
248.821	24068
248.884	15559
248.948	12008
249.011	15516
249.075	23194
249.138	20209
249.202	11817
249.265	10315
249.328	12701
249.392	10578
249.455	11020
249.519	9967
249.582	10337
249.645	12291
249.709	13220
249.772	14492
249.835	12871
249.899	12540
249.962	12112
250.025	11751
250.089	14531
250.152	15114
250.215	13038
250.279	13121
250.342	14943
250.405	16162
250.468	18411
250.532	27069
250.595	55657
250.658	244071
250.721	421480
250.785	131885
250.848	57983
250.911	36840
250.974	31627
251.038	27621
251.101	29561
251.164	27173
251.227	28646
251.290	38332
251.354	81952
251.417	340386
251.480	361223
251.543	253602
251.606	626003
251.669	496448
251.732	181227
251.795	108268
251.859	130816
251.922	391100
251.985	229153
252.048	76236
252.111	47967
252.174	39064
252.237	41482
252.300	64968
252.363	159924
252.426	452040
252.489	185175
252.552	67594
252.615	45187
252.678	42539
252.741	63049
252.804	179390
252.867	489381
252.930	205620
252.993	70337
253.056	43351
253.119	33711
253.182	34881
253.245	90752
253.308	57381
253.371	23369
253.434	17030
253.497	15111
253.559	14769
253.622	12416
253.685	11217
253.748	10998
253.811	9096
253.874	10673
253.937	9688
254.000	8127
254.062	8468
254.125	10261
254.188	9591
254.251	8640
254.314	7265
254.376	6719
254.439	6928
254.502	6101
254.565	6418
254.628	9781
254.690	6382
254.753	5242
254.816	5006
254.878	5846
254.941	6878
255.004	7074
255.067	4722
255.129	4217
255.192	4542
255.255	3586
255.317	4206
255.380	4193
255.443	3533
255.505	3527
255.568	3558
255.631	3416
255.693	3376
255.756	4054
255.819	5202
255.881	3374
255.944	5149
256.006	4881
256.069	3927
256.132	4094
256.194	4569
256.257	7984
256.319	6712
256.382	7762
256.444	7746
256.507	7275
256.569	7216
256.632	8608
256.694	12903
256.757	41489
256.819	136137
256.882	62129
256.944	23005
257.007	14475
257.069	10379
257.132	9362
257.194	9296
257.257	6910
257.319	7611
257.381	11879
257.444	31059
257.506	156345
257.569	157560
257.631	46597
257.693	22100
257.756	17579
257.818	11780
257.880	9859
257.943	7174
258.005	5994
258.067	5810
258.130	6585
258.192	6595
258.254	5402
258.317	5892
258.379	5844
258.441	5904
258.503	6817
258.566	9027
258.628	12183
258.690	5153
258.753	6135
258.815	6489
258.877	4962
258.939	5879
259.001	6082
259.064	6391
259.126	5881
259.188	6473
259.250	6573
259.312	7039
259.375	9160
259.437	7057
259.499	5389
259.561	5317
259.623	5458
259.685	4717
259.747	5541
259.809	9666
259.872	14517
259.934	24429
259.996	19233
260.058	7110
260.120	4670
260.182	5330
260.244	5473
260.306	4662
260.368	4799
260.430	4029
260.492	4590
260.554	7035
260.616	6142
260.678	6906
260.740	11009
260.802	4860
260.864	4484
260.926	3659
260.988	4619
261.050	4092
261.112	4996
261.174	11750
261.236	11968
261.298	5362
261.359	7425
261.421	9039
261.483	4349
261.545	5437
261.607	3359
261.669	5260
261.731	5211
261.793	7602
261.854	3058
261.916	4652
261.978	3735
262.040	4034
262.102	5352
262.164	4306
262.225	4254
262.287	4458
262.349	3939
262.411	3998
262.472	4273
262.534	5369
262.596	8106
262.658	5398
262.719	4037
262.781	5619
262.843	8491
262.904	7794
262.966	10802
263.028	23905
263.090	121020
263.151	357105
263.213	104846
263.275	30211
263.336	18175
263.398	13298
263.459	9434
263.521	7081
263.583	6482
263.644	5130
263.706	4161
263.767	3232
263.829	3757
263.891	3404
263.952	3040
264.014	2563
264.075	3264
264.137	3321
264.198	3321
264.260	2933
264.321	3781
264.383	2852
264.444	3160
264.506	3051
264.567	4215
264.629	4321
264.690	1986
264.752	3368
264.813	3657
264.875	3534
264.936	4592
264.998	3290
265.059	3668
265.120	5680
265.182	10781
265.243	57231
265.305	59006
265.366	14436
265.427	7510
265.489	6393
265.550	3160
265.611	4101
265.673	3248
265.734	3325
265.795	3891
265.857	3870
265.918	6515
265.979	17945
266.040	103253
266.102	86515
266.163	20168
266.224	9588
266.286	7760
266.347	5597
266.408	4472
266.469	4378
266.530	3739
266.592	3649
266.653	3062
266.714	3119
266.775	2371
266.836	3149
266.898	2740
266.959	3709
267.020	3779
267.081	4099
267.142	3406
267.203	3156
267.264	2110
267.326	3986
267.387	2959
267.448	2482
267.509	3893
267.570	3459
267.631	2507
267.692	1867
267.753	3316
267.814	2030
267.875	2886
267.936	3367
267.997	4504
268.058	4868
268.119	3590
268.180	2339
268.241	2353
268.302	2458
268.363	3026
268.424	2315
268.485	2809
268.546	2037
268.607	2375
268.668	2056
268.729	1829
268.790	2536
268.851	2981
268.912	2894
268.972	2461
269.033	2740
269.094	1745
269.155	2651
269.216	2873
269.277	2205
269.338	2090
269.398	3242
269.459	2485
269.520	3785
269.581	2965
269.642	3618
269.702	2187
269.763	3530
269.824	3253
269.885	2669
269.945	2568
270.006	2715
270.067	2602
270.128	2781
270.188	2987
270.249	2037
270.310	1933
270.370	3373
270.431	3719
270.492	2104
270.553	2281
270.613	1960
270.674	2737
270.734	2515
270.795	2764
270.856	2857
270.916	1507
270.977	1731
271.038	3488
271.098	1903
271.159	1793
271.219	1554
271.280	2260
271.340	2990
271.401	1981
271.462	3437
271.522	3280
271.583	3015
271.643	1894
271.704	2820
271.764	2148
271.825	4185
271.885	10382
271.946	16055
272.006	5313
272.066	6314
272.127	11418
272.187	4564
272.248	3478
272.308	3603
272.369	6001
272.429	3818
272.489	3094
272.550	2926
272.610	3607
272.671	2251
272.731	2585
272.791	3305
272.852	1830
272.912	3210
272.972	1621
273.033	2314
273.093	1411
273.153	2821
273.214	2334
273.274	2467
273.334	3640
273.394	5138
273.455	2623
273.515	2731
273.575	3454
273.635	2937
273.696	3585
273.756	6278
273.816	2981
273.876	3111
273.936	5667
273.997	9117
274.057	2869
274.117	1458
274.177	2859
274.237	6347
274.297	6796
274.358	5146
274.418	3919
274.478	2998
274.538	2814
274.598	1906
274.658	7317
274.718	8896
274.778	3556
274.838	2695
274.898	4902
274.958	13146
275.018	8494
275.078	4818
275.138	3124
275.198	2260
275.258	1663
275.318	2152
275.378	2344
275.438	1969
275.498	2488
275.558	6736
275.618	11442
275.678	4891
275.738	3518
275.798	2402
275.858	2490
275.918	2205
275.978	1877
276.038	2140
276.098	1842
276.157	1742
276.217	2804
276.277	2376
276.337	2557
276.397	2010
276.457	1768
276.517	2078
276.576	1643
276.636	1448
276.696	1688
276.756	2130
276.815	2582
276.875	2188
276.935	2625
276.995	1951
277.055	2050
277.114	1482
277.174	1449
277.234	1739
277.293	1859
277.353	1504
277.413	2365
277.472	1407
277.532	1398
277.592	2288
277.651	2373
277.711	3324
277.771	2682
277.830	4159
277.890	3925
277.950	3422
278.009	10486
278.069	4667
278.128	4506
278.188	4994
278.248	2943
278.307	4215
278.367	3794
278.426	2797
278.486	2480
278.545	1955
278.605	2783
278.664	2001
278.724	2668
278.783	3270
278.843	6372
278.902	3601
278.962	1868
279.021	2590
279.081	6018
279.140	6048
279.199	3983
279.259	4670
279.318	6225
279.378	7962
279.437	13830
279.496	41038
279.556	208752
279.615	168129
279.675	32918
279.734	17390
279.793	18165
279.853	24395
279.912	10320
279.971	6839
280.031	5791
280.090	7337
280.149	13899
280.208	19857
280.268	116694
280.327	125434
280.386	22481
280.445	10970
280.505	8463
280.564	6688
280.623	5241
280.682	4783
280.742	4092
280.801	2943
280.860	2346
280.919	2445
280.978	2680
281.037	2108
281.097	2122
281.156	2445
281.215	2012
281.274	2698
281.333	3626
281.392	2811
281.451	2146
281.510	1986
281.569	2167
281.628	3209
281.688	3360
281.747	3052
281.806	1733
281.865	1935
281.924	1395
281.983	2290
282.042	1278
282.101	1714
282.160	1967
282.219	1887
282.278	2173
282.337	2098
282.396	1581
282.454	1481
282.513	1662
282.572	1820
282.631	2521
282.690	1687
282.749	1996
282.808	2790
282.867	1488
282.926	1317
282.985	1382
283.043	1773
283.102	1012
283.161	973
283.220	2437
283.279	2955
283.338	1735
283.396	1741
283.455	1477
283.514	1751
283.573	1925
283.631	1989
283.690	1652
283.749	1966
283.808	1944
283.866	2133
283.925	1374
283.984	2533
284.043	1992
284.101	1427
284.160	1503
284.219	2677
284.277	2572
284.336	2057
284.395	3429
284.453	3033
284.512	1998
284.570	2529
284.629	2446
284.688	2390
284.746	2104
284.805	2800
284.863	3114
284.922	2240
284.981	3329
285.039	5173
285.098	8575
285.156	25065
285.215	127780
285.273	127699
285.332	39137
285.390	16961
285.449	10784
285.507	7743
285.566	6843
285.624	4670
285.683	4324
285.741	4043
285.799	3809
285.858	3598
285.916	2769
285.975	2044
286.033	2797
286.091	2952
286.150	2324
286.208	2548
286.267	3595
286.325	2415
286.383	2707
286.442	3744
286.500	3157
286.558	3142
286.616	2978
286.675	3243
286.733	2751
286.791	2918
286.850	3738
286.908	3214
286.966	3357
287.024	3742
287.083	3807
287.141	3710
287.199	4762
287.257	4781
287.315	5695
287.374	5915
287.432	6130
287.490	6467
287.548	6145
287.606	6203
287.664	7675
287.723	8457
287.781	10838
287.839	11881
287.897	17620
287.955	28826
288.013	56813
288.071	139242
288.129	463397
288.187	1093955
288.245	578989
288.303	201284
288.361	109351
288.419	73651
288.477	50922
288.535	38866
288.593	27375
288.651	19197
288.709	14425
288.767	11930
288.825	9212
288.883	7835
288.941	7326
288.999	6458
289.057	5943
289.115	5758
289.173	5291
289.231	4740
289.289	4306
289.346	4904
289.404	5001
289.462	4384
289.520	4171
289.578	3297
289.636	4438
289.694	3996
289.751	3290
289.809	4035
289.867	3182
289.925	4261
289.983	3659
290.040	4021
290.098	3227
290.156	2686
290.214	2832
290.271	2410
290.329	3208
290.387	1902
290.444	2585
290.502	1709
290.560	2688
290.617	2471
290.675	1289
290.733	1054
290.790	1573
290.848	1996
290.906	2048
290.963	1741
291.021	1667
291.078	1949
291.136	1064
291.194	1893
291.251	2216
291.309	1009
291.366	1380
291.424	1095
291.481	1303
291.539	779
291.596	1362
291.654	916
291.711	775
291.769	1755
291.826	1060
291.884	922
291.941	114
291.999	846
292.056	698
292.114	747
292.171	-112
292.228	1534
292.286	1359
292.343	201
292.401	1215
292.458	606
292.515	913
292.573	743
292.630	1565
292.687	1545
292.745	782
292.802	1201
292.859	2519
292.917	3065
292.974	1464
293.031	875
293.089	844
293.146	1447
293.203	1033
293.260	646
293.318	1158
293.375	1271
293.432	212
293.489	564
293.546	1416
293.604	1357
293.661	2923
293.718	6567
293.775	2104
293.832	1498
293.889	1689
293.947	1436
294.004	1897
294.061	626
294.118	1966
294.175	659
294.232	1261
294.289	320
294.346	1669
294.403	2511
294.460	1004
294.517	852
294.574	767
294.631	336
294.688	910
294.745	1992
294.802	5559
294.859	3425
294.916	2273
294.973	2095
295.030	1233
295.087	835
295.144	1340
295.201	1106
295.258	1025
295.315	941
295.372	1964
295.429	3258
295.486	1981
295.542	68
295.599	1468
295.656	1646
295.713	1804
295.770	2471
295.827	1150
295.883	1788
295.940	1436
295.997	1109
296.054	1361
296.111	775
296.167	1509
296.224	892
296.281	446
296.338	838
296.394	1051
296.451	737
296.508	1814
296.564	2399
296.621	2572
296.678	6519
296.734	10160
296.791	3424
296.848	2310
296.904	1455
296.961	2570
297.018	5923
297.074	7854
297.131	2760
297.187	2431
297.244	2739
297.301	4773
297.357	8631
297.414	3166
297.470	2159
297.527	1001
297.583	1207
297.640	1679
297.696	1297
297.753	774
297.809	716
297.866	393
297.922	1089
297.979	461
298.035	500
298.092	1755
298.148	1831
298.204	2772
298.261	1663
298.317	3409
298.374	7466
298.430	4610
298.486	2021
298.543	2551
298.599	4060
298.656	9009
298.712	23670
298.768	98344
298.824	93513
298.881	24408
298.937	10354
298.993	6911
299.050	5999
299.106	4870
299.162	3297
299.218	3233
299.275	1491
299.331	1912
299.387	3216
299.443	6578
299.500	9078
299.556	4982
299.612	3130
299.668	1763
299.724	3810
299.780	5409
299.837	2160
299.893	1608
299.949	4285
300.005	5946
300.061	5410
300.117	9972
300.173	4732
300.229	1620
300.285	2141
300.341	1654
300.397	1452
300.453	964
300.510	935
300.566	1155
300.622	2215
300.678	8595
300.734	12334
300.790	5954
300.845	6162
300.901	5089
300.957	6224
301.013	3135
301.069	1797
301.125	1162
301.181	684
301.237	1700
301.293	-74
301.349	957
301.405	886
301.461	710
301.516	319
301.572	152
301.628	582
301.684	635
301.740	1227
301.796	737
301.851	1247
301.907	2542
301.963	3275
302.019	8779
302.074	26225
302.130	25849
302.186	9478
302.242	3043
302.297	2384
302.353	2188
302.409	2655
302.464	1975
302.520	1526
302.576	3505
302.631	4338
302.687	1862
302.743	1448
302.798	1284
302.854	1330
302.910	1764
302.965	1271
303.021	2231
303.076	1646
303.132	2003
303.187	1878
303.243	1718
303.299	1509
303.354	946
303.410	2431
303.465	2056
303.521	1185
303.576	702
303.632	1436
303.687	1739
303.743	3998
303.798	5236
303.853	1611
303.909	1528
303.964	915
304.020	1330
304.075	1352
304.130	1370
304.186	2025
304.241	2825
304.297	2024
304.352	1680
304.358	1607
304.407	1013
304.449	2082
304.463	2445
304.518	2291
304.539	1899
304.573	1256
304.629	1430
304.630	1430
304.684	1476
304.720	3361
304.739	4311
304.794	6202
304.811	5333
304.850	3259
304.902	2739
304.905	2711
304.960	2650
304.992	4795
305.015	6303
305.071	5121
305.083	4532
305.126	2410
305.173	1503
305.181	1365
305.236	1656
305.264	1710
305.292	1761
305.347	1623
305.354	1699
305.402	2303
305.445	4365
305.457	4899
305.512	5795
305.535	4727
305.567	3339
305.622	3172
305.626	3332
305.678	6402
305.716	12056
305.733	14098
305.788	9949
305.807	8431
305.843	5958
305.897	6414
305.898	6416
305.953	7166
305.988	5550
306.008	4628
306.063	2922
306.078	2735
306.118	2272
306.168	1349
306.173	1285
306.228	2313
306.259	2341
306.283	2327
306.338	2715
306.349	2829
306.393	3368
306.440	5253
306.448	5561
306.503	5425
306.530	4759
306.558	4340
306.613	6542
306.620	6689
306.668	6709
306.711	5026
306.723	4643
306.778	3548
306.801	3513
306.833	3508
306.888	2490
306.892	2503
306.943	2781
306.982	3146
306.997	3236
307.052	2196
307.072	2175
307.107	2226
307.162	2502
307.163	2501
307.217	2774
307.253	3095
307.272	3087
307.327	3093
307.343	3146
307.381	3401
307.434	3439
307.436	3456
307.491	3828
307.524	4190
307.546	4287
307.600	4833
307.614	4843
307.655	4823
307.704	4411
307.710	4432
307.765	5322
307.795	5755
307.819	6103
307.874	7434
307.885	7739
307.929	10015
307.975	14325
307.984	16268
308.038	32068
308.065	44833
308.093	85467
308.148	183962
308.156	208040
308.202	296613
308.246	344201
308.257	339223
308.312	166158
308.336	104098
308.366	65313
308.421	33244
308.426	31538
308.475	22705
308.517	18626
308.530	17522
308.585	14834
308.607	13558
308.639	11901
308.694	10684
308.697	10664
308.748	10459
308.787	10517
308.803	10453
308.857	10361
308.877	10790
308.912	12312
308.967	14239
308.967	14307
309.021	23147
309.058	30858
309.076	44065
309.130	92648
309.148	112960
309.185	235344
309.238	456425
309.239	456754
309.293	466838
309.328	376455
309.348	318247
309.402	132721
309.418	92802
309.457	57934
309.508	32968
309.511	31880
309.566	24022
309.598	20251
309.620	18282
309.674	14593
309.688	13915
309.729	11846
309.778	9276
309.783	9008
309.837	7316
309.868	6740
309.892	6451
309.946	6119
309.959	6138
310.001	6039
310.049	5806
310.055	5718
310.109	4869
310.139	4539
310.163	4150
310.218	3321
310.229	3206
310.272	3308
310.319	3372
310.326	3334
310.381	3293
310.409	3179
310.435	2909
310.489	2309
310.499	2241
310.543	2579
310.589	2964
310.598	2911
310.652	2557
310.679	2375
310.706	2313
310.760	2168
310.769	2147
310.814	2378
310.859	2603
310.868	2545
310.923	2239
310.948	2111
310.977	2075
311.031	2031
311.038	2024
311.085	2032
311.128	2068
311.139	2129
311.193	2348
311.218	2473
311.247	2535
311.301	2713
311.308	2704
311.356	2124
311.398	1774
311.410	1805
311.464	1958
311.488	1969
311.518	1919
311.572	1951
311.578	1944
311.626	2300
311.668	2671
311.680	2701
311.734	2774
311.758	2819
311.788	2829
311.842	2814
311.847	2814
311.896	2381
311.937	1942
311.950	1981
312.004	2199
312.027	2285
312.058	1958
312.112	1385
312.117	1331
312.165	1725
312.207	2071
312.297	2294
312.386	1772
312.476	2320
312.566	2312
312.656	2461
312.745	2397
312.835	1917
312.925	2083
313.015	3180
313.104	2060
313.194	2867
313.284	2726
313.374	2087
313.463	2379
313.553	1721
313.643	2508
313.732	1543
313.822	1752
313.912	2133
314.001	2194
314.091	2108
314.180	1810
314.270	2138
314.360	2262
314.449	1674
314.539	2824
314.628	2370
314.718	2167
314.808	2104
314.897	2284
314.987	1848
315.076	2815
315.166	2285
315.255	2610
315.345	2868
315.434	2584
315.524	2300
315.613	3449
315.703	6299
315.792	22931
315.881	72228
315.971	19597
316.060	5535
316.150	3849
316.239	2149
316.328	1760
316.418	2811
316.507	1834
316.597	2389
316.686	2769
316.775	2407
316.865	3650
316.954	2224
317.043	2717
317.133	2420
317.222	1984
317.311	2002
317.400	1651
317.490	4049
317.579	4107
317.668	6212
317.757	11719
317.847	46130
317.936	128786
318.025	31439
318.114	20007
318.203	7575
318.293	3497
318.382	1865
318.471	2003
318.560	2446
318.649	2184
318.738	1404
318.828	1605
318.917	1458
319.006	1998
319.095	1853
319.184	2332
319.273	2758
319.362	1617
319.451	1316
319.540	1727
319.629	1834
319.718	1902
319.807	1976
319.896	2006
319.985	3085
320.074	2033
320.163	1824
320.252	1476
320.341	2017
320.430	1176
320.519	1566
320.608	1617
320.697	1676
320.786	1701
320.875	2423
320.964	2532
321.053	2623
321.142	2690
321.230	2493
321.319	3210
321.408	3157
321.497	2169
321.586	2782
321.675	2338
321.764	2198
321.852	1960
321.941	1698
322.030	853
322.119	2825
322.207	3135
322.296	3297
322.385	2628
322.474	3191
322.562	3922
322.651	2697
322.740	2289
322.829	2673
322.917	2764
323.006	2661
323.095	2019
323.183	1684
323.272	2337
323.361	2104
323.449	5646
323.538	2365
323.626	3345
323.715	2546
323.804	2120
323.892	3419
323.981	2563
324.069	1738
324.158	3701
324.246	2133
324.335	1887
324.424	1547
324.512	1569
324.601	1452
324.689	3964
324.778	5098
324.866	1965
324.954	1463
325.043	1334
325.131	1065
325.220	3674
325.308	1752
325.397	1532
325.485	1215
325.574	1851
325.662	1193
325.750	737
325.839	1859
325.927	1381
326.015	841
326.104	1490
326.192	1867
326.280	1011
326.369	541
326.457	1222
326.545	1440
326.634	1061
326.722	1302
326.810	1051
326.898	2008
326.987	1556
327.075	463
327.163	2175
327.251	1797
327.340	2707
327.428	3084
327.516	1419
327.604	1224
327.692	1326
327.781	1481
327.869	1558
327.957	1325
328.045	1501
328.133	1561
328.221	1344
328.309	1148
328.397	1417
328.485	1258
328.574	1934
328.662	2749
328.750	1549
328.838	1438
328.926	1528
329.014	1015
329.102	1483
329.190	1332
329.278	2402
329.366	1614
329.454	1502
329.542	1288
329.630	1366
329.718	1903
329.806	1872
329.893	3264
329.981	3748
330.069	12030
330.157	56805
330.245	122606
330.333	50624
330.421	6499
330.509	2494
330.597	2387
330.684	2059
330.772	1815
330.860	1849
330.948	1379
331.036	1409
331.123	543
331.211	1797
331.299	716
331.387	1060
331.475	541
331.562	1406
331.650	1240
331.738	830
331.825	907
331.913	975
332.001	1491
332.089	983
332.176	1041
332.264	2366
332.352	1817
332.439	510
332.527	946
332.614	654
332.702	1174
332.790	1260
332.877	1549
332.965	2672
333.052	1203
333.140	1232
333.228	1024
333.315	291
333.403	573
333.490	1484
333.578	487
333.665	2563
333.753	1470
333.840	355
333.928	842
334.015	1564
334.103	1681
334.190	3553
334.278	1705
334.365	1855
334.452	3099
334.540	1581
334.627	1081
334.715	1844
334.802	4064
334.889	9062
334.977	8670
335.064	3905
335.151	923
335.239	1312
335.326	1598
335.413	1756
335.501	2267
335.588	1770
335.675	1749
335.762	1636
335.850	2208
335.937	3462
336.024	6381
336.111	12001
336.199	6754
336.286	3496
336.373	1581
336.460	1310
336.547	1199
336.635	1381
336.722	1160
336.809	793
336.896	1279
336.983	1903
337.070	2764
337.157	2712
337.245	3982
337.332	2587
337.419	804
337.506	1200
337.593	722
337.680	1211
337.767	1775
337.854	779
337.941	1020
338.028	2239
338.115	283
338.202	1361
338.289	1577
338.376	3382
338.463	1770
338.550	902
338.637	599
338.724	1162
338.811	1023
338.898	1119
338.984	826
339.071	513
339.158	1132
339.245	881
339.332	1199
339.419	536
339.506	630
339.593	11
339.679	1064
339.766	681
339.853	726
339.940	1280
340.027	1185
340.113	835
340.200	843
340.287	859
340.374	74
340.460	589
340.547	-182
340.634	1422
340.720	2162
340.807	456
340.894	1145
340.980	1610
341.067	520
341.154	1417
341.240	759
341.327	1032
341.414	958
341.500	178
341.587	1191
341.674	1285
341.760	692
341.847	374
341.933	69
342.020	585
342.106	644
342.193	1616
342.279	360
342.366	492
342.452	-102
342.539	746
342.625	1206
342.712	2236
342.798	1572
342.885	422
342.971	585
343.058	1244
343.144	-210
343.230	1006
343.317	234
343.403	319
343.490	592
343.576	391
343.662	871
343.749	805
343.835	823
343.921	2231
344.008	11219
344.094	12103
344.180	3050
344.267	630
344.353	1829
344.439	1746
344.525	1145
344.612	1250
344.698	829
344.784	420
344.870	792
344.957	308
345.043	1055
345.129	709
345.215	1103
345.301	41
345.387	541
345.474	-145
345.560	491
345.646	677
345.732	707
345.818	-218
345.904	105
345.990	400
346.076	772
346.162	493
346.249	1365
346.335	762
346.421	2240
346.507	2853
346.593	3018
346.679	1231
346.765	1601
346.851	779
346.937	64
347.023	1695
347.108	1048
347.194	1116
347.280	543
347.366	1018
347.452	3729
347.538	4416
347.624	3559
347.710	2225
347.796	515
347.882	1083
347.967	971
348.053	240
348.139	-154
348.225	430
348.311	662
348.397	322
348.482	933
348.568	1163
348.654	437
348.740	2167
348.825	828
348.911	1706
348.997	3112
349.083	3950
349.168	709
349.254	752
349.340	848
349.425	603
349.511	58
349.597	338
349.682	652
349.768	2460
349.854	653
349.939	961
350.025	438
350.110	1039
350.196	909
350.282	324
350.367	1498
350.453	823
350.538	822
350.624	294
350.709	630
350.795	235
350.880	-76
350.966	1038
351.051	874
351.137	740
351.222	1095
351.308	976
351.393	1125
351.479	786
351.564	214
351.649	624
351.735	764
351.820	461
351.906	385
351.991	506
352.076	917
352.162	1762
352.247	610
352.332	438
352.418	429
352.503	1090
352.588	2842
352.673	1097
352.759	975
352.844	976
352.929	512
353.014	1196
353.100	1240
353.185	1274
353.270	744
353.355	1805
353.441	211
353.526	1411
353.611	1019
353.696	605
353.781	1106
353.866	98
353.952	1355
354.037	613
354.122	1663
354.207	1215
354.292	366
354.377	706
354.462	799
354.547	-82
354.632	1586
354.717	1594
354.802	304
354.887	1059
354.972	783
355.057	948
355.142	215
355.227	1197
355.312	328
355.397	451
355.482	1611
355.567	588
355.652	2002
355.737	1239
355.822	2155
355.907	1033
355.991	1844
356.076	516
356.161	1114
356.246	433
356.331	339
356.416	1190
356.501	7391
356.585	3139
356.670	203
356.755	1827
356.840	1606
356.924	7362
357.009	15383
357.094	4414
357.179	475
357.263	798
357.348	2207
357.433	1022
357.517	1026
357.602	474
357.687	1034
357.771	1927
357.856	1366
357.941	2693
358.025	9130
358.110	28187
358.195	8370
358.279	782
358.364	779
358.448	2952
358.533	3370
358.617	2556
358.702	2936
358.787	1599
358.871	559
358.956	994
359.040	346
359.125	247
359.209	744
359.294	883
359.378	1075
359.462	749
359.547	1277
359.631	-373
359.716	-531
359.800	-81
359.885	1014
359.969	-543
360.053	1288
360.138	672
360.222	319
360.306	352
360.391	427
360.475	533
360.559	821
360.644	1337
360.728	256
360.812	4746
360.896	7546
360.981	1986
361.065	137
361.149	903
361.233	335
361.318	-459
361.402	111
361.486	1394
361.570	493
361.654	626
361.739	638
361.823	5754
361.907	7872
361.991	548
362.075	1035
362.159	1018
362.243	2486
362.327	3592
362.411	7720
362.495	1716
362.580	1106
362.664	907
362.748	700
362.832	1548
362.916	3154
363.000	14871
363.084	23208
363.168	11596
363.252	2555
363.336	1261
363.420	687
363.503	1847
363.587	1157
363.671	1203
363.755	297
363.839	2338
363.923	-490
364.007	104
364.091	1787
364.175	1305
364.258	7233
364.342	14398
364.426	29947
364.510	11421
364.594	3013
364.677	3430
364.761	6914
364.845	3933
364.929	983
365.013	1092
365.096	1329
365.180	449
365.264	1126
365.347	3546
365.431	619
365.515	-1262
365.598	-119
365.682	1935
365.766	-212
365.849	-95
365.933	-178
366.017	1909
366.100	104
366.184	-109
366.267	1297
366.351	192
366.435	-78
366.518	-289
366.602	-174
366.685	894
366.769	100
366.852	294
366.936	813
367.019	290
367.103	-629
367.186	1105
367.270	143
367.353	-58
367.436	1032
367.520	106
367.603	93
367.687	-420
367.770	476
367.853	1307
367.937	2640
368.020	1377
368.104	-629
368.187	1152
368.270	414
368.353	1136
368.437	1139
368.520	2434
368.603	1020
368.687	770
368.770	1880
368.853	528
368.936	164
369.020	688
369.103	244
369.186	-469
369.269	-196
369.352	1031
369.436	-250
369.519	658
369.602	-1179
369.685	702
369.768	-569
369.851	209
369.934	-287
370.018	-358
370.101	-306
370.184	2497
370.267	1018
370.350	1342
370.433	1433
370.516	9893
370.599	23103
370.682	6554
370.765	3257
370.848	2424
370.931	2207
371.014	2145
371.097	-49
371.180	1521
371.263	810
371.346	-882
371.429	-75
371.511	172
371.594	-304
371.677	772
371.760	750
371.843	1661
371.926	14732
372.009	22532
372.091	6205
372.174	1582
372.257	3883
372.340	519
372.423	166
372.505	1859
372.588	207
372.671	2677
372.754	2082
372.836	1010
372.919	426
373.002	1344
373.085	-290
373.167	1215
373.250	1525
373.332	4980
373.415	16445
373.498	26309
373.580	15795
373.663	49475
373.746	37637
373.828	4732
373.911	2355
373.993	750
374.076	1612
374.159	1762
374.241	1181
374.324	2536
374.406	2957
374.489	7353
374.571	13398
374.654	2139
374.736	3034
374.819	8274
374.901	16489
374.983	13137
375.066	1938
375.148	1082
375.231	835
375.313	1854
375.395	190
375.478	532
375.560	1449
375.643	661
375.725	4439
375.807	10331
375.890	6835
375.972	1217
376.054	1232
376.136	1840
376.219	630
376.301	3840
376.383	5497
376.465	2086
376.548	544
376.630	2234
376.712	4293
376.794	1333
376.877	489
376.959	-63
377.041	787
377.123	560
377.205	-277
377.287	-611
377.369	-2
377.452	663
377.534	574
377.616	-4
377.698	-511
377.780	-336
377.862	414
377.944	1263
378.026	-284
378.108	542
378.190	438
378.272	1524
378.354	643
378.436	-45
378.518	-740
378.600	-503
378.682	664
378.764	1466
378.846	1487
378.928	251
379.010	-265
379.091	1148
379.173	905
379.255	-112
379.337	-118
379.419	1102
379.501	2859
379.583	146
379.664	21
379.746	-94
379.828	2203
379.910	1772
379.991	2100
380.073	124
380.155	442
380.237	303
380.318	927
380.400	-592
380.482	866
380.564	156
380.645	517
380.727	937
380.809	1164
380.890	157
380.972	-543
381.053	591
381.135	1301
381.217	525
381.298	2446
381.380	288
381.461	1556
381.543	6759
381.624	5670
381.706	1159
381.787	507
381.869	1133
381.951	7057
382.032	17035
382.113	9776
382.195	358
382.276	1996
382.358	1721
382.439	4798
382.521	9121
382.602	11669
382.684	4652
382.765	5679
382.846	3955
382.928	6339
383.009	2748
383.090	3014
383.172	12191
383.253	12988
383.334	6007
383.416	7963
383.497	3189
383.578	1321
383.659	3275
383.741	11865
383.822	24872
383.903	8112
383.984	4673
384.066	8504
384.147	3407
384.228	1329
384.309	931
384.390	849
384.471	1170
384.553	675
384.634	1244
384.715	1540
384.796	851
384.877	1166
384.958	2820
385.039	945
385.120	171
385.201	1669
385.282	1441
385.363	2833
385.444	2224
385.525	4845
385.606	10375
385.687	5324
385.768	1854
385.849	2285
385.930	12381
386.011	15259
386.092	3309
386.173	3187
386.254	3987
386.335	3557
386.416	1915
386.496	2399
386.577	2358
386.658	11
386.739	834
386.820	1853
386.901	-61
386.981	1832
387.062	2306
387.143	1341
387.224	2189
387.304	3057
387.385	3104
387.466	251
387.547	2087
387.627	1069
387.708	2841
387.789	4340
387.869	2134
387.950	2371
388.031	1136
388.111	-301
388.192	2090
388.273	2715
388.353	1507
388.434	1727
388.514	2531
388.595	6496
388.676	4708
388.756	1953
388.837	2569
388.917	1359
388.998	-355
389.078	1532
389.159	2239
389.239	-19
389.320	2254
389.400	-10
389.480	2662
389.561	2246
389.641	2115
389.722	1381
389.802	746
389.883	2560
389.963	5449
390.043	2316
390.124	526
390.204	2796
390.284	5874
390.365	11466
390.445	90561
390.525	353375
390.605	241413
390.686	27778
390.766	7078
390.846	4338
390.927	1996
391.007	1535
391.087	3708
391.167	2348
391.247	1607
391.328	3085
391.408	3121
391.488	2982
391.568	946
391.648	1494
391.728	2720
391.808	3733
391.888	1728
391.969	3656
392.049	3274
392.129	4667
392.209	4337
392.289	6088
392.369	4677
392.449	4562
392.529	4761
392.609	6288
392.689	6676
392.769	8712
392.849	9512
392.929	12719
393.009	17252
393.089	27014
393.169	69065
393.248	355992
393.328	1262893
393.408	1026106
393.488	179734
393.568	41434
393.648	20964
393.728	13945
393.807	10095
393.887	10768
393.967	10671
394.047	11125
394.127	14300
394.206	34132
394.286	207283
394.366	713886
394.446	524258
394.525	84044
394.605	20632
394.685	12340
394.764	9272
394.844	8803
394.924	6850
395.003	5823
395.083	5863
395.163	5650
395.242	5792
395.322	6006
395.402	5668
395.481	7554
395.561	7209
395.640	11781
395.720	15090
395.799	14247
395.879	21580
395.958	52258
396.038	288858
396.117	927181
396.197	713234
396.276	132498
396.356	34238
396.435	20395
396.515	19168
396.594	23900
396.673	70558
396.753	402536
396.832	1060038
396.912	501175
396.991	67077
397.070	21548
397.150	10026
397.229	9133
397.308	11335
397.388	12054
397.467	6766
397.546	5065
397.625	2133
397.705	5031
397.784	3449
397.863	1958
397.942	2030
398.022	2223
398.101	1281
398.180	2594
398.259	1064
398.338	1791
398.417	1423
398.497	1033
398.576	2182
398.655	116
398.734	997
398.813	959
398.892	1661
398.971	1507
399.050	573
399.129	-351
399.208	1123
399.287	1329
399.366	259
399.445	384
399.524	1120
399.603	-622
399.682	859
399.761	999
399.840	2325
399.919	1877
399.998	1083
400.077	-207
400.156	-507
400.235	2202
400.313	-589
400.392	-46
400.471	1590
400.550	934
400.629	-905
400.708	861
400.786	-356
400.865	-67
400.944	124
401.023	1373
401.102	204
401.180	972
401.259	-199
401.338	-204
401.416	93
401.495	28
401.574	935
401.652	-193
401.731	1380
401.810	-497
401.888	140
401.967	-606
402.046	334
402.124	850
402.203	-786
402.281	594
402.360	-437
402.438	714
402.517	-794
402.596	203
402.674	-121
402.753	-108
402.831	523
402.910	1009
402.988	1390
403.066	3669
403.145	2395
403.223	3164
403.302	3579
403.380	2379
403.459	1558
403.537	749
403.615	619
403.694	-793
403.772	559
403.850	-169
403.929	366
404.007	-331
404.085	1419
404.164	-659
404.242	552
404.320	3457
404.398	7343
404.477	5501
404.555	9312
404.633	6347
404.711	4190
404.789	1407
404.868	-76
404.946	-247
405.024	26
405.102	469
405.180	-474
405.258	-1351
405.336	308
405.415	-772
405.493	216
405.571	545
405.649	-829
405.727	-1495
405.805	1766
405.883	438
405.961	939
406.039	-375
406.117	-1296
406.195	944
406.273	545
406.351	5345
406.429	2713
406.507	-946
406.585	-751
406.663	-54
406.740	195
406.818	-336
406.896	-99
406.974	730
407.052	-725
407.130	3049
407.208	2529
407.285	712
407.363	-659
407.441	26
407.519	401
407.596	3870
407.674	38002
407.752	111306
407.830	51738
407.907	4786
407.985	252
408.063	204
408.141	391
408.218	802
408.296	-540
408.373	-286
408.451	983
408.529	-226
408.606	-963
408.684	426
408.762	-141
408.839	-341
408.917	-107
408.994	734
409.072	-860
409.149	-308
409.227	1683
409.304	1196
409.382	1288
409.459	1956
409.537	3006
409.614	1351
409.692	1144
409.769	1185
409.846	3033
409.924	3693
410.001	-10
410.079	688
410.156	1029
410.233	2827
410.311	3989
410.388	1088
410.465	957
410.543	-435
410.620	897
410.697	220
410.775	-275
410.852	-548
410.929	955
411.006	1461
411.083	-106
411.161	-352
411.238	658
411.315	-254
411.392	140
411.469	666
411.547	126
411.624	-950
411.701	411
411.778	1290
411.855	-46
411.932	-678
412.009	-585
412.086	486
412.163	-270
412.240	-267
412.317	711
412.394	-308
412.471	-322
412.548	830
412.625	473
412.702	581
412.779	1426
412.856	732
412.933	-85
413.010	1169
413.087	2654
413.164	689
413.241	1690
413.318	-625
413.395	205
413.471	-891
413.548	166
413.625	1210
413.702	-1105
413.779	-497
413.855	-140
413.932	-791
414.009	-1489
414.086	579
414.162	221
414.239	-168
414.316	663
414.393	1812
414.469	-150
414.546	-548
414.623	-672
414.699	-376
414.776	-244
414.853	65
414.929	211
415.006	-694
415.082	900
415.159	288
415.236	319
415.312	208
415.389	624
415.465	-430
415.542	-386
415.618	-389
415.695	950
415.771	-304
415.848	-206
415.924	-22
416.000	-342
416.077	450
416.153	-480
416.230	-862
416.306	-852
416.383	-873
416.459	-98
416.535	-692
416.612	-783
416.688	-239
416.764	109
416.841	-1328
416.917	-129
416.993	701
417.069	172
417.146	274
417.222	1330
417.298	-688
417.374	-446
417.451	429
417.527	-495
417.603	-925
417.679	214
417.755	-823
417.831	-476
417.908	-91
417.984	-828
418.060	-824
418.136	208
418.212	439
418.288	-140
418.364	-600
418.440	-1071
418.516	-480
418.592	16
418.668	-507
418.744	296
418.820	38
418.896	-777
418.972	-993
419.048	-316
419.124	498
419.200	-1635
419.276	-444
419.352	-693
419.428	371
419.504	-293
419.579	-644
419.655	-443
419.731	-197
419.807	-57
419.883	-708
419.959	224
420.034	-11
420.110	46
420.186	409
420.262	1756
420.337	-783
420.413	-242
420.489	143
420.565	972
420.640	404
420.716	734
420.792	-1158
420.867	948
420.943	-709
421.019	343
421.094	17
421.170	75
421.245	266
421.321	756
421.397	3189
421.472	25757
421.548	57632
421.623	19289
421.699	2135
421.774	1230
421.850	1278
421.925	1439
422.001	1430
422.076	1985
422.152	1770
422.227	3535
422.302	5125
422.378	7523
422.453	16257
422.529	64388
422.604	288900
422.679	468483
422.755	171640
422.830	34890
422.905	12286
422.981	6689
423.056	4333
423.131	3527
423.207	2643
423.282	1084
423.357	1859
423.432	998
423.508	994
423.583	278
423.658	373
423.733	-167
423.808	-92
423.883	439
423.959	51
424.034	1581
424.109	1051
424.184	-145
424.259	-402
424.334	298
424.409	-331
424.484	164
424.559	-410
424.634	455
424.709	-104
424.784	1253
424.859	637
424.934	-227
425.009	-305
425.084	1139
425.159	-1177
425.234	829
425.309	-824
425.384	-279
425.459	-305
425.534	152
425.609	-1049
425.683	-1071
425.758	195
425.833	142
425.908	-80
425.983	-311
426.058	845
426.132	300
426.207	-941
426.282	268
426.357	-1085
426.431	-213
426.506	455
426.581	-467
426.655	-313
426.730	-232
426.805	-1047
426.879	-304
426.954	-176
427.029	-668
427.103	997
427.178	2492
427.253	133
427.327	310
427.402	-850
427.476	-523
427.551	-676
427.625	-618
427.700	-140
427.774	-666
427.849	-687
427.923	-1273
427.998	-670
428.072	-318
428.147	2558
428.221	18020
428.296	47503
428.370	17351
428.444	1413
428.519	-505
428.593	-613
428.667	251
428.742	632
428.816	5066
428.890	29236
428.965	32959
429.039	4941
429.113	68
429.188	-869
429.262	-360
429.336	-6
429.410	266
429.485	-586
429.559	-219
429.633	-325
429.707	437
429.781	3568
429.855	24114
429.930	25660
430.004	4503
430.078	2836
430.152	24866
430.226	101095
430.300	70894
430.374	7450
430.448	2059
430.522	458
430.596	1021
430.670	8460
430.744	36200
430.818	28979
430.892	3877
430.966	-23
431.040	393
431.114	-1053
431.188	-703
431.262	-936
431.336	-769
431.410	304
431.484	-761
431.557	-60
431.631	-503
431.705	1585
431.779	13882
431.853	44911
431.927	21742
432.000	1109
432.074	332
432.148	-307
432.222	-727
432.295	-40
432.369	-902
432.443	-615
432.516	1841
432.590	3044
432.664	766
432.737	-1123
432.811	-612
432.885	-574
432.958	-472
433.032	-1024
433.106	-777
433.179	-582
433.253	-397
433.326	-1229
433.400	-1384
433.473	-727
433.547	-607
433.620	-894
433.694	-1233
433.767	-818
433.841	-556
433.914	-1293
433.988	-1531
434.061	-219
434.134	-661
434.208	-823
434.281	-891
434.355	-1481
434.428	-444
434.501	-891
434.575	-777
434.648	-1217
434.721	-805
434.795	-1043
434.868	-917
434.941	-1193
435.014	-1178
435.088	-1161
435.161	-936
435.234	-979
435.307	-976
435.381	-582
435.454	-220
435.527	505
435.600	1163
435.673	-8
435.746	-408
435.819	-891
435.892	-1118
435.966	-577
436.039	-1587
436.112	-445
436.185	-1162
436.258	-1674
436.331	-1790
436.404	-1053
436.477	-712
436.550	-979
436.623	-427
436.696	-769
436.769	-507
436.842	-1582
436.915	-1487
436.987	-591
437.060	-1205
437.133	-1042
437.206	-1605
437.279	-1235
437.352	-771
437.425	-1179
437.498	-1442
437.570	-1136
437.643	-1350
437.716	-1182
437.789	-943
437.861	-1310
437.934	-1111
438.007	-1016
438.080	-1058
438.152	-622
438.225	-906
438.298	3092
438.370	5356
438.443	620
438.516	-658
438.588	-1069
438.661	-1451
438.734	-638
438.806	-338
438.879	-589
438.951	-951
439.024	-1561
439.096	-1987
439.169	-964
439.241	-381
439.314	-925
439.386	-1191
439.459	-331
439.531	-967
439.604	-582
439.676	-400
439.749	-844
439.821	-780
439.893	-185
439.966	-1072
440.038	-1133
440.110	-862
440.183	-1108
440.255	-1585
440.327	-85
440.400	-201
440.472	1831
440.544	245
440.617	-768
440.689	142
440.761	-1106
440.833	-1260
440.905	-1107
440.978	-517
441.050	-797
441.122	-398
441.194	-1302
441.266	-923
441.338	-2000
441.411	-1062
441.483	-332
441.555	-456
441.627	-614
441.699	-385
441.771	-1461
441.843	-1336
441.915	-1462
441.987	-725
442.059	-847
442.131	-1282
442.203	-142
442.275	-63
442.347	80
442.419	2648
442.491	20454
442.563	36283
442.635	8674
442.706	723
442.778	192
442.850	-480
442.922	-839
442.994	-1114
443.066	-1538
443.137	-348
443.209	-685
443.281	877
443.353	3590
443.425	29172
443.496	87864
443.568	62440
443.640	15992
443.711	1208
443.783	-88
443.855	-322
443.926	-663
443.998	-666
444.070	314
444.141	-747
444.213	-697
444.285	59
444.356	-702
444.428	-1060
444.499	-637
444.571	-948
444.642	-527
444.714	-603
444.785	-938
444.857	-455
444.928	-69
445.000	-367
445.071	-238
445.143	-130
445.214	319
445.285	1874
445.357	10303
445.428	72744
445.500	132334
445.571	59014
445.642	24449
445.714	4838
445.785	896
445.856	-585
445.928	-344
445.999	-59
446.070	-415
446.141	-1174
446.213	-1516
446.284	-832
446.355	-549
446.426	-484
446.497	-285
446.569	-559
446.640	-1530
446.711	-1387
446.782	-689
446.853	-1374
446.924	-1160
446.995	-1213
447.066	-1441
447.138	-667
447.209	-1110
447.280	-1244
447.351	-1527
447.422	-1494
447.493	-1049
447.564	-1467
447.635	-1237
447.706	-890
447.777	-1228
447.847	-1635
447.918	-1354
447.989	-1052
448.060	-912
448.131	-724
448.202	-1503
448.273	-432
448.344	-719
448.414	-1042
448.485	-1674
448.556	-894
448.627	-1380
448.698	-101
448.768	-1940
448.839	-893
448.910	-1181
448.981	-432
449.051	-402
449.122	-870
449.193	-430
449.263	-131
449.334	-608
449.405	336
449.475	-179
449.546	808
449.616	-242
449.687	-406
449.758	-554
449.828	-1250
449.899	-1444
449.969	-1363
450.040	-411
450.110	-427
450.181	-327
450.251	-591
450.322	-165
450.392	-1269
450.463	-1299
450.533	-930
450.604	-832
450.674	-793
450.744	-459
450.815	-1267
450.885	-1373
450.955	-994
451.026	-1029
451.096	-958
451.166	-1383
451.237	-1069
451.307	-339
451.377	-820
451.447	-1503
451.518	-417
451.588	-1412
451.658	-361
451.728	-839
451.799	-1210
451.869	-793
451.939	-804
452.009	-957
452.079	-551
452.149	-1214
452.219	-1200
452.289	-458
452.360	-393
452.430	-753
452.500	-745
452.570	-1007
452.640	1279
452.710	1676
452.780	1648
452.850	-96
452.920	-475
452.990	-1245
453.060	-896
453.129	-1447
453.199	-978
453.269	-853
453.339	-904
453.409	-965
453.479	-665
453.549	142
453.619	112
453.688	-977
453.758	-511
453.828	-422
453.898	-377
453.968	-1150
454.037	-707
454.087	-826
454.107	-886
454.168	-478
454.177	-435
454.247	-1058
454.249	-1032
454.316	-682
454.330	-853
454.386	-1609
454.411	-1469
454.456	-1290
454.492	-991
454.525	-751
454.574	-535
454.595	-431
454.655	-402
454.665	-426
454.734	-746
454.736	-740
454.804	-967
454.817	-780
454.873	-35
454.898	-247
454.943	-698
454.979	-804
455.013	-914
455.060	-882
455.082	-896
455.141	-682
455.152	-549
455.221	351
455.222	427
455.291	5516
455.303	8002
455.360	17100
455.384	23103
455.430	30117
455.465	19876
455.499	11114
455.546	3967
455.569	1097
455.627	-36
455.638	-273
455.707	-460
455.708	-445
455.777	-593
455.789	-602
455.846	-634
455.869	-434
455.916	-78
455.950	-101
455.985	-197
456.031	-945
456.054	-1316
456.112	-630
456.124	-485
456.193	-417
456.193	-430
456.262	151
456.274	140
456.332	-112
456.355	-140
456.401	-49
456.436	-255
456.470	-557
456.516	-252
456.540	-109
456.597	-755
456.609	-901
456.678	-259
456.678	-266
456.747	-474
456.759	-398
456.817	-81
456.840	-120
456.886	-295
456.920	-190
456.955	-45
457.001	33
457.024	19
457.082	-158
457.093	-210
457.162	-788
457.163	-777
457.232	36
457.243	85
457.301	51
457.324	-248
457.370	-639
457.405	-272
457.439	-76
457.485	-195
457.508	-194
457.566	-445
457.577	-479
457.646	1207
457.647	1217
457.715	2006
457.727	2306
457.784	4173
457.808	5602
457.853	7263
457.889	7978
457.922	7109
457.969	3773
457.991	3823
458.050	6161
458.060	6595
458.129	12783
458.130	12917
458.198	10461
458.211	9302
458.267	4607
458.292	2610
458.336	1254
458.372	1380
458.405	2697
458.453	5204
458.474	7117
458.533	12956
458.543	13286
458.611	20249
458.614	20295
458.680	9444
458.694	6934
458.749	2870
458.775	1870
458.818	1179
458.855	853
458.887	634
458.936	526
458.955	371
459.016	-128
459.024	-135
459.093	159
459.097	157
459.162	-71
459.177	58
459.230	482
459.257	524
459.299	769
459.338	687
459.368	346
459.418	661
459.437	878
459.499	945
459.505	933
459.574	1429
459.579	1417
459.643	709
459.659	486
459.711	226
459.740	254
459.780	198
459.820	380
459.849	595
459.900	554
459.917	556
459.981	1195
459.986	1226
460.054	1246
460.061	1256
460.123	1103
460.141	1087
460.191	1203
460.222	1361
460.260	1819
460.302	1994
460.328	1884
460.382	2055
460.397	2289
460.462	3289
460.465	3501
460.534	8694
460.543	9397
460.602	36390
460.623	46864
460.671	74190
460.703	99149
460.739	91444
460.783	68054
460.808	51975
460.864	7705
460.876	5156
460.944	2254
460.945	2220
461.013	1319
461.024	1304
461.081	1867
461.104	1918
461.150	1413
461.184	1073
461.218	1140
461.264	1153
461.286	899
461.345	749
461.355	894
461.423	1215
461.425	1231
461.491	701
461.505	684
461.559	1497
461.585	1658
461.628	1244
461.665	1007
461.696	1157
461.745	1276
461.764	1047
461.825	620
461.832	700
461.901	1036
461.905	1065
461.969	394
461.985	291
462.037	1519
462.065	2126
462.105	1516
462.145	1031
462.173	1210
462.225	1325
462.241	1332
462.305	1442
462.310	1451
462.378	1558
462.385	1580
462.446	1563
462.465	1400
462.514	1573
462.545	1952
462.582	1700
462.625	1198
462.650	1179
462.705	1264
462.718	1089
462.785	682
462.786	703
462.854	1033
462.865	1153
462.922	1086
462.945	1096
462.990	1200
463.025	1106
463.058	1133
463.104	1323
463.126	1340
463.184	1285
463.194	1295
463.262	1422
463.264	1425
463.330	1749
463.344	1868
463.398	1767
463.424	1506
463.466	1426
463.504	1428
463.533	1352
463.583	1390
463.601	1378
463.663	1197
463.669	1200
463.737	1089
463.743	1074
463.805	1483
463.823	1692
463.873	1482
463.903	1223
463.940	1277
463.982	1407
464.008	1548
464.062	1781
464.076	1794
464.142	2002
464.144	1992
464.211	1390
464.221	1277
464.279	1717
464.301	1896
464.347	1590
464.381	1404
464.414	1307
464.461	1176
464.482	1307
464.540	1658
464.550	1746
464.617	2126
464.620	2145
464.685	3357
464.699	3589
464.753	5391
464.779	6236
464.820	7474
464.859	8784
464.888	8047
464.938	6481
464.956	6318
465.018	5769
465.023	5814
465.091	6231
465.098	6267
465.158	6150
465.177	6089
465.226	5912
465.257	5885
465.293	5874
465.336	5655
465.361	5524
465.416	5217
465.428	5311
465.495	5801
465.496	5813
465.563	5912
465.575	5947
465.631	5974
465.654	5980
465.698	6205
465.734	6252
465.765	6170
465.813	6108
465.833	6390
465.893	7227
465.900	7242
465.968	7049
465.972	7041
466.035	7397
466.052	7429
466.102	7668
466.131	7817
466.170	8195
466.210	8561
466.237	8689
466.290	8829
466.304	8987
466.369	9692
466.372	9746
466.439	10737
466.449	10865
466.506	11537
466.528	11758
466.573	12062
466.607	12245
466.641	12320
466.687	12374
466.708	12575
466.766	13013
466.775	13144
466.842	13957
466.845	13969
466.909	14391
466.925	14451
466.977	14307
467.004	14201
467.044	14215
467.083	14153
467.111	14870
467.163	16144
467.178	16451
467.242	17585
467.245	17494
467.312	14906
467.321	14535
467.379	12764
467.400	12081
467.446	11963
467.480	11836
467.559	11052
467.638	10509
467.717	9084
467.796	9906
467.875	9281
467.955	9059
468.034	8981
468.113	9439
468.192	9507
468.271	8985
468.350	8918
468.429	10511
468.508	10971
468.588	8820
468.667	7429
468.746	7616
468.825	6943
468.904	7723
468.983	7210
469.062	6802
469.141	7465
469.220	6903
469.299	6301
469.378	8927
469.456	11674
469.535	11022
469.614	8842
469.693	9243
469.772	8955
469.851	8102
469.930	8048
470.009	7876
470.088	7727
470.166	8728
470.245	7736
470.324	7586
470.403	7198
470.482	8005
470.560	6777
470.639	7338
470.718	7222
470.797	6415
470.875	6784
470.954	7403
471.033	6253
471.111	6246
471.190	5949
471.269	5963
471.347	6343
471.426	6595
471.505	7887
471.583	9164
471.662	8605
471.740	7503
471.819	6741
471.898	6998
471.976	7212
472.055	7323
472.133	7368
472.212	9443
472.290	6951
472.369	6058
472.447	6491
472.526	6254
472.604	7530
472.683	6853
472.761	5480
472.839	5718
472.918	6158
472.996	6608
473.075	5235
473.153	7348
473.231	5320
473.310	5339
473.388	5826
473.466	6990
473.545	7263
473.623	8195
473.701	6969
473.780	7098
473.858	5402
473.936	8029
474.014	5440
474.093	7162
474.171	6384
474.249	6783
474.327	6102
474.405	5810
474.484	5854
474.562	6520
474.640	6033
474.718	6922
474.796	7003
474.874	8068
474.952	6298
475.030	6490
475.108	8194
475.187	10402
475.265	8386
475.343	7761
475.421	7621
475.499	6625
475.577	6287
475.655	5938
475.733	6144
475.811	5020
475.889	5303
475.966	5553
476.044	5400
476.122	5434
476.200	4973
476.278	4972
476.356	3725
476.434	4948
476.512	4173
476.590	4881
476.667	5030
476.745	3379
476.823	4296
476.901	5024
476.979	4040
477.056	4945
477.134	4255
477.212	5217
477.290	4162
477.367	4889
477.445	3585
477.523	3997
477.601	3311
477.678	3611
477.756	3986
477.834	3909
477.911	3432
477.989	4580
478.066	3525
478.144	4753
478.222	4027
478.299	4966
478.377	5538
478.454	5078
478.532	2659
478.609	3416
478.687	3457
478.764	2579
478.842	3339
478.919	3907
478.997	3595
479.074	3112
479.152	3294
479.229	4145
479.307	3208
479.384	4078
479.461	3029
479.539	3212
479.616	3987
479.694	3526
479.771	2518
479.848	2955
479.926	2643
480.003	4407
480.080	3807
480.157	3365
480.235	2457
480.312	3800
480.389	2565
480.467	2272
480.544	2287
480.621	3310
480.698	2674
480.775	3075
480.853	2635
480.930	3450
481.007	3268
481.084	5090
481.161	9036
481.238	5804
481.315	2695
481.392	2421
481.470	2320
481.547	2350
481.624	1799
481.701	2651
481.778	2038
481.855	2656
481.932	2258
482.009	3463
482.086	2538
482.163	2571
482.240	3551
482.317	4575
482.393	3130
482.470	2464
482.547	2407
482.624	3478
482.701	2341
482.778	2935
482.855	2064
482.932	2946
483.009	1403
483.085	4335
483.162	5176
483.239	5835
483.316	2070
483.393	3957
483.469	2980
483.546	3533
483.623	2199
483.699	2317
483.776	2984
483.853	3115
483.930	2482
484.006	4511
484.083	8103
484.160	21249
484.236	43366
484.313	32638
484.389	21943
484.466	21072
484.543	17968
484.619	18519
484.696	20060
484.772	18521
484.849	17926
484.925	17686
485.002	17133
485.078	17325
485.155	16169
485.231	15661
485.308	15862
485.384	15723
485.461	15713
485.537	15498
485.614	15645
485.690	15285
485.766	14260
485.843	13797
485.919	14561
485.995	14689
486.072	13662
486.148	14216
486.224	12496
486.301	13594
486.377	14098
486.453	13627
486.530	15915
486.606	24350
486.682	25140
486.758	21531
486.835	18833
486.911	17728
486.987	17891
487.063	17346
487.139	18336
487.215	20742
487.292	18058
487.368	17062
487.444	17138
487.520	18474
487.596	20436
487.672	29675
487.748	56065
487.824	83033
487.900	31941
487.976	16514
488.052	13796
488.128	15465
488.204	12557
488.280	13368
488.356	12165
488.432	12672
488.508	12461
488.584	12084
488.660	11202
488.736	12067
488.812	10902
488.888	15291
488.964	14306
489.039	13550
489.115	14024
489.191	14258
489.267	11688
489.343	11115
489.418	10679
489.494	10827
489.570	8672
489.646	11617
489.722	10505
489.797	10972
489.873	9561
489.949	11692
490.024	11098
490.100	9553
490.176	10313
490.251	9445
490.327	10462
490.403	8276
490.478	10076
490.554	8783
490.629	9525
490.705	8050
490.781	10093
490.856	7264
490.932	8652
491.007	7943
491.083	8787
491.158	8115
491.234	8441
491.309	8768
491.385	7714
491.460	7842
491.536	8236
491.611	7885
491.686	7268
491.762	8384
491.837	6319
491.913	9063
491.988	9147
492.063	9305
492.139	6359
492.214	7439
492.289	5517
492.365	5458
492.440	6876
492.515	5665
492.590	6680
492.666	5576
492.741	6829
492.816	6025
492.891	4908
492.967	7967
493.042	5897
493.117	7775
493.192	9564
493.267	19305
493.342	72400
493.418	105846
493.493	16696
493.568	6457
493.643	5263
493.718	6200
493.793	4102
493.868	6344
493.943	4814
494.018	4763
494.093	4441
494.168	4424
494.243	4072
494.318	4630
494.393	4238
494.468	4133
494.543	4094
494.618	4074
494.693	3818
494.768	3827
494.842	4443
494.917	3596
494.992	5125
495.067	4454
495.142	3213
495.217	4397
495.292	3165
495.366	4452
495.441	3009
495.516	4521
495.591	5022
495.665	5863
495.740	9395
495.815	6070
495.890	3393
495.964	2391
496.039	6580
496.114	5937
496.188	8894
496.263	9168
496.338	3287
496.412	4249
496.487	5461
496.561	4894
496.636	5074
496.710	5857
496.785	5693
496.860	6754
496.934	5649
497.009	6295
497.083	6272
497.158	7704
497.232	7080
497.307	9442
497.381	9878
497.455	11306
497.530	13288
497.604	13382
497.679	14220
497.753	21660
497.827	30413
497.902	36286
497.976	32852
498.050	30891
498.125	31901
498.199	40379
498.273	49341
498.348	49388
498.422	38437
498.496	29634
498.570	22774
498.645	18212
498.719	15216
498.793	14107
498.867	11735
498.941	10446
499.016	9908
499.090	12044
499.164	8474
499.238	6908
499.312	5002
499.386	6006
499.460	4933
499.534	4180
499.609	3842
499.683	3344
499.757	4625
499.831	4643
499.905	8098
499.979	6373
500.053	2812
500.127	3051
500.201	2920
500.275	3673
500.349	3388
500.422	2441
500.496	2765
500.570	4212
500.644	5311
500.718	5915
500.792	4122
500.866	2748
500.940	2612
501.013	3352
501.087	2325
501.161	2536
501.235	1100
501.309	4231
501.382	2835
501.456	5275
501.530	1308
501.603	1660
501.677	2061
501.751	969
501.825	2833
501.898	2593
501.972	1909
502.046	2059
502.119	714
502.193	2920
502.266	1676
502.340	3244
502.413	1390
502.487	3263
502.561	933
502.634	2318
502.708	2775
502.781	1202
502.855	2526
502.928	1436
503.002	991
503.075	1145
503.149	1839
503.222	1869
503.295	1062
503.369	1811
503.442	1067
503.516	3238
503.589	2796
503.662	2640
503.736	1913
503.809	3349
503.882	2891
503.956	5224
504.029	7474
504.102	24589
504.175	37773
504.249	12028
504.322	4932
504.395	3195
504.468	1164
504.542	1157
504.615	1043
504.688	2357
504.761	-79
504.834	3470
504.907	1181
504.980	1690
505.053	1098
505.127	-1256
505.200	3509
505.273	877
505.346	1359
505.419	921
505.492	2893
505.565	2483
505.638	3413
505.711	2048
505.784	651
505.857	484
505.930	2047
506.003	162
506.076	2588
506.149	671
506.221	-428
506.294	1945
506.367	-634
506.440	1639
506.513	1310
506.586	823
506.659	-396
506.731	1695
506.804	49
506.877	121
506.950	485
507.022	2424
507.095	-1070
507.168	1504
507.241	1074
507.313	1595
507.386	-78
507.459	1887
507.531	521
507.604	723
507.677	2302
507.749	446
507.822	3180
507.894	7115
507.967	13089
508.040	7243
508.112	6339
508.185	5793
508.257	3087
508.330	5209
508.402	3250
508.475	4251
508.547	4022
508.620	4321
508.692	3921
508.765	4765
508.837	2840
508.909	4285
508.982	3712
509.054	4445
509.127	2732
509.199	3609
509.271	2763
509.344	3273
509.416	2539
509.488	3377
509.560	3487
509.633	3425
509.705	3252
509.777	3142
509.849	3668
509.922	3202
509.994	3185
510.066	5516
510.138	3433
510.210	15607
510.283	12846
510.355	9991
510.427	8537
510.499	7442
510.571	6825
510.643	5697
510.715	7359
510.787	5513
510.859	6134
510.931	6423
511.003	6270
511.076	6210
511.148	5610
511.219	5326
511.291	6403
511.363	5837
511.435	5513
511.507	3836
511.579	5653
511.651	6106
511.723	4585
511.795	5170
511.867	4160
511.939	5612
512.010	3674
512.082	4770
512.154	3186
512.226	4924
512.298	9911
512.369	13934
512.441	10721
512.513	8814
512.585	6391
512.656	8544
512.728	6543
512.800	7130
512.871	6803
512.943	7553
513.015	5003
513.086	6615
513.158	5230
513.230	5581
513.301	5663
513.373	7027
513.444	5720
513.516	5067
513.588	5318
513.659	5204
513.731	6012
513.802	4974
513.874	6547
513.945	6418
514.016	3773
514.088	5921
514.159	4281
514.231	6893
514.302	11219
514.374	10983
514.445	6691
514.516	9850
514.588	6381
514.659	7528
514.730	6393
514.802	9834
514.873	14172
514.944	15485
515.016	9157
515.087	7750
515.158	6537
515.229	10894
515.301	15727
515.372	26294
515.443	12417
515.514	8852
515.585	5487
515.656	7376
515.728	5531
515.799	4480
515.870	6764
515.941	5708
516.012	4650
516.083	8777
516.154	7688
516.225	7997
516.296	6987
516.367	6235
516.438	4672
516.509	5006
516.580	5455
516.651	9546
516.722	15288
516.793	10359
516.864	5741
516.935	5839
517.006	7283
517.077	6467
517.148	7839
517.219	19579
517.289	28975
517.360	6967
517.431	5616
517.502	4677
517.573	5036
517.643	5883
517.714	6886
517.785	7375
517.856	4504
517.926	7241
517.997	6803
518.068	5645
518.138	6700
518.209	6102
518.280	14456
518.350	51196
518.421	21487
518.492	7927
518.562	7038
518.633	7912
518.703	7438
518.774	16548
518.845	45510
518.915	46414
518.986	12625
519.056	8116
519.127	7549
519.197	7679
519.268	7217
519.338	6209
519.408	4409
519.479	4971
519.549	3444
519.620	5253
519.690	3275
519.760	4895
519.831	2829
519.901	3262
519.971	3601
520.042	3127
520.112	1730
520.182	3179
520.253	3507
520.323	2842
520.393	2566
520.463	5290
520.534	329
520.604	5566
520.674	3595
520.744	2714
520.814	1243
520.885	4754
520.955	2714
521.025	3206
521.095	3237
521.165	4026
521.235	2064
521.305	2465
521.375	3650
521.445	3637
521.515	1250
521.585	3536
521.655	758
521.725	3506
521.795	3504
521.865	844
521.935	4875
522.005	1959
522.075	1715
522.145	4150
522.215	2167
522.285	3293
522.355	2327
522.424	2425
522.494	2108
522.564	3065
522.634	2233
522.704	5648
522.774	2492
522.843	2378
522.913	2464
522.983	3133
523.053	2035
523.122	3298
523.192	905
523.262	3086
523.331	2030
523.401	2706
523.471	1789
523.540	2799
523.610	1305
523.680	1741
523.749	1810
523.819	3396
523.888	1799
523.958	2546
524.027	1369
524.097	1856
524.166	1756
524.236	506
524.305	3419
524.375	1105
524.444	84
524.514	4721
524.583	1287
524.653	1346
524.722	2256
524.791	425
524.861	3116
524.930	1129
524.999	115
525.069	3399
525.138	1611
525.207	910
525.277	1451
525.346	1751
525.415	1918
525.484	2686
525.554	1293
525.623	3987
525.692	5062
525.761	4347
525.830	4605
525.900	6059
525.969	8162
526.038	14216
526.107	28772
526.176	97526
526.245	77443
526.314	22258
526.383	46096
526.452	65403
526.522	114336
526.591	114017
526.660	14410
526.729	10419
526.797	12356
526.867	15250
526.935	50476
527.004	232181
527.073	150054
527.142	12685
527.211	4524
527.280	4174
527.349	1900
527.418	1237
527.487	2247
527.555	793
527.624	671
527.693	10
527.762	1881
527.831	1084
527.899	1122
527.968	1312
528.037	-1100
528.106	2087
528.174	921
528.243	1201
528.312	729
528.380	390
528.449	-69
528.518	1973
528.586	-736
528.655	2633
528.723	557
528.792	588
528.861	49
528.929	-741
528.998	929
529.066	669
529.135	-200
529.203	713
529.272	-912
529.340	1741
529.409	1436
529.477	165
529.545	-782
529.614	2381
529.682	-1219
529.751	-9
529.819	2616
529.887	939
529.956	106
530.024	1578
530.092	-474
530.161	1624
530.229	262
530.297	-56
530.365	742
530.434	1298
530.502	-1039
530.570	618
530.638	-2115
530.707	1258
530.775	1833
530.843	-25
530.911	555
530.979	131
531.047	-895
531.115	747
531.183	442
531.252	1753
531.320	575
531.388	-200
531.456	519
531.524	-1206
531.592	851
531.660	1740
531.728	-292
531.796	492
531.864	-78
531.932	-16
532.000	-25
532.067	-782
532.135	-379
532.203	933
532.271	265
532.339	998
532.407	1385
532.475	1422
532.542	-206
532.610	726
532.678	-1611
532.746	2618
532.814	4536
532.881	1594
532.949	762
533.017	825
533.084	549
533.152	153
533.220	314
533.287	-417
533.355	752
533.423	-92
533.490	-185
533.558	810
533.625	713
533.693	1016
533.761	1561
533.828	1761
533.896	-808
533.963	2531
534.031	846
534.098	1947
534.166	1179
534.233	492
534.300	2238
534.368	1199
534.435	808
534.503	2039
534.570	2201
534.637	1323
534.705	2451
534.772	4392
534.840	5677
534.907	42612
534.974	56420
535.041	5530
535.109	-11
535.176	445
535.243	1801
535.310	920
535.378	-244
535.445	606
535.512	1303
535.579	1527
535.646	324
535.714	2014
535.781	3675
535.848	3536
535.915	1692
535.982	819
536.049	1756
536.116	3065
536.183	670
536.250	1399
536.317	572
536.384	2153
536.451	1572
536.518	1245
536.585	-523
536.652	3205
536.719	1549
536.786	145
536.853	821
536.920	2149
536.987	977
537.053	253
537.120	3292
537.187	3521
537.254	120
537.321	1682
537.388	1328
537.454	434
537.521	754
537.588	1333
537.654	2579
537.721	3641
537.788	3675
537.855	2183
537.921	1899
537.988	923
538.055	1726
538.121	855
538.188	892
538.254	2214
538.321	1688
538.388	1602
538.454	892
538.521	1676
538.587	987
538.654	1448
538.720	585
538.787	2670
538.853	1455
538.920	1328
538.986	720
539.053	1593
539.119	529
539.185	1337
539.252	2440
539.318	952
539.385	3732
539.451	2278
539.517	4455
539.583	3028
539.650	1755
539.716	2714
539.782	1671
539.849	1064
539.915	1822
539.981	1792
540.047	1199
540.114	1408
540.180	2601
540.246	1963
540.312	1541
540.378	2389
540.444	3212
540.510	2482
540.576	3427
540.643	1229
540.709	173
540.775	1147
540.841	625
540.907	3510
540.973	3547
541.039	4004
541.105	3303
541.171	2451
541.237	1349
541.303	3651
541.369	3698
541.435	2625
541.500	1869
541.566	1156
541.632	1101
541.698	1084
541.764	1983
541.830	2084
541.896	597
541.961	2505
542.027	1402
542.093	2279
542.159	1937
542.224	1800
542.290	4456
542.356	2801
542.421	2728
542.487	3855
542.553	1571
542.618	2224
542.684	1397
542.750	1614
542.815	2233
542.881	1940
542.947	2070
543.012	3482
543.078	970
543.143	1909
543.209	2015
543.274	2229
543.340	1715
543.405	3042
543.471	1820
543.536	2800
543.602	1864
543.667	572
543.732	2697
543.798	1998
543.863	3350
543.928	1853
543.994	1298
544.059	1640
544.124	2232
544.190	2313
544.255	2157
544.320	2577
544.386	846
544.451	2267
544.516	1926
544.581	2345
544.646	2909
544.712	4719
544.777	3278
544.842	2507
544.907	1747
544.972	2499
545.037	2314
545.102	3830
545.168	2273
545.233	3700
545.298	2740
545.363	2996
545.428	2942
545.493	4966
545.558	1745
545.623	3629
545.688	1895
545.753	3771
545.818	2281
545.883	3504
545.947	1801
546.012	2667
546.077	1758
546.142	3861
546.207	1517
546.272	2796
546.337	2468
546.401	4449
546.466	4523
546.531	2399
546.596	2882
546.661	3734
546.725	3528
546.790	2911
546.855	4098
546.919	3170
546.984	4593
547.049	4739
547.113	4773
547.178	5172
547.243	6572
547.307	7203
547.372	8538
547.436	7512
547.501	8132
547.565	9704
547.630	7536
547.695	7912
547.759	8077
547.823	8314
547.888	8761
547.952	8799
548.017	9705
548.081	12909
548.146	9503
548.210	8787
548.274	9002
548.339	8698
548.403	10128
548.468	8801
548.532	7593
548.596	8657
548.660	8309
548.725	9162
548.789	9680
548.853	10340
548.917	8655
548.982	9346
549.046	8244
549.110	6878
549.174	7343
549.238	8448
549.303	8481
549.367	10806
549.431	9013
549.495	9530
549.559	7558
549.623	9742
549.687	11235
549.751	10609
549.815	12469
549.879	13391
549.943	10745
550.007	13393
550.071	12442
550.135	11809
550.199	9823
550.263	10509
550.327	10243
550.391	11292
550.455	12332
550.519	12005
550.582	14315
550.646	13806
550.710	14789
550.774	14927
550.838	14669
550.901	15543
550.965	16160
551.029	16899
551.093	18781
551.156	20197
551.220	26061
551.284	33538
551.347	22516
551.411	16960
551.475	15787
551.538	16844
551.602	14130
551.666	12737
551.729	12034
551.793	12715
551.856	12463
551.920	11850
551.983	11765
552.047	11888
552.110	11852
552.174	12948
552.237	11787
552.301	11032
552.364	10449
552.428	10168
552.491	9808
552.554	10403
552.618	10200
552.681	10909
552.745	9881
552.808	11023
552.871	11399
552.934	11208
552.998	10262
553.061	9888
553.124	9836
553.187	10671
553.251	10714
553.314	11764
553.377	10496
553.440	15913
553.503	32676
553.567	50759
553.630	14445
553.693	10876
553.756	10277
553.819	10611
553.882	9502
553.945	9330
554.008	9316
554.071	9401
554.134	10586
554.197	9449
554.260	8456
554.323	10217
554.386	10391
554.449	9657
554.512	9476
554.575	8421
554.638	8706
554.701	8204
554.764	7973
554.827	8763
554.889	8074
554.952	7213
555.015	6270
555.078	7032
555.141	7042
555.203	7686
555.266	7150
555.329	8103
555.391	5729
555.454	7005
555.517	6446
555.580	6527
555.642	5945
555.705	6075
555.768	5954
555.830	7109
555.893	5559
555.955	5334
556.018	5137
556.080	5338
556.143	5660
556.206	4843
556.268	5328
556.330	6358
556.393	5123
556.455	4554
556.518	4577
556.580	4622
556.643	3418
556.705	4837
556.767	2633
556.830	4095
556.892	3565
556.955	3798
557.017	4506
557.079	4195
557.142	3685
557.204	3478
557.266	3952
557.328	4482
557.391	3336
557.453	2913
557.515	3432
557.577	3726
557.639	3242
557.701	4630
557.764	3876
557.826	3886
557.888	4809
557.950	6175
558.012	5300
558.074	9700
558.136	23691
558.198	66925
558.260	22190
558.322	7605
558.384	8179
558.446	9286
558.508	12669
558.570	16618
558.632	18975
558.694	25507
558.756	43106
558.818	156519
558.880	422098
558.942	119222
559.003	73849
559.065	35150
559.127	13694
559.189	13500
559.251	13699
559.312	22707
559.374	61142
559.436	237235
559.498	113262
559.559	15899
559.621	12468
559.683	14066
559.744	23358
559.806	92602
559.868	151058
559.929	24791
559.991	11835
560.052	17576
560.114	61716
560.176	37580
560.237	33337
560.299	56796
560.360	9996
560.422	3596
560.483	2368
560.545	2979
560.606	1957
560.667	1275
560.729	926
560.790	1366
560.852	1407
560.913	1297
560.974	1119
561.036	1032
561.097	1457
561.158	1604
561.220	1102
561.281	1047
561.342	885
561.403	1382
561.465	791
561.526	1363
561.587	2345
561.648	86
561.709	740
561.771	1773
561.832	614
561.893	1949
561.954	1267
562.015	1301
562.076	1143
562.137	817
562.198	1640
562.259	659
562.320	525
562.381	1083
562.442	640
562.503	1305
562.564	910
562.625	1186
562.686	571
562.747	168
562.808	390
562.869	738
562.930	1247
562.991	979
563.051	-93
563.112	1518
563.173	-134
563.234	297
563.294	354
563.355	1601
563.416	1042
563.477	970
563.537	495
563.598	1232
563.659	1458
563.720	-181
563.780	255
563.841	334
563.901	925
563.962	722
564.023	1652
564.083	1484
564.144	524
564.204	431
564.265	139
564.325	1085
564.386	377
564.446	1779
564.507	655
564.567	1936
564.628	602
564.688	767
564.749	1371
564.809	846
564.869	662
564.930	1074
564.990	1644
565.050	-178
565.111	1241
565.171	1186
565.231	784
565.292	1827
565.352	1014
565.412	1957
565.472	1806
565.532	1731
565.593	693
565.653	2001
565.713	1676
565.773	2052
565.833	1520
565.893	2435
565.953	2397
566.013	1610
566.074	3145
566.134	2558
566.194	1831
566.254	2945
566.314	3450
566.374	3238
566.434	3395
566.494	3118
566.554	4286
566.614	6064
566.673	4612
566.733	6035
566.793	5511
566.853	5425
566.913	5922
566.973	7347
567.033	7171
567.092	5939
567.152	5615
567.212	6775
567.272	5969
567.331	7858
567.391	7476
567.451	9191
567.511	9627
567.570	11070
567.630	8958
567.690	9675
567.749	9572
567.809	10620
567.868	13184
567.928	15845
567.988	19814
568.047	24911
568.107	34059
568.166	53423
568.226	98901
568.285	151214
568.345	116466
568.404	79375
568.464	63174
568.523	57010
568.582	53694
568.642	61879
568.701	84433
568.761	146288
568.820	263475
568.879	242468
568.939	148491
568.998	96444
569.057	65930
569.116	48736
569.176	36889
569.235	27965
569.294	23396
569.353	18755
569.413	15612
569.472	13187
569.531	11154
569.590	10765
569.649	8123
569.708	7918
569.767	7408
569.827	6764
569.886	5517
569.945	5469
570.004	4085
570.063	5376
570.122	5086
570.181	5207
570.240	2963
570.299	3891
570.358	2846
570.417	2411
570.475	2457
570.534	3371
570.593	2322
570.652	3022
570.711	3177
570.770	3177
570.829	5639
570.887	4935
570.946	2736
571.005	1580
571.064	1393
571.122	1739
571.181	1799
571.240	1853
571.299	975
571.357	1631
571.416	1285
571.475	1216
571.533	841
571.592	1515
571.650	505
571.709	1706
571.768	668
571.826	751
571.885	1115
571.943	911
572.002	1158
572.060	981
572.119	907
572.177	1106
572.236	283
572.294	1731
572.352	736
572.411	1983
572.469	183
572.528	822
572.586	810
572.644	1004
572.703	1352
572.761	875
572.819	-188
572.877	1182
572.936	569
572.994	835
573.052	523
573.110	1596
573.169	565
573.227	1045
573.285	487
573.343	2184
573.401	444
573.459	1330
573.517	538
573.576	1052
573.634	1054
573.692	1646
573.750	470
573.808	548
573.866	1333
573.924	1181
573.982	1030
574.040	229
574.098	1152
574.155	992
574.213	704
574.271	35
574.329	973
574.387	1329
574.445	-152
574.503	920
574.560	-511
574.618	143
574.676	-147
574.734	981
574.792	846
574.849	1510
574.907	254
574.965	548
575.022	282
575.080	776
575.138	1291
575.195	479
575.253	-306
575.311	1162
575.368	1055
575.426	84
575.483	369
575.541	1507
575.598	201
575.656	813
575.713	-211
575.771	1157
575.828	232
575.886	839
575.943	599
576.001	586
576.058	-263
576.115	1399
576.173	881
576.230	12
576.287	-164
576.345	1184
576.402	673
576.459	999
576.517	88
576.574	1479
576.631	550
576.688	852
576.746	53
576.803	992
576.860	81
576.917	1330
576.974	464
577.031	1632
577.089	265
577.146	562
577.203	478
577.260	1902
577.317	670
577.374	1532
577.431	267
577.488	1319
577.545	463
577.602	1569
577.659	263
577.716	1585
577.773	1298
577.830	606
577.886	935
577.943	500
578.000	712
578.057	950
578.114	655
578.171	2033
578.227	846
578.284	551
578.341	1413
578.398	1014
578.454	504
578.511	1067
578.568	460
578.625	912
578.681	247
578.738	295
578.794	273
578.851	658
578.908	654
578.964	394
579.021	73
579.077	1445
579.134	956
579.190	1202
579.247	608
579.303	1593
579.360	535
579.416	1737
579.473	998
579.529	694
579.586	920
579.642	1328
579.698	885
579.755	2108
579.811	1526
579.867	1506
579.924	684
579.980	1383
580.036	1661
580.093	1923
580.149	1779
580.205	2459
580.261	1721
580.317	1019
580.374	78
580.430	1631
580.486	-253
580.542	277
580.598	1341
580.619	1200
580.654	955
580.692	719
580.710	600
580.765	1390
580.767	1414
580.823	1170
580.838	1178
580.879	1208
580.911	704
580.935	313
580.984	1193
580.991	1322
581.047	1249
581.057	1213
581.103	1018
581.130	633
581.159	219
581.203	1074
581.215	1302
581.270	1148
581.276	1100
581.326	661
581.349	876
581.382	1155
581.422	1194
581.438	1216
581.494	635
581.494	646
581.550	1741
581.567	1490
581.606	894
581.640	1073
581.661	1192
581.713	1810
581.717	1867
581.773	1747
581.786	1640
581.829	1141
581.859	1076
581.885	1094
581.932	622
581.940	526
581.996	2214
582.004	2134
582.052	1639
582.077	1491
582.107	1282
582.150	974
582.163	899
582.219	2135
582.223	2066
582.274	1244
582.296	1332
582.330	1530
582.368	1766
582.386	1852
582.441	1739
582.441	1737
582.497	1989
582.514	1881
582.552	1718
582.587	2106
582.608	2295
582.659	2330
582.663	2327
582.719	2488
582.732	2372
582.774	2266
582.805	1923
582.830	1547
582.877	2662
582.885	2832
582.941	1641
582.950	1695
582.996	2006
583.023	1946
583.052	2018
583.095	2679
583.107	2798
583.162	2964
583.168	2966
583.218	3034
583.240	2719
583.273	2213
583.313	1997
583.328	1986
583.384	2578
583.385	2572
583.439	2203
583.458	2481
583.494	2943
583.531	2503
583.549	2399
583.603	2278
583.605	2262
583.660	2520
583.676	2421
583.715	2381
583.748	2583
583.770	2708
583.820	3321
583.825	3367
583.881	2555
583.893	2508
583.936	2506
583.965	2704
583.991	2854
584.038	3110
584.046	3143
584.101	3202
584.110	3148
584.156	2967
584.183	3132
584.211	3185
584.255	3290
584.266	3357
584.321	3288
584.328	3283
584.376	3328
584.400	3812
584.431	4442
584.472	3897
584.486	3679
584.541	4071
584.545	4060
584.596	3785
584.617	3922
584.651	4438
584.689	4335
584.706	4122
584.761	4489
584.762	4479
584.816	4114
584.834	4385
584.871	4625
584.906	4817
584.926	5024
584.978	5370
584.980	5387
585.035	5737
585.051	5771
585.090	5745
585.123	6446
585.145	6893
585.195	6792
585.200	6836
585.254	7430
585.267	7954
585.309	9672
585.340	10948
585.364	11658
585.412	10743
585.419	10594
585.473	11308
585.484	11448
585.528	12970
585.556	14686
585.583	17924
585.628	27537
585.637	30865
585.692	63570
585.700	69557
585.747	92668
585.772	75701
585.801	46078
585.845	18283
585.856	14516
585.910	10649
585.917	10258
585.965	9684
585.989	9443
586.019	9026
586.061	8924
586.074	8975
586.128	8995
586.133	9002
586.183	9228
586.205	9290
586.237	9328
586.277	9511
586.292	9580
586.346	9840
586.349	9856
586.401	10202
586.421	10086
586.455	9866
586.493	10481
586.509	11059
586.564	11364
586.565	11403
586.618	12529
586.637	12405
586.672	12700
586.709	13806
586.727	14076
586.781	13720
586.781	13729
586.835	14662
586.853	14654
586.889	14294
586.925	14365
586.944	14564
586.996	15192
586.998	15227
587.052	16339
587.068	16450
587.106	16788
587.140	17612
587.161	18067
587.212	18622
587.215	18664
587.269	19482
587.284	19606
587.323	20145
587.356	21246
587.377	22197
587.427	23814
587.431	23934
587.485	25785
587.499	26046
587.539	26693
587.571	27701
587.593	28748
587.643	30850
587.648	31102
587.702	33968
587.715	34657
587.755	36757
587.786	38306
587.810	39761
587.858	42701
587.864	43137
587.917	48889
587.930	49982
587.971	54691
588.001	58140
588.025	61080
588.073	68149
588.079	69442
588.133	81380
588.145	84001
588.187	93074
588.217	100196
588.241	107392
588.288	122008
588.295	124456
588.348	147449
588.360	152449
588.402	175459
588.431	193269
588.456	209794
588.503	243379
588.510	249408
588.564	301989
588.575	313972
588.617	374694
588.646	422147
588.671	480778
588.718	604355
588.725	635216
588.778	902325
588.789	963810
588.832	1339160
588.861	1613136
588.886	1838675
588.932	2197997
588.939	2200450
588.993	2057022
589.004	2047777
589.047	1917519
589.075	1740870
589.100	1484371
589.147	996092
589.154	956971
589.207	708711
589.218	663935
589.261	603587
589.290	575282
589.314	593998
589.361	649342
589.368	675837
589.421	920964
589.433	981362
589.475	1381766
589.504	1673536
589.528	1826416
589.576	2008228
589.582	1976136
589.635	1648804
589.647	1554475
589.689	1071027
589.718	742473
589.742	606732
589.790	376769
589.795	364056
589.849	262810
589.861	240941
589.902	198972
589.932	170930
589.955	157497
590.004	130610
590.009	128734
590.062	109520
590.075	104921
590.115	95002
590.146	87919
590.168	83535
590.218	73389
590.222	72831
590.275	65899
590.289	63928
590.328	60000
590.360	57119
590.381	55072
590.431	49876
590.435	49687
590.488	45947
590.503	44863
590.541	42650
590.574	40832
590.594	39914
590.645	37395
590.647	37360
590.700	35228
590.716	34600
590.753	32899
590.787	31327
590.806	30734
590.859	28581
590.859	28604
590.912	28086
590.930	27814
590.965	27022
591.001	26245
591.018	25813
591.071	24066
591.072	24012
591.124	23882
591.143	23761
591.177	23044
591.214	22290
591.230	22212
591.283	21726
591.285	21662
591.336	20397
591.356	19970
591.389	20056
591.427	19939
591.442	19694
591.495	18711
591.498	18608
591.547	17998
591.569	17629
591.600	17391
591.640	17028
591.653	17038
591.706	17013
591.711	16974
591.759	15952
591.782	15395
591.811	15619
591.853	15913
591.864	15924
591.917	15644
591.924	15601
591.969	15479
591.995	15296
592.022	15195
592.066	15000
592.075	14988
592.127	14704
592.137	14618
592.180	14517
592.208	14391
592.233	14245
592.279	13944
592.285	13977
592.338	13989
592.350	13970
592.390	13119
592.421	12428
592.443	12697
592.491	13233
592.495	13255
592.548	13193
592.562	13152
592.600	12656
592.633	12190
592.653	12037
592.704	11528
592.705	11613
592.775	12621
592.846	12007
592.916	11350
592.987	12657
593.058	11316
593.128	12382
593.199	11298
593.270	11610
593.341	11151
593.411	10810
593.482	10184
593.553	11679
593.623	10564
593.694	11396
593.764	11251
593.835	10600
593.906	10392
593.976	9835
594.047	9562
594.117	10435
594.188	9553
594.258	10513
594.329	10041
594.399	10457
594.470	10232
594.540	11343
594.611	10793
594.681	10611
594.751	12417
594.822	15437
594.892	15363
594.963	12669
595.033	11642
595.103	10777
595.174	10242
595.244	11263
595.314	10304
595.384	10937
595.455	11328
595.525	11363
595.595	11268
595.665	11504
595.736	11290
595.806	11372
595.876	9824
595.946	10423
596.016	10497
596.087	10727
596.157	10976
596.227	11240
596.297	11252
596.367	12113
596.437	12408
596.507	13255
596.577	12315
596.647	12667
596.717	12731
596.787	13208
596.857	12039
596.927	13584
596.997	13427
597.067	13974
597.137	14251
597.207	13751
597.277	13249
597.347	12621
597.417	12156
597.487	13040
597.557	12717
597.626	13822
597.696	12507
597.766	12620
597.836	13045
597.906	12558
597.975	11552
598.045	12058
598.115	11548
598.185	12758
598.254	14234
598.324	14864
598.394	15042
598.464	14784
598.533	13403
598.603	13130
598.672	13115
598.742	12939
598.812	12185
598.881	14185
598.951	14229
599.020	13760
599.090	14622
599.159	15197
599.229	14005
599.299	13184
599.368	13639
599.437	13912
599.507	11546
599.576	12334
599.646	13108
599.715	12287
599.785	10914
599.854	11899
599.924	11672
599.993	11181
600.062	11943
600.132	11481
600.201	12133
600.270	13881
600.340	14615
600.409	14625
600.478	14888
600.547	14018
600.617	13085
600.686	10647
600.755	8965
600.824	10181
600.894	9060
600.963	9318
601.032	9656
601.101	9474
601.170	8174
601.239	8046
601.308	8698
601.378	8722
601.447	8843
601.516	7682
601.585	8472
601.654	8300
601.723	8614
601.792	7803
601.861	9022
601.930	10059
601.999	8961
602.068	8878
602.137	8508
602.206	9070
602.275	8889
602.343	8665
602.412	8941
602.481	10230
602.550	9529
602.619	9423
602.688	9930
602.756	9081
602.825	9914
602.894	9959
602.963	9357
603.032	10247
603.100	9532
603.169	10360
603.238	9720
603.307	10510
603.375	10046
603.444	11582
603.513	11224
603.581	11143
603.650	11185
603.719	10670
603.787	10597
603.856	11870
603.924	11535
603.993	12368
604.061	13492
604.130	12705
604.198	13642
604.267	14071
604.335	13945
604.404	13770
604.472	13592
604.541	14234
604.609	14183
604.678	14518
604.746	14461
604.815	14205
604.883	15458
604.951	15461
605.020	15610
605.088	15856
605.156	16073
605.225	16503
605.293	15594
605.361	16086
605.429	16663
605.498	16818
605.566	17158
605.634	19193
605.702	19678
605.771	19096
605.839	19052
605.907	18853
605.975	18141
606.043	17332
606.111	18475
606.180	17875
606.248	18457
606.316	18535
606.384	17134
606.452	18887
606.520	17127
606.588	19573
606.656	18974
606.724	18506
606.792	17462
606.860	16004
606.928	14968
606.996	14681
607.064	13108
607.132	14083
607.200	15578
607.267	15085
607.335	14837
607.403	16246
607.471	13623
607.539	14473
607.607	15290
607.674	13983
607.742	12667
607.810	13065
607.878	13725
607.946	13549
608.013	14218
608.081	13844
608.149	14579
608.216	14950
608.284	15679
608.352	14975
608.419	13778
608.487	15486
608.555	14240
608.622	14628
608.690	16185
608.757	17640
608.825	18622
608.893	17719
608.960	15368
609.028	16079
609.095	15428
609.163	15521
609.230	14044
609.298	13042
609.365	13430
609.432	14877
609.500	15495
609.567	18300
609.635	21174
609.702	21495
609.769	20761
609.837	16707
609.904	14534
609.971	15268
610.039	18495
610.106	24349
610.173	46971
610.241	112683
610.308	57028
610.375	19759
610.442	14412
610.509	14086
610.577	15485
610.644	15316
610.711	14599
610.778	16731
610.845	16405
610.912	17238
610.980	18199
611.047	19255
611.114	19245
611.181	17719
611.248	16513
611.315	18684
611.382	18019
611.449	18902
611.516	19440
611.583	18954
611.650	19353
611.717	19655
611.784	21029
611.851	21715
611.918	24137
611.984	31039
612.051	49224
612.118	108225
612.185	286639
612.252	156477
612.319	31863
612.386	27090
612.452	23898
612.519	23041
612.586	21647
612.653	22311
612.719	23162
612.786	21448
612.853	20270
612.919	19598
612.986	20984
613.053	18838
613.120	17293
613.186	16488
613.253	17951
613.319	17137
613.386	16952
613.453	16025
613.519	17461
613.586	16601
613.652	18322
613.719	18198
613.785	17886
613.852	17548
613.918	17333
613.985	19481
614.051	23011
614.118	36294
614.184	32411
614.250	18534
614.317	18373
614.383	19051
614.449	18776
614.516	17753
614.582	18015
614.648	17725
614.715	18391
614.781	16867
614.847	16908
614.914	17035
614.980	16762
615.046	18010
615.112	17709
615.179	19270
615.245	22063
615.311	26585
615.377	44171
615.443	45690
615.509	25851
615.575	23092
615.642	21176
615.708	24210
615.774	25803
615.840	29301
615.906	37690
615.972	59787
616.038	119572
616.104	188774
616.170	393858
616.236	297633
616.302	54293
616.368	36373
616.434	25339
616.500	24059
616.565	25706
616.631	30727
616.697	25553
616.763	26695
616.829	41099
616.895	74262
616.961	64884
617.026	26596
617.092	17462
617.158	18744
617.224	17377
617.289	15574
617.355	14632
617.421	13557
617.487	15855
617.552	12943
617.618	13547
617.684	12792
617.749	14957
617.815	13554
617.880	12396
617.946	13307
618.012	13483
618.077	13671
618.143	12178
618.208	13356
618.274	12608
618.339	13446
618.405	11015
618.470	12016
618.536	10520
618.601	11235
618.667	9217
618.732	9197
618.798	9750
618.863	9669
618.928	8945
618.994	9916
619.059	10022
619.124	10004
619.190	9634
619.255	8920
619.320	8494
619.386	9219
619.451	7751
619.516	8638
619.581	8735
619.647	9206
619.712	9809
619.777	9417
619.842	8569
619.907	8299
619.972	9126
620.038	9167
620.103	8515
620.168	8460
620.233	9731
620.298	7797
620.363	8832
620.428	9419
620.493	9203
620.558	8314
620.623	9634
620.688	9795
620.753	9730
620.818	9904
620.883	9333
620.948	9663
621.013	9064
621.078	9010
621.143	7925
621.207	11459
621.272	8663
621.337	9199
621.402	8911
621.467	8981
621.532	8468
621.596	8819
621.661	8876
621.726	8317
621.791	8796
621.855	9089
621.920	8640
621.985	9041
622.049	8513
622.114	8845
622.179	9216
622.243	9193
622.308	8374
622.373	11402
622.437	9298
622.502	9340
622.566	8884
622.631	8476
622.695	9909
622.760	9303
622.824	9190
622.889	9925
622.953	9067
623.018	10485
623.082	10059
623.147	9912
623.211	9527
623.276	9644
623.340	8603
623.404	8430
623.469	9048
623.533	9296
623.597	8371
623.662	8331
623.726	7389
623.790	8137
623.854	7051
623.919	7819
623.983	6852
624.047	8173
624.111	7785
624.176	8126
624.240	7730
624.304	9567
624.368	9086
624.432	9766
624.496	9278
624.560	9912
624.625	8944
624.689	9090
624.753	9731
624.817	9224
624.881	8450
624.945	8082
625.009	7737
625.073	8078
625.137	6919
625.201	8589
625.265	9020
625.329	8975
625.393	7919
625.456	9647
625.520	8646
625.584	7797
625.648	8825
625.712	9313
625.776	8636
625.839	9595
625.903	6489
625.967	6889
626.031	8712
626.095	8951
626.158	8405
626.222	5163
626.286	6058
626.349	5072
626.413	3905
626.477	6195
626.540	4979
626.604	4201
626.668	6020
626.731	4705
626.795	4824
626.858	4170
626.922	3471
626.986	5939
627.049	4036
627.113	5970
627.176	4739
627.240	5435
627.303	3920
627.366	4172
627.430	4137
627.493	4435
627.557	3806
627.620	5898
627.684	4311
627.747	5634
627.810	3306
627.874	5156
627.937	3343
628.000	5917
628.064	3715
628.127	2877
628.190	3447
628.253	3571
628.317	2878
628.380	3544
628.443	2306
628.506	2908
628.569	2990
628.632	2190
628.696	3452
628.759	3280
628.822	2292
628.885	2752
628.948	3072
629.011	2404
629.074	2454
629.137	2737
629.200	1274
629.263	3772
629.326	1999
629.389	2096
629.452	2029
629.515	2283
629.578	1950
629.641	3087
629.704	2097
629.767	1518
629.830	2539
629.892	2531
629.955	944
630.018	3057
630.081	820
630.144	2827
630.207	1048
630.269	3305
630.332	1450
630.395	2785
630.458	2078
630.520	1908
630.583	2774
630.646	1957
630.708	1536
630.771	1087
630.834	2899
630.896	2107
630.959	2148
631.021	1543
631.084	1774
631.146	2619
631.209	2002
631.272	1985
631.334	2266
631.397	3401
631.459	1757
631.522	3482
631.584	2211
631.646	3628
631.709	2645
631.771	2552
631.834	3303
631.896	2603
631.958	1451
632.021	3600
632.083	948
632.145	3244
632.208	1418
632.270	3090
632.332	1341
632.395	1193
632.457	2749
632.519	1538
632.581	3021
632.643	1404
632.706	2399
632.768	1432
632.830	2442
632.892	2517
632.954	834
633.016	2744
633.078	2083
633.141	1892
633.203	2175
633.265	2775
633.327	2175
633.389	1840
633.451	2121
633.513	1748
633.575	2708
633.637	1983
633.698	947
633.760	1526
633.822	2811
633.884	2412
633.946	1698
634.008	2338
634.070	2419
634.132	3534
634.193	3580
634.255	4365
634.317	3126
634.379	4777
634.441	3684
634.502	3695
634.564	5905
634.626	9647
634.687	12053
634.749	5216
634.811	3158
634.873	1934
634.934	1886
634.996	2895
635.057	1059
635.119	995
635.181	1478
635.242	3844
635.304	678
635.365	4086
635.427	1961
635.488	1543
635.550	1328
635.611	2169
635.673	758
635.734	2912
635.796	1817
635.857	3476
635.918	1840
635.980	3710
636.041	1838
636.102	4220
636.164	3517
636.225	3606
636.286	1018
636.348	3752
636.409	1703
636.470	1478
636.531	2121
636.593	1926
636.654	2447
636.715	1845
636.776	1369
636.838	1118
636.899	3216
636.960	2953
637.021	2757
637.082	6311
637.143	4440
637.204	1093
637.265	634
637.326	1908
637.387	1748
637.448	743
637.509	2049
637.570	1439
637.631	2560
637.692	1222
637.753	975
637.814	1795
637.875	1151
637.936	2280
637.997	817
638.058	1925
638.119	1955
638.179	1188
638.240	523
638.301	951
638.362	565
638.423	522
638.483	1745
638.544	551
638.605	1563
638.666	589
638.726	1973
638.787	2074
638.848	587
638.908	910
638.969	1351
639.030	742
639.090	104
639.151	828
639.211	1409
639.272	2142
639.332	1658
639.393	1113
639.453	285
639.514	1376
639.574	1378
639.635	611
639.695	1221
639.756	822
639.816	1718
639.877	777
639.937	1513
639.997	1699
640.058	188
640.118	696
640.178	1736
640.239	526
640.299	1101
640.359	1464
640.420	976
640.480	1962
640.540	1091
640.600	1233
640.661	1642
640.721	187
640.781	3717
640.841	2177
640.901	2247
640.961	2223
641.021	2009
641.082	141
641.142	97
641.202	2495
641.262	-87
641.322	2026
641.382	279
641.442	1314
641.502	1241
641.562	1271
641.622	263
641.682	1495
641.742	1342
641.802	1368
641.861	1505
641.921	474
641.981	1246
642.041	1243
642.101	568
642.161	-444
642.221	670
642.280	1227
642.340	644
642.400	383
642.460	1404
642.519	737
642.579	-44
642.639	1648
642.698	-776
642.758	3218
642.818	947
642.877	343
642.937	487
642.997	1457
643.056	1283
643.116	150
643.175	2272
643.235	1089
643.294	1290
643.354	1897
643.414	2816
643.473	3843
643.532	3505
643.592	7846
643.651	12858
643.711	24516
643.770	49279
643.830	118176
643.889	267749
643.948	57265
644.008	7811
644.067	4535
644.126	1983
644.186	2386
644.245	2263
644.304	1177
644.363	3718
644.423	70
644.482	1345
644.541	2079
644.600	-650
644.659	2760
644.719	1497
644.778	4750
644.837	7678
644.896	18797
644.955	44293
645.014	14168
645.073	2887
645.132	1315
645.191	1879
645.250	1229
645.309	2897
645.368	2445
645.427	3208
645.486	3492
645.545	8286
645.604	1503
645.663	2608
645.722	904
645.781	2642
645.840	2634
645.898	4088
645.957	7820
646.016	10112
646.075	21095
646.134	39912
646.192	110307
646.251	168675
646.310	21093
646.369	4048
646.427	4031
646.486	443
646.545	1941
646.603	1390
646.662	1979
646.721	1403
646.779	1062
646.838	-63
646.896	2430
646.955	2000
647.014	4967
647.072	8023
647.131	26937
647.189	11858
647.248	453
647.306	1444
647.365	1686
647.423	-1008
647.481	2106
647.540	-438
647.598	1348
647.657	727
647.715	1359
647.773	-588
647.832	1514
647.890	-461
647.948	-71
648.007	1092
648.065	-865
648.123	302
648.181	2626
648.240	1310
648.298	1209
648.356	1387
648.414	1228
648.472	2297
648.531	1569
648.589	2025
648.647	1703
648.705	967
648.763	841
648.821	1218
648.879	1589
648.937	1675
648.995	1912
649.053	1632
649.111	4322
649.169	7324
649.227	13404
649.285	28364
649.343	86049
649.401	40455
649.459	4403
649.516	3791
649.574	2228
649.632	8353
649.690	10717
649.748	3642
649.806	2719
649.863	7461
649.921	17831
649.979	10834
650.037	2029
650.094	-521
650.152	945
650.210	648
650.268	1943
650.325	1767
650.383	1588
650.440	30
650.498	733
650.556	626
650.613	250
650.671	733
650.728	102
650.786	210
650.843	354
650.901	-1176
650.958	-87
651.016	102
651.073	751
651.131	-1416
651.188	-386
651.246	645
651.303	-707
651.360	448
651.418	-366
651.475	475
651.532	-857
651.590	26
651.647	-377
651.704	-97
651.762	-43
651.819	338
651.876	-209
651.933	-702
651.990	889
652.048	-1214
652.105	-604
652.162	190
652.219	106
652.276	152
652.333	100
652.390	-971
652.448	65
652.505	-194
652.562	-32
652.619	-570
652.676	814
652.733	864
652.790	-412
652.847	-1164
652.904	525
652.961	-752
653.017	-224
653.074	259
653.131	623
653.188	-845
653.245	-338
653.302	-255
653.359	-329
653.415	441
653.472	-455
653.529	638
653.586	-757
653.642	-327
653.699	484
653.756	-830
653.813	-452
653.869	419
653.926	-583
653.983	-774
654.039	-89
654.096	-726
654.152	1626
654.209	-1440
654.266	519
654.322	-1220
654.379	396
654.435	733
654.492	926
654.548	-312
654.605	-217
654.661	1361
654.717	-21
654.774	887
654.830	843
654.887	804
654.943	325
655.000	639
655.056	1046
655.112	-21
655.168	62
655.225	700
655.281	835
655.337	553
655.394	731
655.450	1039
655.506	1258
655.562	1592
655.618	2483
655.675	1624
655.731	2013
655.787	2096
655.843	4043
655.899	3567
655.955	5018
656.011	5236
656.067	5937
656.123	8073
656.179	10211
656.235	12670
656.291	9587
656.347	9922
656.403	7266
656.459	5454
656.515	4323
656.571	2373
656.627	2674
656.683	2432
656.739	1564
656.795	1911
656.850	2091
656.906	1494
656.962	1434
657.018	1061
657.074	1088
657.129	736
657.185	2017
657.241	1545
657.297	715
657.352	199
657.408	350
657.464	455
657.519	-715
657.575	-1379
657.630	-253
657.686	-427
657.742	-848
657.797	-925
657.853	-801
657.908	839
657.964	-1336
658.019	-379
658.075	332
658.130	-162
658.186	-602
658.241	290
658.297	-1403
658.352	-1338
658.407	507
658.463	-1351
658.518	-54
658.573	-652
658.629	-104
658.684	-1138
658.739	-607
658.795	-1345
658.850	33
658.905	-746
658.960	-62
659.016	-612
659.071	-1541
659.126	139
659.181	-636
659.236	120
659.291	176
659.346	-602
659.401	-462
659.457	176
659.512	-924
659.567	80
659.622	-16
659.677	-1044
659.732	-1691
659.787	-549
659.842	-1288
659.897	-1150
659.952	-530
660.007	-845
660.061	-884
660.116	-1263
660.171	-542
660.226	-1051
660.281	390
660.336	-1085
660.391	-487
660.445	-1359
660.500	-732
660.555	-818
660.610	-1293
660.664	-388
660.719	-1115
660.774	-558
660.828	-229
660.883	90
660.938	436
660.992	-987
661.047	-619
661.101	-1319
661.156	-644
661.211	-557
661.265	29
661.320	-453
661.374	-292
661.429	-547
661.483	-288
661.538	-1475
661.592	-661
661.647	249
661.701	-284
661.755	-533
661.810	-419
661.864	-994
661.919	-1008
661.973	-503
662.027	-1114
662.081	-1731
662.136	-1715
662.190	-752
662.244	-80
662.299	-995
662.353	-10
662.407	-824
662.461	-735
662.515	-639
662.569	-950
662.624	-354
662.678	-340
662.732	-591
662.786	-483
662.840	-937
662.894	-588
662.948	-802
663.002	-435
663.056	-890
663.110	-38
663.164	-1318
663.218	-707
663.272	-965
663.326	-397
663.380	-780
663.434	-1210
663.488	-1116
663.542	-313
663.595	-686
663.649	-921
663.703	-517
663.757	-489
663.811	-745
663.864	-824
663.918	-139
663.972	-958
664.026	-1083
664.079	-714
664.133	-377
664.187	135
664.240	-284
664.294	-339
664.348	-447
664.401	128
664.455	-1159
664.508	82
664.562	-649
664.615	-406
664.669	-971
664.722	-122
664.776	-898
664.829	-480
664.883	-438
664.936	-1308
664.990	-1500
665.043	-64
665.097	-2034
665.150	174
665.203	-991
665.257	-732
665.310	-481
665.363	-439
665.417	-1212
665.470	-515
665.523	-1612
665.576	-1009
665.630	-666
665.683	-348
665.736	-769
665.789	-508
665.842	-561
665.895	-108
665.949	-948
666.002	-228
666.055	-686
666.108	-353
666.161	-1204
666.214	-295
666.267	10
666.320	-689
666.373	-895
666.426	-865
666.479	-1043
666.532	-825
666.585	-1402
666.638	-579
666.691	-1407
666.744	-372
666.796	-1083
666.849	-385
666.902	96
666.955	-525
667.008	-1259
667.060	-1104
667.113	-974
667.166	-568
667.219	478
667.271	-600
667.324	-1666
667.377	-384
667.430	-1053
667.482	-234
667.535	-322
667.587	86
667.640	-934
667.693	-1305
667.745	-833
667.798	-759
667.850	-1608
667.903	-37
667.955	-1290
668.008	-917
668.060	-1050
668.113	-967
668.165	-126
668.218	-359
668.270	-29
668.322	-670
668.375	-986
668.427	835
668.479	-1532
668.532	-745
668.584	-987
668.636	-1171
668.689	-558
668.741	-612
668.793	-936
668.845	-556
668.898	-525
668.950	-164
669.002	-735
669.054	-1227
669.106	-1381
669.158	-726
669.211	-747
669.263	-336
669.315	15
669.367	-294
669.419	-618
669.471	845
669.523	615
669.575	2269
669.627	344
669.679	420
669.731	258
669.783	-276
669.835	75
669.886	-302
669.938	-153
669.990	-715
670.042	-1273
670.094	-555
670.146	-1475
670.197	-583
670.249	79
670.301	-506
670.353	-170
670.404	496
670.456	389
670.508	1364
670.560	3706
670.611	5809
670.663	10043
670.715	28032
670.766	46181
670.818	12432
670.869	1181
670.921	577
670.972	-537
671.024	-1063
671.075	-255
671.127	-395
671.178	-897
671.230	121
671.281	-532
671.333	-251
671.384	-1530
671.436	-112
671.487	641
671.538	802
671.590	1233
671.641	3133
671.692	6020
671.744	12503
671.795	7141
671.846	899
671.897	-46
671.949	-94
672.000	-81
672.051	-53
672.102	465
672.153	-261
672.204	-862
672.256	389
672.307	-312
672.358	339
672.409	-1053
672.460	-281
672.511	-505
672.562	-585
672.613	-1082
672.664	-1017
672.715	-789
672.766	-265
672.817	-548
672.868	-923
672.919	-608
672.970	-256
673.021	-643
673.071	-1508
673.122	-1196
673.173	-900
673.224	-375
673.275	-1013
673.326	-1167
673.376	-815
673.427	-1235
673.478	-786
673.528	234
673.579	-856
673.630	-764
673.680	-211
673.731	-2067
673.782	-1193
673.832	-1066
673.883	-598
673.934	-937
673.984	-567
674.035	-1257
674.085	-931
674.136	-1396
674.186	-1335
674.237	-732
674.287	-582
674.338	-1543
674.388	-1184
674.438	-1281
674.489	-917
674.539	-684
674.589	-958
674.640	-1035
674.690	-1014
674.740	-1112
674.791	-354
674.841	-985
674.891	-1378
674.942	-125
674.992	-1584
675.042	-1560
675.092	-1890
675.142	-1735
675.193	-351
675.243	-1503
675.293	-565
675.343	-1289
675.393	-1645
675.443	-1072
675.493	-1361
675.543	-899
675.593	-595
675.643	-1752
675.693	-926
675.743	-710
675.793	-1313
675.843	-894
675.893	-1216
675.943	-799
675.993	-729
676.043	-1545
676.093	-184
676.142	-1898
676.192	-768
676.242	-1035
676.292	-1416
676.341	-1127
676.391	-1385
676.441	-1722
676.491	-269
676.540	-1267
676.590	-929
676.640	-1148
676.689	-922
676.739	-1595
676.789	-1498
676.838	-2043
676.888	-432
676.937	-1442
676.987	-967
677.037	-1200
677.086	-1294
677.136	-1493
677.185	-808
677.235	-1685
677.284	-1004
677.333	-2011
677.383	-1393
677.432	-1607
677.482	-753
677.531	-1242
677.580	-1305
677.630	-1332
677.679	-926
677.728	-1041
677.778	-206
677.827	-596
677.876	-1587
677.925	-1899
677.975	-1104
678.024	-988
678.073	-1015
678.122	-1768
678.171	-1515
678.220	-1742
678.269	-835
678.319	-1567
678.368	-872
678.417	-809
678.466	-995
678.515	-1293
678.564	-1607
678.613	-1557
678.662	-1713
678.711	-855
678.760	-1103
678.809	-1118
678.857	-1461
678.906	-1580
678.955	-1273
679.004	-965
679.053	-1689
679.102	-1391
679.151	-807
679.199	-1024
679.248	-1536
679.297	-1379
679.346	-1574
679.394	-1454
679.443	-565
679.492	-1744
679.540	-1077
679.589	-1601
679.638	-1137
679.686	-1112
679.735	-641
679.784	-1546
679.832	-1417
679.881	-2451
679.929	-1147
679.978	-1775
680.026	-1406
680.075	-1508
680.123	-1276
680.172	-1536
680.220	-779
680.268	-1383
680.317	-1546
680.365	-1314
680.414	-1107
680.462	-1510
680.510	-1177
680.559	-2178
680.607	-1462
680.655	-1416
680.703	-1204
680.752	-1293
680.800	-651
680.848	-1073
680.896	-1060
680.945	-1368
680.993	-1806
681.041	-1294
681.089	-1332
681.137	-1217
681.185	-1598
681.233	-2010
681.258	-1305
681.281	-642
681.329	-1407
681.377	-1174
681.380	-1185
681.425	-1502
681.473	-1096
681.502	-1113
681.521	-1137
681.569	-801
681.617	-1348
681.624	-1329
681.665	-1240
681.713	-1316
681.745	-928
681.761	-754
681.809	-889
681.857	-1174
681.867	-1047
681.904	-630
681.952	-1031
681.989	-1052
682.000	-1061
682.048	-1348
682.096	-1341
682.111	-1439
682.143	-1692
682.191	-1735
682.233	-223
682.239	3
682.286	-1159
682.334	-1338
682.354	-1384
682.382	-1460
682.430	-794
682.476	-1465
682.477	-1485
682.525	-1106
682.572	-1931
682.598	-1713
682.620	-1511
682.667	-1052
682.715	-818
682.720	-832
682.763	-1104
682.810	-748
682.841	-1015
682.857	-1146
682.905	-964
682.952	-732
682.963	-887
683.000	-1495
683.047	-540
683.085	-842
683.095	-918
683.142	-1040
683.190	-363
683.206	-552
683.237	-906
683.284	-571
683.328	-708
683.332	-728
683.379	-1086
683.426	-1133
683.449	-931
683.473	-669
683.521	-1390
683.568	-889
683.571	-856
683.615	-580
683.662	-751
683.693	-978
683.709	-1094
683.757	-954
683.804	-972
683.814	-817
683.851	-297
683.898	-1139
683.936	-824
683.945	-755
683.992	-934
684.039	-677
684.057	-958
684.086	-1411
684.133	-817
684.179	-776
684.180	-776
684.227	-315
684.274	-1050
684.300	-544
684.321	-189
684.368	-1010
684.415	-410
684.422	-427
684.462	-535
684.509	-740
684.543	-1109
684.556	-1248
684.603	-294
684.649	-1281
684.665	-1076
684.696	-590
684.743	-996
684.786	-380
684.790	-336
684.837	-833
684.883	-801
684.908	-639
684.930	-506
684.977	-568
685.023	-718
685.029	-656
685.070	-146
685.117	-451
685.150	18
685.164	173
685.210	-303
685.257	285
685.272	43
685.303	-523
685.350	13
685.393	-630
685.396	-672
685.443	-818
685.490	-438
685.514	-650
685.536	-858
685.583	-404
685.629	-618
685.636	-708
685.675	-1268
685.722	-466
685.757	-188
685.768	-105
685.815	-621
685.861	-189
685.878	-82
685.908	192
685.954	-457
686.000	-192
686.000	-194
686.047	-343
686.093	-112
686.121	-379
686.139	-438
686.185	-279
686.232	-428
686.242	-318
686.278	36
686.324	-533
686.363	162
686.370	271
686.416	-40
686.463	-292
686.484	-188
686.509	-78
686.555	-646
686.601	120
686.606	101
686.647	-52
686.693	-427
686.727	72
686.739	268
686.785	-235
686.831	112
686.848	12
686.877	-209
686.923	260
686.969	-84
686.969	-85
687.015	91
687.061	-418
687.090	70
687.107	287
687.153	-437
687.199	290
687.211	38
687.245	-462
687.291	259
687.332	-92
687.336	-129
687.382	-174
687.428	-50
687.453	445
687.474	815
687.520	231
687.565	415
687.574	324
687.611	57
687.657	329
687.695	539
687.702	585
687.748	872
687.794	1406
687.816	1368
687.839	1127
687.885	563
687.931	367
687.937	327
687.976	325
688.022	482
688.058	381
688.067	319
688.113	392
688.158	-70
688.179	4
688.204	250
688.249	-123
688.295	705
688.300	616
688.340	-158
688.386	763
688.421	-62
688.431	-275
688.477	334
688.522	381
688.542	382
688.567	427
688.613	59
688.658	785
688.663	763
688.703	540
688.749	347
688.784	622
688.794	702
688.839	709
688.884	940
688.905	924
688.930	793
688.975	299
689.020	262
689.026	248
689.065	361
689.110	612
689.146	-109
689.155	-278
689.201	-86
689.246	361
689.267	305
689.291	196
689.336	607
689.381	86
689.388	109
689.426	310
689.471	469
689.509	697
689.516	746
689.561	527
689.606	362
689.630	502
689.651	520
689.696	177
689.741	135
689.750	38
689.785	-112
689.830	419
689.871	211
689.875	196
689.920	421
689.965	668
689.992	637
690.010	549
690.054	800
690.099	558
690.112	450
690.144	273
690.189	310
690.233	841
690.233	847
690.278	418
690.323	519
690.354	513
690.367	523
690.412	750
690.457	1190
690.474	1085
690.501	834
690.546	693
690.590	916
690.595	865
690.635	660
690.680	226
690.716	638
690.724	726
690.769	1000
690.813	1351
690.836	1257
690.857	1274
690.902	1518
690.946	1454
690.957	1605
690.991	2373
691.035	2945
691.077	3547
691.080	3553
691.124	3518
691.168	3412
691.198	3122
691.213	2847
691.257	2425
691.301	2102
691.318	1772
691.346	1468
691.390	1332
691.434	1305
691.439	1292
691.478	1370
691.522	1480
691.559	1287
691.567	1266
691.611	1443
691.655	1638
691.680	1336
691.699	1050
691.743	1172
691.787	1126
691.800	1067
691.831	1124
691.875	1306
691.919	1326
691.921	1329
691.964	1317
692.008	1119
692.041	933
692.052	933
692.096	1131
692.139	1162
692.162	953
692.183	742
692.227	1325
692.271	1030
692.282	1068
692.315	1206
692.359	1233
692.402	1191
692.403	1197
692.447	1171
692.490	1516
692.523	1442
692.534	1410
692.578	1597
692.622	1541
692.643	1604
692.666	1690
692.709	1668
692.753	1727
692.763	1766
692.797	1725
692.840	1675
692.884	972
692.884	975
692.928	1258
692.971	1386
693.004	1482
693.015	1546
693.059	1444
693.102	1816
693.124	1714
693.146	1560
693.189	1842
693.233	1936
693.245	1906
693.276	1850
693.320	1828
693.363	2008
693.365	1990
693.407	1748
693.450	1954
693.485	1808
693.493	1815
693.537	2268
693.580	2194
693.605	2486
693.624	2838
693.667	3278
693.710	3735
693.725	3918
693.753	4862
693.797	6528
693.840	8339
693.845	8441
693.883	7323
693.926	6210
693.966	5586
693.970	5508
694.013	4017
694.056	3073
694.086	2074
694.099	2029
694.142	2356
694.185	2349
694.206	2446
694.229	2502
694.272	2412
694.315	2453
694.326	2420
694.358	2282
694.401	2375
694.444	1955
694.446	1950
694.487	2137
694.530	1997
694.566	1901
694.573	1912
694.616	1968
694.659	2090
694.686	2199
694.702	2139
694.745	1927
694.787	1475
694.806	1453
694.830	1719
694.873	1721
694.916	2192
694.926	2249
694.959	2173
695.002	1905
695.044	1630
695.046	1622
695.087	2003
695.130	2102
695.166	2346
695.172	2374
695.215	2182
695.258	2467
695.286	2445
695.301	2422
695.343	2440
695.386	2452
695.406	2424
695.428	2454
695.471	2504
695.514	2664
695.526	2634
695.556	2474
695.599	2576
695.641	2276
695.646	2283
695.684	2606
695.726	2491
695.766	2546
695.769	2542
695.811	2320
695.854	2248
695.886	2078
695.896	2061
695.938	1966
695.981	1987
696.005	1832
696.023	1882
696.065	2184
696.108	2454
696.125	2514
696.150	2427
696.192	2479
696.235	2351
696.245	2336
696.277	2504
696.319	2698
696.361	2793
696.365	2789
696.404	2664
696.446	2701
696.485	2636
696.488	2653
696.530	2726
696.572	2751
696.604	2883
696.614	2926
696.656	2791
696.698	2867
696.724	2878
696.740	2880
696.783	2840
696.825	2804
696.844	2828
696.867	2882
696.909	2773
696.951	2705
696.964	2712
696.992	2724
697.034	2655
697.076	2483
697.083	2458
697.118	2549
697.160	2685
697.202	2872
697.203	2863
697.244	2911
697.286	2962
697.323	3146
697.327	3158
697.369	3073
697.411	2966
697.442	2853
697.453	2862
697.494	2857
697.536	2918
697.562	2949
697.578	2985
697.620	2927
697.661	2928
697.682	2958
697.703	3046
697.744	3127
697.786	3288
697.801	3285
697.828	3300
697.869	3384
697.911	3396
697.921	3409
697.952	3378
697.994	3281
698.035	3146
698.040	3122
698.077	3288
698.118	3472
698.160	3630
698.160	3618
698.201	3810
698.243	3975
698.279	4175
698.284	4176
698.325	4004
698.367	3816
698.399	3677
698.408	3680
698.449	3614
698.491	3560
698.518	3527
698.532	3597
698.573	3731
698.614	3882
698.638	3961
698.656	3900
698.697	3719
698.738	3537
698.757	3440
698.779	3403
698.820	3310
698.862	3218
698.877	3174
698.903	3330
698.944	3562
698.985	3788
698.996	3841
699.026	3841
699.067	3817
699.116	3778
699.235	2776
699.354	3643
699.474	3775
699.593	4155
699.713	4615
699.832	4856
699.951	5575
700.070	4879
700.190	5822
700.309	5485
700.428	5127
700.547	5271
700.667	5004
700.786	4347
700.905	5329
701.024	4491
701.143	4115
701.262	3620
701.381	4651
701.500	3684
701.619	4362
701.738	3774
701.857	4978
701.976	3628
702.095	4069
702.214	3973
702.333	3960
702.452	3423
702.571	4850
702.690	4136
702.809	3282
702.928	3772
703.047	4460
703.165	3573
703.284	4255
703.403	3962
703.522	3892
703.640	3677
703.759	3886
703.878	3861
703.997	3720
704.115	3239
704.234	4116
704.353	3331
704.471	3240
704.590	3320
704.708	3291
704.827	3959
704.946	3882
705.064	2704
705.183	2907
705.301	3136
705.420	2823
705.538	2704
705.656	2676
705.775	3129
705.893	5001
706.012	6396
706.130	3249
706.249	2818
706.367	3078
706.485	2671
706.604	3249
706.722	3217
706.840	3645
706.958	5571
707.077	3763
707.195	3070
707.313	3694
707.431	2947
707.549	2276
707.668	3003
707.786	2902
707.904	2278
708.022	2855
708.140	2871
708.258	3274
708.376	3398
708.494	3447
708.612	3110
708.730	2828
708.848	2187
708.966	3644
709.084	2600
709.202	2821
709.320	2743
709.438	2800
709.556	2236
709.674	2802
709.791	2649
709.909	1951
710.027	3016
710.145	2308
710.263	2647
710.380	2483
710.498	2392
710.616	2650
710.733	2367
710.851	2428
710.969	2567
711.086	2674
711.204	2642
711.322	1956
711.439	2810
711.557	2846
711.674	2242
711.792	3234
711.909	3051
712.027	2412
712.144	2203
712.262	2337
712.379	1717
712.497	2525
712.614	2602
712.732	2531
712.849	2364
712.966	2973
713.084	2072
713.201	2401
713.318	2786
713.436	2698
713.553	2489
713.670	2197
713.787	2052
713.905	2169
714.022	2930
714.139	2656
714.256	3234
714.373	3858
714.490	7975
714.608	22552
714.725	96007
714.842	80096
714.959	4931
715.076	2812
715.193	3069
715.310	3140
715.427	2763
715.544	3489
715.661	4363
715.778	2805
715.895	2345
716.011	2422
716.128	3006
716.245	2595
716.362	3742
716.479	4030
716.596	4109
716.713	2978
716.829	2837
716.946	2968
717.063	3177
717.180	2462
717.296	2731
717.413	1801
717.530	1747
717.646	2135
717.763	2555
717.880	1907
717.996	2035
718.113	1826
718.229	2129
718.346	2534
718.462	2998
718.579	2733
718.695	2097
718.812	1980
718.928	2120
719.045	2360
719.161	2926
719.277	2512
719.394	3281
719.510	2923
719.626	2547
719.743	2019
719.859	3151
719.975	6582
720.092	24935
720.208	46886
720.324	5328
720.440	2634
720.557	2190
720.673	1257
720.789	2238
720.905	2467
721.021	1528
721.137	2230
721.253	2171
721.369	1984
721.486	1667
721.602	2273
721.718	2114
721.834	968
721.950	1679
722.066	1547
722.181	1659
722.297	2922
722.413	2808
722.529	2965
722.645	2512
722.761	2533
722.877	1100
722.993	2733
723.108	2330
723.224	1583
723.340	2268
723.456	2455
723.571	3103
723.687	2186
723.803	1878
723.918	1796
724.034	2419
724.150	1154
724.265	1970
724.381	1673
724.497	1290
724.612	1353
724.728	1417
724.843	1607
724.959	2745
725.074	2852
725.190	2906
725.305	2653
725.421	1489
725.536	2245
725.651	1835
725.767	2319
725.882	2255
725.997	1861
726.113	2040
726.228	2216
726.343	1649
726.459	2049
726.574	1421
726.689	922
726.804	1262
726.920	1786
727.035	1940
727.150	1793
727.265	1762
727.380	2981
727.495	2466
727.610	2341
727.725	2079
727.841	2060
727.956	3679
728.071	2561
728.186	1824
728.301	2206
728.416	2196
728.531	1626
728.645	2599
728.760	3443
728.875	6336
728.990	5769
729.105	4101
729.220	2935
729.335	2345
729.449	2091
729.564	2432
729.679	1393
729.794	1390
729.908	1597
730.023	2581
730.138	2203
730.253	2088
730.367	1538
730.482	1674
730.596	1824
730.711	2086
730.826	2109
730.940	1813
731.055	2092
731.169	1643
731.284	707
731.398	1716
731.513	1932
731.627	2292
731.742	1875
731.856	1478
731.970	1666
732.085	2089
732.199	2394
732.313	3503
732.428	9205
732.542	26552
732.656	12789
732.771	2197
732.885	2365
732.999	1805
733.113	1434
733.227	2222
733.342	1639
733.456	1837
733.570	2014
733.684	2024
733.798	1690
733.912	2290
734.026	1619
734.140	1991
734.254	1131
734.368	1934
734.482	1804
734.596	1182
734.710	978
734.824	1847
734.938	1738
735.052	1444
735.166	1726
735.280	1940
735.393	1955
735.507	1580
735.621	2431
735.735	989
735.849	1446
735.962	1747
736.076	1400
736.190	923
736.303	671
736.417	1380
736.531	1745
736.644	1301
736.758	1705
736.872	2057
736.985	1921
737.099	1923
737.212	822
737.326	2575
737.439	2702
737.553	1510
737.666	2071
737.780	2060
737.893	1667
738.007	1776
738.120	2013
738.233	1416
738.347	1702
738.460	2154
738.573	1059
738.687	1473
738.800	1872
738.913	1404
739.026	2184
739.140	1516
739.253	1585
739.366	1044
739.479	784
739.592	1770
739.705	1511
739.818	2076
739.932	1807
740.045	1706
740.158	926
740.271	1798
740.384	2547
740.497	4255
740.610	4799
740.723	4043
740.836	4420
740.949	4433
741.062	2965
741.174	1447
741.287	2568
741.400	2457
741.513	3887
741.626	5150
741.739	3171
741.851	3026
741.964	2738
742.077	2519
742.189	5063
742.302	13370
742.415	8215
742.527	3843
742.640	2472
742.753	2597
742.865	1517
742.978	1649
743.090	1641
743.203	1332
743.316	1337
743.428	1316
743.541	636
743.653	1359
743.766	1549
743.878	1708
743.990	2960
744.103	10458
744.215	16556
744.327	3579
744.440	1872
744.552	1590
744.664	1561
744.777	1244
744.889	1226
745.001	2176
745.113	288
745.226	1134
745.338	1554
745.450	2419
745.562	870
745.674	615
745.786	872
745.898	1299
746.010	1080
746.122	694
746.234	985
746.347	1524
746.459	2067
746.570	2901
746.682	10340
746.794	24767
746.906	7168
747.018	1406
747.130	1480
747.242	1708
747.354	234
747.466	1959
747.577	754
747.689	1210
747.801	990
747.913	1249
748.024	528
748.136	153
748.248	1321
748.359	973
748.471	1585
748.583	938
748.694	1558
748.806	1048
748.918	1439
749.029	490
749.141	1054
749.252	1712
749.364	-51
749.475	1028
749.587	735
749.698	1066
749.809	1372
749.921	1181
750.032	278
750.144	668
750.255	979
750.366	585
750.478	472
750.589	429
750.700	568
750.811	897
750.923	1112
751.034	283
751.145	903
751.256	1309
751.367	761
751.479	1026
751.590	792
751.701	1035
751.812	891
751.923	1010
752.034	1111
752.145	933
752.256	-26
752.367	182
752.478	722
752.589	280
752.700	1056
752.811	367
752.922	884
753.032	606
753.143	1217
753.254	111
753.365	545
753.476	457
753.586	326
753.697	-93
753.808	538
753.919	627
754.029	361
754.140	278
754.251	197
754.361	834
754.472	710
754.582	684
754.693	1182
754.804	595
754.914	215
755.025	776
755.135	694
755.246	263
755.356	544
755.466	620
755.577	738
755.687	283
755.798	1013
755.908	1114
756.018	405
756.129	318
756.239	1601
756.349	645
756.460	444
756.570	-54
756.680	372
756.790	315
756.900	1068
757.011	103
757.121	698
757.231	1029
757.341	521
757.451	574
757.561	387
757.671	-172
757.781	168
757.891	1316
758.001	503
758.111	305
758.221	707
758.331	778
758.441	840
758.551	-257
758.661	475
758.771	592
758.880	420
758.990	553
759.100	581
759.210	167
759.320	306
759.429	439
759.539	835
759.649	213
759.758	1018
759.868	1022
759.978	564
760.087	1513
760.197	44
760.307	1299
760.416	761
760.526	259
760.635	561
760.745	1145
760.854	587
760.964	1190
761.073	815
761.182	700
761.292	853
761.401	1036
761.511	41
761.620	937
761.729	1559
761.839	294
761.948	1076
762.057	353
762.166	871
762.276	-511
762.385	1513
762.494	409
762.603	424
762.712	993
762.822	668
762.931	1099
763.040	-160
763.149	-154
763.258	932
763.367	1191
763.476	2130
763.585	-169
763.694	901
763.803	1029
763.912	1347
764.021	2210
764.130	491
764.238	885
764.347	851
764.456	804
764.565	1263
764.674	1883
764.783	538
764.891	816
765.000	1655
765.109	1322
765.217	2053
765.326	2711
765.435	2725
765.543	3960
765.652	3851
765.761	5515
765.869	9260
765.978	15737
766.086	30306
766.195	66107
766.303	187298
766.412	491321
766.520	327552
766.629	77258
766.737	29149
766.846	16425
766.954	12210
767.062	7714
767.171	5888
767.279	4601
767.387	4372
767.496	2728
767.604	2667
767.712	2582
767.820	2685
767.928	2809
768.037	2864
768.145	2514
768.253	2132
768.361	1768
768.469	2555
768.577	2301
768.685	1737
768.793	2251
768.901	2307
769.009	2562
769.117	2882
769.225	4775
769.333	7164
769.441	11965
769.549	25521
769.657	64043
769.765	223472
769.873	373966
769.981	99014
770.088	22050
770.196	10337
770.304	7246
770.412	5382
770.519	3287
770.627	2715
770.735	2820
770.842	1863
770.950	2031
771.058	1149
771.165	1530
771.273	866
771.380	1359
771.488	1511
771.595	390
771.703	856
771.810	2073
771.918	838
772.025	1493
772.133	1143
772.240	497
772.348	973
772.455	1346
772.562	919
772.670	1258
772.777	1460
772.884	326
772.991	1317
773.099	1474
773.206	822
773.313	838
773.420	817
773.528	635
773.635	459
773.742	900
773.849	879
773.956	568
774.063	769
774.170	-256
774.277	1322
774.384	435
774.491	536
774.598	807
774.705	132
774.812	575
774.919	1362
775.026	275
775.133	420
775.239	319
775.346	767
775.453	-368
775.560	758
775.667	1171
775.773	733
775.880	1779
775.987	525
776.093	929
776.200	382
776.307	735
776.413	1705
776.520	241
776.627	1612
776.733	1526
776.840	2088
776.946	6897
777.053	19653
777.159	47583
777.266	23751
777.372	38667
777.478	30201
777.585	11339
777.691	1560
777.798	1504
777.904	1403
778.010	1404
778.117	1261
778.223	689
778.329	642
778.435	182
778.542	871
778.648	1226
778.754	-348
778.860	563
778.966	821
779.072	261
779.178	141
779.284	721
779.391	-509
779.497	-715
779.603	1116
779.708	-452
779.815	2436
779.920	5674
780.026	8559
780.132	469
780.238	486
780.344	518
780.450	537
780.556	-642
780.661	-314
780.767	9
780.873	204
780.979	136
781.085	-684
781.190	334
781.296	533
781.402	-313
781.507	-424
781.613	458
781.719	424
781.824	-394
781.930	643
782.035	333
782.141	265
782.246	-352
782.352	611
782.457	-789
782.563	-460
782.668	-483
782.773	-144
782.879	-360
782.984	1110
783.090	216
783.195	-170
783.300	-102
783.405	-15
783.511	-324
783.616	1231
783.721	301
783.826	724
783.932	159
784.037	219
784.142	-344
784.247	-243
784.352	565
784.457	625
784.562	321
784.667	360
784.772	296
784.877	-888
784.982	1344
785.087	153
785.192	692
785.297	-297
785.402	466
785.507	-106
785.611	-58
785.716	3
785.821	-614
785.926	93
786.031	-732
786.135	-684
786.240	238
786.345	-1582
786.450	442
786.554	-52
786.659	-140
786.763	-531
786.868	482
786.973	91
787.077	-97
787.182	-547
787.286	-206
787.391	409
787.495	-272
787.600	-45
787.704	-1169
787.809	222
787.913	5
788.017	-251
788.122	-86
788.226	-233
788.330	-381
788.435	-510
788.539	-429
788.643	-764
788.747	-468
788.852	-702
788.956	-622
789.060	-17
789.164	384
789.268	327
789.372	24
789.476	-223
789.580	-975
789.684	-424
789.788	129
789.892	-665
789.996	698
790.100	286
790.204	-360
790.308	470
790.412	-364
790.516	338
790.620	-404
790.724	-112
790.828	-506
790.931	-889
791.035	1308
791.139	-145
791.242	-1248
791.346	-435
791.450	-224
791.554	-645
791.657	-327
791.761	1659
791.864	724
791.968	1102
792.072	96
792.175	396
792.279	-494
792.382	751
792.486	635
792.589	-886
792.693	614
792.796	-818
792.899	204
793.003	564
793.106	-788
793.209	-41
793.313	1532
793.416	-937
793.519	1021
793.623	373
793.726	189
793.829	-349
793.932	176
794.035	-699
794.138	1119
794.242	1657
794.345	445
794.448	1626
794.551	-388
794.654	4175
794.757	5931
794.860	468
794.963	-645
795.066	629
795.169	752
795.272	-322
795.375	560
795.477	-235
795.580	468
795.683	-1469
795.786	-186
795.889	-1085
795.991	312
796.094	254
796.197	-1567
796.300	796
796.402	-794
796.505	-491
796.608	-806
796.710	293
796.813	-227
796.915	-450
797.018	-103
797.120	502
797.223	-1526
797.326	868
797.428	-172
797.530	-147
797.633	341
797.735	-133
797.838	-674
797.940	353
798.042	-851
798.145	-311
798.247	119
798.349	-662
798.452	254
798.554	-770
798.656	-1870
798.758	842
798.860	-240
798.962	-33
799.065	-836
799.167	-1554
799.269	44
799.371	607
799.473	-1084
799.575	-1151
799.677	-26
799.779	307
799.881	-1033
799.983	279
800.085	-611
800.187	-924
800.289	-1300
800.390	-493
800.492	-6
800.594	-255
800.696	-715
800.798	-641
800.899	-288
801.001	212
801.103	70
801.205	-463
801.306	-344
801.408	-1244
801.509	-205
801.611	159
801.713	-932
801.814	-1191
801.916	-275
802.017	-1069
802.119	-1522
802.220	-283
802.322	-2242
802.423	1171
802.525	-1735
802.626	-150
802.727	-40
802.829	231
802.930	-2488
803.031	243
803.133	-305
803.234	-649
803.335	247
803.436	-563
803.538	-794
803.639	-888
803.740	216
803.841	-1139
803.942	-176
804.043	172
804.144	-946
804.245	583
804.346	-519
804.447	-786
804.548	-1393
804.649	309
804.750	-342
804.851	-978
804.952	-687
805.053	-270
805.154	-2456
805.255	115
805.355	-1284
805.456	-879
805.557	-1504
805.658	-1018
805.758	993
805.859	815
805.960	-805
806.061	-1585
806.161	-1350
806.262	-114
806.362	-785
806.463	-1427
806.564	-121
806.664	-878
806.765	-1366
806.865	-908
806.966	-750
807.066	-821
807.166	506
807.267	368
807.367	-1080
807.468	342
807.568	-1850
807.668	361
807.769	-819
807.869	-1424
807.969	-1242
808.069	-459
808.170	-789
808.270	-650
808.370	-451
808.470	-521
808.570	-1020
808.670	-405
808.770	-857
808.870	-673
808.970	-379
809.070	-791
809.170	-568
809.271	-573
809.370	-232
809.470	-746
809.570	-1339
809.670	-1072
809.770	-1248
809.870	-1245
809.970	-167
810.070	24
810.169	-361
810.269	-2000
810.369	235
810.469	-930
810.568	-1126
810.668	-960
810.768	-1234
810.867	-178
810.967	-900
811.066	-333
811.166	-1180
811.265	-552
811.365	-1035
811.464	-762
811.564	-531
811.663	-1506
811.763	-1304
811.862	-558
811.962	-68
812.061	-1302
812.160	-885
812.260	-552
812.359	-358
812.458	-733
812.557	-485
812.657	-489
812.756	-654
812.855	-891
812.954	-848
813.053	-766
813.153	-160
813.252	-1633
813.351	-794
813.450	-1058
813.549	-596
813.648	-672
813.747	-1469
813.846	-541
813.945	-1148
814.044	-337
814.143	-1138
814.242	-716
814.341	-475
814.439	-118
814.538	-24
814.637	-674
814.736	-539
814.835	-419
814.933	-901
815.032	-110
815.131	-377
815.229	-518
815.328	-131
815.427	39
815.525	-234
815.624	318
815.722	-991
815.821	-374
815.919	101
816.018	-625
816.116	40
816.215	-34
816.313	89
816.412	-404
816.510	354
816.609	1286
816.707	726
816.805	585
816.904	605
817.002	919
817.100	1761
817.198	1665
817.296	1328
817.395	751
817.493	2325
817.591	2436
817.689	3910
817.787	6101
817.885	13156
817.983	25304
818.081	59791
818.179	151750
818.277	356442
818.375	234751
818.473	61004
818.571	25046
818.669	18340
818.767	19259
818.865	15326
818.963	17519
819.061	26951
819.158	51597
819.256	120528
819.354	292700
819.452	546989
819.549	274114
819.647	74854
819.745	31764
819.842	18691
819.940	13342
820.038	9216
820.135	7334
820.233	5284
820.330	3216
820.428	2528
820.525	3880
820.623	2086
820.720	1438
820.818	2675
820.915	2755
821.012	3956
821.110	1607
821.207	1930
821.304	1263
821.402	3407
821.499	8313
821.596	15720
821.693	7184
821.791	950
821.888	275
821.985	927
822.082	1326
822.179	4536
822.276	5985
822.373	2246
822.470	10
822.567	146
822.664	-340
822.761	706
822.858	-780
822.955	233
823.052	-305
823.149	-660
823.246	390
823.343	-177
823.440	-451
823.536	-628
823.633	-1163
823.730	-893
823.827	313
823.923	-11
824.020	1569
824.117	2359
824.213	4564
824.310	1509
824.407	-604
824.503	-140
824.600	192
824.696	-1007
824.793	-92
824.889	-168
824.986	-916
825.082	-1163
825.179	-133
825.275	-792
825.371	-1007
825.468	-462
825.564	-1419
825.660	-584
825.757	-706
825.853	356
825.949	-1447
826.045	-506
826.142	-956
826.238	-1216
826.334	-1053
826.430	-1484
826.526	251
826.622	-1382
826.718	-1181
826.814	-1421
826.910	138
827.006	-944
827.102	-1857
827.198	-77
827.294	-1595
827.390	-262
827.486	-576
827.582	-2311
827.678	-1667
827.774	-1031
827.869	-1052
827.965	163
828.061	-1349
828.157	-906
828.252	-1168
828.348	-1767
828.444	-475
828.539	-1058
828.635	-971
828.731	-979
828.826	-1751
828.922	-324
829.017	-1380
829.113	-927
829.208	-492
829.304	-817
829.399	173
829.495	-1087
829.590	-943
829.685	-1150
829.781	-1515
829.876	-1025
829.971	-515
830.066	-736
830.162	-1446
830.257	-652
830.352	-1525
830.447	-600
830.543	-571
830.638	-2084
830.733	-300
830.828	-1062
830.923	-415
831.018	-659
831.113	-457
831.208	-1922
831.303	-1018
831.398	-697
831.493	-650
831.588	-453
831.683	-1776
831.778	-675
831.873	-170
831.967	0
832.062	-1379
832.157	-2013
832.252	-795
832.346	-1667
832.441	-213
832.536	-972
832.631	-487
832.725	-1359
832.820	-998
832.914	-1381
833.009	-1519
833.104	-849
833.198	-761
833.293	-1809
833.387	-219
833.482	-1530
833.576	-720
833.670	-139
833.765	-985
833.859	-1617
833.954	-349
834.048	-512
834.142	-444
834.237	-1783
834.331	-887
834.425	-508
834.519	-1416
834.613	-879
834.708	-1454
834.802	4
834.896	-1538
834.990	-862
835.084	-1444
835.178	-669
835.272	-976
835.366	-1734
835.460	-540
835.554	-1595
835.648	-841
835.742	-1814
835.836	-997
835.930	-1975
836.024	-416
836.117	-1103
836.211	-1057
836.305	-1214
836.399	-877
836.493	-2026
836.586	-1273
836.680	-2554
836.774	-1958
836.867	-50
836.961	-1637
837.055	-1086
837.148	-578
837.242	-1337
837.335	-844
837.429	-982
837.522	-1533
837.616	-29
837.709	-1059
837.803	-1246
837.896	-464
837.989	-1276
838.083	-1104
838.176	-1328
838.269	-2216
838.363	-586
838.456	-1770
838.549	-1179
838.642	-1043
838.735	-443
838.829	-242
838.922	-1043
839.015	-769
839.108	-1982
839.201	-982
839.294	-1122
839.387	-1506
839.480	-1306
839.573	-1414
839.666	-1687
839.759	-1981
839.852	-1721
839.945	-1019
840.038	-1615
840.131	-1152
840.223	-2046
840.316	-1226
840.409	-1196
840.502	-1884
840.594	-475
840.687	-1265
840.780	-453
840.873	-2025
840.965	-352
841.058	-1212
841.150	-920
841.243	-2195
841.336	-845
841.428	-1724
841.521	-860
841.613	-1810
841.706	-1259
841.798	-1339
841.890	-799
841.983	-1334
842.075	-1106
842.167	-1265
842.260	-1083
842.352	-1379
842.444	-1304
842.537	-2228
842.629	-807
842.721	-453
842.813	-755
842.905	-1762
842.997	-393
843.090	-791
843.182	-1613
843.274	-1769
843.366	-291
843.458	-1172
843.550	-1607
843.642	-1657
843.734	-221
843.826	-1543
843.918	-63
844.009	-921
844.101	-2049
844.193	-344
844.285	-33
844.377	1895
844.469	4531
844.560	10523
844.652	7472
844.744	1383
844.835	-789
844.927	-371
845.019	-1862
845.110	-746
845.202	-1295
845.293	-1164
845.385	-1972
845.476	-473
845.568	-332
845.659	-858
845.751	-459
845.842	-592
845.934	-2006
846.025	-1104
846.116	-1298
846.208	-1131
846.299	-1014
846.390	-1224
846.482	-905
846.573	-1160
846.664	-867
846.755	-1692
846.846	-400
846.937	-1127
847.029	-1499
847.120	-1285
847.211	-934
847.302	-706
847.393	-1932
847.484	-542
847.575	-1164
847.666	-1512
847.757	-1676
847.847	-1084
847.938	-632
848.029	-1753
848.120	-1748
848.211	-1403
848.302	-1116
848.392	-1222
848.483	-880
848.574	-1400
848.664	-1023
848.755	-1505
848.846	-1250
848.936	-1162
849.027	-1149
849.118	-1203
849.208	-1933
849.299	-1879
849.389	909
849.480	1458
849.570	4368
849.661	9544
849.751	16118
849.841	3462
849.932	-712
850.022	-1207
850.112	-378
850.203	-443
850.293	-1047
850.383	-846
850.474	-1633
850.564	-700
850.654	-1515
850.744	-655
850.834	-1354
850.924	-1037
851.014	-566
851.104	-1009
851.194	-1595
851.284	-736
851.374	-578
851.464	-1067
851.554	-1025
851.644	-1017
851.734	-814
851.824	-1238
851.914	-1706
852.004	-757
852.094	-846
852.183	-1293
852.273	-1266
852.363	-826
852.452	-1162
852.542	-957
852.632	-975
852.721	-512
852.811	-334
852.901	-974
852.990	-1155
853.080	-727
853.169	-1828
853.259	-444
853.348	29
853.438	-492
853.527	-419
853.617	119
853.706	4435
853.795	8169
853.885	21383
853.974	39511
854.063	81036
854.152	112421
854.242	30669
854.331	2286
854.420	893
854.509	3
854.598	-209
854.687	-972
854.777	-63
854.866	-953
854.955	-233
855.044	-733
855.133	-788
855.222	-525
855.311	-994
855.400	-1064
855.488	-615
855.577	-516
855.666	-389
855.755	-1026
855.844	-786
855.933	-1730
856.021	-1189
856.110	-456
856.199	-990
856.288	-510
856.376	-1630
856.465	-534
856.554	-65
856.642	-623
856.731	-52
856.819	-704
856.908	-1019
856.996	-1300
857.085	-1021
857.173	-1458
857.262	-449
857.350	-1516
857.438	-1198
857.527	-960
857.615	-1809
857.703	-867
857.792	-1072
857.880	-1047
857.968	-855
858.056	-1602
858.145	-1840
858.233	-1279
858.321	-1190
858.409	-144
858.497	-1939
858.585	-1285
858.673	-1128
858.761	-1717
858.849	-1464
858.937	-1068
859.025	-1345
859.113	-491
859.201	-497
859.289	191
859.377	-34
859.465	-583
859.552	-1065
859.640	-1375
859.728	-106
859.816	-894
859.903	-626
859.991	-1804
860.079	-1451
860.166	-1012
860.254	-1102
860.342	-880
860.429	-2576
860.517	-2253
860.604	-1900
860.692	-1448
860.779	-1475
860.867	-1854
860.954	-842
861.042	-1717
861.129	-1267
861.216	-1114
861.304	-847
861.391	-1250
861.478	-658
861.565	-1223
861.653	-903
861.740	-1775
861.827	-1113
861.914	-998
862.001	-1331
862.089	-1536
862.176	-1436
862.263	-1403
862.350	-646
862.437	-591
862.524	-974
862.611	-106
862.698	1172
862.785	2098
862.871	3540
862.958	470
863.045	-1151
863.132	-1686
863.219	-1488
863.306	-2133
863.392	-356
863.479	-1048
863.566	-1419
863.652	-1287
863.739	-772
863.826	-1681
863.912	-1888
863.999	-1653
864.086	-1370
864.172	-1918
864.259	-1692
864.345	-1587
864.432	-861
864.518	-908
864.604	-971
864.691	-1494
864.777	96
864.863	-208
864.950	-417
865.036	-838
865.122	-978
865.209	-538
865.295	454
865.381	-688
865.467	616
865.553	261
865.639	1196
865.726	2660
865.812	8005
865.898	16965
865.984	26229
866.070	56220
866.156	50375
866.242	9729
866.328	985
866.414	-132
866.499	238
866.585	-1719
866.671	-444
866.757	-61
866.843	349
866.928	-840
867.014	-1414
867.100	-483
867.186	-1274
867.271	-992
867.357	-200
867.442	39
867.528	566
867.614	1194
867.699	2772
867.785	4509
867.870	9549
867.956	10789
868.041	5684
868.127	3434
868.212	6313
868.297	4699
868.383	901
868.468	2056
868.553	1360
868.639	-197
868.724	-1156
868.809	-1080
868.894	-1621
868.979	-1314
869.065	-1486
869.150	-1892
869.235	-1313
869.320	-1111
869.405	-892
869.490	-1214
869.575	-1363
869.660	-1037
869.745	-1115
869.830	-1393
869.915	-761
870.000	-457
870.085	22
870.169	1795
870.254	2209
870.339	-1133
870.424	-989
870.509	-864
870.593	-1094
870.678	-1024
870.763	356
870.847	262
870.932	-318
871.016	1171
871.101	847
871.186	-367
871.270	-556
871.355	-1131
871.439	-784
871.523	-919
871.608	-375
871.692	144
871.777	1506
871.861	182
871.945	-1831
872.030	-794
872.114	-1524
872.198	-1709
872.282	-730
872.367	-1497
872.451	-1553
872.535	-777
872.619	-1100
872.703	-1304
872.787	-1304
872.871	-831
872.955	-825
873.039	-637
873.123	-1473
873.207	-330
873.291	-1143
873.375	-1965
873.459	-604
873.543	-428
873.627	-909
873.711	-1747
873.794	-741
873.878	-1272
873.962	-1838
874.045	-604
874.129	-748
874.137	-725
874.213	-500
874.245	-657
874.296	-909
874.352	-1052
874.380	-1123
874.460	-610
874.464	-590
874.547	-877
874.568	-747
874.631	-378
874.676	-949
874.714	-1420
874.784	-471
874.798	-284
874.881	-395
874.892	-469
874.965	-965
874.999	-531
875.048	41
875.107	-430
875.131	-608
875.215	-265
875.215	-265
875.298	-1284
875.323	-1298
875.381	-1293
875.430	-801
875.465	-459
875.538	-597
875.548	-618
875.631	-1435
875.646	-1439
875.714	-1484
875.753	-1537
875.798	-1528
875.861	-848
875.881	-685
875.964	-1714
875.968	-1696
876.047	-1212
876.076	-1114
876.130	-941
876.183	-1170
876.213	-1303
876.291	-711
876.296	-677
876.379	-1307
876.398	-1303
876.462	-1174
876.506	-993
876.545	-865
876.613	-487
876.628	-396
876.711	-1370
876.721	-1282
876.794	-706
876.828	-625
876.877	-503
876.935	-763
876.960	-805
877.043	-609
877.043	-610
877.125	-719
877.150	-262
877.208	800
877.258	396
877.291	105
877.365	295
877.374	325
877.456	258
877.472	246
877.539	-16
877.579	-209
877.622	-311
877.687	-313
877.704	-274
877.787	-630
877.794	-621
877.869	-669
877.901	-550
877.952	-512
878.008	-734
878.034	-735
878.115	-688
878.117	-687
878.199	-638
878.222	-841
878.282	-1253
878.329	-687
878.364	-320
878.437	153
878.447	221
878.529	-672
878.544	-604
878.611	-481
878.651	-718
878.694	-717
878.758	-975
878.776	-1133
878.858	-888
878.865	-897
878.941	-825
878.972	-899
879.023	-1071
879.078	-778
879.105	-591
879.185	-109
879.187	-97
879.269	-612
879.292	-486
879.351	-227
879.399	-510
879.433	-806
879.506	-205
879.516	-81
879.598	-417
879.613	-387
879.680	-498
879.720	-584
879.762	-484
879.827	-606
879.844	-734
879.926	-451
879.933	-524
880.007	-770
880.040	-723
880.089	-841
880.147	-860
880.171	-785
880.253	-269
880.254	-271
880.335	-621
880.360	-677
880.417	-431
880.467	-356
880.499	-308
880.574	247
880.580	266
880.662	-770
880.680	-813
880.744	-857
880.787	-605
880.825	-327
880.893	-704
880.907	-795
880.989	-354
881.000	-391
881.070	-356
881.106	-279
881.152	-446
881.213	-633
881.233	-572
881.315	-668
881.319	-656
881.396	-783
881.426	-856
881.478	-679
881.532	-248
881.559	-157
881.639	-531
881.641	-537
881.722	-591
881.745	-455
881.803	10
881.852	-264
881.885	-385
881.958	-369
881.966	-429
882.047	-760
882.064	-926
882.129	-936
882.171	-675
882.210	-696
882.277	-502
882.291	-435
882.372	-931
882.383	-933
882.454	-655
882.489	-626
882.535	-631
882.596	-662
882.616	-714
882.697	-211
882.702	-258
882.778	-744
882.808	-623
882.859	-394
882.914	-130
882.940	-107
883.020	-421
883.021	-420
883.102	-645
883.127	-710
883.183	-492
883.233	-494
883.264	-633
883.339	-720
883.345	-699
883.426	-666
883.445	-541
883.507	-304
883.551	-439
883.587	-466
883.657	-65
883.668	-10
883.749	-377
883.763	-344
883.830	-204
883.869	-254
883.910	-260
883.975	-150
883.991	-99
884.072	66
884.081	76
884.152	-72
884.187	-272
884.233	-449
884.292	-241
884.314	-229
884.394	-748
884.398	-772
884.475	-409
884.504	-93
884.555	114
884.610	-120
884.636	-275
884.716	-428
884.716	-423
884.797	-230
884.821	-319
884.877	-12
884.927	450
884.958	307
885.033	-412
885.038	-411
885.118	182
885.139	168
885.199	-192
885.244	-337
885.279	-132
885.350	222
885.359	160
885.439	-261
885.456	-421
885.520	-322
885.561	-100
885.600	11
885.667	-75
885.680	-90
885.760	-191
885.773	-149
885.840	-200
885.878	-412
885.920	-331
885.984	-176
886.000	-189
886.080	-221
886.089	-217
886.160	339
886.195	488
886.240	107
886.300	-283
886.320	-205
886.400	129
886.406	141
886.480	116
886.511	78
886.560	-129
886.616	-410
886.640	-361
886.720	-76
886.722	-75
886.800	-101
886.827	-128
886.879	-135
886.932	-133
886.959	-48
887.038	140
887.039	148
887.119	257
887.143	326
887.198	36
887.248	-219
887.278	-131
887.354	-132
887.358	-122
887.437	225
887.459	254
887.517	48
887.564	-122
887.596	-0
887.669	257
887.676	255
887.755	320
887.774	309
887.835	437
887.880	512
887.914	366
887.985	-21
887.994	-11
888.073	148
888.090	153
888.153	37
888.195	-1
888.232	25
888.300	38
888.311	105
888.391	516
888.405	598
888.470	113
888.510	-243
888.549	-119
888.615	149
888.628	161
888.708	207
888.720	201
888.787	430
888.825	549
888.866	324
888.930	21
888.945	87
889.024	339
889.035	373
889.103	586
889.140	680
889.182	449
889.245	144
889.261	174
889.340	241
889.349	249
889.419	501
889.454	616
889.498	717
889.559	855
889.577	792
889.656	490
889.664	457
889.735	497
889.768	513
889.814	703
889.873	949
889.978	496
890.083	310
890.187	1129
890.292	-20
890.397	51
890.501	-88
890.606	440
890.710	784
890.815	746
890.919	647
891.024	-111
891.128	979
891.233	1768
891.337	1306
891.442	854
891.546	-108
891.650	324
891.755	189
891.859	1581
891.963	901
892.068	31
892.172	87
892.276	447
892.380	-27
892.484	379
892.589	1459
892.693	1696
892.797	546
892.901	93
893.005	1368
893.109	757
893.213	622
893.317	772
893.421	1236
893.525	576
893.629	-16
893.733	-212
893.837	309
893.941	463
894.045	1034
894.148	438
894.252	-412
894.356	235
894.460	627
894.564	-629
894.667	557
894.771	917
894.875	301
894.978	-164
895.082	368
895.186	1065
895.289	7
895.393	318
895.496	834
895.600	119
895.703	106
895.807	39
895.910	231
896.014	-335
896.117	-28
896.221	484
896.324	313
896.427	58
896.531	-558
896.634	220
896.737	366
896.840	388
896.944	395
897.047	-71
897.150	-141
897.253	-274
897.356	1100
897.460	-1039
897.563	228
897.666	455
897.769	-622
897.872	-71
897.975	579
898.078	58
898.181	-25
898.284	408
898.387	870
898.490	994
898.593	215
898.695	211
898.798	-473
898.901	616
899.004	153
899.107	481
899.209	0
899.312	-538
899.415	368
899.518	-606
899.620	-20
899.723	-159
899.826	97
899.928	194
900.031	148
900.133	346
900.236	851
900.338	-11
900.441	-605
900.543	572
900.646	287
900.748	260
900.851	208
900.953	-50
901.055	92
901.158	232
901.260	65
901.362	677
901.465	-31
901.567	384
901.669	742
901.771	131
901.873	387
901.976	196
902.078	616
902.180	249
902.282	364
902.384	254
902.486	46
902.588	388
902.690	796
902.792	1082
902.894	2289
902.996	576
903.098	693
903.200	352
903.302	1287
903.404	-261
903.505	156
903.607	-170
903.709	282
903.811	88
903.913	426
904.014	241
904.116	254
904.218	735
904.319	1362
904.421	2125
904.523	3867
904.624	2083
904.726	538
904.827	1097
904.929	2995
905.030	587
905.132	440
905.233	327
905.335	-186
905.436	-82
905.537	272
905.639	595
905.740	375
905.841	760
905.943	2186
906.044	2587
906.145	2409
906.247	262
906.348	891
906.449	694
906.550	268
906.651	-104
906.752	397
906.854	24
906.955	-586
907.056	-461
907.157	-445
907.258	324
907.359	84
907.460	685
907.561	302
907.662	-265
907.762	-444
907.863	-286
907.964	-82
908.065	443
908.166	-346
908.267	-101
908.367	-444
908.468	-9
908.569	-763
908.670	236
908.770	123
908.871	26
908.971	-440
909.072	-53
909.173	441
909.273	41
909.374	142
909.474	327
909.575	176
909.675	53
909.776	-477
909.876	236
909.977	-230
910.077	301
910.177	-708
910.278	-370
910.378	-489
910.478	-104
910.579	-210
910.679	-98
910.779	-251
910.879	-367
910.980	-603
911.080	100
911.180	359
911.280	-573
911.380	-120
911.480	-166
911.580	-778
911.680	-401
911.780	-60
911.880	-356
911.980	-437
912.080	-521
912.180	-184
912.280	-75
912.380	-675
912.480	-783
912.580	-357
912.679	417
912.779	703
912.879	86
912.979	-88
913.078	188
913.178	-1070
913.278	-164
913.377	-209
913.477	-1011
913.577	255
913.676	498
913.776	78
913.875	18
913.975	-43
914.074	173
914.174	-99
914.273	-428
914.373	-299
914.472	-109
914.572	-769
914.671	-60
914.770	-73
914.870	-185
914.969	-391
915.068	-234
915.167	-184
915.267	-288
915.366	-605
915.465	425
915.564	374
915.663	418
915.763	-214
915.862	46
915.961	-1156
916.060	-496
916.159	-616
916.258	-312
916.357	-1176
916.456	-14
916.555	269
916.654	-937
916.752	-68
916.851	-686
916.950	-493
917.049	149
917.148	-1020
917.247	-464
917.345	108
917.444	-96
917.543	4
917.642	474
917.740	-341
917.839	66
917.937	-404
918.036	-199
918.135	19
918.233	331
918.332	45
918.430	-497
918.529	-195
918.627	-289
918.726	360
918.824	-420
918.923	27
919.021	106
919.119	-719
919.218	196
919.316	-553
919.414	-786
919.512	326
919.611	65
919.709	-351
919.807	269
919.905	-308
920.003	825
920.102	-675
920.200	-513
920.298	-290
920.396	670
920.494	139
920.592	-41
920.690	61
920.788	-25
920.886	-448
920.984	-72
921.082	-377
921.180	453
921.277	662
921.375	582
921.473	-300
921.571	-950
921.669	307
921.766	-49
921.864	-458
921.962	284
922.060	-246
922.157	425
922.255	-307
922.352	-28
922.450	-404
922.548	-802
922.645	-229
922.743	-580
922.840	-280
922.938	537
923.035	180
923.133	228
923.230	467
923.327	-50
923.425	759
923.522	808
923.619	-22
923.717	-81
923.814	-118
923.911	-126
924.008	427
924.106	514
924.203	190
924.300	-386
924.397	-220
924.494	731
924.591	866
924.688	148
924.786	-616
924.883	727
924.979	529
925.077	481
925.173	325
925.270	-387
925.367	361
925.464	-127
925.561	776
925.658	966
925.755	1043
925.852	2039
925.948	2067
926.045	3529
926.142	5275
926.239	5981
926.335	6573
926.432	5310
926.529	6041
926.625	7192
926.722	4787
926.818	2439
926.915	1062
927.011	-30
927.108	942
927.204	258
927.301	-121
927.397	763
927.494	667
927.590	423
927.687	-304
927.783	474
927.879	395
927.976	-422
928.072	24
928.168	-537
928.264	107
928.361	-607
928.457	-123
928.553	-120
928.649	197
928.745	436
928.841	-936
928.937	-617
929.033	289
929.129	196
929.225	82
929.321	99
929.417	-550
929.513	-848
929.609	-184
929.705	-203
929.801	-58
929.897	42
929.993	-31
930.089	-521
930.184	-799
930.280	-265
930.376	242
930.471	-486
930.567	-63
930.663	84
930.758	-809
930.854	-1080
930.950	-91
931.045	-91
931.141	-64
931.236	-139
931.332	-230
931.427	3
931.523	153
931.618	283
931.714	-320
931.809	32
931.905	-351
932.000	-479
932.095	-17
932.191	810
932.286	-520
932.381	-603
932.476	-178
932.572	-330
932.667	-267
932.762	-279
932.857	-476
932.952	-548
933.047	224
933.142	-667
933.237	-1035
933.332	-709
933.427	-164
933.522	-12
933.617	-213
933.712	-176
933.807	-424
933.902	176
933.997	-585
934.092	-534
934.187	-808
934.282	-240
934.376	-522
934.471	-105
934.566	-571
934.661	-43
934.755	417
934.850	-20
934.945	-1341
935.039	-952
935.134	-388
935.228	-404
935.323	-106
935.417	-282
935.512	-1020
935.606	-1492
935.701	-393
935.795	-287
935.890	-273
935.984	-626
936.079	-22
936.173	253
936.267	-725
936.362	-646
936.456	-171
936.550	-58
936.644	102
936.738	-142
936.833	-215
936.927	-246
937.021	-127
937.115	-814
937.209	-1579
937.303	172
937.397	-761
937.491	219
937.585	-455
937.679	-665
937.773	-318
937.867	-444
937.961	-378
938.055	-172
938.149	646
938.243	235
938.337	-582
938.430	901
938.524	2881
938.618	8048
938.712	5405
938.805	1248
938.899	898
938.993	1271
939.086	3336
939.180	10060
939.274	12180
939.367	3518
939.461	1282
939.554	-403
939.648	-364
939.741	-697
939.835	-86
939.928	84
940.022	-310
940.115	23
940.208	-185
940.302	-264
940.395	227
940.488	-536
940.582	-353
940.675	-343
940.768	247
940.861	-380
940.954	519
941.048	39
941.141	603
941.234	2103
941.327	5658
941.420	5943
941.513	2141
941.606	200
941.699	167
941.792	148
941.885	796
941.978	49
942.071	-200
942.164	-92
942.257	-400
942.349	-567
942.442	-533
942.535	-656
942.628	-68
942.721	-1133
942.813	-1242
942.906	62
942.999	-1205
943.091	-619
943.184	-700
943.277	-115
943.369	-56
943.462	-675
943.554	-377
943.647	-783
943.739	-833
943.832	-94
943.924	-1441
944.017	-405
944.109	-347
944.201	-515
944.294	-1288
944.386	-1658
944.478	-438
944.571	-1073
944.663	-802
944.755	-449
944.847	-269
944.940	-1139
945.032	-339
945.124	-394
945.216	293
945.308	-87
945.400	-526
945.492	-326
945.584	-597
945.676	-724
945.768	-533
945.860	20
945.952	27
946.044	903
946.136	-296
946.228	-1265
946.320	-974
946.412	-314
946.503	-846
946.595	478
946.687	-525
946.779	-1330
946.870	-2031
946.962	-1124
947.054	-975
947.145	-320
947.237	-825
947.329	-1227
947.420	-903
947.512	-1320
947.603	-1335
947.695	-741
947.786	-854
947.878	-272
947.969	-272
948.061	-1233
948.152	-1073
948.243	-1041
948.335	-652
948.426	-907
948.517	-670
948.609	-97
948.700	-758
948.791	-721
948.882	-344
948.973	-590
949.065	-432
949.156	-286
949.247	-1608
949.338	-307
949.429	-792
949.520	-942
949.611	-1247
949.702	-1335
949.793	-957
949.884	-536
949.975	-812
950.066	-816
950.157	-1782
950.247	-364
950.338	-1050
950.429	-825
950.520	-668
950.611	-1458
950.701	-742
950.792	-916
950.883	-310
950.973	-669
951.064	-670
951.155	-1113
951.245	-591
951.336	-516
951.427	-1311
951.517	-227
951.608	-305
951.698	-1256
951.788	-1158
951.879	-938
951.969	-1650
952.060	-1144
952.150	-1301
952.240	-67
952.331	-2921
952.421	558
952.511	-1319
952.602	-1035
952.692	-1064
952.782	-1263
952.872	-1361
952.962	-1238
953.052	-1899
953.143	-1564
953.233	-1051
953.323	-765
953.413	-1457
953.503	-745
953.593	-1118
953.683	-708
953.773	-1596
953.863	-1124
953.953	-1597
954.042	-757
954.132	-690
954.222	-614
954.312	-1168
954.402	-724
954.492	-461
954.581	-1599
954.671	-1253
954.761	-845
954.850	-383
954.940	-1685
955.030	-1447
955.119	-890
955.209	-1456
955.298	-1747
955.388	-1320
955.477	-289
955.567	-1328
955.656	-1262
955.746	-600
955.835	-371
955.925	-1524
956.014	-1300
956.103	-1137
956.193	-1014
956.282	-1114
956.371	-1153
956.461	-732
956.550	-964
956.639	-616
956.728	-1293
956.817	-1139
956.906	-995
956.995	-1165
957.085	-772
957.174	-792
957.263	-1397
957.352	-329
957.441	-1086
957.530	-1064
957.619	-191
957.708	-1072
957.796	-1040
957.885	-1153
957.974	-1349
958.063	-149
958.152	-1481
958.241	-639
958.329	-1241
958.418	-949
958.507	-1113
958.596	-404
958.684	-1672
958.773	-1216
958.861	-1562
958.950	-649
959.039	-910
959.127	-1154
959.216	-1057
959.304	-1264
959.393	-717
959.481	-1400
959.570	-833
959.658	-1771
959.746	-923
959.835	-1103
959.923	-760
960.011	-2120
960.100	-605
960.188	-547
960.276	-735
960.365	-1061
960.453	-1327
960.541	-2292
960.629	-1450
960.717	-1456
960.805	-1605
960.893	-1822
960.981	-987
961.069	-341
961.158	-1761
961.245	-1029
961.333	-964
961.421	-1862
961.509	-414
961.597	-1037
961.685	-1206
961.773	-481
961.861	-1930
961.949	-1228
962.036	-967
962.124	-1306
962.212	-1332
962.299	-2091
962.387	-511
962.475	-1846
962.562	-1492
962.650	-850
962.738	-1516
962.825	-1849
962.913	-1574
963.000	-1207
963.088	-1262
963.175	-857
963.263	-1210
963.350	-1604
963.438	-1898
963.525	-2088
963.612	-953
963.700	-2194
963.787	-1774
963.874	-1689
963.962	-1077
964.049	-1469
964.136	-1655
964.223	-2139
964.310	-1540
964.398	-1733
964.485	-1574
964.572	-1050
964.659	-835
964.746	-1948
964.833	-1117
964.920	-1216
965.007	-2088
965.094	-1436
965.181	-1608
965.268	-1449
965.355	-1520
965.441	-551
965.528	-2114
965.615	-861
965.702	-1121
965.789	-1637
965.875	-1492
965.962	-1476
966.049	-1627
966.136	-1237
966.222	-1282
966.309	-1503
966.395	-1616
966.482	-1001
966.569	-1853
966.655	-1315
966.742	-974
966.828	-1128
966.915	-1831
967.001	-1740
967.087	-2123
967.174	-806
967.260	-867
967.347	-1488
967.433	-1736
967.519	-1580
967.605	-1839
967.692	-1588
967.778	-1332
967.864	-808
967.950	-1667
968.036	-1140
968.123	-1527
968.209	-1089
968.295	-2416
968.381	160
968.467	-445
968.553	-2412
968.639	-1124
968.725	-2116
968.811	-419
968.897	-1317
968.983	-926
969.069	-2006
969.154	-750
969.240	-798
969.326	-1853
969.412	-1396
969.497	-1368
969.583	-1579
969.669	-175
969.755	-780
969.840	-670
969.926	-1213
970.012	-1188
970.097	-577
970.183	-2239
970.268	-1564
970.354	-1119
970.439	-2013
970.525	-1301
970.610	-2236
970.696	-684
970.781	-1838
970.866	-2197
970.952	-944
971.037	-2082
971.122	-2063
971.208	-1488
971.293	-1995
971.378	-1895
971.463	-1363
971.549	-1154
971.634	-1835
971.719	-1304
971.804	-1913
971.889	-911
971.974	-2246
972.059	-1083
972.144	-1519
972.229	-1399
972.314	-2291
972.399	-1564
972.484	-1580
972.569	-1368
972.654	-2828
972.739	-388
972.824	-1753
972.908	-1779
972.993	-1563
973.078	-1711
973.163	-1626
973.247	-641
973.332	-2728
973.417	-566
973.501	-2319
973.586	-784
973.671	-1518
973.755	-1577
973.840	-1785
973.924	-641
974.009	-1645
974.093	-2262
974.178	-917
974.262	-1200
974.346	-1866
974.431	-1172
974.515	-1619
974.600	-2095
974.684	-1524
974.768	-1696
974.852	-878
974.937	-1877
975.021	-1376
975.105	-1071
975.189	-1462
975.273	-1523
975.358	-2253
975.442	-2553
975.526	-1815
975.610	-2725
975.694	-2156
975.778	-1160
975.862	-1329
975.946	-4312
976.030	-743
976.114	-1738
976.198	-1395
976.281	-1836
976.365	-1730
976.449	-1626
976.533	-1657
976.617	-2364
976.700	-1928
976.784	-686
976.868	-2063
976.951	-1802
977.035	-2118
977.119	-848
977.202	-1779
977.286	-1598
977.369	-1557
977.453	-1449
977.536	-1546
977.620	-1652
977.703	-1237
977.787	-1369
977.870	-514
977.953	-982
978.037	-3602
978.120	-1170
978.203	-2205
978.287	-1654
978.370	-2178
978.453	-1725
978.536	-1679
978.620	-1682
978.703	-1300
978.786	-1577
978.869	-1945
978.952	-2146
979.035	-1056
979.118	-2041
979.201	-1746
979.284	-1145
979.367	-2055
979.450	-1106
979.533	-1959
979.616	-1384
979.699	-2125
979.782	-1876
979.865	-1570
979.948	-1467
980.030	-2192
980.113	-2795
980.196	-3171
980.279	-1171
980.361	-1830
980.444	-1939
980.526	-1836
980.609	-1355
980.692	-1628
980.774	-2109
980.857	-2182
980.939	-847
981.022	-2147
981.104	-2384
981.187	-2043
981.269	-1761
981.352	-1439
981.434	-2778
981.516	-1998
981.599	-716
981.681	-1547
981.763	-2241
981.846	-1605
981.928	-2064
982.010	-1779
982.092	-2250
982.174	-1456
982.256	-1705
982.339	-1680
982.421	-1386
982.503	-1242
982.585	-2312
982.667	-1936
982.749	-1900
982.831	-1039
982.913	-2631
982.995	-1459
983.077	-1855
983.158	-1680
983.240	-2780
983.322	-852
983.404	-1110
983.486	-1950
983.568	-1152
983.649	-1874
983.731	-1160
983.813	-2067
983.894	-1350
983.976	-2083
984.058	-1957
984.139	-1639
984.221	-2763
984.302	-530
984.384	-1585
984.465	-2773
984.547	-1617
984.628	-2398
984.710	-1364
984.791	-1616
984.872	-2329
984.954	-1958
985.035	-2242
985.116	-2504
985.198	-2615
985.279	-1423
985.360	-1737
985.441	-1979
985.522	-1373
985.604	-2002
985.685	-3859
985.766	-994
985.847	-357
985.928	-2984
986.009	-1235
986.090	-2034
986.171	-1337
986.252	-2177
986.333	-1380
986.414	-1104
986.495	-1564
986.576	-1510
986.656	-1694
986.737	-1839
986.818	-1749
986.899	-1934
986.980	-2238
987.060	-1218
987.141	-2598
987.222	-2149
987.302	-2105
987.383	-1674
987.464	-2435
987.544	-1746
987.625	-2628
987.705	-1128
987.786	-1704
987.866	-1108
987.947	-3112
988.027	-1553
988.108	-1705
988.188	-1222
988.268	-1760
988.349	-1643
988.429	-1461
988.509	-1598
988.589	-1536
988.670	-3117
988.750	-706
988.830	-1900
988.910	-2225
988.990	-1882
989.070	-1734
989.151	-1493
989.231	-2411
989.311	-2806
989.391	-2009
989.471	-1822
989.551	-2511
989.631	-2137
989.711	-707
989.791	-2120
989.870	-2560
989.950	-613
990.030	-2614
990.110	-1411
990.190	-2590
990.269	-1639
990.349	-2124
990.429	-1539
990.509	-1493
990.588	-2431
990.668	-1327
990.747	-2251
990.827	-2023
990.907	-983
990.986	-1944
991.066	-1551
991.145	-1883
991.225	-1952
991.304	-2268
991.383	-1723
991.463	-2076
991.542	-2072
991.622	-1388
991.701	-2023
991.780	-1581
991.859	-2096
991.939	-2312
992.018	-2112
992.097	-1380
992.176	-1320
992.256	-1341
992.335	-2204
992.414	-1599
992.493	-2385
992.572	-1823
992.651	-895
992.730	-2224
992.809	-1617
992.888	-2749
992.967	-2493
993.046	-902
993.125	-2515
993.203	-2205
993.282	-1657
993.361	-1992
993.440	-2330
993.519	-2548
993.597	-1931
993.676	-2522
993.755	-2150
993.834	-2173
993.912	-1939
993.991	-1224
994.069	-1717
994.148	-1898
994.226	-1789
994.305	-2100
994.384	-2569
994.462	-1672
994.540	-1977
994.619	-1763
994.697	-1730
994.776	-2092
994.854	-1487
994.932	-2147
995.011	-1946
995.089	-2354
995.167	-1874
995.245	-2058
995.324	-2978
995.402	-1797
995.480	-2393
995.558	-1887
995.636	-2872
995.714	-2341
995.792	-1417
995.870	-2394
995.948	-2170
996.026	-2388
996.104	-3006
996.182	-1626
996.260	-2788
996.338	-1537
996.416	-2603
996.494	-2106
996.572	-2341
996.649	-2134
996.727	-2555
996.805	-2112
996.883	-1424
996.960	-1389
997.038	-2067
997.116	-1826
997.193	-2356
997.271	-1498
997.348	-2804
997.426	-1663
997.504	-3039
997.581	-2225
997.658	-2268
997.736	-2260
997.813	-2443
997.891	-1641
997.968	-2679
998.046	-2074
998.123	-2198
998.200	-2255
998.277	-2373
998.355	-1320
998.432	-2910
998.509	-1770
998.586	-1359
998.663	-1567
998.741	-2464
998.818	-2669
998.895	-2306
998.972	-1716
999.049	-2579
999.126	-2558
999.203	-2138
999.280	-2050
999.357	-2952
999.434	-2806
999.511	-2557
999.587	-1638
999.664	-2732
999.741	-2014
999.818	-1606
999.895	-3675
999.971	-2290
1000.048	-2167
1000.125	-1958
1000.202	-2014
1000.278	-1894
1000.355	-1314
1000.431	-2835
1000.508	-2471
1000.584	-1770
1000.661	-2359
1000.738	-2443
1000.814	-2235
1000.890	-2591
1000.967	-2060
1001.043	-2491
1001.120	-2973
1001.196	-1940
1001.272	-3283
1001.349	-2481
1001.425	-1480
1001.501	-2147
1001.577	-2290
1001.654	-1973
1001.730	-2566
1001.806	-2480
1001.882	-2951
1001.958	-2394
1002.034	-1935
1002.110	-2408
1002.186	-3024
1002.262	-2365
1002.338	-2989
1002.414	-2427
1002.490	-1932
1002.566	-2191
1002.642	-3042
1002.718	-1977
1002.794	-2763
1002.870	-2305
1002.945	-2031
1003.021	-1853
1003.097	-2977
1003.173	-2083
1003.248	-2266
1003.324	-1814
1003.400	-2000
1003.475	-3031
1003.551	-1953
1003.626	-1947
1003.702	-2530
1003.777	-2364
1003.853	-2615
1003.928	-3139
1004.004	-2354
1004.079	-1742
1004.155	-2684
1004.230	-3611
1004.305	-2214
1004.381	-2726
1004.456	-2219
1004.531	-2610
1004.607	-2415
1004.682	-2487
1004.757	-1947
1004.832	-2963
1004.907	-2964
1004.982	-1900
1005.057	-2404
1005.133	-2060
1005.208	-2568
1005.283	-2584
1005.358	-1954
1005.433	-3142
1005.508	-1237
1005.583	-2558
1005.657	-2941
1005.732	-2452
1005.807	-2822
1005.882	-2144
1005.957	-2543
1006.032	-1791
1006.106	-2851
1006.181	-3553
1006.256	-2234
1006.331	-2185
1006.405	-2402
1006.480	-2027
1006.554	-2456
1006.629	-2152
1006.704	-2404
1006.778	-1857
1006.853	-1555
1006.927	-2609
1007.002	-3323
1007.076	-2359
1007.150	-2422
1007.225	-2553
1007.299	-2442
1007.373	-2500
1007.448	-2237
1007.522	-1866
1007.596	-2584
1007.671	-2384
1007.745	-2136
1007.819	-3147
1007.893	-2562
1007.967	-2255
1008.041	-3420
1008.115	-1684
1008.190	-2666
1008.264	-2081
1008.338	-2154
1008.412	-2724
1008.486	-2620
1008.560	-2814
1008.633	-2507
1008.707	-2717
1008.781	-1360
1008.855	-2507
1008.929	-1540
1009.003	-2241
1009.076	-2083
1009.150	-2089
1009.224	-2287
1009.298	-2158
1009.371	-1995
1009.445	-2750
1009.519	-2727
1009.592	-2452
1009.666	-2486
1009.739	-2041
1009.813	-3250
1009.886	-1944
1009.960	-2549
1010.033	-1639
1010.107	-1784
1010.180	-3087
1010.253	-1790
1010.327	-2364
1010.400	-2351
1010.473	-2053
1010.547	-750
1010.620	-1908
1010.693	-1541
1010.766	-2072
1010.840	-1823
1010.913	-1462
1010.986	-1463
1011.059	-970
1011.132	-1312
1011.205	-1128
1011.278	-881
1011.351	-229
1011.424	-1071
1011.497	-2421
1011.570	-1951
1011.643	-2082
1011.716	-2859
1011.789	-2439
1011.862	-2392
1011.934	-2101
1012.007	-2325
1012.080	-2556
1012.153	-2307
1012.225	-1874
1012.298	-2363
1012.371	-2705
1012.443	-1946
1012.516	-3024
1012.588	-1672
1012.661	-2550
1012.733	-2657
1012.806	-2444
1012.879	-2498
1012.951	-2032
1013.023	-2114
1013.096	-2405
1013.168	-2361
1013.241	-2464
1013.313	-2489
1013.385	-2887
1013.458	-2813
1013.530	-2267
1013.602	-3095
1013.674	-2425
1013.746	-2485
1013.819	-2566
1013.891	-1772
1013.963	-3221
1014.035	-1927
1014.107	-2380
1014.179	-2532
1014.251	-2725
1014.323	-2100
1014.395	-2315
1014.467	-2099
1014.539	-2784
1014.611	-2963
1014.683	-2134
1014.754	-2624
1014.826	-2389
1014.898	-2789
1014.970	-2595
1015.042	-1708
1015.113	-2009
1015.185	-2183
1015.257	-2767
1015.328	-1891
1015.400	-2898
1015.471	-2676
1015.543	-2695
1015.615	-2104
1015.686	-2791
1015.757	-2138
1015.829	-2457
1015.901	-2691
1015.972	-2362
1016.043	-3197
1016.115	-2565
1016.186	-2517
1016.257	-2392
1016.328	-2203
1016.400	-1847
1016.471	-3196
1016.542	-2264
1016.613	-1532
1016.685	-2403
1016.756	-1515
1016.827	-2694
1016.898	-2911
1016.969	-1808
1017.040	-2060
1017.111	-2413
1017.182	-2795
1017.253	-2448
1017.324	-2710
1017.395	-2028
1017.466	-2461
1017.537	-2563
1017.608	-2439
1017.678	-3127
1017.749	-2928
1017.820	-2172
1017.891	-3125
1017.961	-2511
1018.032	-2061
1018.103	-1950
1018.173	-2198
1018.244	-2900
1018.315	-2144
1018.385	-2963
1018.456	-2203
1018.526	-2474
1018.597	-2509
1018.667	-2671
1018.738	-2196
1018.808	-1927
1018.878	-2068
1018.949	-2014
1019.019	-2420
1019.089	-2052
1019.160	-2090
1019.230	-2875
1019.300	-2200
1019.371	-3162
1019.441	-2327
1019.511	-2328
1019.581	-2376
1019.651	-1656
1019.721	-2706
1019.791	-2146
1019.861	-2453
1019.931	-2518
1020.001	-1986
1020.071	-2861
1020.141	-2483
1020.211	-2053
1020.281	-2309
1020.351	-2783
1020.421	-2170
1020.491	-1697
1020.560	-2524
1020.630	-2601
1020.700	-2631
1020.770	-2542
1020.839	-2279
1020.909	-2359
1020.979	-2529
1021.048	-2793
1021.118	-2515
1021.187	-2564
1021.257	-2297
1021.326	-1949
1021.396	-1954
1021.465	-2097
1021.535	-1863
1021.604	-2873
1021.674	-2438
1021.743	-1442
1021.812	-1953
1021.882	-2757
1021.951	-1424
1022.020	-2157
1022.089	-2678
1022.159	-2170
1022.228	-2329
1022.297	-2635
1022.366	-1883
1022.435	-2177
1022.504	-2048
1022.573	-2349
1022.642	-2863
1022.711	-1924
1022.781	-2189
1022.849	-1949
1022.918	-3069
1022.987	-2565
1023.056	-2713
1023.125	-2180
1023.194	-2790
1023.263	-1390
1023.331	-2351
1023.400	-2666
1023.469	-2483
1023.538	-2351
1023.606	-2368
1023.675	-2065
1023.744	-2309
1023.812	-2896
1023.881	-2474
1023.949	-2347
1024.018	-2384
1024.086	-2273
1024.155	-2527
1024.223	-2799
1024.292	-2261
1024.360	-2421
1024.429	-2444
1024.497	-2285
1024.565	-2209
1024.634	-2468
1024.702	-2524
1024.770	-2792
1024.838	-1874
1024.907	-2177
1024.975	-2398
1025.043	-2073
1025.111	-3223
1025.179	-2209
1025.247	-1663
1025.315	-2793
1025.383	-2610
1025.451	-2555
1025.519	-2473
1025.587	-2432
1025.655	-2701
1025.723	-2566
1025.791	-1899
1025.859	-2121
1025.927	-1372
1025.995	-2741
1026.062	-1755
1026.130	-2393
1026.198	-2324
1026.266	-2514
1026.333	-1933
1026.401	-1904
1026.469	-3117
1026.536	-2328
1026.604	-2017
1026.671	-2572
1026.739	-2367
1026.806	-2487
1026.874	-2248
1026.941	-2889
1027.009	-1973
1027.076	-2747
1027.144	-1221
1027.211	-2090
1027.278	-2244
1027.345	-3439
1027.413	-1675
1027.480	-2817
1027.547	-1889
1027.614	-2284
1027.682	-1906
1027.749	-2280
1027.816	-2597
1027.883	-2675
1027.950	-1526
1028.017	-2590
1028.084	-1662
1028.151	-1782
1028.218	-2072
1028.285	-1349
1028.352	-2245
1028.419	-2333
1028.486	-2121
1028.553	-2366
1028.619	-2583
1028.686	-2426
1028.753	-3300
1028.820	-2359
1028.886	-2014
1028.953	-2314
1029.020	-1611
1029.086	-3006
1029.153	-2156
1029.220	-2868
1029.286	-1798
1029.353	-2208
1029.419	-2101
1029.486	-2258
1029.552	-1268
1029.619	-2585
1029.685	-1777
1029.751	-2442
1029.818	-1976
1029.884	-2268
1029.951	-1505
1030.017	-2198
1030.083	-1841
1030.149	-2686
1030.216	-2599
1030.282	-2681
1030.348	-2499
1030.414	-3171
1030.480	-1975
1030.546	-2347
1030.612	-1941
1030.678	-3210
1030.744	-2295
1030.810	-1941
1030.876	-2370
1030.942	-2237
1031.008	-2241
1031.074	-1541
1031.140	-2622
1031.206	-1329
1031.272	-2760
1031.337	-2424
1031.403	-1782
1031.469	-2659
1031.534	-2750
1031.600	-1980
1031.666	-3424
1031.731	-2509
1031.797	-1864
1031.863	-2489
1031.928	-2031
1031.994	-2369
1032.059	-2295
1032.125	-2116
1032.190	-2571
1032.256	-3201
1032.321	-2565
1032.386	-2439
1032.452	-1743
1032.517	-2090
1032.582	-1800
1032.647	-2223
1032.713	-2136
1032.778	-2285
1032.843	-1952
1032.908	-2580
1032.974	-1211
1033.039	-2211
1033.104	-2186
1033.169	-2456
1033.234	-2683
1033.299	-2442
1033.364	-1575
1033.429	-2246
1033.494	-2139
1033.559	-2606
1033.624	-2805
1033.688	-2327
1033.753	-2290
1033.818	-2403
1033.883	-2387
1033.948	-2144
1034.013	-2014
1034.077	-2477
1034.142	-2337
1034.207	-2088
1034.271	-1008
1034.336	-1439
1034.400	-1665
1034.465	-2386
1034.530	-2635
1034.594	-2310
1034.658	-2441
1034.723	-2713
1034.787	-1638
1034.852	-2468
1034.916	-1990
1034.981	-2534
1035.045	-1932
1035.109	-2983
1035.173	-1665
1035.238	-2989
1035.302	-2349
1035.366	-2575
1035.430	-1830
1035.495	-2145
1035.559	-2222
1035.623	-2001
1035.687	-3294
1035.751	-2255
1035.815	-2976
1035.879	-2643
1035.943	-2597
1036.007	-2686
1036.071	-2720
1036.135	-2565
1036.198	-2097
1036.262	-3014
1036.326	-1868
1036.390	-1855
1036.454	-2383
1036.517	-2054
1036.581	-2886
1036.645	-2366
1036.709	-2699
1036.772	-2273
1036.836	-2994
1036.900	-2245
1036.963	-1762
1037.026	-1392
1037.090	-1936
1037.154	-2258
1037.217	-2576
1037.280	-2642
1037.344	-3011
1037.407	-3261
1037.471	-2106
1037.534	-2071
1037.597	-2530
1037.661	-2319
1037.724	-2530
1037.787	-3073
1037.850	-3334
1037.913	-2237
1037.977	-2544
1038.040	-2332
1038.103	-2062
1038.166	-2666
1038.229	-2151
1038.292	-2349
1038.355	-2434
1038.418	-2295
1038.481	-1696
1038.544	-2399
1038.607	-2171
1038.670	-1995
1038.732	-2060
1038.795	-2794
1038.858	-1969
1038.921	-2003
1038.984	-2320
1039.046	-1596
1039.109	-2026
1039.172	-1900
1039.234	-2386
1039.297	-2024
1039.360	-1724
1039.422	-2275
1039.485	-3088
1039.547	-2801
1039.610	-2326
1039.672	-2570
1039.734	-2185
1039.797	-2125
1039.859	-2878
1039.922	-2554
1039.984	-2307
1040.046	-2638
1040.109	-2318
1040.171	-2996
1040.233	-2939
1040.295	-2324
1040.358	-3459
1040.420	-1688
1040.482	-2594
1040.544	-1959
1040.606	-2113
1040.668	-2607
1040.730	-2359
1040.792	-2160
1040.854	-2699
1040.916	-2338
1040.978	-2044
1041.040	-2067
1041.102	-1935
1041.164	-2962
1041.225	-2203
1041.287	-2666
1041.349	-2465
1041.411	-2399
1041.472	-1561
1041.534	-1980
1041.596	-2782
1041.657	-1475
1041.719	-2338
1041.781	-2650
1041.842	-1653
1041.904	-2585
1041.965	-2114
1042.027	-1710
1042.088	-2345
1042.150	-2320
1042.211	-2285
1042.272	-2160
1042.334	-2187
1042.395	-2153
1042.456	-2774
1042.518	-2473
1042.579	-1967
1042.640	-2674
1042.701	-1832
1042.763	-1833
1042.824	-2530
1042.885	-2720
1042.946	-2740
1043.007	-2701
1043.068	-2341
1043.129	-2531
1043.190	-2301
1043.251	-1746
1043.312	-3497
1043.373	-2500
1043.434	-2355
1043.495	-2233
1043.556	-1466
1043.616	-2660
1043.677	-1688
1043.738	-1779
1043.799	-2425
1043.859	-2967
1043.920	-2195
1043.981	-2809
1044.041	-2258
1044.102	-2369
1044.162	-1425
1044.223	-1953
1044.284	-1866
1044.344	-2048
1044.405	-2050
1044.465	-2572
1044.525	-2267
1044.586	-1894
1044.646	-2391
1044.707	-2466
1044.767	-2070
1044.827	-1883
1044.887	-2021
1044.948	-2912
1045.008	-1990
1045.068	-1710
1045.128	-2674
1045.188	-1510
1045.249	-2003
1045.309	-2339
1045.369	-2138
1045.429	-1197
1045.489	-2809
1045.549	-1878
1045.609	-2486
1045.669	-2724
1045.729	-2356
1045.789	-1759
1045.848	-2376
1045.908	-2061
1045.968	-872
1046.028	-2310
1046.088	-1233
1046.147	-1215
1046.207	-2630
1046.267	-1571
1046.326	-1414
1046.386	-1538
1046.446	-1329
1046.505	-1027
1046.565	-1038
1046.624	-730
1046.684	-1129
1046.743	-1225
1046.803	-1165
1046.862	-419
1046.922	0
