'Start Wavelength	183.907
'End Wavelength	1046.922
'Gate Delay	5.000
'Gate Width (ms)	1.050
'Laser Output Level	0.000
'X Position	0.000
'Y Position	0.000
'Z Position	0.000
'Grid Point Number	1.000
'Shot Number	100.000
183.907	159.000
183.977	637.000
184.047	-503
184.116	900
184.186	28
184.256	550
184.325	104
184.395	160
184.465	704
184.534	1041
184.604	634
184.674	88
184.743	-464
184.813	250
184.883	-499
184.952	786
185.022	-353
185.092	642
185.161	548
185.231	1188
185.301	73
185.370	1351
185.440	-78
185.509	371
185.579	13
185.649	488
185.718	370
185.788	712
185.857	-429
185.927	319
185.996	125
186.066	540
186.136	-555
186.205	-105
186.275	182
186.344	5
186.414	-466
186.483	-491
186.553	1080
186.622	1638
186.692	21
186.761	-256
186.831	-12
186.900	-190
186.970	205
187.039	327
187.109	1385
187.178	853
187.248	608
187.317	832
187.387	-594
187.456	1056
187.526	1396
187.595	962
187.664	57
187.734	113
187.803	137
187.873	935
187.942	1872
188.012	642
188.081	732
188.150	1273
188.220	1093
188.289	1197
188.358	419
188.428	1002
188.497	-182
188.567	832
188.636	-318
188.705	193
188.775	-422
188.844	260
188.913	830
188.983	389
189.052	193
189.121	761
189.191	364
189.260	2298
189.329	1956
189.399	1287
189.468	1330
189.537	1038
189.606	904
189.676	1584
189.745	1678
189.814	1170
189.883	873
189.953	2554
190.022	2588
190.091	6990
190.161	11141
190.230	3874
190.299	1043
190.368	1657
190.437	1056
190.507	1476
190.576	1146
190.645	1244
190.714	1472
190.783	260
190.853	896
190.922	700
190.991	327
191.060	501
191.129	-614
191.198	899
191.268	827
191.337	365
191.406	78
191.475	1195
191.544	427
191.613	1104
191.682	266
191.752	863
191.821	336
191.890	1043
191.959	949
192.028	1524
192.097	832
192.166	1195
192.235	-195
192.304	739
192.373	229
192.442	1235
192.511	1254
192.580	534
192.650	879
192.719	1037
192.788	761
192.857	1746
192.926	1092
192.995	1691
193.064	3289
193.133	4323
193.202	4608
193.271	4335
193.340	3261
193.409	2594
193.478	2755
193.547	5311
193.615	7176
193.684	6989
193.753	3844
193.822	2736
193.891	1505
193.960	1609
194.029	1284
194.098	1858
194.167	445
194.236	1920
194.305	912
194.374	1208
194.443	1210
194.512	2013
194.580	1526
194.649	1244
194.718	1542
194.787	991
194.856	837
194.925	1937
194.994	921
195.062	1671
195.131	753
195.200	897
195.269	1232
195.338	2059
195.407	1385
195.475	994
195.544	1357
195.613	1248
195.682	1353
195.751	2191
195.819	1057
195.888	1846
195.957	2577
196.026	1338
196.094	1863
196.163	1269
196.232	1102
196.301	1338
196.369	1366
196.438	1810
196.507	1527
196.576	1063
196.644	1293
196.713	1757
196.782	1276
196.850	1871
196.919	1635
196.988	1937
197.056	1457
197.125	2590
197.194	1348
197.262	1727
197.331	1030
197.400	1786
197.468	1685
197.537	1860
197.606	1806
197.674	3717
197.743	10573
197.812	5416
197.880	9628
197.949	7251
198.017	8294
198.086	6702
198.155	2748
198.223	4033
198.292	10680
198.360	6437
198.429	2811
198.497	3186
198.566	7093
198.635	11860
198.703	3412
198.772	4555
198.840	14211
198.909	16227
198.977	4185
199.046	5007
199.114	2839
199.183	3557
199.251	2100
199.320	2191
199.388	2304
199.457	2031
199.525	1891
199.594	1959
199.662	1424
199.731	2282
199.799	2157
199.867	2484
199.936	1485
200.004	2663
200.073	1867
200.141	2058
200.210	1197
200.278	2001
200.346	2182
200.415	2460
200.483	2607
200.552	2631
200.620	1891
200.688	2239
200.757	1968
200.825	2145
200.893	1672
200.962	2704
201.030	1057
201.098	2392
201.167	1706
201.235	2968
201.303	2645
201.372	2069
201.440	2046
201.508	2961
201.577	1578
201.645	2876
201.713	2197
201.781	1653
201.850	1817
201.918	2588
201.986	1617
202.055	2828
202.123	2194
202.191	2759
202.259	2654
202.327	2479
202.396	1796
202.464	1959
202.532	1941
202.600	4219
202.669	2429
202.737	2634
202.805	1384
202.873	2266
202.941	2163
203.009	2645
203.078	2078
203.146	3237
203.214	1861
203.282	1918
203.350	2498
203.418	2182
203.487	2553
203.555	2036
203.623	2511
203.691	2595
203.759	1701
203.827	3296
203.895	2792
203.963	2558
204.031	2027
204.099	3264
204.168	2503
204.236	2572
204.304	2956
204.372	3150
204.440	2804
204.508	3178
204.576	2273
204.644	3685
204.712	2251
204.780	3085
204.848	2430
204.916	3050
204.984	2774
205.052	3403
205.120	3404
205.188	3051
205.256	2768
205.324	3552
205.392	3082
205.460	4110
205.528	4518
205.596	3871
205.664	3030
205.732	5194
205.799	12795
205.867	23658
205.935	6915
206.003	5259
206.071	3872
206.139	5066
206.207	3720
206.275	3139
206.343	2944
206.411	3280
206.478	3344
206.546	3474
206.614	3735
206.682	4058
206.750	3410
206.818	4437
206.885	3952
206.953	2599
207.021	4947
207.089	4004
207.157	3193
207.225	4425
207.292	4129
207.360	4141
207.428	4352
207.496	4079
207.563	2595
207.631	3888
207.699	3560
207.767	3226
207.834	2447
207.902	4155
207.970	3922
208.038	4021
208.105	3588
208.173	5331
208.241	6997
208.309	6237
208.376	4181
208.444	7910
208.512	6397
208.579	3647
208.647	5091
208.715	5483
208.782	3480
208.850	4043
208.918	3646
208.985	5415
209.053	4265
209.120	4577
209.188	2750
209.256	4282
209.323	3058
209.391	4002
209.459	4689
209.526	3725
209.594	3834
209.661	4576
209.729	3519
209.796	4500
209.864	3919
209.932	3474
209.999	4941
210.067	4965
210.134	3998
210.202	4655
210.269	5350
210.337	5615
210.404	3978
210.472	4854
210.539	4689
210.607	4718
210.674	4108
210.742	4492
210.809	4658
210.877	4819
210.944	4746
211.012	3944
211.079	5185
211.146	4804
211.214	5107
211.281	5445
211.349	5506
211.416	5384
211.484	5368
211.551	4987
211.618	4945
211.686	5099
211.753	4530
211.821	5500
211.888	5048
211.955	5553
212.023	4825
212.090	6241
212.157	6061
212.225	7452
212.292	14297
212.359	29736
212.427	81701
212.494	38427
212.561	13041
212.629	10055
212.696	8000
212.763	7347
212.831	6165
212.898	6948
212.965	5770
213.032	6092
213.100	5578
213.167	5488
213.234	5798
213.301	6316
213.369	5492
213.436	4806
213.503	5410
213.570	6382
213.638	4753
213.705	5178
213.772	4797
213.839	5872
213.906	6428
213.973	5711
214.041	4718
214.108	5615
214.175	5214
214.242	5837
214.309	5431
214.376	5865
214.444	5088
214.511	6088
214.578	5503
214.645	5673
214.712	5961
214.779	6855
214.846	5713
214.913	7201
214.980	7039
215.048	7115
215.115	6040
215.182	6215
215.249	5372
215.316	5744
215.383	5737
215.450	5777
215.517	3937
215.584	5166
215.651	4586
215.718	5594
215.785	4823
215.852	4698
215.919	4858
215.986	5272
216.053	4687
216.120	4524
216.187	5328
216.254	5025
216.321	4881
216.388	5601
216.455	5147
216.522	6275
216.589	6412
216.656	8521
216.722	8586
216.789	8637
216.856	9061
216.923	8466
216.990	8014
217.057	7564
217.124	8184
217.191	8492
217.258	10080
217.324	12173
217.391	12099
217.458	10754
217.525	8770
217.592	8469
217.659	6707
217.725	7439
217.792	6574
217.859	7548
217.926	4979
217.993	6001
218.059	5924
218.126	5571
218.193	5090
218.260	4400
218.327	4167
218.393	4425
218.460	3926
218.527	4964
218.594	4031
218.660	5693
218.727	4581
218.794	4318
218.860	4966
218.927	4315
218.994	4164
219.061	4121
219.127	4496
219.194	5388
219.261	4546
219.327	3396
219.394	3441
219.461	3868
219.527	3731
219.594	4575
219.661	4098
219.727	4313
219.794	4743
219.860	4668
219.927	5461
219.994	5724
220.060	6821
220.127	7072
220.193	8306
220.260	8806
220.326	12286
220.393	17639
220.460	21265
220.526	15334
220.593	11282
220.659	13737
220.726	13648
220.792	34145
220.859	29440
220.925	29859
220.992	35150
221.058	42895
221.125	49187
221.191	38401
221.258	16097
221.324	11737
221.391	8457
221.457	7634
221.524	8118
221.590	12206
221.657	45673
221.723	35276
221.789	27335
221.856	24636
221.922	13122
221.989	8947
222.055	6282
222.121	6359
222.188	6265
222.254	6032
222.321	4838
222.387	4494
222.453	4028
222.520	4376
222.586	3481
222.652	4316
222.719	4071
222.785	4943
222.851	3519
222.918	4064
222.984	3740
223.050	3978
223.116	2474
223.183	4615
223.249	3252
223.315	3504
223.382	3551
223.448	3531
223.514	2669
223.580	3220
223.647	2209
223.713	4099
223.779	3168
223.845	3746
223.911	3879
223.978	2799
224.044	2682
224.110	3317
224.176	3516
224.242	3647
224.309	2202
224.375	3878
224.441	3162
224.507	2936
224.573	1957
224.639	3908
224.705	1855
224.772	2929
224.838	3255
224.904	4088
224.970	3208
225.036	3772
225.102	2321
225.168	3261
225.234	3433
225.300	3352
225.366	3535
225.432	4012
225.499	3309
225.565	3943
225.631	3992
225.697	4658
225.763	6388
225.829	7785
225.895	7396
225.961	9159
226.027	9594
226.093	9015
226.159	11290
226.225	18895
226.291	39398
226.357	59546
226.423	32148
226.489	17202
226.554	13344
226.620	12794
226.686	13900
226.752	20804
226.818	39457
226.884	77414
226.950	67960
227.016	32495
227.082	18005
227.148	12674
227.214	9540
227.279	7846
227.345	6305
227.411	6254
227.477	5770
227.543	8362
227.609	7724
227.674	6368
227.740	4632
227.806	5855
227.872	4908
227.938	5343
228.003	4965
228.069	4823
228.135	4309
228.201	5181
228.267	4562
228.332	4149
228.398	2401
228.464	4903
228.530	2488
228.595	4509
228.661	3332
228.727	4222
228.792	4588
228.858	4097
228.924	3013
228.990	7554
229.055	4061
229.121	7077
229.187	3513
229.252	2776
229.318	2993
229.384	2942
229.449	2379
229.515	1744
229.581	1145
229.646	4575
229.712	3370
229.777	4175
229.843	4377
229.909	5114
229.974	4712
230.040	5819
230.105	4834
230.171	5963
230.236	10474
230.302	16138
230.368	9586
230.433	6995
230.499	6091
230.564	5719
230.630	3642
230.695	5256
230.761	5587
230.826	3784
230.892	5014
230.957	3686
231.023	4316
231.088	4309
231.154	3767
231.219	5341
231.284	4195
231.350	5671
231.415	3450
231.481	3821
231.546	3513
231.612	4678
231.677	3514
231.742	3729
231.808	4462
231.873	3444
231.939	2298
232.004	4004
232.069	4220
232.135	4356
232.200	4501
232.265	4551
232.331	3787
232.396	2958
232.461	3101
232.527	2458
232.592	1998
232.657	3844
232.723	4197
232.788	3173
232.853	3452
232.918	2579
232.984	2277
233.049	2817
233.114	2760
233.179	3931
233.245	5213
233.310	4925
233.375	2694
233.440	3759
233.506	2395
233.571	3151
233.636	2960
233.701	3782
233.766	3916
233.832	4388
233.897	3159
233.962	1856
234.027	3675
234.092	3354
234.157	2232
234.222	3240
234.288	4115
234.353	10101
234.418	8259
234.483	6146
234.548	5306
234.613	5315
234.678	4583
234.743	5404
234.808	9866
234.873	7403
234.938	6403
235.004	5450
235.069	5022
235.134	3924
235.199	5194
235.264	5493
235.329	3602
235.394	5067
235.459	5320
235.524	4166
235.589	4857
235.654	4508
235.719	2906
235.784	5638
235.849	4214
235.913	7264
235.978	6632
236.043	7569
236.108	4906
236.173	4885
236.238	6198
236.303	4869
236.368	5084
236.433	8289
236.498	10090
236.563	13766
236.627	30735
236.692	98338
236.757	90763
236.822	36940
236.887	21602
236.952	18577
237.017	15265
237.081	16215
237.146	20445
237.211	48964
237.276	102861
237.341	155671
237.405	78417
237.470	32306
237.535	19491
237.600	14820
237.664	11074
237.729	9786
237.794	11882
237.859	26392
237.923	15274
237.988	8539
238.053	8171
238.118	9141
238.182	20588
238.247	19514
238.312	7023
238.376	6633
238.441	4050
238.506	6582
238.570	3931
238.635	6110
238.700	4089
238.764	4307
238.829	6558
238.893	7780
238.958	6527
239.023	5334
239.087	4775
239.152	4942
239.216	3797
239.281	4165
239.346	3619
239.410	4710
239.475	4810
239.539	16114
239.604	13090
239.668	5974
239.733	3245
239.797	5506
239.862	9807
239.926	12064
239.991	6517
240.055	4901
240.120	3230
240.184	3999
240.249	2919
240.313	4242
240.378	3781
240.442	7253
240.507	12378
240.571	5052
240.635	4604
240.700	6655
240.764	2860
240.829	3474
240.893	2174
240.957	4304
241.022	6649
241.086	10247
241.151	4080
241.215	2833
241.279	4416
241.344	5910
241.408	5920
241.472	5071
241.537	6249
241.601	6183
241.665	5379
241.730	5517
241.794	5811
241.858	5091
241.922	4525
241.987	5762
242.051	4830
242.115	4432
242.179	5355
242.244	4695
242.308	5404
242.372	5843
242.436	4774
242.501	6156
242.565	3837
242.629	5023
242.693	5572
242.757	4113
242.822	4306
242.886	5886
242.950	5984
243.014	4922
243.078	5975
243.142	5729
243.206	4621
243.271	7735
243.335	7767
243.399	18360
243.463	74186
243.527	196858
243.591	62430
243.655	21630
243.719	12407
243.783	11693
243.847	18142
243.911	25103
243.975	10719
244.040	7818
244.104	7869
244.168	6733
244.232	5242
244.296	10537
244.360	20478
244.424	7183
244.488	5180
244.552	5198
244.615	3386
244.679	4161
244.743	4539
244.807	3550
244.871	4924
244.935	4582
244.999	2807
245.063	3275
245.127	6150
245.191	14860
245.255	14857
245.319	5793
245.383	2147
245.446	6095
245.510	2647
245.574	4371
245.638	4345
245.702	2751
245.766	5404
245.829	5454
245.893	4290
245.957	4983
246.021	4692
246.085	4352
246.149	4842
246.212	7823
246.276	11856
246.340	6216
246.404	4818
246.467	5642
246.531	3455
246.595	6930
246.659	5207
246.722	4468
246.786	4348
246.850	4413
246.913	4433
246.977	3485
247.041	3863
247.104	3853
247.168	4592
247.232	6022
247.295	15832
247.359	9368
247.423	4241
247.486	5361
247.550	4782
247.614	4048
247.677	4189
247.741	4671
247.804	4548
247.868	8567
247.932	6402
247.995	16359
248.059	6038
248.122	3552
248.186	6299
248.249	8001
248.313	30126
248.376	28600
248.440	15877
248.503	6947
248.567	8074
248.630	6080
248.694	7914
248.757	13301
248.821	36082
248.884	18906
248.948	15037
249.011	23150
249.075	39007
249.138	33096
249.202	12963
249.265	10033
249.328	12474
249.392	9194
249.455	8924
249.519	8319
249.582	8411
249.645	10610
249.709	9159
249.772	10306
249.835	9519
249.899	10144
249.962	9455
250.025	8900
250.089	14062
250.152	17496
250.215	11041
250.279	11239
250.342	11769
250.405	12073
250.468	12710
250.532	17856
250.595	37710
250.658	178989
250.721	308977
250.785	91094
250.848	41032
250.911	26356
250.974	21582
251.038	22669
251.101	29485
251.164	21376
251.227	21614
251.290	26482
251.354	55148
251.417	250464
251.480	258491
251.543	174326
251.606	476082
251.669	362166
251.732	123258
251.795	80117
251.859	97256
251.922	288160
251.985	161876
252.048	53298
252.111	33782
252.174	27187
252.237	32542
252.300	64336
252.363	120041
252.426	339966
252.489	129916
252.552	48225
252.615	31152
252.678	31326
252.741	54921
252.804	134237
252.867	367696
252.930	150915
252.993	52541
253.056	31934
253.119	23803
253.182	22194
253.245	52765
253.308	34497
253.371	15928
253.434	13125
253.497	11187
253.559	16160
253.622	11981
253.685	10569
253.748	8735
253.811	7461
253.874	9859
253.937	8137
254.000	7343
254.062	10815
254.125	15261
254.188	10786
254.251	8051
254.314	7025
254.376	6629
254.439	7993
254.502	7657
254.565	10154
254.628	15406
254.690	8235
254.753	4847
254.816	5351
254.878	5533
254.941	9851
255.004	10311
255.067	5475
255.129	3900
255.192	4195
255.255	2951
255.317	3817
255.380	3995
255.443	4241
255.505	3299
255.568	3138
255.631	3199
255.693	3693
255.756	3462
255.819	4149
255.881	2911
255.944	4032
256.006	3160
256.069	4397
256.132	3438
256.194	5116
256.257	8229
256.319	7813
256.382	6949
256.444	7725
256.507	6418
256.569	6267
256.632	7967
256.694	14232
256.757	48197
256.819	157347
256.882	70715
256.944	24570
257.007	15729
257.069	12277
257.132	9399
257.194	9031
257.257	7427
257.319	8331
257.381	13946
257.444	37701
257.506	172139
257.569	186533
257.631	55851
257.693	27652
257.756	18568
257.818	12771
257.880	9778
257.943	8745
258.005	6109
258.067	5763
258.130	5787
258.192	6009
258.254	6468
258.317	5450
258.379	5049
258.441	7691
258.503	7712
258.566	11425
258.628	14343
258.690	5683
258.753	5734
258.815	7033
258.877	4569
258.939	6110
259.001	5463
259.064	5584
259.126	4888
259.188	7033
259.250	6157
259.312	6918
259.375	7273
259.437	5590
259.499	4585
259.561	4881
259.623	4298
259.685	5106
259.747	4953
259.809	11212
259.872	19645
259.934	37965
259.996	26149
260.058	8170
260.120	4956
260.182	4261
260.244	4427
260.306	4195
260.368	3697
260.430	3444
260.492	4259
260.554	5799
260.616	4732
260.678	9953
260.740	15199
260.802	5596
260.864	4562
260.926	3245
260.988	5389
261.050	4036
261.112	4951
261.174	16487
261.236	15640
261.298	5889
261.359	8266
261.421	11292
261.483	4266
261.545	5063
261.607	2964
261.669	5226
261.731	4479
261.793	9450
261.854	3255
261.916	5097
261.978	3181
262.040	4063
262.102	4597
262.164	4739
262.225	3840
262.287	4029
262.349	4284
262.411	4641
262.472	3869
262.534	5695
262.596	8771
262.658	5867
262.719	3120
262.781	5269
262.843	9060
262.904	6918
262.966	6985
263.028	14687
263.090	75815
263.151	227081
263.213	63484
263.275	18899
263.336	12138
263.398	9995
263.459	6521
263.521	5925
263.583	5364
263.644	5321
263.706	2968
263.767	2996
263.829	3459
263.891	2962
263.952	1895
264.014	2955
264.075	2774
264.137	3853
264.198	3120
264.260	2585
264.321	1925
264.383	3886
264.444	4138
264.506	3049
264.567	3060
264.629	4419
264.690	2398
264.752	3482
264.813	3715
264.875	2510
264.936	4112
264.998	3561
265.059	3842
265.120	6559
265.182	12725
265.243	73857
265.305	83750
265.366	19483
265.427	9561
265.489	8067
265.550	4344
265.611	5006
265.673	4015
265.734	4491
265.795	5306
265.857	4883
265.918	7039
265.979	22704
266.040	126240
266.102	115567
266.163	26115
266.224	14161
266.286	9007
266.347	6449
266.408	4903
266.469	5132
266.530	3969
266.592	3564
266.653	4040
266.714	4057
266.775	2687
266.836	2686
266.898	2274
266.959	3364
267.020	2777
267.081	4238
267.142	3377
267.203	2567
267.264	1983
267.326	4165
267.387	2356
267.448	2523
267.509	3142
267.570	2566
267.631	2443
267.692	2411
267.753	2815
267.814	2762
267.875	3797
267.936	7412
267.997	5295
268.058	6909
268.119	3610
268.180	3433
268.241	1672
268.302	3630
268.363	1982
268.424	2755
268.485	3232
268.546	2505
268.607	2528
268.668	2325
268.729	1416
268.790	2397
268.851	2206
268.912	3791
268.972	3915
269.033	2188
269.094	2260
269.155	3042
269.216	2429
269.277	2606
269.338	2302
269.398	3075
269.459	2575
269.520	3645
269.581	2956
269.642	3459
269.702	2330
269.763	3170
269.824	3297
269.885	3950
269.945	3548
270.006	3982
270.067	2306
270.128	2738
270.188	2460
270.249	2048
270.310	2461
270.370	3037
270.431	2682
270.492	1882
270.553	2328
270.613	3207
270.674	4221
270.734	2789
270.795	2284
270.856	3038
270.916	1380
270.977	2147
271.038	2488
271.098	2817
271.159	2457
271.219	2881
271.280	2435
271.340	2472
271.401	2347
271.462	5569
271.522	2943
271.583	2467
271.643	2364
271.704	2510
271.764	2687
271.825	6128
271.885	20446
271.946	35782
272.006	9300
272.066	13850
272.127	25712
272.187	8178
272.248	3886
272.308	4822
272.369	12353
272.429	7450
272.489	4293
272.550	4016
272.610	3493
272.671	3560
272.731	3993
272.791	4605
272.852	2444
272.912	3605
272.972	2450
273.033	3354
273.093	2337
273.153	2933
273.214	2547
273.274	3352
273.334	6837
273.394	13001
273.455	4707
273.515	4705
273.575	8153
273.635	4887
273.696	6770
273.756	16389
273.816	5142
273.876	4960
273.936	9170
273.997	15104
274.057	2994
274.117	3193
274.177	4451
274.237	16403
274.297	17266
274.358	9083
274.418	9433
274.478	7342
274.538	2862
274.598	3424
274.658	11883
274.718	13539
274.778	4636
274.838	3445
274.898	7465
274.958	20073
275.018	18926
275.078	12007
275.138	4020
275.198	3619
275.258	2806
275.318	3223
275.378	2849
275.438	3114
275.498	3316
275.558	10904
275.618	18012
275.678	8041
275.738	4955
275.798	3849
275.858	2118
275.918	2670
275.978	2618
276.038	2578
276.098	1961
276.157	2973
276.217	4877
276.277	4056
276.337	1850
276.397	1873
276.457	1812
276.517	2074
276.576	1530
276.636	2744
276.696	1519
276.756	4675
276.815	3120
276.875	2124
276.935	1899
276.995	2920
277.055	1400
277.114	2584
277.174	1850
277.234	5250
277.293	2414
277.353	2415
277.413	1284
277.472	2100
277.532	1198
277.592	2668
277.651	4222
277.711	6665
277.771	1885
277.830	8415
277.890	6942
277.950	6309
278.009	18642
278.069	7542
278.128	5605
278.188	6448
278.248	3283
278.307	7855
278.367	6057
278.426	3450
278.486	2155
278.545	2505
278.605	2039
278.664	2480
278.724	2729
278.783	6697
278.843	16238
278.902	5313
278.962	3503
279.021	3430
279.081	6076
279.140	5890
279.199	4168
279.259	5239
279.318	5678
279.378	8375
279.437	15071
279.496	42529
279.556	224630
279.615	166767
279.675	33786
279.734	18338
279.793	18671
279.853	21197
279.912	9502
279.971	7072
280.031	5263
280.090	7789
280.149	13005
280.208	21691
280.268	130947
280.327	131009
280.386	23744
280.445	12718
280.505	9431
280.564	7252
280.623	5775
280.682	6894
280.742	6785
280.801	4028
280.860	3040
280.919	2593
280.978	2484
281.037	2467
281.097	1571
281.156	3032
281.215	2551
281.274	3848
281.333	7193
281.392	5952
281.451	2472
281.510	2463
281.569	1815
281.628	5223
281.688	4746
281.747	3524
281.806	1789
281.865	2285
281.924	1222
281.983	2174
282.042	1442
282.101	1438
282.160	2055
282.219	1849
282.278	1399
282.337	3558
282.396	1893
282.454	1713
282.513	1533
282.572	3646
282.631	3146
282.690	1846
282.749	1225
282.808	2045
282.867	1562
282.926	1820
282.985	1262
283.043	2064
283.102	1087
283.161	1832
283.220	3175
283.279	6720
283.338	2592
283.396	2215
283.455	2302
283.514	2456
283.573	2294
283.631	2314
283.690	2211
283.749	2391
283.808	2570
283.866	3464
283.925	1930
283.984	2882
284.043	1958
284.101	2286
284.160	1805
284.219	3132
284.277	2420
284.336	1923
284.395	5508
284.453	5381
284.512	2214
284.570	3266
284.629	2223
284.688	3125
284.746	1943
284.805	3067
284.863	2846
284.922	4531
284.981	3832
285.039	7538
285.098	13427
285.156	38842
285.215	177286
285.273	179755
285.332	63191
285.390	27643
285.449	17450
285.507	12139
285.566	7703
285.624	6717
285.683	4951
285.741	4358
285.799	3384
285.858	4479
285.916	2785
285.975	2906
286.033	2122
286.091	2313
286.150	1016
286.208	3037
286.267	1916
286.325	3291
286.383	2827
286.442	2835
286.500	2197
286.558	3325
286.616	2864
286.675	3476
286.733	2744
286.791	2835
286.850	2595
286.908	3228
286.966	2927
287.024	3704
287.083	2584
287.141	3173
287.199	3432
287.257	3717
287.315	4636
287.374	3821
287.432	6549
287.490	5760
287.548	4338
287.606	5756
287.664	5167
287.723	6274
287.781	7127
287.839	9023
287.897	11284
287.955	20124
288.013	37708
288.071	95088
288.129	332856
288.187	827391
288.245	407777
288.303	135262
288.361	74395
288.419	51693
288.477	35689
288.535	25934
288.593	17956
288.651	13102
288.709	9475
288.767	8503
288.825	6462
288.883	6226
288.941	4808
288.999	4281
289.057	4266
289.115	4385
289.173	3745
289.231	4528
289.289	3930
289.346	3909
289.404	3661
289.462	4226
289.520	3578
289.578	3697
289.636	2295
289.694	2899
289.751	3728
289.809	3620
289.867	2164
289.925	4478
289.983	2200
290.040	3704
290.098	2659
290.156	2948
290.214	2714
290.271	1654
290.329	2133
290.387	1396
290.444	2211
290.502	1957
290.560	1832
290.617	1591
290.675	1416
290.733	1631
290.790	1484
290.848	2995
290.906	966
290.963	1992
291.021	1936
291.078	1166
291.136	724
291.194	1973
291.251	3703
291.309	2141
291.366	1124
291.424	983
291.481	685
291.539	1634
291.596	776
291.654	1213
291.711	1100
291.769	2079
291.826	1693
291.884	2213
291.941	988
291.999	712
292.056	890
292.114	1212
292.171	1272
292.228	1597
292.286	962
292.343	2001
292.401	1329
292.458	1452
292.515	756
292.573	1462
292.630	936
292.687	1619
292.745	1091
292.802	2161
292.859	2872
292.917	4819
292.974	2003
293.031	1932
293.089	1353
293.146	810
293.203	964
293.260	1276
293.318	1366
293.375	1709
293.432	599
293.489	1904
293.546	841
293.604	1934
293.661	5843
293.718	15507
293.775	6210
293.832	3142
293.889	1647
293.947	2416
294.004	2066
294.061	1258
294.118	2356
294.175	3439
294.232	2107
294.289	1863
294.346	2749
294.403	4032
294.460	2403
294.517	1664
294.574	101
294.631	1650
294.688	2098
294.745	4583
294.802	13997
294.859	9818
294.916	2706
294.973	3189
295.030	2139
295.087	1060
295.144	1379
295.201	1285
295.258	919
295.315	3260
295.372	4971
295.429	11030
295.486	4110
295.542	2338
295.599	2559
295.656	3614
295.713	4041
295.770	7422
295.827	2284
295.883	1594
295.940	1033
295.997	1963
296.054	2434
296.111	2571
296.167	1620
296.224	969
296.281	356
296.338	1493
296.394	779
296.451	1825
296.508	2500
296.564	6054
296.621	5393
296.678	16978
296.734	25973
296.791	8078
296.848	3324
296.904	3809
296.961	4544
297.018	10160
297.074	9391
297.131	3724
297.187	2874
297.244	4670
297.301	13159
297.357	26907
297.414	8234
297.470	4234
297.527	1900
297.583	1916
297.640	1383
297.696	2210
297.753	1214
297.809	1548
297.866	955
297.922	1239
297.979	506
298.035	522
298.092	1337
298.148	4565
298.204	4811
298.261	3097
298.317	6811
298.374	20789
298.430	11341
298.486	4212
298.543	2722
298.599	3896
298.656	6587
298.712	15894
298.768	66314
298.824	60405
298.881	15448
298.937	7995
298.993	5591
299.050	4866
299.106	3744
299.162	4014
299.218	2775
299.275	2820
299.331	2135
299.387	4660
299.443	17498
299.500	20213
299.556	7719
299.612	4349
299.668	2607
299.724	5160
299.780	5348
299.837	3056
299.893	2878
299.949	7497
300.005	10629
300.061	10161
300.117	22595
300.173	10444
300.229	3099
300.285	3659
300.341	2932
300.397	2802
300.453	1062
300.510	1535
300.566	1922
300.622	3534
300.678	9115
300.734	13765
300.790	9236
300.845	12906
300.901	8033
300.957	9676
301.013	5422
301.069	2680
301.125	1587
301.181	1384
301.237	1518
301.293	866
301.349	665
301.405	580
301.461	-99
301.516	1251
301.572	523
301.628	612
301.684	1088
301.740	2698
301.796	3881
301.851	3147
301.907	4597
301.963	8036
302.019	18879
302.074	60872
302.130	59289
302.186	22969
302.242	8455
302.297	5374
302.353	4852
302.409	6593
302.464	5351
302.520	4982
302.576	9880
302.631	13711
302.687	5258
302.743	3403
302.798	1694
302.854	1806
302.910	1572
302.965	2590
303.021	3364
303.076	2748
303.132	2848
303.187	3054
303.243	2185
303.299	2400
303.354	1734
303.410	2901
303.465	2274
303.521	1868
303.576	1828
303.632	2523
303.687	3910
303.743	13719
303.798	12652
303.853	4477
303.909	1969
303.964	3292
304.020	2252
304.075	3539
304.130	2830
304.186	4151
304.241	4689
304.297	4381
304.352	2167
304.358	2236
304.407	2798
304.449	1625
304.463	1227
304.518	1584
304.539	1402
304.573	1106
304.629	3092
304.630	3091
304.684	3239
304.720	8209
304.739	10693
304.794	17791
304.811	14881
304.850	7876
304.902	4205
304.905	3989
304.960	4805
304.992	6097
305.015	6880
305.071	6255
305.083	5526
305.126	2976
305.173	1814
305.181	1626
305.236	1888
305.264	1791
305.292	1747
305.347	1694
305.354	1799
305.402	2662
305.445	4625
305.457	5112
305.512	7752
305.535	6450
305.567	4649
305.622	4718
305.626	4872
305.678	8839
305.716	18065
305.733	21159
305.788	17749
305.807	15043
305.843	11185
305.897	15874
305.898	15918
305.953	17010
305.988	11047
306.008	7740
306.063	5359
306.078	4551
306.118	2867
306.168	3128
306.173	3158
306.228	3055
306.259	3061
306.283	3034
306.338	2842
306.349	3085
306.393	4552
306.440	7209
306.448	7511
306.503	5952
306.530	5380
306.558	5497
306.613	9112
306.620	9259
306.668	9369
306.711	9315
306.723	9122
306.778	7046
306.801	5921
306.833	4758
306.888	3475
306.892	3477
306.943	3815
306.982	3038
306.997	2699
307.052	3109
307.072	3159
307.107	3487
307.162	3970
307.163	3968
307.217	3551
307.253	3634
307.272	3709
307.327	3671
307.343	3699
307.381	3906
307.434	3825
307.436	3852
307.491	5487
307.524	6697
307.546	7183
307.600	8059
307.614	7799
307.655	6979
307.704	7245
307.710	7342
307.765	7626
307.795	8352
307.819	9068
307.874	11109
307.885	11550
307.929	15083
307.975	21043
307.984	23245
308.038	41916
308.065	56672
308.093	104235
308.148	224365
308.156	250766
308.202	379912
308.246	461180
308.257	447944
308.312	232000
308.336	146795
308.366	97799
308.421	51264
308.426	48231
308.475	34693
308.517	27405
308.530	25707
308.585	20464
308.607	18712
308.639	16940
308.694	15420
308.697	15368
308.748	14990
308.787	15859
308.803	15983
308.857	15548
308.877	15871
308.912	18366
308.967	23180
308.967	23276
309.021	34004
309.058	43978
309.076	59118
309.130	114962
309.148	138611
309.185	289365
309.238	551129
309.239	552555
309.293	581491
309.328	520898
309.348	445452
309.402	201062
309.418	142013
309.457	93790
309.508	52675
309.511	51209
309.566	37250
309.598	30307
309.620	27631
309.674	22088
309.688	21163
309.729	17964
309.778	14430
309.783	14128
309.837	11378
309.868	10802
309.892	10955
309.946	11117
309.959	11415
310.001	12399
310.049	12925
310.055	12531
310.109	8948
310.139	6651
310.163	5836
310.218	5423
310.229	5224
310.272	4473
310.319	3957
310.326	3869
310.381	3283
310.409	3229
310.435	3463
310.489	3446
310.499	3524
310.543	3760
310.589	3741
310.598	3678
310.652	3719
310.679	3471
310.706	3036
310.760	2497
310.769	2378
310.814	2485
310.859	2785
310.868	2810
310.923	2861
310.948	3010
310.977	3127
311.031	2984
311.038	2996
311.085	2656
311.128	2233
311.139	2331
311.193	2932
311.218	3138
311.247	3154
311.301	3332
311.308	3332
311.356	2597
311.398	2046
311.410	2121
311.464	2355
311.488	2514
311.518	2412
311.572	2145
311.578	2119
311.626	2386
311.668	2635
311.680	2610
311.734	2425
311.758	2353
311.788	2158
311.842	1859
311.847	1822
311.896	2041
311.937	2284
311.950	2305
312.004	2380
312.027	2407
312.058	2347
312.112	2250
312.117	2240
312.165	2579
312.207	2872
312.297	2350
312.386	2672
312.476	2637
312.566	3004
312.656	2719
312.745	2203
312.835	2255
312.925	2408
313.015	3374
313.104	3883
313.194	2136
313.284	2169
313.374	2751
313.463	2648
313.553	2244
313.643	1783
313.732	2316
313.822	2005
313.912	2219
314.001	2995
314.091	2577
314.180	2566
314.270	3400
314.360	2836
314.449	2393
314.539	2325
314.628	1995
314.718	1989
314.808	2975
314.897	2536
314.987	3189
315.076	3123
315.166	2190
315.255	3046
315.345	3690
315.434	2915
315.524	3657
315.613	4515
315.703	5680
315.792	18248
315.881	67016
315.971	23206
316.060	6634
316.150	4822
316.239	3685
316.328	2798
316.418	2337
316.507	2462
316.597	2959
316.686	3161
316.775	2986
316.865	3100
316.954	1898
317.043	2863
317.133	2218
317.222	1978
317.311	2875
317.400	2320
317.490	4267
317.579	4364
317.668	6487
317.757	10866
317.847	36441
317.936	121851
318.025	36974
318.114	19305
318.203	9437
318.293	3747
318.382	2823
318.471	3908
318.560	3077
318.649	4049
318.738	2736
318.828	1812
318.917	1805
319.006	1802
319.095	2642
319.184	5357
319.273	3820
319.362	2971
319.451	1737
319.540	1524
319.629	3177
319.718	3770
319.807	2103
319.896	2351
319.985	6312
320.074	3071
320.163	1838
320.252	2038
320.341	2618
320.430	1772
320.519	2420
320.608	1531
320.697	2268
320.786	1360
320.875	1860
320.964	2739
321.053	3416
321.142	4865
321.230	4384
321.319	3676
321.408	5576
321.497	3907
321.586	2856
321.675	3350
321.764	2669
321.852	2823
321.941	3018
322.030	2799
322.119	2953
322.207	5855
322.296	3989
322.385	3105
322.474	2992
322.562	7058
322.651	4308
322.740	3679
322.829	3835
322.917	3716
323.006	2394
323.095	2196
323.183	1763
323.272	2647
323.361	3673
323.449	7108
323.538	3374
323.626	5243
323.715	2908
323.804	2640
323.892	5170
323.981	3677
324.069	1688
324.158	3554
324.246	2954
324.335	2439
324.424	2865
324.512	2314
324.601	2687
324.689	5406
324.778	6371
324.866	2561
324.954	1693
325.043	1434
325.131	1931
325.220	4000
325.308	2533
325.397	2712
325.485	2101
325.574	1317
325.662	1928
325.750	809
325.839	2183
325.927	1836
326.015	2052
326.104	2063
326.192	1347
326.280	1278
326.369	1457
326.457	2165
326.545	2336
326.634	638
326.722	1191
326.810	1463
326.898	2715
326.987	2344
327.075	1606
327.163	2742
327.251	1679
327.340	3370
327.428	3401
327.516	2153
327.604	1496
327.692	2061
327.781	2320
327.869	1809
327.957	857
328.045	2067
328.133	1409
328.221	1921
328.309	1428
328.397	1823
328.485	2394
328.574	3194
328.662	4292
328.750	3134
328.838	1565
328.926	2270
329.014	1911
329.102	2116
329.190	2607
329.278	2005
329.366	2563
329.454	1145
329.542	2240
329.630	2241
329.718	3273
329.806	4682
329.893	6264
329.981	9628
330.069	25982
330.157	103589
330.245	271807
330.333	136915
330.421	22471
330.509	8307
330.597	7533
330.684	5093
330.772	2811
330.860	2969
330.948	2283
331.036	2680
331.123	1935
331.211	1707
331.299	1739
331.387	2011
331.475	1517
331.562	1089
331.650	1024
331.738	1549
331.825	1451
331.913	1138
332.001	1530
332.089	1360
332.176	1067
332.264	2914
332.352	2108
332.439	1249
332.527	1294
332.614	1921
332.702	1360
332.790	1911
332.877	1574
332.965	3194
333.052	948
333.140	1449
333.228	2547
333.315	1333
333.403	1774
333.490	1765
333.578	1653
333.665	2461
333.753	1820
333.840	1587
333.928	1917
334.015	2936
334.103	3705
334.190	6155
334.278	3172
334.365	2687
334.452	2926
334.540	2374
334.627	1905
334.715	3016
334.802	4725
334.889	12001
334.977	10093
335.064	4108
335.151	2031
335.239	1698
335.326	1593
335.413	4057
335.501	4282
335.588	2358
335.675	1421
335.762	2355
335.850	3350
335.937	4071
336.024	7582
336.111	13191
336.199	8040
336.286	3611
336.373	2321
336.460	2315
336.547	1562
336.635	2561
336.722	1431
336.809	1961
336.896	1755
336.983	3792
337.070	5086
337.157	5744
337.245	6457
337.332	4033
337.419	888
337.506	1050
337.593	1506
337.680	2568
337.767	2966
337.854	1609
337.941	2181
338.028	2820
338.115	1715
338.202	2262
338.289	2910
338.376	4610
338.463	1625
338.550	2067
338.637	2720
338.724	1234
338.811	1884
338.898	1946
338.984	1299
339.071	1486
339.158	319
339.245	2382
339.332	1316
339.419	1586
339.506	1611
339.593	1259
339.679	1308
339.766	736
339.853	1301
339.940	1693
340.027	850
340.113	856
340.200	1680
340.287	1388
340.374	1893
340.460	2084
340.547	886
340.634	2726
340.720	5085
340.807	2131
340.894	249
340.980	1553
341.067	333
341.154	1296
341.240	1240
341.327	2436
341.414	2223
341.500	266
341.587	1222
341.674	1996
341.760	1766
341.847	2430
341.933	978
342.020	256
342.106	1203
342.193	1135
342.279	465
342.366	837
342.452	2012
342.539	662
342.625	2203
342.712	4202
342.798	1285
342.885	1681
342.971	166
343.058	902
343.144	1457
343.230	908
343.317	1097
343.403	1319
343.490	856
343.576	1012
343.662	1496
343.749	1331
343.835	1062
343.921	5297
344.008	26173
344.094	49048
344.180	9205
344.267	2803
344.353	7105
344.439	5572
344.525	1670
344.612	1941
344.698	2181
344.784	1479
344.870	1632
344.957	1410
345.043	1446
345.129	817
345.215	1897
345.301	1143
345.387	624
345.474	646
345.560	1181
345.646	1202
345.732	1220
345.818	1148
345.904	1330
345.990	1185
346.076	758
346.162	837
346.249	2165
346.335	2346
346.421	2829
346.507	5215
346.593	10803
346.679	2396
346.765	1729
346.851	1250
346.937	739
347.023	1572
347.108	1619
347.194	690
347.280	1289
347.366	1936
347.452	5180
347.538	16081
347.624	10032
347.710	5478
347.796	1200
347.882	1212
347.967	988
348.053	662
348.139	1222
348.225	1099
348.311	518
348.397	799
348.482	969
348.568	1768
348.654	1196
348.740	1576
348.825	957
348.911	2562
348.997	7309
349.083	13428
349.168	1541
349.254	1234
349.340	1360
349.425	741
349.511	802
349.597	567
349.682	1347
349.768	6305
349.854	3146
349.939	1015
350.025	978
350.110	948
350.196	756
350.282	202
350.367	854
350.453	2043
350.538	877
350.624	-2
350.709	473
350.795	889
350.880	1065
350.966	2038
351.051	1305
351.137	1106
351.222	822
351.308	2417
351.393	4036
351.479	1750
351.564	250
351.649	1388
351.735	1087
351.820	635
351.906	977
351.991	889
352.076	2607
352.162	3849
352.247	1382
352.332	1436
352.418	711
352.503	1341
352.588	5822
352.673	4053
352.759	1273
352.844	1116
352.929	1064
353.014	1204
353.100	1620
353.185	1765
353.270	1452
353.355	2157
353.441	1441
353.526	1365
353.611	1787
353.696	1400
353.781	2069
353.866	993
353.952	2028
354.037	1401
354.122	3375
354.207	2350
354.292	1560
354.377	1282
354.462	610
354.547	601
354.632	504
354.717	1751
354.802	701
354.887	474
354.972	1156
355.057	1454
355.142	-54
355.227	1942
355.312	1000
355.397	1660
355.482	4600
355.567	2490
355.652	2126
355.737	2437
355.822	6802
355.907	4913
355.991	1570
356.076	199
356.161	915
356.246	760
356.331	1222
356.416	3706
356.501	19786
356.585	18090
356.670	1970
356.755	2779
356.840	3417
356.924	16174
357.009	56720
357.094	18317
357.179	2492
357.263	1545
357.348	2072
357.433	1573
357.517	1490
357.602	2036
357.687	742
357.771	2312
357.856	2867
357.941	3584
358.025	19510
358.110	89015
358.195	33997
358.279	3848
358.364	1978
358.448	5331
358.533	11864
358.617	7700
358.702	9069
358.787	3509
358.871	1231
358.956	1779
359.040	1208
359.125	1076
359.209	1755
359.294	1314
359.378	1673
359.462	2133
359.547	1129
359.631	845
359.716	567
359.800	1023
359.885	1790
359.969	719
360.053	1523
360.138	925
360.222	1515
360.306	1541
360.391	1010
360.475	1793
360.559	3406
360.644	5028
360.728	3333
360.812	12461
360.896	27671
360.981	8052
361.065	1768
361.149	1809
361.233	1163
361.318	1089
361.402	1241
361.486	2533
361.570	1086
361.654	1077
361.739	3151
361.823	19877
361.907	30356
361.991	4864
362.075	1952
362.159	3227
362.243	3837
362.327	4425
362.411	8467
362.495	2821
362.580	1140
362.664	1844
362.748	1231
362.832	3784
362.916	3573
363.000	15783
363.084	34355
363.168	39340
363.252	7930
363.336	3229
363.420	2023
363.503	5021
363.587	3080
363.671	1860
363.755	711
363.839	3016
363.923	1031
364.007	2338
364.091	2321
364.175	2732
364.258	11514
364.342	15699
364.426	30263
364.510	14378
364.594	5702
364.677	6499
364.761	25347
364.845	16853
364.929	3707
365.013	2952
365.096	1623
365.180	2093
365.264	3291
365.347	6488
365.431	2093
365.515	1040
365.598	894
365.682	2175
365.766	-241
365.849	830
365.933	209
366.017	2314
366.100	896
366.184	-525
366.267	1615
366.351	1127
366.435	419
366.518	371
366.602	733
366.685	1252
366.769	34
366.852	1498
366.936	1248
367.019	1631
367.103	415
367.186	1522
367.270	560
367.353	376
367.436	1252
367.520	467
367.603	243
367.687	137
367.770	1482
367.853	2232
367.937	4778
368.020	6277
368.104	1227
368.187	2180
368.270	1844
368.353	1937
368.437	2084
368.520	4022
368.603	2041
368.687	5080
368.770	7552
368.853	1928
368.936	2493
369.020	1331
369.103	873
369.186	750
369.269	724
369.352	1848
369.436	1387
369.519	2232
369.602	-617
369.685	2440
369.768	169
369.851	1662
369.934	197
370.018	435
370.101	621
370.184	2821
370.267	2092
370.350	1813
370.433	2902
370.516	13647
370.599	27076
370.682	9662
370.765	5709
370.848	7016
370.931	11207
371.014	4446
371.097	-233
371.180	2120
371.263	979
371.346	447
371.429	487
371.511	296
371.594	533
371.677	2252
371.760	1887
371.843	4221
371.926	31691
372.009	71959
372.091	17745
372.174	5933
372.257	13859
372.340	4052
372.423	1789
372.505	3019
372.588	1116
372.671	5245
372.754	10647
372.836	5230
372.919	2583
373.002	3206
373.085	1179
373.167	3109
373.250	5623
373.332	14302
373.415	39202
373.498	86824
373.580	30573
373.663	61639
373.746	71559
373.828	11841
373.911	4122
373.993	1877
374.076	4406
374.159	3202
374.241	3184
374.324	9341
374.406	7614
374.489	18221
374.571	45412
374.654	14333
374.736	8350
374.819	26634
374.901	48895
374.983	50659
375.066	6465
375.148	2402
375.231	3065
375.313	5424
375.395	1829
375.478	2028
375.560	1575
375.643	1817
375.725	8915
375.807	36703
375.890	22465
375.972	2971
376.054	2625
376.136	3660
376.219	1874
376.301	9994
376.383	23923
376.465	9088
376.548	3669
376.630	6293
376.712	17252
376.794	7292
376.877	1533
376.959	460
377.041	324
377.123	1202
377.205	1701
377.287	740
377.369	435
377.452	1003
377.534	1089
377.616	749
377.698	364
377.780	841
377.862	352
377.944	2010
378.026	69
378.108	1302
378.190	577
378.272	1623
378.354	601
378.436	949
378.518	360
378.600	2032
378.682	2526
378.764	5775
378.846	4144
378.928	1924
379.010	1205
379.091	2127
379.173	1215
379.255	1071
379.337	689
379.419	3033
379.501	9373
379.583	3675
379.664	1245
379.746	1191
379.828	6384
379.910	7037
379.991	6409
380.073	1839
380.155	1427
380.237	1211
380.318	49
380.400	656
380.482	1741
380.564	1972
380.645	1218
380.727	2133
380.809	2342
380.890	856
380.972	147
381.053	1055
381.135	1160
381.217	1675
381.298	6126
381.380	2293
381.461	3760
381.543	20721
381.624	21971
381.706	4483
381.787	2364
381.869	3354
381.951	15022
382.032	58585
382.113	30920
382.195	3080
382.276	2694
382.358	4944
382.439	14942
382.521	26315
382.602	42290
382.684	14457
382.765	19244
382.846	15328
382.928	14196
383.009	7583
383.090	7747
383.172	24578
383.253	32785
383.334	15364
383.416	25460
383.497	12216
383.578	3279
383.659	6502
383.741	23861
383.822	57124
383.903	24338
383.984	12369
384.066	24487
384.147	13369
384.228	3900
384.309	2992
384.390	2324
384.471	2054
384.553	2207
384.634	2439
384.715	2793
384.796	1318
384.877	935
384.958	6633
385.039	6608
385.120	2256
385.201	3430
385.282	1422
385.363	2673
385.444	2921
385.525	6431
385.606	18716
385.687	13810
385.768	3691
385.849	4043
385.930	28902
386.011	47659
386.092	10800
386.173	4251
386.254	5293
386.335	3489
386.416	1392
386.496	3395
386.577	6042
386.658	2014
386.739	1387
386.820	3086
386.901	1762
386.981	2881
387.062	2663
387.143	1985
387.224	5966
387.304	6971
387.385	4196
387.466	807
387.547	2221
387.627	969
387.708	4241
387.789	12154
387.869	15066
387.950	5437
388.031	2341
388.111	-33
388.192	3666
388.273	3888
388.353	3106
388.434	1738
388.514	4205
388.595	19390
388.676	19605
388.756	7038
388.837	6292
388.917	3835
388.998	562
389.078	2666
389.159	2774
389.239	633
389.320	4007
389.400	687
389.480	4813
389.561	6277
389.641	4970
389.722	1682
389.802	2148
389.883	4171
389.963	10450
390.043	4979
390.124	2322
390.204	4380
390.284	8934
390.365	9724
390.445	46268
390.525	234591
390.605	197543
390.686	26518
390.766	7615
390.846	4320
390.927	2542
391.007	1741
391.087	3616
391.167	1767
391.247	783
391.328	3418
391.408	3506
391.488	2615
391.568	1594
391.648	2293
391.728	3837
391.808	3927
391.888	3604
391.969	5490
392.049	6342
392.129	5212
392.209	5857
392.289	11061
392.369	7270
392.449	5520
392.529	5779
392.609	7271
392.689	8247
392.769	13666
392.849	12419
392.929	14575
393.009	21683
393.089	27302
393.169	52706
393.248	248184
393.328	1011945
393.408	984156
393.488	193447
393.568	44809
393.648	22194
393.728	15317
393.807	11790
393.887	12550
393.967	12100
394.047	13745
394.127	18565
394.206	39111
394.286	177991
394.366	727223
394.446	713218
394.525	154631
394.605	37323
394.685	19340
394.764	15076
394.844	11985
394.924	10862
395.003	8553
395.083	7998
395.163	7863
395.242	7474
395.322	8786
395.402	7060
395.481	10088
395.561	10026
395.640	15548
395.720	20198
395.799	22063
395.879	29704
395.958	60725
396.038	266017
396.117	963846
396.197	959678
396.276	244126
396.356	64801
396.435	33472
396.515	26158
396.594	26092
396.673	54383
396.753	289601
396.832	906942
396.912	515151
396.991	75000
397.070	23152
397.150	11404
397.229	10136
397.308	11153
397.388	14214
397.467	8545
397.546	5293
397.625	3323
397.705	5057
397.784	4043
397.863	3206
397.942	2830
398.022	2753
398.101	2640
398.180	4334
398.259	2795
398.338	2651
398.417	1762
398.497	1699
398.576	3547
398.655	-24
398.734	1294
398.813	1284
398.892	2596
398.971	3752
399.050	1452
399.129	-178
399.208	1176
399.287	1932
399.366	820
399.445	688
399.524	1145
399.603	-227
399.682	1380
399.761	1654
399.840	5659
399.919	3064
399.998	1117
400.077	-879
400.156	-335
400.235	2498
400.313	247
400.392	-6
400.471	3808
400.550	4525
400.629	131
400.708	1186
400.786	175
400.865	16
400.944	237
401.023	1916
401.102	97
401.180	764
401.259	738
401.338	495
401.416	1395
401.495	-13
401.574	1121
401.652	472
401.731	1114
401.810	-346
401.888	96
401.967	377
402.046	189
402.124	509
402.203	-5
402.281	974
402.360	504
402.438	970
402.517	419
402.596	415
402.674	-94
402.753	-225
402.831	956
402.910	1269
402.988	1035
403.066	4120
403.145	3722
403.223	3045
403.302	4795
403.380	4505
403.459	2446
403.537	-29
403.615	379
403.694	-571
403.772	1900
403.850	229
403.929	713
404.007	-497
404.085	2642
404.164	215
404.242	944
404.320	4083
404.398	15429
404.477	14216
404.555	28904
404.633	23425
404.711	10069
404.789	6044
404.868	1710
404.946	308
405.024	1064
405.102	251
405.180	-174
405.258	-870
405.336	1051
405.415	-1003
405.493	1294
405.571	1174
405.649	885
405.727	-419
405.805	2292
405.883	108
405.961	1770
406.039	-237
406.117	-297
406.195	1940
406.273	3612
406.351	16954
406.429	8582
406.507	882
406.585	90
406.663	1187
406.740	777
406.818	521
406.896	499
406.974	1740
407.052	1417
407.130	9989
407.208	11415
407.285	2727
407.363	153
407.441	953
407.519	1473
407.596	3739
407.674	24658
407.752	99969
407.830	64188
407.907	6752
407.985	1158
408.063	1017
408.141	209
408.218	722
408.296	357
408.373	461
408.451	1158
408.529	397
408.606	625
408.684	-5
408.762	697
408.839	310
408.917	524
408.994	-312
409.072	395
409.149	222
409.227	1677
409.304	2282
409.382	1952
409.459	1544
409.537	3250
409.614	2202
409.692	1292
409.769	1231
409.846	2282
409.924	3574
410.001	573
410.079	2054
410.156	2297
410.233	1614
410.311	3561
410.388	1735
410.465	1339
410.543	-249
410.620	1236
410.697	829
410.775	1008
410.852	-646
410.929	1390
411.006	1645
411.083	-63
411.161	555
411.238	643
411.315	88
411.392	789
411.469	1039
411.547	717
411.624	-962
411.701	201
411.778	1028
411.855	918
411.932	13
412.009	1024
412.086	834
412.163	370
412.240	-218
412.317	360
412.394	-78
412.471	618
412.548	-140
412.625	1374
412.702	677
412.779	1528
412.856	1397
412.933	239
413.010	2059
413.087	3435
413.164	3444
413.241	3196
413.318	77
413.395	1325
413.471	721
413.548	209
413.625	806
413.702	-1027
413.779	-304
413.855	670
413.932	-98
414.009	-347
414.086	-336
414.162	439
414.239	380
414.316	3323
414.393	5983
414.469	1441
414.546	321
414.623	587
414.699	-353
414.776	-447
414.853	-67
414.929	658
415.006	980
415.082	54
415.159	133
415.236	1083
415.312	97
415.389	523
415.465	399
415.542	111
415.618	-139
415.695	446
415.771	-178
415.848	602
415.924	427
416.000	576
416.077	850
416.153	162
416.230	-72
416.306	87
416.383	-236
416.459	645
416.535	-540
416.612	-212
416.688	-11
416.764	348
416.841	-271
416.917	-104
416.993	341
417.069	603
417.146	1590
417.222	3509
417.298	478
417.374	-338
417.451	327
417.527	-752
417.603	-867
417.679	665
417.755	-146
417.831	-366
417.908	258
417.984	856
418.060	-898
418.136	412
418.212	153
418.288	169
418.364	140
418.440	49
418.516	953
418.592	238
418.668	161
418.744	391
418.820	826
418.896	-21
418.972	-649
419.048	-271
419.124	1964
419.200	-385
419.276	565
419.352	-435
419.428	326
419.504	-208
419.579	441
419.655	-7
419.731	166
419.807	-19
419.883	1105
419.959	1344
420.034	710
420.110	553
420.186	2564
420.262	2757
420.337	294
420.413	275
420.489	292
420.565	1283
420.640	-612
420.716	1004
420.792	-997
420.867	1823
420.943	-546
421.019	-30
421.094	-331
421.170	354
421.245	128
421.321	1452
421.397	2210
421.472	17717
421.548	51700
421.623	24961
421.699	3521
421.774	2715
421.850	946
421.925	2718
422.001	1857
422.076	1870
422.152	2051
422.227	4098
422.302	5959
422.378	8673
422.453	15612
422.529	51920
422.604	228948
422.679	443604
422.755	204882
422.830	44353
422.905	15762
422.981	7336
423.056	4520
423.131	4504
423.207	3182
423.282	2096
423.357	2896
423.432	1502
423.508	1595
423.583	1696
423.658	1386
423.733	1077
423.808	237
423.883	1542
423.959	973
424.034	773
424.109	770
424.184	-50
424.259	523
424.334	381
424.409	254
424.484	-54
424.559	-300
424.634	-429
424.709	51
424.784	1451
424.859	266
424.934	-137
425.009	1332
425.084	3403
425.159	1053
425.234	1045
425.309	-496
425.384	673
425.459	-183
425.534	523
425.609	-814
425.683	-405
425.758	314
425.833	-168
425.908	350
425.983	1862
426.058	3804
426.132	1110
426.207	-665
426.282	1568
426.357	-255
426.431	-52
426.506	633
426.581	-361
426.655	187
426.730	-16
426.805	-400
426.879	676
426.954	-451
427.029	259
427.103	4518
427.178	11478
427.253	4147
427.327	395
427.402	-607
427.476	217
427.551	203
427.625	-195
427.700	-124
427.774	-359
427.849	-117
427.923	-867
427.998	99
428.072	-96
428.147	2139
428.221	13997
428.296	47483
428.370	23052
428.444	1383
428.519	362
428.593	613
428.667	1142
428.742	1368
428.816	4088
428.890	25230
428.965	37358
429.039	7625
429.113	637
429.188	-4
429.262	757
429.336	5
429.410	961
429.485	232
429.559	328
429.633	772
429.707	460
429.781	2184
429.855	20947
429.930	30769
430.004	6382
430.078	3808
430.152	17802
430.226	89113
430.300	82770
430.374	9770
430.448	1636
430.522	1458
430.596	3079
430.670	7677
430.744	37684
430.818	42598
430.892	6173
430.966	616
431.040	1034
431.114	-975
431.188	-136
431.262	-367
431.336	-529
431.410	864
431.484	112
431.557	661
431.631	-69
431.705	671
431.779	10176
431.853	43609
431.927	27211
432.000	2894
432.074	384
432.148	438
432.222	242
432.295	-75
432.369	211
432.443	-147
432.516	5457
432.590	11990
432.664	3845
432.737	314
432.811	-655
432.885	-471
432.958	-163
433.032	-504
433.106	110
433.179	-308
433.253	314
433.326	-761
433.400	562
433.473	-590
433.547	-397
433.620	-342
433.694	-640
433.767	-581
433.841	-991
433.914	-409
433.988	-754
434.061	-211
434.134	-439
434.208	-503
434.281	-269
434.355	-769
434.428	-58
434.501	-1022
434.575	-1054
434.648	47
434.721	86
434.795	-917
434.868	-493
434.941	-433
435.014	-533
435.088	-132
435.161	-321
435.234	-142
435.307	59
435.381	-262
435.454	324
435.527	-303
435.600	314
435.673	1232
435.746	73
435.819	-653
435.892	45
435.966	-344
436.039	-692
436.112	-217
436.185	-652
436.258	-479
436.331	-1045
436.404	-687
436.477	-189
436.550	-883
436.623	105
436.696	-593
436.769	-371
436.842	-345
436.915	-868
436.987	-615
437.060	-1083
437.133	-396
437.206	-447
437.279	-232
437.352	-1375
437.425	-1043
437.498	-230
437.570	-9
437.643	-348
437.716	-836
437.789	-315
437.861	-383
437.934	5
438.007	-1211
438.080	-357
438.152	-702
438.225	1479
438.298	8754
438.370	24841
438.443	7560
438.516	214
438.588	-504
438.661	-3
438.734	124
438.806	-381
438.879	-307
438.951	-144
439.024	-576
439.096	-639
439.169	-140
439.241	56
439.314	-720
439.386	1
439.459	145
439.531	-24
439.604	-278
439.676	121
439.749	-615
439.821	-999
439.893	-787
439.966	414
440.038	-677
440.110	-101
440.183	-353
440.255	-1194
440.327	112
440.400	1916
440.472	9632
440.544	4741
440.617	-265
440.689	3
440.761	-536
440.833	11
440.905	-319
440.978	-288
441.050	-1025
441.122	-207
441.194	-1153
441.266	-231
441.338	-525
441.411	-288
441.483	1710
441.555	1390
441.627	-108
441.699	-425
441.771	-655
441.843	-954
441.915	-1003
441.987	-94
442.059	-882
442.131	-54
442.203	43
442.275	88
442.347	677
442.419	2763
442.491	16138
442.563	35709
442.635	12120
442.706	753
442.778	405
442.850	-153
442.922	-50
442.994	-572
443.066	-273
443.137	-404
443.209	420
443.281	1604
443.353	4005
443.425	22395
443.496	79320
443.568	66354
443.640	19024
443.711	2780
443.783	1255
443.855	-63
443.926	-439
443.998	-203
444.070	-332
444.141	181
444.213	-475
444.285	402
444.356	-918
444.428	0
444.499	-765
444.571	166
444.642	-396
444.714	-479
444.785	-522
444.857	338
444.928	-319
445.000	-230
445.071	382
445.143	310
445.214	727
445.285	3027
445.357	10049
445.428	59640
445.500	129967
445.571	63275
445.642	26019
445.714	6225
445.785	1828
445.856	115
445.928	-79
445.999	322
446.070	-459
446.141	477
446.213	878
446.284	-975
446.355	-344
446.426	-343
446.497	-758
446.569	41
446.640	-1296
446.711	-362
446.782	-393
446.853	-190
446.924	-387
446.995	-246
447.066	-630
447.138	-321
447.209	-375
447.280	-789
447.351	-151
447.422	-367
447.493	-720
447.564	-251
447.635	-944
447.706	-517
447.777	-590
447.847	-319
447.918	-1141
447.989	-510
448.060	-501
448.131	212
448.202	-971
448.273	-197
448.344	-124
448.414	-461
448.485	-947
448.556	70
448.627	-554
448.698	-427
448.768	-411
448.839	-866
448.910	-1114
448.981	-63
449.051	407
449.122	87
449.193	-335
449.263	352
449.334	209
449.405	1172
449.475	1246
449.546	993
449.616	1414
449.687	562
449.758	383
449.828	241
449.899	-178
449.969	563
450.040	-10
450.110	709
450.181	155
450.251	1077
450.322	-173
450.392	149
450.463	-47
450.533	231
450.604	-413
450.674	-912
450.744	498
450.815	-414
450.885	796
450.955	18
451.026	162
451.096	-751
451.166	-842
451.237	-427
451.307	396
451.377	-306
451.447	-1030
451.518	-665
451.588	-369
451.658	-140
451.728	-50
451.799	-102
451.869	240
451.939	-375
452.009	-478
452.079	-611
452.149	-816
452.219	-286
452.289	73
452.360	-538
452.430	-1236
452.500	75
452.570	-330
452.640	1030
452.710	1874
452.780	1486
452.850	853
452.920	43
452.990	-427
453.060	-160
453.129	-239
453.199	43
453.269	609
453.339	568
453.409	534
453.479	1274
453.549	550
453.619	2218
453.688	145
453.758	147
453.828	-402
453.898	-481
453.968	-528
454.037	377
454.087	-256
454.107	-524
454.168	-264
454.177	-236
454.247	241
454.249	219
454.316	-440
454.330	-366
454.386	-139
454.411	15
454.456	196
454.492	154
454.525	124
454.574	189
454.595	198
454.655	-673
454.665	-828
454.734	-333
454.736	-319
454.804	-159
454.817	-49
454.873	288
454.898	47
454.943	-451
454.979	-251
455.013	-62
455.060	-466
455.082	-638
455.141	-355
455.152	-272
455.221	764
455.222	804
455.291	2629
455.303	3638
455.360	7445
455.384	11391
455.430	17487
455.465	11642
455.499	6276
455.546	2672
455.569	1128
455.627	368
455.638	229
455.707	473
455.708	476
455.777	-400
455.789	-337
455.846	-20
455.869	-112
455.916	-357
455.950	27
455.985	347
456.031	-425
456.054	-788
456.112	-243
456.124	-152
456.193	-520
456.193	-527
456.262	195
456.274	265
456.332	650
456.355	488
456.401	-59
456.436	-344
456.470	-552
456.516	-100
456.540	104
456.597	-129
456.609	-216
456.678	145
456.678	141
456.747	-552
456.759	-478
456.817	-26
456.840	-227
456.886	-701
456.920	-594
456.955	-562
457.001	-569
457.024	-515
457.082	-677
457.093	-732
457.162	135
457.163	143
457.232	297
457.243	212
457.301	-235
457.324	-47
457.370	282
457.405	-63
457.439	-429
457.485	-176
457.508	11
457.566	224
457.577	234
457.646	358
457.647	366
457.715	1424
457.727	1685
457.784	2901
457.808	3720
457.853	4643
457.889	5290
457.922	5282
457.969	3337
457.991	3054
458.050	3427
458.060	3657
458.129	7737
458.130	7855
458.198	8631
458.211	7708
458.267	3451
458.292	2195
458.336	1344
458.372	1233
458.405	1841
458.453	3072
458.474	3872
458.533	7062
458.543	7415
458.611	13472
458.614	13553
458.680	8688
458.694	6932
458.749	2795
458.775	1962
458.818	1246
458.855	878
458.887	614
458.936	180
458.955	-5
459.016	362
459.024	485
459.093	858
459.097	884
459.162	391
459.177	191
459.230	-120
459.257	-7
459.299	319
459.338	590
459.368	557
459.418	919
459.437	1077
459.499	865
459.505	826
459.574	92
459.579	118
459.643	593
459.659	582
459.711	567
459.740	453
459.780	327
459.820	265
459.849	59
459.900	419
459.917	710
459.981	1397
459.986	1364
460.054	174
460.061	137
460.123	858
460.141	1058
460.191	1268
460.222	1312
460.260	1374
460.302	1423
460.328	1627
460.382	1993
460.397	1977
460.462	1923
460.465	2052
460.534	5693
460.543	6158
460.602	25423
460.623	33045
460.671	51478
460.703	70611
460.739	69744
460.783	57641
460.808	46884
460.864	8421
460.876	5342
460.944	2075
460.945	2037
461.013	1705
461.024	1615
461.081	1454
461.104	1530
461.150	1428
461.184	1299
461.218	1385
461.264	1746
461.286	1671
461.345	1002
461.355	960
461.423	1159
461.425	1157
461.491	597
461.505	545
461.559	1708
461.585	2018
461.628	1467
461.665	1588
461.696	2117
461.745	2368
461.764	2010
461.825	1008
461.832	1042
461.901	1097
461.905	1138
461.969	745
461.985	513
462.037	1168
462.065	1653
462.105	1024
462.145	487
462.173	952
462.225	1644
462.241	1701
462.305	1902
462.310	1872
462.378	1285
462.385	1235
462.446	1028
462.465	1030
462.514	1349
462.545	1463
462.582	1487
462.625	1363
462.650	1285
462.705	1356
462.718	1315
462.785	994
462.786	997
462.854	1307
462.865	1277
462.922	1468
462.945	1685
462.990	1410
463.025	948
463.058	727
463.104	981
463.126	1044
463.184	710
463.194	808
463.262	1822
463.264	1848
463.330	1562
463.344	1473
463.398	1607
463.424	1687
463.466	1149
463.504	773
463.533	1017
463.583	1222
463.601	1196
463.663	1258
463.669	1296
463.737	1551
463.743	1601
463.805	2417
463.823	2598
463.873	3161
463.903	3522
463.940	3023
463.982	2440
464.008	2258
464.062	1983
464.076	2019
464.142	1699
464.144	1684
464.211	1476
464.221	1416
464.279	1795
464.301	1951
464.347	1760
464.381	1585
464.414	1567
464.461	1654
464.482	1743
464.540	1724
464.550	1699
464.617	1711
464.620	1703
464.685	2468
464.699	2723
464.753	4387
464.779	5037
464.820	5496
464.859	6203
464.888	6026
464.938	5316
464.956	5332
465.018	5394
465.023	5394
465.091	5094
465.098	5108
465.158	4982
465.177	4851
465.226	5018
465.257	5135
465.293	5006
465.336	4841
465.361	4868
465.416	4855
465.428	5052
465.495	6131
465.496	6143
465.563	6339
465.575	6363
465.631	6684
465.654	6855
465.698	5937
465.734	5171
465.765	5292
465.813	5319
465.833	5580
465.893	6451
465.900	6428
465.968	6170
465.972	6130
466.035	6303
466.052	6384
466.102	6701
466.131	6849
466.170	6815
466.210	6731
466.237	7065
466.290	7719
466.304	7887
466.369	8560
466.372	8609
466.439	9627
466.449	9765
466.506	10255
466.528	10431
466.573	11183
466.607	11661
466.641	11818
466.687	12033
466.708	12570
466.766	13981
466.775	13772
466.842	12032
466.845	11930
466.909	12873
466.925	13073
466.977	12866
467.004	12742
467.044	12577
467.083	12352
467.111	13465
467.163	15515
467.178	15508
467.242	15346
467.245	15203
467.312	11761
467.321	11289
467.379	10805
467.400	10602
467.446	10263
467.480	9990
467.559	10208
467.638	8740
467.717	7921
467.796	8897
467.875	8454
467.955	7791
468.034	8174
468.113	9294
468.192	10723
468.271	8000
468.350	7714
468.429	7535
468.508	7870
468.588	7106
468.667	6412
468.746	5295
468.825	6163
468.904	5601
468.983	5723
469.062	5686
469.141	6845
469.220	5280
469.299	6432
469.378	6378
469.456	8844
469.535	8144
469.614	6579
469.693	6819
469.772	7096
469.851	7245
469.930	6155
470.009	6551
470.088	6489
470.166	5735
470.245	5883
470.324	6525
470.403	6566
470.482	5010
470.560	5172
470.639	5306
470.718	6001
470.797	4880
470.875	5773
470.954	5272
471.033	5841
471.111	4558
471.190	5611
471.269	5425
471.347	3898
471.426	5270
471.505	5689
471.583	6623
471.662	7149
471.740	6238
471.819	6637
471.898	5089
471.976	6115
472.055	4733
472.133	5404
472.212	6662
472.290	4954
472.369	4863
472.447	4744
472.526	4029
472.604	5272
472.683	5064
472.761	4700
472.839	4642
472.918	5038
472.996	4979
473.075	4703
473.153	5288
473.231	4187
473.310	4348
473.388	4828
473.466	4678
473.545	5493
473.623	6081
473.701	4458
473.780	4449
473.858	3488
473.936	5588
474.014	5268
474.093	4998
474.171	6239
474.249	5560
474.327	4770
474.405	4821
474.484	4682
474.562	4243
474.640	4669
474.718	4862
474.796	6482
474.874	7221
474.952	5583
475.030	5284
475.108	7255
475.187	8478
475.265	7684
475.343	7740
475.421	6293
475.499	5135
475.577	5326
475.655	4217
475.733	4992
475.811	6261
475.889	5402
475.966	4887
476.044	3973
476.122	3709
476.200	3661
476.278	3718
476.356	3461
476.434	3467
476.512	4164
476.590	3913
476.667	3832
476.745	3371
476.823	4155
476.901	2730
476.979	3013
477.056	3268
477.134	3890
477.212	3320
477.290	3841
477.367	3127
477.445	3894
477.523	2834
477.601	2996
477.678	3052
477.756	3349
477.834	3170
477.911	2823
477.989	2974
478.066	2255
478.144	2395
478.222	2923
478.299	3223
478.377	4222
478.454	3692
478.532	2579
478.609	2723
478.687	2965
478.764	2526
478.842	3247
478.919	2680
478.997	2346
479.074	2640
479.152	2851
479.229	3118
479.307	2222
479.384	2639
479.461	3150
479.539	2789
479.616	2836
479.694	2090
479.771	3038
479.848	2499
479.926	1630
480.003	3175
480.080	1800
480.157	3232
480.235	1363
480.312	2506
480.389	1968
480.467	2296
480.544	3151
480.621	2548
480.698	3017
480.775	1682
480.853	1560
480.930	1943
481.007	2893
481.084	3711
481.161	6577
481.238	5008
481.315	1766
481.392	1715
481.470	1662
481.547	1538
481.624	2421
481.701	2112
481.778	1928
481.855	1679
481.932	2293
482.009	2457
482.086	2831
482.163	2020
482.240	1644
482.317	2699
482.393	2208
482.470	2670
482.547	1865
482.624	1979
482.701	1646
482.778	1354
482.855	1675
482.932	1696
483.009	1662
483.085	2543
483.162	4435
483.239	4739
483.316	1021
483.393	2995
483.469	2009
483.546	2129
483.623	2420
483.699	1774
483.776	1529
483.853	1690
483.930	2794
484.006	4901
484.083	8835
484.160	15887
484.236	33437
484.313	26366
484.389	18055
484.466	16378
484.543	14415
484.619	15133
484.696	15919
484.772	14189
484.849	14468
484.925	12872
485.002	13363
485.078	13235
485.155	12929
485.231	12591
485.308	11942
485.384	12754
485.461	13155
485.537	13253
485.614	15371
485.690	12937
485.766	12554
485.843	11898
485.919	12495
485.995	12718
486.072	10895
486.148	11746
486.224	11412
486.301	11493
486.377	10768
486.453	10393
486.530	12678
486.606	18686
486.682	21293
486.758	18096
486.835	15816
486.911	14435
486.987	15832
487.063	15976
487.139	16841
487.215	17066
487.292	15358
487.368	12999
487.444	12858
487.520	14936
487.596	16043
487.672	19985
487.748	36474
487.824	52966
487.900	26763
487.976	12681
488.052	11339
488.128	12692
488.204	9956
488.280	9797
488.356	11087
488.432	11265
488.508	12483
488.584	10401
488.660	8667
488.736	9855
488.812	8625
488.888	11201
488.964	11741
489.039	12625
489.115	15405
489.191	13271
489.267	10273
489.343	9332
489.418	9219
489.494	8974
489.570	7471
489.646	9358
489.722	8504
489.797	8630
489.873	8486
489.949	10475
490.024	9810
490.100	7362
490.176	7933
490.251	7071
490.327	8167
490.403	6869
490.478	7963
490.554	6629
490.629	6827
490.705	6701
490.781	7683
490.856	6243
490.932	7797
491.007	7076
491.083	6935
491.158	6454
491.234	6664
491.309	8372
491.385	8381
491.460	5842
491.536	7131
491.611	6960
491.686	6877
491.762	6043
491.837	7541
491.913	9966
491.988	10436
492.063	13139
492.139	6607
492.214	5601
492.289	5625
492.365	5173
492.440	6283
492.515	4015
492.590	5475
492.666	4388
492.741	5439
492.816	6372
492.891	4323
492.967	6324
493.042	4592
493.117	5257
493.192	5642
493.267	9572
493.342	31856
493.418	47869
493.493	11602
493.568	4820
493.643	4534
493.718	4803
493.793	3552
493.868	5296
493.943	3997
494.018	4557
494.093	3483
494.168	4229
494.243	3807
494.318	3714
494.393	3857
494.468	4540
494.543	3706
494.618	4412
494.693	4155
494.768	3721
494.842	4351
494.917	3497
494.992	4402
495.067	3754
495.142	3801
495.217	3893
495.292	3906
495.366	4050
495.441	3653
495.516	5543
495.591	4797
495.665	7826
495.740	15632
495.815	9785
495.890	4801
495.964	2166
496.039	6059
496.114	5770
496.188	8209
496.263	9068
496.338	4356
496.412	4992
496.487	6122
496.561	6139
496.636	7472
496.710	7348
496.785	7093
496.860	8016
496.934	8181
497.009	8586
497.083	8815
497.158	9928
497.232	10334
497.307	11548
497.381	13604
497.455	15629
497.530	17110
497.604	17417
497.679	20309
497.753	24702
497.827	33248
497.902	38606
497.976	38599
498.050	40616
498.125	61273
498.199	66342
498.273	50007
498.348	49487
498.422	44463
498.496	37409
498.570	31798
498.645	27248
498.719	22976
498.793	19940
498.867	18709
498.941	17602
499.016	22569
499.090	40734
499.164	20001
499.238	11488
499.312	8595
499.386	9407
499.460	7854
499.534	6266
499.609	7096
499.683	6939
499.757	6884
499.831	8120
499.905	22164
499.979	22161
500.053	5736
500.127	5447
500.201	3948
500.275	4344
500.349	4816
500.422	3899
500.496	4674
500.570	6483
500.644	12626
500.718	20522
500.792	5322
500.866	4800
500.940	3446
501.013	3503
501.087	2229
501.161	3284
501.235	3392
501.309	7702
501.382	15349
501.456	14429
501.530	4694
501.603	5270
501.677	3089
501.751	1146
501.825	3772
501.898	3423
501.972	6542
502.046	4380
502.119	693
502.193	3712
502.266	6682
502.340	3127
502.413	3278
502.487	6529
502.561	2497
502.634	2508
502.708	2656
502.781	1281
502.855	1878
502.928	604
503.002	1794
503.075	1282
503.149	1235
503.222	878
503.295	1859
503.369	2133
503.442	1371
503.516	4983
503.589	9861
503.662	6821
503.736	2909
503.809	5583
503.882	3597
503.956	7539
504.029	9091
504.102	15834
504.175	24671
504.249	10177
504.322	4896
504.395	2805
504.468	1283
504.542	1339
504.615	356
504.688	1871
504.761	328
504.834	3037
504.907	360
504.980	1145
505.053	1844
505.127	-259
505.200	3259
505.273	1749
505.346	931
505.419	1227
505.492	2655
505.565	2135
505.638	4045
505.711	1848
505.784	673
505.857	137
505.930	1391
506.003	-1
506.076	2385
506.149	794
506.221	-378
506.294	1773
506.367	1332
506.440	7910
506.513	4554
506.586	828
506.659	476
506.731	318
506.804	179
506.877	200
506.950	581
507.022	1773
507.095	-281
507.168	931
507.241	1623
507.313	238
507.386	135
507.459	1789
507.531	924
507.604	353
507.677	325
507.749	-422
507.822	2742
507.894	5483
507.967	11655
508.040	6273
508.112	5392
508.185	4729
508.257	2683
508.330	4499
508.402	3924
508.475	3529
508.547	3882
508.620	3437
508.692	3646
508.765	3591
508.837	2507
508.909	3736
508.982	2633
509.054	2795
509.127	2943
509.199	2715
509.271	2033
509.344	2421
509.416	2950
509.488	3761
509.560	3934
509.633	2414
509.705	2748
509.777	2079
509.849	3963
509.922	1946
509.994	2840
510.066	3543
510.138	3376
510.210	12742
510.283	11142
510.355	9234
510.427	6829
510.499	6259
510.571	5047
510.643	5063
510.715	6116
510.787	3791
510.859	5923
510.931	4833
511.003	5418
511.076	6731
511.148	4744
511.219	4049
511.291	4936
511.363	5380
511.435	4512
511.507	3663
511.579	5128
511.651	5033
511.723	3597
511.795	3655
511.867	3234
511.939	5057
512.010	4248
512.082	4646
512.154	2918
512.226	4279
512.298	8164
512.369	11779
512.441	8885
512.513	7688
512.585	5312
512.656	6977
512.728	5454
512.800	5060
512.871	5586
512.943	5543
513.015	4378
513.086	6400
513.158	5703
513.230	3868
513.301	5167
513.373	6150
513.444	4898
513.516	5385
513.588	4564
513.659	5281
513.731	4582
513.802	3852
513.874	6307
513.945	6218
514.016	4153
514.088	4293
514.159	3234
514.231	5919
514.302	10747
514.374	8321
514.445	6564
514.516	8306
514.588	6151
514.659	6331
514.730	6957
514.802	9563
514.873	13342
514.944	18722
515.016	12037
515.087	8399
515.158	8649
515.229	11208
515.301	16280
515.372	29475
515.443	19761
515.514	11867
515.585	6918
515.656	8077
515.728	6155
515.799	4697
515.870	5407
515.941	5228
516.012	4480
516.083	7686
516.154	7023
516.225	6676
516.296	6430
516.367	6491
516.438	5002
516.509	4392
516.580	5851
516.651	10354
516.722	23204
516.793	15494
516.864	5312
516.935	5837
517.006	5832
517.077	6142
517.148	9412
517.219	25901
517.289	44859
517.360	15768
517.431	7459
517.502	4236
517.573	3838
517.643	4836
517.714	6024
517.785	6855
517.856	4283
517.926	6439
517.997	5789
518.068	5401
518.138	8823
518.209	6845
518.280	18475
518.350	70358
518.421	38231
518.492	8266
518.562	5433
518.633	6207
518.703	5300
518.774	13654
518.845	29490
518.915	33751
518.986	10723
519.056	6946
519.127	6599
519.197	8652
519.268	12023
519.338	9326
519.408	4946
519.479	4668
519.549	3597
519.620	4845
519.690	2647
519.760	3479
519.831	2827
519.901	2698
519.971	2765
520.042	2836
520.112	1928
520.182	4095
520.253	3369
520.323	3410
520.393	3090
520.463	4958
520.534	186
520.604	5371
520.674	3603
520.744	2624
520.814	2920
520.885	3984
520.955	3851
521.025	11636
521.095	5892
521.165	4148
521.235	1456
521.305	2469
521.375	2907
521.445	2398
521.515	2305
521.585	2984
521.655	131
521.725	2799
521.795	3502
521.865	653
521.935	4292
522.005	2218
522.075	1709
522.145	3074
522.215	1492
522.285	2959
522.355	2348
522.424	3904
522.494	3178
522.564	2221
522.634	3467
522.704	7892
522.774	3407
522.843	2298
522.913	1850
522.983	2833
523.053	1395
523.122	2568
523.192	1396
523.262	3559
523.331	3859
523.401	2583
523.471	1724
523.540	2749
523.610	1359
523.680	2699
523.749	1315
523.819	2781
523.888	2073
523.958	1397
524.027	1972
524.097	1764
524.166	1206
524.236	221
524.305	3019
524.375	1400
524.444	533
524.514	3653
524.583	1300
524.653	1441
524.722	1758
524.791	35
524.861	1774
524.930	296
524.999	280
525.069	2693
525.138	131
525.207	1124
525.277	2727
525.346	695
525.415	2103
525.484	2089
525.554	1296
525.623	2820
525.692	4056
525.761	3398
525.830	3488
525.900	4013
525.969	5707
526.038	9981
526.107	18233
526.176	65315
526.245	61810
526.314	18394
526.383	30040
526.452	48375
526.522	77774
526.591	92954
526.660	15394
526.729	8843
526.797	10015
526.867	11343
526.935	44004
527.004	161055
527.073	131776
527.142	11610
527.211	4036
527.280	3305
527.349	2441
527.418	340
527.487	2374
527.555	284
527.624	749
527.693	-921
527.762	1878
527.831	748
527.899	1574
527.968	1690
528.037	-731
528.106	1891
528.174	1790
528.243	1108
528.312	1348
528.380	1574
528.449	-534
528.518	2485
528.586	-544
528.655	1061
528.723	102
528.792	-360
528.861	-76
528.929	-231
528.998	1196
529.066	2
529.135	874
529.203	-934
529.272	-987
529.340	1142
529.409	1206
529.477	-691
529.545	-568
529.614	2842
529.682	-2063
529.751	294
529.819	2204
529.887	-119
529.956	251
530.024	860
530.092	-199
530.161	1302
530.229	802
530.297	223
530.365	834
530.434	726
530.502	-331
530.570	1191
530.638	-1890
530.707	1241
530.775	1256
530.843	-637
530.911	421
530.979	761
531.047	-389
531.115	597
531.183	141
531.252	993
531.320	237
531.388	-225
531.456	770
531.524	-1891
531.592	325
531.660	1962
531.728	-243
531.796	-623
531.864	-219
531.932	901
532.000	-253
532.067	-184
532.135	121
532.203	1857
532.271	-720
532.339	2644
532.407	2191
532.475	2194
532.542	1229
532.610	1307
532.678	-269
532.746	4643
532.814	12743
532.881	3649
532.949	1180
533.017	1077
533.084	-23
533.152	211
533.220	141
533.287	261
533.355	382
533.423	1451
533.490	-299
533.558	756
533.625	1155
533.693	1611
533.761	1227
533.828	1114
533.896	-199
533.963	2339
534.031	2962
534.098	3021
534.166	960
534.233	311
534.300	1745
534.368	1235
534.435	562
534.503	2095
534.570	2131
534.637	1484
534.705	1929
534.772	2863
534.840	4334
534.907	28255
534.974	46043
535.041	6397
535.109	1531
535.176	815
535.243	1412
535.310	910
535.378	283
535.445	497
535.512	371
535.579	701
535.646	624
535.714	2136
535.781	3141
535.848	2364
535.915	1966
535.982	655
536.049	1587
536.116	2185
536.183	1405
536.250	1203
536.317	1173
536.384	1335
536.451	1757
536.518	2304
536.585	-133
536.652	3273
536.719	1856
536.786	-538
536.853	909
536.920	2368
536.987	2418
537.053	1087
537.120	6532
537.187	6700
537.254	445
537.321	547
537.388	2297
537.454	599
537.521	322
537.588	6
537.654	2563
537.721	3291
537.788	3727
537.855	1583
537.921	1985
537.988	1212
538.055	2351
538.121	377
538.188	1781
538.254	1346
538.321	2017
538.388	2007
538.454	531
538.521	1235
538.587	735
538.654	317
538.720	1933
538.787	2026
538.853	1264
538.920	1395
538.986	518
539.053	1122
539.119	991
539.185	1514
539.252	2768
539.318	1371
539.385	2969
539.451	2352
539.517	2535
539.583	3085
539.650	3072
539.716	4940
539.782	2939
539.849	931
539.915	2590
539.981	279
540.047	1267
540.114	1999
540.180	3353
540.246	622
540.312	584
540.378	2567
540.444	3067
540.510	2345
540.576	4229
540.643	2739
540.709	409
540.775	1617
540.841	1942
540.907	2887
540.973	4297
541.039	3803
541.105	3257
541.171	1966
541.237	1643
541.303	1858
541.369	2825
541.435	2439
541.500	2735
541.566	1462
541.632	1317
541.698	1412
541.764	2258
541.830	1379
541.896	200
541.961	1756
542.027	1381
542.093	2219
542.159	2167
542.224	2173
542.290	4308
542.356	2613
542.421	3173
542.487	3012
542.553	2029
542.618	2752
542.684	1633
542.750	1090
542.815	2090
542.881	1229
542.947	4422
543.012	5238
543.078	1447
543.143	1816
543.209	1407
543.274	1753
543.340	2353
543.405	2673
543.471	3213
543.536	2432
543.602	1812
543.667	321
543.732	2638
543.798	1547
543.863	2717
543.928	1569
543.994	1565
544.059	1782
544.124	2350
544.190	1150
544.255	2825
544.320	2621
544.386	1383
544.451	2995
544.516	2387
544.581	1665
544.646	4122
544.712	6837
544.777	3950
544.842	2235
544.907	897
544.972	1180
545.037	1834
545.102	2845
545.168	2125
545.233	2738
545.298	2517
545.363	3100
545.428	2457
545.493	4234
545.558	3496
545.623	2910
545.688	1944
545.753	2098
545.818	1962
545.883	3485
545.947	2413
546.012	3913
546.077	2520
546.142	3283
546.207	2354
546.272	3842
546.337	3365
546.401	3525
546.466	4568
546.531	2273
546.596	3792
546.661	3211
546.725	4111
546.790	2952
546.855	3684
546.919	2050
546.984	3191
547.049	3432
547.113	4525
547.178	3833
547.243	4563
547.307	5276
547.372	6212
547.436	5224
547.501	5672
547.565	6221
547.630	6944
547.695	6447
547.759	6575
547.823	5598
547.888	5337
547.952	6229
548.017	6430
548.081	10104
548.146	8829
548.210	5689
548.274	6384
548.339	7598
548.403	6616
548.468	5513
548.532	5792
548.596	6633
548.660	6500
548.725	6614
548.789	6052
548.853	7924
548.917	6245
548.982	6446
549.046	6281
549.110	4696
549.174	6231
549.238	6099
549.303	6017
549.367	8849
549.431	6023
549.495	6470
549.559	5555
549.623	7378
549.687	7575
549.751	7370
549.815	8508
549.879	9796
549.943	8019
550.007	9608
550.071	8206
550.135	8157
550.199	7432
550.263	7449
550.327	7784
550.391	9043
550.455	8714
550.519	8636
550.582	9004
550.646	10651
550.710	10338
550.774	11107
550.838	9805
550.901	11120
550.965	11035
551.029	12002
551.093	13654
551.156	16070
551.220	19169
551.284	22618
551.347	17606
551.411	13413
551.475	12445
551.538	10295
551.602	9809
551.666	10082
551.729	7712
551.793	9260
551.856	8918
551.920	7629
551.983	8948
552.047	7300
552.110	8029
552.174	9230
552.237	8505
552.301	8439
552.364	8339
552.428	6340
552.491	6269
552.554	7842
552.618	7896
552.681	7911
552.745	6673
552.808	8313
552.871	8970
552.934	8686
552.998	7427
553.061	7846
553.124	7730
553.187	7632
553.251	8341
553.314	8436
553.377	8739
553.440	10713
553.503	21641
553.567	38931
553.630	12428
553.693	8047
553.756	7908
553.819	7700
553.882	7395
553.945	6932
554.008	7953
554.071	6057
554.134	7456
554.197	5332
554.260	6914
554.323	8224
554.386	6649
554.449	6067
554.512	7243
554.575	5680
554.638	5658
554.701	6507
554.764	6656
554.827	6661
554.889	4816
554.952	5595
555.015	4836
555.078	4225
555.141	5486
555.203	5697
555.266	4765
555.329	4505
555.391	5232
555.454	4781
555.517	5085
555.580	5278
555.642	4676
555.705	4405
555.768	4948
555.830	5868
555.893	4324
555.955	4436
556.018	4092
556.080	4073
556.143	4093
556.206	4526
556.268	3436
556.330	4202
556.393	3850
556.455	3500
556.518	3266
556.580	3848
556.643	3889
556.705	3734
556.767	2720
556.830	3543
556.892	3147
556.955	2961
557.017	3298
557.079	3953
557.142	3093
557.204	3273
557.266	4116
557.328	4455
557.391	1855
557.453	2782
557.515	2828
557.577	2543
557.639	2954
557.701	3152
557.764	2751
557.826	3879
557.888	4601
557.950	3823
558.012	5454
558.074	6791
558.136	16699
558.198	53635
558.260	21920
558.322	5912
558.384	6544
558.446	9413
558.508	9685
558.570	12806
558.632	14902
558.694	21373
558.756	32271
558.818	108675
558.880	343676
558.942	124447
559.003	59377
559.065	35247
559.127	12227
559.189	10866
559.251	11872
559.312	17781
559.374	44534
559.436	182207
559.498	114549
559.559	14430
559.621	11476
559.683	11492
559.744	17814
559.806	66714
559.868	132396
559.929	27445
559.991	10840
560.052	14341
560.114	47978
560.176	36088
560.237	24152
560.299	49449
560.360	11735
560.422	3252
560.483	2501
560.545	3016
560.606	1788
560.667	1283
560.729	1681
560.790	1936
560.852	1397
560.913	1703
560.974	1208
561.036	2128
561.097	1697
561.158	1963
561.220	2167
561.281	2138
561.342	1005
561.403	2210
561.465	990
561.526	3761
561.587	5336
561.648	1594
561.709	1576
561.771	1381
561.832	1499
561.893	1234
561.954	2077
562.015	1429
562.076	2000
562.137	1379
562.198	1599
562.259	1785
562.320	1705
562.381	1698
562.442	1121
562.503	1828
562.564	1656
562.625	1192
562.686	1823
562.747	714
562.808	1067
562.869	781
562.930	1031
562.991	1829
563.051	1414
563.112	1722
563.173	1266
563.234	345
563.294	1235
563.355	1487
563.416	2617
563.477	1571
563.537	1153
563.598	1620
563.659	1927
563.720	1346
563.780	1733
563.841	1804
563.901	2251
563.962	1590
564.023	1810
564.083	2117
564.144	2090
564.204	1425
564.265	1514
564.325	2247
564.386	3100
564.446	1810
564.507	1484
564.567	2060
564.628	2246
564.688	2320
564.749	1579
564.809	2527
564.869	2493
564.930	2118
564.990	2567
565.050	2024
565.111	2634
565.171	3518
565.231	1818
565.292	3538
565.352	2149
565.412	2917
565.472	3451
565.532	2246
565.593	3450
565.653	2850
565.713	2664
565.773	4305
565.833	4798
565.893	5571
565.953	4261
566.013	4073
566.074	5952
566.134	6622
566.194	5824
566.254	5970
566.314	7011
566.374	5268
566.434	7433
566.494	7222
566.554	8489
566.614	10187
566.673	9592
566.733	10926
566.793	11226
566.853	14174
566.913	14096
566.973	15102
567.033	14945
567.092	12862
567.152	12849
567.212	14744
567.272	14695
567.331	16794
567.391	18458
567.451	20402
567.511	21998
567.570	20127
567.630	17432
567.690	16913
567.749	17476
567.809	20786
567.868	24262
567.928	27963
567.988	34587
568.047	43276
568.107	56264
568.166	81611
568.226	131497
568.285	193321
568.345	179604
568.404	146841
568.464	122308
568.523	109380
568.582	107312
568.642	114456
568.701	141697
568.761	204286
568.820	322663
568.879	348680
568.939	268631
568.998	199942
569.057	147646
569.116	112789
569.176	88040
569.235	70524
569.294	56774
569.353	47753
569.413	40372
569.472	34059
569.531	29682
569.590	24738
569.649	22552
569.708	18497
569.767	17724
569.827	16023
569.886	14274
569.945	12987
570.004	12668
570.063	11515
570.122	10072
570.181	10272
570.240	7964
570.299	9016
570.358	7691
570.417	6999
570.475	5731
570.534	6515
570.593	5678
570.652	5598
570.711	5477
570.770	5930
570.829	6238
570.887	5361
570.946	5572
571.005	4350
571.064	4879
571.122	4386
571.181	2964
571.240	3330
571.299	3140
571.357	2698
571.416	3110
571.475	3225
571.533	3164
571.592	3119
571.650	2080
571.709	2338
571.768	3372
571.826	1933
571.885	2398
571.943	3060
572.002	1899
572.060	2667
572.119	2435
572.177	2713
572.236	2913
572.294	1973
572.352	2881
572.411	1619
572.469	1981
572.528	1798
572.586	1815
572.644	2597
572.703	2153
572.761	2256
572.819	1937
572.877	1712
572.936	1826
572.994	1667
573.052	1330
573.110	890
573.169	1495
573.227	979
573.285	1581
573.343	1204
573.401	1720
573.459	2933
573.517	2033
573.576	1219
573.634	1931
573.692	577
573.750	743
573.808	1376
573.866	1155
573.924	1493
573.982	1810
574.040	2466
574.098	2635
574.155	1590
574.213	1647
574.271	1875
574.329	1699
574.387	2101
574.445	1325
574.503	2168
574.560	1090
574.618	1604
574.676	1544
574.734	843
574.792	1680
574.849	1910
574.907	1585
574.965	1513
575.022	1709
575.080	712
575.138	1951
575.195	1723
575.253	607
575.311	1614
575.368	1983
575.426	1569
575.483	1948
575.541	2051
575.598	1322
575.656	785
575.713	789
575.771	1654
575.828	926
575.886	1038
575.943	1713
576.001	1276
576.058	1579
576.115	1705
576.173	1125
576.230	1406
576.287	2088
576.345	2332
576.402	751
576.459	2089
576.517	1452
576.574	2222
576.631	1699
576.688	741
576.746	1589
576.803	1843
576.860	682
576.917	2466
576.974	1437
577.031	1305
577.089	2312
577.146	1598
577.203	1520
577.260	1469
577.317	1536
577.374	2511
577.431	1278
577.488	848
577.545	1384
577.602	1844
577.659	1512
577.716	1710
577.773	1495
577.830	2118
577.886	2055
577.943	2416
578.000	2468
578.057	1877
578.114	1556
578.171	3076
578.227	1869
578.284	1662
578.341	2307
578.398	2276
578.454	1894
578.511	2158
578.568	2273
578.625	1600
578.681	1948
578.738	2021
578.794	674
578.851	1869
578.908	921
578.964	1573
579.021	2466
579.077	2069
579.134	1948
579.190	1612
579.247	2295
579.303	1313
579.360	2287
579.416	1739
579.473	1417
579.529	2047
579.586	2426
579.642	2232
579.698	1593
579.755	1832
579.811	3058
579.867	2765
579.924	1619
579.980	2599
580.036	2351
580.093	2978
580.149	4103
580.205	4534
580.261	3424
580.317	2853
580.374	2436
580.430	3083
580.486	2685
580.542	2392
580.598	2530
580.619	2625
580.654	2790
580.692	1982
580.710	1582
580.765	2707
580.767	2741
580.823	2504
580.838	2447
580.879	2304
580.911	2445
580.935	2542
580.984	2852
580.991	2902
581.047	2727
581.057	2685
581.103	2451
581.130	2916
581.159	3422
581.203	3305
581.215	3271
581.270	2675
581.276	2721
581.326	3128
581.349	3107
581.382	3110
581.422	2355
581.438	2010
581.494	3070
581.494	3063
581.550	2449
581.567	2768
581.606	3375
581.640	3223
581.661	3161
581.713	3688
581.717	3729
581.773	3238
581.786	3297
581.829	3436
581.859	3550
581.885	3688
581.932	2815
581.940	2666
581.996	3159
582.004	3180
582.052	3153
582.077	3006
582.107	2873
582.150	3205
582.163	3295
582.219	3645
582.223	3689
582.274	4314
582.296	3845
582.330	3079
582.368	3685
582.386	3972
582.441	2935
582.441	2932
582.497	3090
582.514	3179
582.552	3534
582.587	3971
582.608	4184
582.659	3469
582.663	3412
582.719	4871
582.732	4628
582.774	3958
582.805	4121
582.830	4254
582.877	3893
582.885	3808
582.941	3670
582.950	3760
582.996	4308
583.023	4286
583.052	4282
583.095	4631
583.107	4725
583.162	5526
583.168	5550
583.218	5664
583.240	5413
583.273	5049
583.313	4995
583.328	5013
583.384	5388
583.385	5394
583.439	5339
583.458	5259
583.494	5178
583.531	5506
583.549	5730
583.603	5765
583.605	5761
583.660	5555
583.676	5629
583.715	5889
583.748	5943
583.770	5984
583.820	6358
583.825	6398
583.881	6138
583.893	6228
583.936	6563
583.965	6321
583.991	6096
584.038	6302
584.046	6336
584.101	6660
584.110	6659
584.156	6745
584.183	6732
584.211	6473
584.255	7099
584.266	7377
584.321	6749
584.328	6821
584.376	7183
584.400	7234
584.431	7415
584.472	7185
584.486	7055
584.541	8007
584.545	7963
584.596	7258
584.617	7522
584.651	8294
584.689	8342
584.706	8183
584.761	8476
584.762	8471
584.816	8525
584.834	8661
584.871	8848
584.906	8942
584.926	9033
584.978	10114
584.980	10163
585.035	10483
585.051	10623
585.090	10815
585.123	10855
585.145	11084
585.195	12195
585.200	12288
585.254	12901
585.267	13024
585.309	13566
585.340	14448
585.364	15030
585.412	15394
585.419	15496
585.473	16493
585.484	16744
585.528	18042
585.556	19625
585.583	23096
585.628	31864
585.637	35063
585.692	62059
585.700	67899
585.747	91801
585.772	81854
585.801	57769
585.845	27967
585.856	23936
585.910	18109
585.917	17668
585.965	17262
585.989	17178
586.019	17348
586.061	17340
586.074	17360
586.128	17708
586.133	17710
586.183	18039
586.205	18385
586.237	18917
586.277	19396
586.292	19543
586.346	20034
586.349	20044
586.401	20397
586.421	20823
586.455	21897
586.493	22276
586.509	22485
586.564	23300
586.565	23308
586.618	24065
586.637	24305
586.672	25288
586.709	26737
586.727	27254
586.781	28219
586.781	28243
586.835	28976
586.853	29223
586.889	29756
586.925	30020
586.944	30227
586.996	31851
586.998	31940
587.052	33474
587.068	34168
587.106	36092
587.140	36933
587.161	37245
587.212	39229
587.215	39384
587.269	41284
587.284	41734
587.323	43808
587.356	46272
587.377	47723
587.427	49697
587.431	49900
587.485	53040
587.499	53824
587.539	56853
587.571	59091
587.593	61171
587.643	66641
587.648	67173
587.702	71248
587.715	72401
587.755	77825
587.786	82298
587.810	85651
587.858	92386
587.864	93423
587.917	103273
587.930	105425
587.971	115060
588.001	122357
588.025	128722
588.073	142803
588.079	145060
588.133	164801
588.145	168994
588.187	188495
588.217	203446
588.241	217617
588.288	245872
588.295	250658
588.348	291861
588.360	300734
588.402	342482
588.431	373078
588.456	404802
588.503	468082
588.510	480004
588.564	578804
588.575	600769
588.617	718785
588.646	804883
588.671	912914
588.718	1131315
588.725	1181502
588.778	1585605
588.789	1669906
588.832	2058494
588.861	2309482
588.886	2343293
588.932	2282229
588.939	2255510
588.993	1975226
589.004	1954225
589.047	2264591
589.075	2416552
589.100	2244003
589.147	1817666
589.154	1768854
589.207	1386091
589.218	1312907
589.261	1195318
589.290	1128694
589.314	1152452
589.361	1217284
589.368	1255994
589.421	1594433
589.433	1669887
589.475	2019528
589.504	2243951
589.528	2232920
589.576	2091992
589.582	2093415
589.635	2166420
589.647	2162504
589.689	1774248
589.718	1460869
589.742	1242700
589.790	827143
589.795	802694
589.849	588457
589.861	540733
589.902	452050
589.932	389410
589.955	359316
590.004	299287
590.009	295438
590.062	251608
590.075	241168
590.115	217703
590.146	199173
590.168	189899
590.218	169381
590.222	168205
590.275	150678
590.289	145937
590.328	136268
590.360	128298
590.381	124150
590.431	113739
590.435	113334
590.488	103972
590.503	101223
590.541	96206
590.574	91745
590.594	89744
590.645	83895
590.647	83822
590.700	78423
590.716	76636
590.753	73051
590.787	69455
590.806	68521
590.859	65815
590.859	65886
590.912	62463
590.930	61369
590.965	58989
591.001	56291
591.018	55693
591.071	53658
591.072	53533
591.124	51221
591.143	50257
591.177	48990
591.214	47570
591.230	47157
591.283	45311
591.285	45144
591.336	44154
591.356	43629
591.389	42650
591.427	41305
591.442	41058
591.495	39846
591.498	39667
591.547	38400
591.569	37694
591.600	36943
591.640	35820
591.653	35880
591.706	35706
591.711	35613
591.759	33929
591.782	32933
591.811	33101
591.853	33207
591.864	33045
591.917	31735
591.924	31482
591.969	31046
591.995	30647
592.022	29985
592.066	28702
592.075	28737
592.127	28559
592.137	28463
592.180	28297
592.208	28017
592.233	27835
592.279	27363
592.285	27425
592.338	27367
592.350	27284
592.390	25817
592.421	24592
592.443	24819
592.491	25155
592.495	25215
592.548	25157
592.562	25074
592.600	24581
592.633	24054
592.653	23753
592.704	22690
592.705	22802
592.775	21875
592.846	22283
592.916	22044
592.987	21790
593.058	20343
593.128	20952
593.199	20862
593.270	19841
593.341	19714
593.411	19418
593.482	19999
593.553	18889
593.623	18267
593.694	18275
593.764	17459
593.835	18536
593.906	17442
593.976	16636
594.047	17158
594.117	16864
594.188	16729
594.258	16895
594.329	16449
594.399	16558
594.470	16088
594.540	16628
594.611	16232
594.681	15613
594.751	16832
594.822	17521
594.892	17660
594.963	17247
595.033	16880
595.103	16240
595.174	15313
595.244	15817
595.314	15336
595.384	14990
595.455	14861
595.525	15526
595.595	14568
595.665	15251
595.736	15003
595.806	14954
595.876	15313
595.946	14672
596.016	14547
596.087	15206
596.157	14460
596.227	14316
596.297	15036
596.367	14876
596.437	16509
596.507	15794
596.577	15491
596.647	15971
596.717	15184
596.787	16300
596.857	15934
596.927	16112
596.997	15692
597.067	16403
597.137	16570
597.207	16201
597.277	15985
597.347	15069
597.417	14996
597.487	15716
597.557	15017
597.626	15106
597.696	15928
597.766	15486
597.836	14658
597.906	14817
597.975	14755
598.045	14391
598.115	14427
598.185	14441
598.254	16782
598.324	18104
598.394	16455
598.464	16725
598.533	16480
598.603	15166
598.672	15616
598.742	15532
598.812	15292
598.881	15872
598.951	15209
599.020	16242
599.090	16192
599.159	15789
599.229	16134
599.299	15054
599.368	16340
599.437	15628
599.507	14463
599.576	14614
599.646	14984
599.715	14407
599.785	14537
599.854	13378
599.924	13562
599.993	13736
600.062	13576
600.132	13594
600.201	13905
600.270	15471
600.340	16364
600.409	16157
600.478	15559
600.547	16023
600.617	15016
600.686	12837
600.755	12692
600.824	11781
600.894	11601
600.963	11569
601.032	11363
601.101	10887
601.170	10352
601.239	9465
601.308	10773
601.378	11019
601.447	10403
601.516	9350
601.585	11424
601.654	10559
601.723	11185
601.792	10018
601.861	11316
601.930	11919
601.999	11222
602.068	10708
602.137	11349
602.206	11499
602.275	11493
602.343	10932
602.412	11134
602.481	10870
602.550	11724
602.619	11311
602.688	11357
602.756	12189
602.825	12268
602.894	12012
602.963	12086
603.032	11690
603.100	12383
603.169	12021
603.238	11749
603.307	12705
603.375	12785
603.444	13153
603.513	12884
603.581	12601
603.650	13266
603.719	12790
603.787	12485
603.856	12762
603.924	12595
603.993	13182
604.061	14224
604.130	14318
604.198	15111
604.267	15346
604.335	15365
604.404	15566
604.472	16575
604.541	15795
604.609	15675
604.678	16250
604.746	15465
604.815	15643
604.883	16086
604.951	16675
605.020	16357
605.088	17109
605.156	16667
605.225	17823
605.293	17624
605.361	17293
605.429	17715
605.498	17304
605.566	17386
605.634	18370
605.702	19405
605.771	20391
605.839	20153
605.907	19978
605.975	19529
606.043	19457
606.111	19433
606.180	18818
606.248	19656
606.316	19569
606.384	18352
606.452	18937
606.520	19434
606.588	19422
606.656	19902
606.724	18865
606.792	18689
606.860	16499
606.928	14932
606.996	14423
607.064	13627
607.132	14242
607.200	15491
607.267	15278
607.335	15919
607.403	16308
607.471	14586
607.539	15519
607.607	15559
607.674	13108
607.742	13983
607.810	14503
607.878	14370
607.946	13982
608.013	14661
608.081	14545
608.149	15217
608.216	15464
608.284	16839
608.352	15898
608.419	13971
608.487	16259
608.555	14764
608.622	16553
608.690	16832
608.757	17694
608.825	18685
608.893	17894
608.960	17314
609.028	16377
609.095	17439
609.163	16041
609.230	14158
609.298	13683
609.365	13664
609.432	15948
609.500	16852
609.567	18274
609.635	21539
609.702	21460
609.769	21080
609.837	17400
609.904	15015
609.971	15573
610.039	19056
610.106	26913
610.173	51545
610.241	124001
610.308	71412
610.375	23247
610.442	16674
610.509	15271
610.577	16001
610.644	15400
610.711	16013
610.778	16749
610.845	17175
610.912	18017
610.980	20033
611.047	19709
611.114	19539
611.181	18457
611.248	17444
611.315	20260
611.382	18959
611.449	18420
611.516	20996
611.583	19473
611.650	19314
611.717	20282
611.784	20589
611.851	21891
611.918	25699
611.984	32066
612.051	52006
612.118	117775
612.185	309626
612.252	192699
612.319	38287
612.386	28677
612.452	25212
612.519	23361
612.586	23280
612.653	23255
612.719	23163
612.786	22600
612.853	21120
612.919	20677
612.986	20932
613.053	19833
613.120	18202
613.186	17075
613.253	18706
613.319	17456
613.386	17693
613.453	18396
613.519	18889
613.586	17709
613.652	19984
613.719	17952
613.785	19042
613.852	18354
613.918	17969
613.985	20453
614.051	22823
614.118	31862
614.184	30066
614.250	19173
614.317	18925
614.383	17821
614.449	18338
614.516	18768
614.582	18353
614.648	17754
614.715	18491
614.781	18425
614.847	18552
614.914	17779
614.980	17371
615.046	18547
615.112	20970
615.179	22544
615.245	27517
615.311	39831
615.377	75235
615.443	84476
615.509	43509
615.575	29338
615.642	25601
615.708	27373
615.774	29867
615.840	35362
615.906	50285
615.972	88444
616.038	186880
616.104	274823
616.170	452133
616.236	373437
616.302	73084
616.368	43929
616.434	30734
616.500	28084
616.565	30453
616.631	35230
616.697	29618
616.763	30834
616.829	42941
616.895	78808
616.961	75452
617.026	32292
617.092	21313
617.158	19905
617.224	17933
617.289	17318
617.355	16188
617.421	14320
617.487	16404
617.552	14713
617.618	13791
617.684	14644
617.749	16697
617.815	13883
617.880	12581
617.946	13233
618.012	13908
618.077	13787
618.143	13766
618.208	14062
618.274	14897
618.339	15255
618.405	11188
618.470	12616
618.536	12479
618.601	12170
618.667	10733
618.732	10722
618.798	9939
618.863	10414
618.928	9820
618.994	10666
619.059	10551
619.124	10773
619.190	11074
619.255	9865
619.320	10715
619.386	10279
619.451	9263
619.516	9767
619.581	9941
619.647	10341
619.712	10474
619.777	9980
619.842	9322
619.907	9646
619.972	11008
620.038	9831
620.103	9977
620.168	8670
620.233	9793
620.298	9804
620.363	10408
620.428	10858
620.493	10615
620.558	10856
620.623	10468
620.688	10257
620.753	11204
620.818	10336
620.883	10226
620.948	10713
621.013	10412
621.078	9743
621.143	9129
621.207	11762
621.272	10711
621.337	9853
621.402	10670
621.467	10618
621.532	9391
621.596	9685
621.661	9432
621.726	9254
621.791	10404
621.855	9990
621.920	9703
621.985	9139
622.049	10614
622.114	9329
622.179	10400
622.243	10563
622.308	10781
622.373	12230
622.437	10592
622.502	10234
622.566	9998
622.631	8993
622.695	10528
622.760	10211
622.824	10488
622.889	10014
622.953	9656
623.018	11294
623.082	11468
623.147	10692
623.211	10347
623.276	10425
623.340	9681
623.404	10148
623.469	10152
623.533	9183
623.597	9963
623.662	9418
623.726	8382
623.790	8051
623.854	8189
623.919	9002
623.983	8038
624.047	9466
624.111	8714
624.176	9058
624.240	9039
624.304	9703
624.368	8863
624.432	10213
624.496	9808
624.560	10019
624.625	9655
624.689	10500
624.753	9835
624.817	9722
624.881	9053
624.945	8825
625.009	8729
625.073	8429
625.137	8481
625.201	9135
625.265	10007
625.329	8651
625.393	8981
625.456	8830
625.520	9462
625.584	9481
625.648	9197
625.712	10430
625.776	10345
625.839	10219
625.903	7497
625.967	6625
626.031	8632
626.095	9987
626.158	9162
626.222	5796
626.286	6951
626.349	5165
626.413	4989
626.477	6911
626.540	4860
626.604	4699
626.668	6276
626.731	5301
626.795	5682
626.858	4784
626.922	4783
626.986	5491
627.049	4313
627.113	6335
627.176	5828
627.240	5473
627.303	5017
627.366	4587
627.430	5655
627.493	5625
627.557	4529
627.620	6213
627.684	5822
627.747	5972
627.810	3699
627.874	5123
627.937	3635
628.000	6607
628.064	4785
628.127	2740
628.190	5273
628.253	4209
628.317	3138
628.380	4114
628.443	3157
628.506	3051
628.569	4547
628.632	3017
628.696	3786
628.759	3722
628.822	3308
628.885	2985
628.948	3322
629.011	3055
629.074	3239
629.137	2450
629.200	1906
629.263	3990
629.326	2207
629.389	2487
629.452	3040
629.515	1962
629.578	2642
629.641	4077
629.704	2610
629.767	3588
629.830	3202
629.892	2606
629.955	1939
630.018	4677
630.081	2345
630.144	3624
630.207	2311
630.269	3982
630.332	2320
630.395	2726
630.458	3050
630.520	1283
630.583	4015
630.646	2444
630.708	2465
630.771	1452
630.834	3186
630.896	2278
630.959	2441
631.021	2074
631.084	1828
631.146	3029
631.209	2833
631.272	2817
631.334	3597
631.397	2508
631.459	2467
631.522	3454
631.584	2540
631.646	3566
631.709	4428
631.771	3830
631.834	3566
631.896	2292
631.958	2947
632.021	3623
632.083	1944
632.145	2114
632.208	1880
632.270	2402
632.332	2015
632.395	1879
632.457	2990
632.519	1731
632.581	3015
632.643	1694
632.706	2310
632.768	2066
632.830	3408
632.892	2378
632.954	2066
633.016	3718
633.078	2936
633.141	3107
633.203	2164
633.265	2807
633.327	3051
633.389	1614
633.451	2832
633.513	2062
633.575	3161
633.637	1657
633.698	2385
633.760	3246
633.822	3218
633.884	3089
633.946	2602
634.008	2865
634.070	3973
634.132	4496
634.193	3870
634.255	4451
634.317	4224
634.379	5157
634.441	4112
634.502	3456
634.564	5662
634.626	6090
634.687	9754
634.749	4929
634.811	3813
634.873	1858
634.934	2943
634.996	3868
635.057	2337
635.119	2012
635.181	1747
635.242	3745
635.304	834
635.365	4208
635.427	2200
635.488	2681
635.550	2047
635.611	2643
635.673	962
635.734	3832
635.796	2011
635.857	4079
635.918	3315
635.980	4959
636.041	3604
636.102	4182
636.164	4491
636.225	4855
636.286	2384
636.348	4634
636.409	3213
636.470	1814
636.531	2303
636.593	1933
636.654	2418
636.715	2706
636.776	2441
636.838	2134
636.899	3383
636.960	3070
637.021	3185
637.082	4864
637.143	4866
637.204	2622
637.265	2325
637.326	2993
637.387	2473
637.448	1128
637.509	2534
637.570	1378
637.631	3246
637.692	886
637.753	1224
637.814	1437
637.875	1631
637.936	2145
637.997	862
638.058	1906
638.119	2178
638.179	1169
638.240	829
638.301	1900
638.362	687
638.423	892
638.483	2852
638.544	192
638.605	1837
638.666	234
638.726	2095
638.787	1892
638.848	1481
638.908	1704
638.969	2446
639.030	1677
639.090	1094
639.151	518
639.211	2263
639.272	1410
639.332	2649
639.393	1872
639.453	345
639.514	1408
639.574	3051
639.635	2027
639.695	2622
639.756	744
639.816	1808
639.877	1544
639.937	2601
639.997	2343
640.058	943
640.118	664
640.178	2727
640.239	1418
640.299	1438
640.359	637
640.420	1724
640.480	1959
640.540	1866
640.600	2435
640.661	2527
640.721	1104
640.781	4415
640.841	3792
640.901	2377
640.961	2219
641.021	2480
641.082	1386
641.142	1753
641.202	2021
641.262	65
641.322	1654
641.382	1033
641.442	1750
641.502	580
641.562	1728
641.622	1168
641.682	2085
641.742	1958
641.802	1124
641.861	1143
641.921	554
641.981	2012
642.041	2177
642.101	1416
642.161	254
642.221	1375
642.280	1341
642.340	1110
642.400	-76
642.460	2338
642.519	1656
642.579	1681
642.639	2050
642.698	-644
642.758	2888
642.818	1826
642.877	382
642.937	928
642.997	1500
643.056	2248
643.116	529
643.175	3110
643.235	1691
643.294	1926
643.354	1473
643.414	3126
643.473	4279
643.532	4820
643.592	6810
643.651	13670
643.711	27298
643.770	54553
643.830	134763
643.889	305999
643.948	68675
644.008	8636
644.067	4972
644.126	3608
644.186	2007
644.245	2454
644.304	677
644.363	3492
644.423	1330
644.482	2550
644.541	1688
644.600	69
644.659	2602
644.719	2707
644.778	4978
644.837	9325
644.896	19701
644.955	49975
645.014	16633
645.073	3553
645.132	1382
645.191	1451
645.250	1225
645.309	3215
645.368	2062
645.427	3945
645.486	3552
645.545	9250
645.604	2960
645.663	2663
645.722	1183
645.781	2933
645.840	2755
645.898	3919
645.957	7141
646.016	11291
646.075	22714
646.134	45555
646.192	125793
646.251	194581
646.310	26513
646.369	5398
646.427	4678
646.486	1608
646.545	2191
646.603	1815
646.662	2676
646.721	2340
646.779	1160
646.838	1202
646.896	2090
646.955	3539
647.014	5462
647.072	11055
647.131	30417
647.189	14808
647.248	1095
647.306	1916
647.365	2418
647.423	-624
647.481	2787
647.540	-191
647.598	1343
647.657	2023
647.715	1590
647.773	651
647.832	1388
647.890	905
647.948	621
648.007	1745
648.065	602
648.123	618
648.181	2153
648.240	2301
648.298	885
648.356	1427
648.414	2113
648.472	1832
648.531	2663
648.589	1427
648.647	863
648.705	1607
648.763	1298
648.821	1509
648.879	1914
648.937	1832
648.995	1456
649.053	3328
649.111	4770
649.169	8649
649.227	15087
649.285	32345
649.343	99100
649.401	47129
649.459	5875
649.516	4623
649.574	2598
649.632	7894
649.690	9277
649.748	3821
649.806	3573
649.863	9482
649.921	20648
649.979	13476
650.037	2052
650.094	-508
650.152	576
650.210	228
650.268	1708
650.325	1554
650.383	2349
650.440	483
650.498	1046
650.556	779
650.613	344
650.671	956
650.728	985
650.786	1359
650.843	868
650.901	-1627
650.958	1393
651.016	791
651.073	246
651.131	-87
651.188	-504
651.246	153
651.303	-625
651.360	756
651.418	-61
651.475	224
651.532	-383
651.590	160
651.647	-436
651.704	199
651.762	-347
651.819	324
651.876	-36
651.933	-288
651.990	391
652.048	-1067
652.105	387
652.162	908
652.219	-177
652.276	661
652.333	-102
652.390	-862
652.448	-608
652.505	-465
652.562	227
652.619	720
652.676	881
652.733	1961
652.790	686
652.847	-135
652.904	225
652.961	-1118
653.017	-460
653.074	130
653.131	-318
653.188	-701
653.245	32
653.302	697
653.359	-634
653.415	1117
653.472	-1051
653.529	-200
653.586	-477
653.642	-297
653.699	276
653.756	-535
653.813	-618
653.869	1240
653.926	-709
653.983	-26
654.039	375
654.096	-184
654.152	1113
654.209	-532
654.266	-208
654.322	-769
654.379	501
654.435	723
654.492	-415
654.548	329
654.605	424
654.661	1129
654.717	-159
654.774	1204
654.830	1215
654.887	1236
654.943	801
655.000	1902
655.056	496
655.112	584
655.168	-397
655.225	504
655.281	406
655.337	367
655.394	514
655.450	603
655.506	1381
655.562	1224
655.618	2792
655.675	1121
655.731	2427
655.787	1754
655.843	2880
655.899	1508
655.955	3861
656.011	4894
656.067	4715
656.123	6341
656.179	7306
656.235	8551
656.291	6511
656.347	7649
656.403	4930
656.459	4180
656.515	3559
656.571	2604
656.627	2185
656.683	2399
656.739	2245
656.795	1112
656.850	694
656.906	1294
656.962	1988
657.018	588
657.074	868
657.129	785
657.185	1352
657.241	1884
657.297	868
657.352	204
657.408	479
657.464	1702
657.519	-175
657.575	-335
657.630	-28
657.686	527
657.742	-755
657.797	640
657.853	-496
657.908	174
657.964	212
658.019	-373
658.075	76
658.130	-149
658.186	-795
658.241	518
658.297	-1671
658.352	-939
658.407	-331
658.463	-470
658.518	-326
658.573	-154
658.629	-614
658.684	-706
658.739	-974
658.795	-360
658.850	-175
658.905	-966
658.960	-261
659.016	-942
659.071	372
659.126	-363
659.181	119
659.236	1327
659.291	99
659.346	-201
659.401	-885
659.457	-170
659.512	-1049
659.567	540
659.622	526
659.677	-593
659.732	-1162
659.787	-457
659.842	-1319
659.897	-132
659.952	63
660.007	-360
660.061	-400
660.116	-872
660.171	-1396
660.226	-361
660.281	357
660.336	-530
660.391	-34
660.445	-731
660.500	-7
660.555	-316
660.610	-1575
660.664	831
660.719	-377
660.774	-469
660.828	-147
660.883	-254
660.938	-91
660.992	-1351
661.047	-539
661.101	-1058
661.156	-863
661.211	-1321
661.265	-683
661.320	-1225
661.374	-595
661.429	-127
661.483	-84
661.538	-1108
661.592	-1214
661.647	-82
661.701	156
661.755	-214
661.810	-211
661.864	-1454
661.919	-910
661.973	292
662.027	-525
662.081	-1183
662.136	-561
662.190	500
662.244	-964
662.299	-1539
662.353	-363
662.407	-934
662.461	28
662.515	-76
662.569	-51
662.624	334
662.678	-780
662.732	-67
662.786	-1388
662.840	-820
662.894	-433
662.948	-368
663.002	-870
663.056	-712
663.110	-449
663.164	123
663.218	-712
663.272	-145
663.326	-304
663.380	-905
663.434	-772
663.488	-664
663.542	-292
663.595	-514
663.649	-464
663.703	813
663.757	-536
663.811	-600
663.864	-733
663.918	-548
663.972	-775
664.026	-166
664.079	-847
664.133	-686
664.187	-169
664.240	-739
664.294	198
664.348	-261
664.401	-51
664.455	190
664.508	-256
664.562	185
664.615	-156
664.669	-286
664.722	12
664.776	-110
664.829	131
664.883	-193
664.936	-727
664.990	112
665.043	-203
665.097	-448
665.150	-312
665.203	-251
665.257	-582
665.310	-491
665.363	334
665.417	-40
665.470	-471
665.523	-908
665.576	-293
665.630	-480
665.683	-1326
665.736	244
665.789	-737
665.842	-890
665.895	-808
665.949	-156
666.002	-266
666.055	-1153
666.108	56
666.161	-589
666.214	-473
666.267	-747
666.320	23
666.373	-226
666.426	-939
666.479	-505
666.532	-378
666.585	-714
666.638	-161
666.691	-198
666.744	-754
666.796	-1075
666.849	-815
666.902	-627
666.955	-1564
667.008	-848
667.060	-1367
667.113	-1105
667.166	-525
667.219	-841
667.271	-553
667.324	145
667.377	-737
667.430	-73
667.482	-887
667.535	21
667.587	-949
667.640	-596
667.693	-769
667.745	-447
667.798	-837
667.850	-774
667.903	-109
667.955	-1126
668.008	-762
668.060	-1191
668.113	-706
668.165	129
668.218	235
668.270	-619
668.322	-344
668.375	-112
668.427	-683
668.479	-1130
668.532	-113
668.584	-170
668.636	-755
668.689	-710
668.741	-985
668.793	-403
668.845	-737
668.898	-324
668.950	-628
669.002	-685
669.054	-1399
669.106	-549
669.158	-271
669.211	-68
669.263	-807
669.315	345
669.367	-261
669.419	-251
669.471	758
669.523	891
669.575	2777
669.627	1646
669.679	296
669.731	-155
669.783	258
669.835	677
669.886	868
669.938	-132
669.990	-368
670.042	-341
670.094	-502
670.146	-724
670.197	-642
670.249	83
670.301	-165
670.353	51
670.404	471
670.456	1446
670.508	3530
670.560	6238
670.611	11938
670.663	20052
670.715	50723
670.766	84722
670.818	22576
670.869	2470
670.921	1403
670.972	657
671.024	-172
671.075	684
671.127	-428
671.178	-113
671.230	-817
671.281	92
671.333	-478
671.384	-533
671.436	-132
671.487	469
671.538	875
671.590	1615
671.641	2364
671.692	5667
671.744	10881
671.795	7622
671.846	2138
671.897	628
671.949	-103
672.000	141
672.051	-422
672.102	387
672.153	-449
672.204	-715
672.256	-670
672.307	-91
672.358	52
672.409	-202
672.460	-624
672.511	-822
672.562	-643
672.613	-731
672.664	-547
672.715	-487
672.766	-600
672.817	-830
672.868	-89
672.919	-622
672.970	-448
673.021	-311
673.071	-432
673.122	-477
673.173	-599
673.224	-960
673.275	-1355
673.326	-1313
673.376	-146
673.427	-440
673.478	-1216
673.528	-268
673.579	-758
673.630	-604
673.680	294
673.731	-821
673.782	-1276
673.832	-898
673.883	-870
673.934	-1301
673.984	-355
674.035	-388
674.085	-595
674.136	-44
674.186	-657
674.237	-911
674.287	-935
674.338	-858
674.388	-1091
674.438	-1362
674.489	-663
674.539	57
674.589	-868
674.640	-1772
674.690	-1007
674.740	-1010
674.791	-655
674.841	-999
674.891	-1111
674.942	-28
674.992	-1228
675.042	-2053
675.092	-926
675.142	-1036
675.193	-1739
675.243	-1269
675.293	-1182
675.343	-1426
675.393	-1434
675.443	-565
675.493	-693
675.543	-1565
675.593	-358
675.643	-818
675.693	-1047
675.743	-781
675.793	-313
675.843	-1062
675.893	-1024
675.943	-848
675.993	-1744
676.043	-113
676.093	218
676.142	-1396
676.192	-391
676.242	-1216
676.292	-1223
676.341	-1179
676.391	-873
676.441	-655
676.491	-810
676.540	-1069
676.590	-1156
676.640	-481
676.689	-1648
676.739	-1817
676.789	-711
676.838	-1659
676.888	-1012
676.937	-595
676.987	-1046
677.037	-1567
677.086	-1413
677.136	-815
677.185	-1051
677.235	-1148
677.284	-1087
677.333	-998
677.383	-1302
677.432	-1272
677.482	-1562
677.531	-478
677.580	-2266
677.630	-566
677.679	-746
677.728	-1257
677.778	-360
677.827	-1587
677.876	-1275
677.925	-1505
677.975	-660
678.024	-1566
678.073	-766
678.122	-1419
678.171	-2013
678.220	-1649
678.269	-871
678.319	-1401
678.368	-1627
678.417	-1115
678.466	-1445
678.515	-859
678.564	-787
678.613	-1494
678.662	-1177
678.711	-1412
678.760	-1077
678.809	-1149
678.857	-1497
678.906	-1213
678.955	-337
679.004	-1037
679.053	-1210
679.102	-747
679.151	-1166
679.199	-603
679.248	-802
679.297	-1531
679.346	-1901
679.394	-1494
679.443	-955
679.492	-1252
679.540	-911
679.589	-1640
679.638	-1887
679.686	-1115
679.735	-131
679.784	-1685
679.832	-1070
679.881	-1922
679.929	-708
679.978	-1060
680.026	-1315
680.075	-798
680.123	-1198
680.172	-2378
680.220	-900
680.268	-931
680.317	-1664
680.365	-1943
680.414	-1503
680.462	-688
680.510	-851
680.559	-1175
680.607	-988
680.655	-1049
680.703	-922
680.752	-1334
680.800	-1540
680.848	-1186
680.896	-1964
680.945	-1079
680.993	-1054
681.041	-1278
681.089	-1094
681.137	-440
681.185	-1201
681.233	-355
681.258	-838
681.281	-1300
681.329	-1531
681.377	-1382
681.380	-1360
681.425	-1064
681.473	-1604
681.502	-1800
681.521	-1953
681.569	-1658
681.617	-986
681.624	-1010
681.665	-1197
681.713	-910
681.745	-1148
681.761	-1274
681.809	-986
681.857	-1394
681.867	-1368
681.904	-1303
681.952	-1218
681.989	-1061
682.000	-1015
682.048	-1387
682.096	-1554
682.111	-1452
682.143	-1261
682.191	-853
682.233	-743
682.239	-736
682.286	-816
682.334	-1252
682.354	-1471
682.382	-1774
682.430	-297
682.476	-1845
682.477	-1883
682.525	-1155
682.572	-1401
682.598	-1236
682.620	-1092
682.667	-599
682.715	-1398
682.720	-1341
682.763	-877
682.810	-1522
682.841	-1077
682.857	-850
682.905	-1185
682.952	-613
682.963	-661
683.000	-858
683.047	-1055
683.085	-21
683.095	258
683.142	-925
683.190	-1007
683.206	-996
683.237	-987
683.284	-577
683.328	-1079
683.332	-1128
683.379	-744
683.426	-795
683.449	-1051
683.473	-1314
683.521	-707
683.568	-909
683.571	-918
683.615	-1083
683.662	-436
683.693	-1173
683.709	-1592
683.757	-522
683.804	-1144
683.814	-1151
683.851	-1174
683.898	-1142
683.936	-847
683.945	-798
683.992	-492
684.039	-1473
684.057	-1254
684.086	-855
684.133	-1104
684.179	-1125
684.180	-1131
684.227	-688
684.274	-180
684.300	-244
684.321	-289
684.368	-989
684.415	-457
684.422	-402
684.462	-103
684.509	-1165
684.543	-1100
684.556	-1080
684.603	-591
684.649	-212
684.665	-352
684.696	-679
684.743	-105
684.786	-360
684.790	-380
684.837	-62
684.883	-849
684.908	-344
684.930	88
684.977	-485
685.023	-311
685.029	-370
685.070	-761
685.117	-466
685.150	-790
685.164	-962
685.210	-91
685.257	-307
685.272	-209
685.303	89
685.350	-623
685.393	-757
685.396	-777
685.443	-949
685.490	-304
685.514	-249
685.536	-157
685.583	-298
685.629	-354
685.636	-420
685.675	-853
685.722	-291
685.757	-510
685.768	-611
685.815	-586
685.861	163
685.878	-100
685.908	-483
685.954	-193
686.000	-151
686.000	-151
686.047	-620
686.093	-115
686.121	-68
686.139	-103
686.185	-389
686.232	-701
686.242	-558
686.278	13
686.324	39
686.363	75
686.370	67
686.416	37
686.463	530
686.484	-9
686.509	-595
686.555	-465
686.601	-63
686.606	1
686.647	600
686.693	161
686.727	140
686.739	152
686.785	173
686.831	19
686.848	67
686.877	54
686.923	-306
686.969	-16
686.969	-15
687.015	255
687.061	-28
687.090	51
687.107	102
687.153	77
687.199	44
687.211	212
687.245	679
687.291	417
687.332	-226
687.336	-283
687.382	39
687.428	63
687.453	74
687.474	71
687.520	504
687.565	402
687.574	341
687.611	187
687.657	525
687.695	757
687.702	830
687.748	1406
687.794	2489
687.816	2140
687.839	1405
687.885	1198
687.931	618
687.937	545
687.976	356
688.022	67
688.058	-494
688.067	-572
688.113	-38
688.158	82
688.179	322
688.204	497
688.249	559
688.295	651
688.300	585
688.340	149
688.386	311
688.421	518
688.431	609
688.477	500
688.522	711
688.542	674
688.567	493
688.613	-14
688.658	186
688.663	207
688.703	694
688.749	499
688.784	514
688.794	488
688.839	714
688.884	1050
688.905	1022
688.930	895
688.975	999
689.020	951
689.026	877
689.065	392
689.110	136
689.146	249
689.155	325
689.201	653
689.246	964
689.267	720
689.291	402
689.336	801
689.381	502
689.388	535
689.426	736
689.471	751
689.509	629
689.516	598
689.561	996
689.606	602
689.630	581
689.651	660
689.696	749
689.741	642
689.750	789
689.785	1084
689.830	654
689.871	606
689.875	619
689.920	-12
689.965	477
689.992	333
690.010	319
690.054	531
690.099	1369
690.112	1304
690.144	955
690.189	412
690.233	554
690.233	560
690.278	495
690.323	1217
690.354	1123
690.367	1014
690.412	982
690.457	805
690.474	832
690.501	968
690.546	1159
690.590	1155
690.595	1126
690.635	882
690.680	966
690.716	1149
690.724	1226
690.769	1428
690.813	1902
690.836	1829
690.857	1864
690.902	2021
690.946	2506
690.957	2653
690.991	3996
691.035	5842
691.077	7309
691.080	7291
691.124	6262
691.168	5436
691.198	4744
691.213	4316
691.257	3755
691.301	2388
691.318	2094
691.346	2112
691.390	1910
691.434	1496
691.439	1494
691.478	1580
691.522	1352
691.559	1231
691.567	1257
691.611	1157
691.655	1244
691.680	1290
691.699	1280
691.743	1458
691.787	1168
691.800	1100
691.831	978
691.875	1400
691.919	1033
691.921	1034
691.964	1241
692.008	1233
692.041	1326
692.052	1428
692.096	1505
692.139	1943
692.162	2022
692.183	1764
692.227	1135
692.271	920
692.282	797
692.315	861
692.359	1205
692.402	1190
692.403	1196
692.447	1009
692.490	1421
692.523	1784
692.534	1917
692.578	1546
692.622	1672
692.643	1723
692.666	1732
692.709	1742
692.753	1861
692.763	1865
692.797	1920
692.840	2036
692.884	1725
692.884	1729
692.928	1659
692.971	1613
693.004	1644
693.015	1676
693.059	1786
693.102	1833
693.124	1811
693.146	1795
693.189	1831
693.233	1518
693.245	1566
693.276	1701
693.320	1799
693.363	1477
693.365	1467
693.407	1623
693.450	1981
693.485	1922
693.493	1995
693.537	2867
693.580	3260
693.605	3811
693.624	4375
693.667	5158
693.710	6027
693.725	6472
693.753	8919
693.797	12387
693.840	16385
693.845	16697
693.883	14635
693.926	12707
693.966	10890
693.970	10666
694.013	8260
694.056	5827
694.086	4060
694.099	3871
694.142	3175
694.185	2812
694.206	2561
694.229	2436
694.272	2364
694.315	2153
694.326	2020
694.358	1942
694.401	2186
694.444	2065
694.446	2066
694.487	2268
694.530	2527
694.566	2525
694.573	2452
694.616	2017
694.659	1602
694.686	1380
694.702	1493
694.745	1812
694.787	1816
694.806	1957
694.830	2072
694.873	1982
694.916	2339
694.926	2299
694.959	2025
695.002	1879
695.044	1655
695.046	1641
695.087	1741
695.130	1812
695.166	1833
695.172	1888
695.215	2058
695.258	2411
695.286	2727
695.301	2715
695.343	2422
695.386	2444
695.406	2207
695.428	2007
695.471	1994
695.514	1806
695.526	1731
695.556	1619
695.599	1742
695.641	1476
695.646	1480
695.684	2007
695.726	2316
695.766	2604
695.769	2591
695.811	2333
695.854	1968
695.886	1827
695.896	1862
695.938	1951
695.981	1853
696.005	1845
696.023	1948
696.065	2174
696.108	2524
696.125	2574
696.150	2591
696.192	2686
696.235	2771
696.245	2820
696.277	2863
696.319	2667
696.361	2578
696.365	2553
696.404	2512
696.446	2496
696.485	2604
696.488	2642
696.530	2873
696.572	3081
696.604	3275
696.614	3261
696.656	3172
696.698	2998
696.724	2956
696.740	2923
696.783	2703
696.825	2627
696.844	2428
696.867	2412
696.909	2613
696.951	2701
696.964	2793
696.992	2776
697.034	2522
697.076	2289
697.083	2232
697.118	2354
697.160	2723
697.202	2805
697.203	2800
697.244	2708
697.286	2602
697.323	2504
697.327	2526
697.369	2600
697.411	2627
697.442	2698
697.453	2708
697.494	2674
697.536	2640
697.562	2624
697.578	2644
697.620	2608
697.661	2658
697.682	2656
697.703	2702
697.744	2732
697.786	2847
697.801	2845
697.828	2881
697.869	2943
697.911	3021
697.921	3019
697.952	2960
697.994	2952
698.035	2861
698.040	2838
698.077	2926
698.118	3083
698.160	3155
698.160	3143
698.201	3261
698.243	3338
698.279	3363
698.284	3376
698.325	3394
698.367	3439
698.399	3463
698.408	3478
698.449	3470
698.491	3438
698.518	3446
698.532	3516
698.573	3627
698.614	3792
698.638	3863
698.656	3800
698.697	3617
698.738	3435
698.757	3336
698.779	3223
698.820	3003
698.862	2771
698.877	2671
698.903	2866
698.944	3178
698.985	3485
698.996	3561
699.026	3473
699.067	3337
699.116	3166
699.235	2473
699.354	3827
699.474	3412
699.593	3472
699.713	3450
699.832	3450
699.951	3236
700.070	3939
700.190	3866
700.309	3700
700.428	3614
700.547	3308
700.667	3396
700.786	3661
700.905	3832
701.024	3439
701.143	3417
701.262	3309
701.381	3028
701.500	3825
701.619	3575
701.738	3135
701.857	3659
701.976	3091
702.095	3576
702.214	2745
702.333	3099
702.452	3686
702.571	2594
702.690	3637
702.809	3042
702.928	3174
703.047	3255
703.165	2658
703.284	3116
703.403	3505
703.522	3522
703.640	3157
703.759	2894
703.878	3347
703.997	2605
704.115	3402
704.234	3268
704.353	3295
704.471	2286
704.590	3276
704.708	3121
704.827	2500
704.946	3058
705.064	2720
705.183	2513
705.301	2718
705.420	3482
705.538	3122
705.656	2884
705.775	2464
705.893	4796
706.012	5508
706.130	2938
706.249	2705
706.367	3461
706.485	2583
706.604	1914
706.722	3642
706.840	4149
706.958	7050
707.077	4420
707.195	2170
707.313	2870
707.431	3246
707.549	2266
707.668	1915
707.786	3473
707.904	2486
708.022	2138
708.140	2573
708.258	2748
708.376	3190
708.494	1894
708.612	2580
708.730	2870
708.848	2507
708.966	2117
709.084	3567
709.202	2449
709.320	2303
709.438	2018
709.556	2646
709.674	3076
709.791	2469
709.909	2090
710.027	2328
710.145	2720
710.263	2737
710.380	1861
710.498	2672
710.616	2267
710.733	2334
710.851	2378
710.969	2540
711.086	1937
711.204	2488
711.322	2646
711.439	2743
711.557	2685
711.674	2923
711.792	1938
711.909	2312
712.027	3525
712.144	1819
712.262	2285
712.379	2097
712.497	1580
712.614	2908
712.732	2627
712.849	2855
712.966	2937
713.084	2714
713.201	2612
713.318	2403
713.436	3122
713.553	1977
713.670	2177
713.787	3086
713.905	2202
714.022	1952
714.139	1749
714.256	3681
714.373	4497
714.490	7585
714.608	21266
714.725	95095
714.842	83051
714.959	5758
715.076	3335
715.193	3059
715.310	3096
715.427	2365
715.544	2001
715.661	3001
715.778	2561
715.895	2508
716.011	2428
716.128	2101
716.245	2404
716.362	2294
716.479	1703
716.596	3261
716.713	2847
716.829	2493
716.946	2767
717.063	2706
717.180	2263
717.296	2370
717.413	3180
717.530	2608
717.646	2664
717.763	2330
717.880	1558
717.996	1616
718.113	1664
718.229	2323
718.346	1574
718.462	2029
718.579	2731
718.695	2606
718.812	2040
718.928	2550
719.045	1492
719.161	2101
719.277	1873
719.394	2270
719.510	2144
719.626	2499
719.743	2956
719.859	4117
719.975	5528
720.092	24189
720.208	46044
720.324	6050
720.440	1596
720.557	1848
720.673	3036
720.789	3297
720.905	1582
721.021	2227
721.137	1854
721.253	1788
721.369	1993
721.486	1389
721.602	2002
721.718	2057
721.834	1611
721.950	1478
722.066	1389
722.181	1432
722.297	1536
722.413	1463
722.529	1877
722.645	2583
722.761	1923
722.877	1352
722.993	2045
723.108	2070
723.224	1628
723.340	1881
723.456	1882
723.571	2745
723.687	1499
723.803	2374
723.918	1320
724.034	1165
724.150	1924
724.265	1928
724.381	1372
724.497	2006
724.612	1054
724.728	2077
724.843	786
724.959	1968
725.074	2783
725.190	2601
725.305	1874
725.421	1715
725.536	1142
725.651	1515
725.767	1626
725.882	1852
725.997	1508
726.113	1307
726.228	1278
726.343	1160
726.459	1701
726.574	1842
726.689	1104
726.804	1614
726.920	741
727.035	1764
727.150	1434
727.265	1845
727.380	2936
727.495	2898
727.610	1694
727.725	1713
727.841	1918
727.956	2890
728.071	3367
728.186	1543
728.301	1479
728.416	1702
728.531	1073
728.645	2113
728.760	2174
728.875	2438
728.990	3036
729.105	1740
729.220	2068
729.335	2315
729.449	1465
729.564	1424
729.679	910
729.794	2072
729.908	1422
730.023	2360
730.138	981
730.253	1085
730.367	1526
730.482	1652
730.596	1592
730.711	2175
730.826	1853
730.940	2143
731.055	1308
731.169	2106
731.284	1274
731.398	1859
731.513	1575
731.627	1212
731.742	1888
731.856	1123
731.970	1587
732.085	1474
732.199	1653
732.313	4153
732.428	8144
732.542	25070
732.656	12859
732.771	2223
732.885	1010
732.999	1727
733.113	1673
733.227	1607
733.342	1677
733.456	1291
733.570	1549
733.684	2075
733.798	1223
733.912	1299
734.026	1625
734.140	1578
734.254	1355
734.368	1550
734.482	1785
734.596	1850
734.710	1416
734.824	1518
734.938	912
735.052	1365
735.166	1686
735.280	1263
735.393	766
735.507	1718
735.621	1358
735.735	1969
735.849	1930
735.962	1694
736.076	1914
736.190	1652
736.303	1718
736.417	1444
736.531	1524
736.644	1299
736.758	1212
736.872	1223
736.985	1315
737.099	1711
737.212	1128
737.326	1433
737.439	1342
737.553	1173
737.666	1758
737.780	1545
737.893	639
738.007	1874
738.120	1061
738.233	1513
738.347	1174
738.460	1082
738.573	1381
738.687	824
738.800	924
738.913	1984
739.026	724
739.140	1573
739.253	1532
739.366	1433
739.479	1002
739.592	717
739.705	1049
739.818	1840
739.932	1645
740.045	1351
740.158	1197
740.271	1835
740.384	1024
740.497	1722
740.610	3132
740.723	2722
740.836	2706
740.949	2911
741.062	1824
741.174	2144
741.287	1624
741.400	1617
741.513	2580
741.626	2747
741.739	1830
741.851	1875
741.964	1575
742.077	2407
742.189	3608
742.302	7930
742.415	4882
742.527	2256
742.640	1373
742.753	1832
742.865	1671
742.978	1391
743.090	939
743.203	1044
743.316	576
743.428	821
743.541	888
743.653	1348
743.766	1445
743.878	1265
743.990	2654
744.103	7391
744.215	9377
744.327	2085
744.440	1226
744.552	1707
744.664	1185
744.777	647
744.889	339
745.001	1648
745.113	1043
745.226	1168
745.338	1377
745.450	922
745.562	1135
745.674	773
745.786	873
745.898	552
746.010	966
746.122	1058
746.234	1276
746.347	2355
746.459	1402
746.570	2542
746.682	8074
746.794	16937
746.906	3461
747.018	1172
747.130	678
747.242	1193
747.354	1252
747.466	1595
747.577	240
747.689	1013
747.801	1727
747.913	281
748.024	997
748.136	288
748.248	431
748.359	527
748.471	359
748.583	1101
748.694	414
748.806	845
748.918	94
749.029	1042
749.141	531
749.252	1579
749.364	1123
749.475	1146
749.587	881
749.698	554
749.809	478
749.921	1355
750.032	99
750.144	1099
750.255	788
750.366	571
750.478	378
750.589	1135
750.700	772
750.811	850
750.923	667
751.034	290
751.145	929
751.256	1388
751.367	453
751.479	1242
751.590	400
751.701	767
751.812	665
751.923	589
752.034	322
752.145	1359
752.256	382
752.367	1042
752.478	695
752.589	113
752.700	243
752.811	768
752.922	533
753.032	-221
753.143	487
753.254	670
753.365	954
753.476	636
753.586	1645
753.697	979
753.808	643
753.919	683
754.029	290
754.140	1166
754.251	69
754.361	619
754.472	247
754.582	954
754.693	191
754.804	864
754.914	424
755.025	731
755.135	1307
755.246	865
755.356	484
755.466	406
755.577	2189
755.687	-299
755.798	489
755.908	679
756.018	747
756.129	913
756.239	673
756.349	1174
756.460	711
756.570	627
756.680	714
756.790	509
756.900	883
757.011	1001
757.121	842
757.231	245
757.341	876
757.451	312
757.561	357
757.671	-5
757.781	-65
757.891	1619
758.001	476
758.111	1645
758.221	955
758.331	1228
758.441	260
758.551	58
758.661	250
758.771	1133
758.880	540
758.990	942
759.100	1464
759.210	-142
759.320	652
759.429	1045
759.539	951
759.649	534
759.758	585
759.868	986
759.978	332
760.087	1673
760.197	581
760.307	700
760.416	589
760.526	704
760.635	1308
760.745	872
760.854	1303
760.964	1247
761.073	1012
761.182	365
761.292	672
761.401	1210
761.511	205
761.620	1604
761.729	858
761.839	177
761.948	1813
762.057	408
762.166	1100
762.276	671
762.385	1630
762.494	1206
762.603	1051
762.712	1418
762.822	962
762.931	1175
763.040	560
763.149	1293
763.258	1251
763.367	1859
763.476	1654
763.585	1900
763.694	1275
763.803	2186
763.912	2628
764.021	1862
764.130	766
764.238	1746
764.347	1205
764.456	2380
764.565	2585
764.674	2654
764.783	2212
764.891	2580
765.000	3202
765.109	3550
765.217	4314
765.326	5132
765.435	6306
765.543	8431
765.652	9430
765.761	12565
765.869	20295
765.978	33035
766.086	58924
766.195	124158
766.303	316596
766.412	717871
766.520	592050
766.629	190392
766.737	70875
766.846	38394
766.954	24311
767.062	18407
767.171	13170
767.279	9913
767.387	7320
767.496	7092
767.604	6766
767.712	4428
767.820	4764
767.928	4389
768.037	4762
768.145	4341
768.253	4172
768.361	3553
768.469	3821
768.577	3503
768.685	3409
768.793	3653
768.901	3926
769.009	5412
769.117	5848
769.225	8028
769.333	13303
769.441	23188
769.549	45400
769.657	110576
769.765	342387
769.873	592050
769.981	225133
770.088	54578
770.196	25006
770.304	15977
770.412	11920
770.519	7461
770.627	5733
770.735	4175
770.842	4652
770.950	3937
771.058	2822
771.165	3486
771.273	1905
771.380	2621
771.488	2359
771.595	1424
771.703	1777
771.810	2142
771.918	1326
772.025	1755
772.133	1253
772.240	1166
772.348	2115
772.455	1419
772.562	958
772.670	1444
772.777	956
772.884	1087
772.991	1782
773.099	1335
773.206	883
773.313	1262
773.420	931
773.528	478
773.635	1006
773.742	1321
773.849	621
773.956	1111
774.063	888
774.170	357
774.277	650
774.384	580
774.491	277
774.598	886
774.705	644
774.812	262
774.919	676
775.026	193
775.133	225
775.239	731
775.346	360
775.453	525
775.560	234
775.667	10
775.773	264
775.880	1001
775.987	240
776.093	1308
776.200	-133
776.307	145
776.413	1021
776.520	566
776.627	365
776.733	680
776.840	512
776.946	5924
777.053	15820
777.159	30303
777.266	14716
777.372	26529
777.478	17955
777.585	5625
777.691	1119
777.798	1258
777.904	1311
778.010	914
778.117	475
778.223	973
778.329	462
778.435	798
778.542	722
778.648	803
778.754	-27
778.860	-459
778.966	-628
779.072	207
779.178	566
779.284	811
779.391	154
779.497	109
779.603	1642
779.708	779
779.815	4862
779.920	20093
780.026	34484
780.132	3035
780.238	64
780.344	-197
780.450	1263
780.556	864
780.661	50
780.767	113
780.873	93
780.979	595
781.085	95
781.190	699
781.296	493
781.402	454
781.507	231
781.613	145
781.719	-323
781.824	213
781.930	-99
782.035	315
782.141	467
782.246	37
782.352	429
782.457	69
782.563	119
782.668	355
782.773	-150
782.879	86
782.984	397
783.090	458
783.195	-251
783.300	799
783.405	304
783.511	-68
783.616	130
783.721	689
783.826	696
783.932	400
784.037	43
784.142	-136
784.247	160
784.352	534
784.457	732
784.562	270
784.667	-74
784.772	926
784.877	-254
784.982	406
785.087	-847
785.192	1085
785.297	408
785.402	462
785.507	17
785.611	1118
785.716	-126
785.821	225
785.926	-413
786.031	-589
786.135	-392
786.240	-104
786.345	-430
786.450	712
786.554	244
786.659	-265
786.763	-406
786.868	242
786.973	1088
787.077	-224
787.182	136
787.286	-178
787.391	-453
787.495	-1107
787.600	-356
787.704	231
787.809	-438
787.913	-120
788.017	276
788.122	-458
788.226	-1101
788.330	-239
788.435	-361
788.539	841
788.643	-205
788.747	-238
788.852	-1040
788.956	-423
789.060	532
789.164	-170
789.268	-863
789.372	-196
789.476	-66
789.580	-502
789.684	-343
789.788	861
789.892	-448
789.996	142
790.100	115
790.204	-462
790.308	7
790.412	-454
790.516	679
790.620	-183
790.724	685
790.828	-490
790.931	-850
791.035	621
791.139	-225
791.242	76
791.346	188
791.450	-246
791.554	-846
791.657	-826
791.761	416
791.864	1207
791.968	731
792.072	77
792.175	40
792.279	-991
792.382	-210
792.486	446
792.589	-575
792.693	275
792.796	-1159
792.899	466
793.003	565
793.106	-731
793.209	-761
793.313	978
793.416	-1559
793.519	960
793.623	625
793.726	199
793.829	-450
793.932	-78
794.035	-1356
794.138	947
794.242	233
794.345	623
794.448	-243
794.551	1130
794.654	9157
794.757	16684
794.860	1622
794.963	599
795.066	-219
795.169	1103
795.272	-160
795.375	526
795.477	-541
795.580	415
795.683	-282
795.786	-601
795.889	-1227
795.991	750
796.094	286
796.197	-1185
796.300	381
796.402	-709
796.505	-815
796.608	-929
796.710	172
796.813	-455
796.915	-580
797.018	-399
797.120	-536
797.223	-1512
797.326	431
797.428	-615
797.530	-831
797.633	-731
797.735	12
797.838	-1233
797.940	72
798.042	-1148
798.145	-92
798.247	490
798.349	-1263
798.452	422
798.554	-591
798.656	-651
798.758	288
798.860	-698
798.962	-869
799.065	-920
799.167	-1599
799.269	-37
799.371	-771
799.473	732
799.575	-990
799.677	-1393
799.779	775
799.881	-1896
799.983	-91
800.085	-202
800.187	-475
800.289	-1246
800.390	-1225
800.492	-310
800.594	235
800.696	-572
800.798	71
800.899	-720
801.001	-462
801.103	-177
801.205	-610
801.306	-238
801.408	-1227
801.509	-310
801.611	-95
801.713	649
801.814	-257
801.916	-810
802.017	-559
802.119	-1066
802.220	-494
802.322	-865
802.423	545
802.525	-1425
802.626	-473
802.727	65
802.829	-327
802.930	-1529
803.031	1097
803.133	-153
803.234	-840
803.335	-420
803.436	-408
803.538	250
803.639	-618
803.740	-312
803.841	-1443
803.942	556
804.043	-315
804.144	-737
804.245	-888
804.346	-1483
804.447	-916
804.548	-1348
804.649	181
804.750	-1299
804.851	-1152
804.952	-1172
805.053	-172
805.154	-1326
805.255	1398
805.355	-1216
805.456	-1087
805.557	-611
805.658	-1457
805.758	-242
805.859	-696
805.960	-50
806.061	-1543
806.161	-1224
806.262	-259
806.362	-630
806.463	-1380
806.564	372
806.664	-567
806.765	-1044
806.865	-336
806.966	-683
807.066	-326
807.166	-57
807.267	-493
807.367	-604
807.468	-242
807.568	-2018
807.668	269
807.769	327
807.869	-1117
807.969	-211
808.069	117
808.170	53
808.270	-899
808.370	-874
808.470	-349
808.570	-995
808.670	-1342
808.770	9
808.870	-1307
808.970	-590
809.070	-578
809.170	-1250
809.271	-622
809.370	-161
809.470	-518
809.570	-1032
809.670	-959
809.770	-603
809.870	45
809.970	-233
810.070	-1039
810.169	-22
810.269	-2000
810.369	766
810.469	-702
810.568	-1429
810.668	-494
810.768	-1008
810.867	-370
810.967	-948
811.066	-434
811.166	-642
811.265	-153
811.365	273
811.464	-1078
811.564	-773
811.663	-106
811.763	-1570
811.862	-918
811.962	487
812.061	-419
812.160	-322
812.260	-220
812.359	53
812.458	-477
812.557	-487
812.657	-1276
812.756	181
812.855	68
812.954	-386
813.053	-255
813.153	-398
813.252	-274
813.351	-240
813.450	-39
813.549	-493
813.648	-96
813.747	-10
813.846	-217
813.945	-78
814.044	-639
814.143	139
814.242	431
814.341	-538
814.439	-367
814.538	500
814.637	-393
814.736	-513
814.835	709
814.933	642
815.032	-207
815.131	392
815.229	92
815.328	884
815.427	840
815.525	1141
815.624	137
815.722	115
815.821	364
815.919	473
816.018	-76
816.116	1132
816.215	251
816.313	1262
816.412	961
816.510	2079
816.609	2756
816.707	1833
816.805	985
816.904	1806
817.002	2719
817.100	3239
817.198	3384
817.296	3729
817.395	3802
817.493	6223
817.591	6976
817.689	11133
817.787	14319
817.885	27573
817.983	51005
818.081	108010
818.179	257561
818.277	578768
818.375	439088
818.473	130368
818.571	53903
818.669	37548
818.767	33316
818.865	31472
818.963	36826
819.061	55238
819.158	96512
819.256	203572
819.354	452986
819.452	815402
819.549	501825
819.647	167163
819.745	73271
819.842	44091
819.940	29236
820.038	20985
820.135	16532
820.233	12495
820.330	9712
820.428	7437
820.525	7086
820.623	4831
820.720	3867
820.818	3808
820.915	4308
821.012	5707
821.110	2222
821.207	3962
821.304	2270
821.402	4254
821.499	7102
821.596	10432
821.693	3459
821.791	2055
821.888	1349
821.985	1756
822.082	1519
822.179	3628
822.276	4031
822.373	1705
822.470	67
822.567	1837
822.664	-61
822.761	1773
822.858	-174
822.955	892
823.052	333
823.149	174
823.246	-208
823.343	258
823.440	257
823.536	170
823.633	-276
823.730	22
823.827	-647
823.923	455
824.020	1595
824.117	1779
824.213	2032
824.310	811
824.407	-149
824.503	-364
824.600	53
824.696	166
824.793	300
824.889	-1110
824.986	-155
825.082	-1325
825.179	-128
825.275	-960
825.371	-868
825.468	657
825.564	-1295
825.660	-588
825.757	-780
825.853	179
825.949	-1857
826.045	415
826.142	-629
826.238	-18
826.334	-43
826.430	-1344
826.526	-432
826.622	-354
826.718	-510
826.814	-1161
826.910	-172
827.006	-1017
827.102	-1425
827.198	-363
827.294	-970
827.390	-49
827.486	-679
827.582	-1883
827.678	-1015
827.774	392
827.869	-521
827.965	94
828.061	-1729
828.157	-1343
828.252	-494
828.348	-1295
828.444	516
828.539	-627
828.635	-728
828.731	-647
828.826	-1436
828.922	-291
829.017	-664
829.113	-1405
829.208	-1664
829.304	-625
829.399	-425
829.495	-1642
829.590	38
829.685	-1503
829.781	-696
829.876	-659
829.971	-780
830.066	-1301
830.162	-565
830.257	-466
830.352	-1618
830.447	102
830.543	-957
830.638	-2965
830.733	-21
830.828	-397
830.923	-203
831.018	-349
831.113	-357
831.208	-1389
831.303	-775
831.398	-879
831.493	-1166
831.588	-964
831.683	-1343
831.778	-292
831.873	-690
831.967	-739
832.062	-1759
832.157	-1843
832.252	-282
832.346	-1162
832.441	-1333
832.536	-391
832.631	-617
832.725	-697
832.820	-945
832.914	-1130
833.009	-1118
833.104	-1096
833.198	-648
833.293	-892
833.387	-1196
833.482	-682
833.576	-1405
833.670	-715
833.765	-1208
833.859	-1020
833.954	-272
834.048	-1154
834.142	-1235
834.237	-1171
834.331	-721
834.425	-1477
834.519	-2058
834.613	-677
834.708	-1475
834.802	-380
834.896	-1796
834.990	-821
835.084	-671
835.178	-507
835.272	-1294
835.366	-1322
835.460	-1238
835.554	-202
835.648	103
835.742	-1079
835.836	-906
835.930	-1447
836.024	-1237
836.117	-52
836.211	-1569
836.305	-559
836.399	-975
836.493	-1478
836.586	-813
836.680	-1486
836.774	-966
836.867	482
836.961	-1569
837.055	-946
837.148	-965
837.242	-839
837.335	-691
837.429	-1281
837.522	-1287
837.616	-924
837.709	-1253
837.803	-1561
837.896	-936
837.989	-1842
838.083	-810
838.176	-1260
838.269	-1414
838.363	-114
838.456	-1257
838.549	-513
838.642	-1028
838.735	-103
838.829	-806
838.922	-1255
839.015	-823
839.108	-1032
839.201	-491
839.294	-634
839.387	-1169
839.480	-2056
839.573	-1266
839.666	-537
839.759	-742
839.852	-2104
839.945	-900
840.038	-1355
840.131	-1355
840.223	-1126
840.316	-24
840.409	-1724
840.502	-1399
840.594	53
840.687	-1828
840.780	-940
840.873	-1591
840.965	-1481
841.058	-1018
841.150	-1150
841.243	-2140
841.336	-437
841.428	-1591
841.521	-953
841.613	-1366
841.706	-720
841.798	-1264
841.890	-1296
841.983	-1721
842.075	-459
842.167	-1249
842.260	-1036
842.352	-603
842.444	-1883
842.537	-1751
842.629	-343
842.721	-810
842.813	-983
842.905	-2358
842.997	-261
843.090	-1158
843.182	-903
843.274	-2373
843.366	-1483
843.458	-573
843.550	-161
843.642	-1345
843.734	-565
843.826	-1709
843.918	-792
844.009	-427
844.101	-1641
844.193	-555
844.285	259
844.377	980
844.469	3760
844.560	4559
844.652	3046
844.744	795
844.835	-1002
844.927	-1485
845.019	-1025
845.110	-661
845.202	-1377
845.293	-634
845.385	-1427
845.476	-1308
845.568	-830
845.659	-1570
845.751	-406
845.842	-1972
845.934	-2171
846.025	-2158
846.116	-992
846.208	-631
846.299	-1178
846.390	-791
846.482	-1473
846.573	-1654
846.664	-1618
846.755	-1759
846.846	-479
846.937	-1785
847.029	-1022
847.120	-715
847.211	-848
847.302	-767
847.393	-1360
847.484	-385
847.575	-1356
847.666	-965
847.757	-1740
847.847	-1364
847.938	183
848.029	-1764
848.120	-900
848.211	-758
848.302	-1744
848.392	-973
848.483	-1396
848.574	-1670
848.664	-861
848.755	-1154
848.846	-1085
848.936	-1835
849.027	-1193
849.118	-1278
849.208	-1047
849.299	-1315
849.389	-85
849.480	-207
849.570	1849
849.661	4727
849.751	8089
849.841	1318
849.932	-1206
850.022	-1560
850.112	-558
850.203	-763
850.293	-1210
850.383	-1375
850.474	-1954
850.564	-830
850.654	-1286
850.744	-620
850.834	-829
850.924	-816
851.014	-1423
851.104	-751
851.194	-1200
851.284	-1712
851.374	-1367
851.464	-2236
851.554	-728
851.644	-1124
851.734	-1224
851.824	-1215
851.914	-1057
852.004	-1445
852.094	-1190
852.183	-1023
852.273	-1356
852.363	-1593
852.452	-2069
852.542	-1750
852.632	-977
852.721	-988
852.811	-1403
852.901	-862
852.990	-931
853.080	-1398
853.169	-1380
853.259	-1125
853.348	-1238
853.438	-322
853.527	74
853.617	-663
853.706	1940
853.795	3595
853.885	12221
853.974	23253
854.063	45227
854.152	61014
854.242	17497
854.331	893
854.420	198
854.509	-404
854.598	-1514
854.687	-1359
854.777	-871
854.866	-847
854.955	-183
855.044	-1423
855.133	-924
855.222	-1592
855.311	-1342
855.400	-768
855.488	-529
855.577	-1523
855.666	-622
855.755	-737
855.844	-478
855.933	-957
856.021	-1048
856.110	-1395
856.199	-904
856.288	-1622
856.376	-992
856.465	-1571
856.554	-793
856.642	-647
856.731	-801
856.819	-1329
856.908	-1254
856.996	-1302
857.085	-1725
857.173	-1321
857.262	-1795
857.350	-1178
857.438	-1343
857.527	-1165
857.615	-1210
857.703	-408
857.792	-831
857.880	-1145
857.968	-1733
858.056	-793
858.145	-1103
858.233	-1764
858.321	-1481
858.409	-1025
858.497	-1689
858.585	-1193
858.673	-1002
858.761	-1640
858.849	-1663
858.937	-2077
859.025	-942
859.113	-349
859.201	-777
859.289	1
859.377	196
859.465	-652
859.552	-838
859.640	-2285
859.728	-1126
859.816	-1361
859.903	-735
859.991	-1358
860.079	-1200
860.166	-709
860.254	-1726
860.342	-1276
860.429	-917
860.517	-2138
860.604	-1017
860.692	-1417
860.779	-1576
860.867	-1525
860.954	-1548
861.042	-1574
861.129	-1088
861.216	-1131
861.304	-1371
861.391	-951
861.478	-849
861.565	-1567
861.653	-960
861.740	-1977
861.827	-1568
861.914	-1262
862.001	-1211
862.089	-478
862.176	-1208
862.263	-1778
862.350	-678
862.437	-614
862.524	-837
862.611	-516
862.698	64
862.785	514
862.871	805
862.958	-864
863.045	-1115
863.132	-2131
863.219	-1173
863.306	-1575
863.392	-174
863.479	-1254
863.566	-1083
863.652	-1666
863.739	-1393
863.826	-1468
863.912	-800
863.999	-1704
864.086	-1106
864.172	-1855
864.259	-1640
864.345	-998
864.432	-1413
864.518	-1402
864.604	-736
864.691	-1855
864.777	-681
864.863	-368
864.950	-695
865.036	-596
865.122	-1115
865.209	162
865.295	-629
865.381	-1323
865.467	-144
865.553	500
865.639	-393
865.726	1265
865.812	4930
865.898	9983
865.984	13070
866.070	29625
866.156	27382
866.242	4356
866.328	-712
866.414	-682
866.499	-900
866.585	-990
866.671	-871
866.757	-1648
866.843	-1424
866.928	-1497
867.014	-863
867.100	-397
867.186	-1875
867.271	-812
867.357	-1222
867.442	-569
867.528	-570
867.614	739
867.699	1002
867.785	2318
867.870	4417
867.956	3965
868.041	1953
868.127	1128
868.212	2563
868.297	1312
868.383	-14
868.468	-74
868.553	319
868.639	-950
868.724	-582
868.809	-1970
868.894	-1033
868.979	-1583
869.065	-1468
869.150	-2147
869.235	-1037
869.320	-1868
869.405	-1688
869.490	-1517
869.575	-787
869.660	-1390
869.745	-1352
869.830	-1845
869.915	-1611
870.000	-285
870.085	-1342
870.169	-71
870.254	132
870.339	-1299
870.424	-1319
870.509	-1412
870.593	-884
870.678	-1291
870.763	-771
870.847	-559
870.932	-1120
871.016	122
871.101	108
871.186	-1044
871.270	-1775
871.355	-1368
871.439	-697
871.523	-604
871.608	-945
871.692	-650
871.777	-117
871.861	-691
871.945	-1891
872.030	-1070
872.114	-1279
872.198	-1695
872.282	-1206
872.367	-1840
872.451	-1703
872.535	-1124
872.619	-1227
872.703	-387
872.787	-893
872.871	-1527
872.955	-1597
873.039	-1354
873.123	-891
873.207	-364
873.291	-1637
873.375	-1225
873.459	-1335
873.543	-2423
873.627	-1463
873.711	-1452
873.794	-1043
873.878	-1531
873.962	-1556
874.045	-1808
874.129	-1154
874.137	-1174
874.213	-1372
874.245	-1297
874.296	-1183
874.352	-1407
874.380	-1513
874.460	-1457
874.464	-1456
874.547	-1216
874.568	-1112
874.631	-822
874.676	-1333
874.714	-1747
874.784	-1096
874.798	-965
874.881	-466
874.892	-575
874.965	-1341
874.999	-1508
875.048	-1771
875.107	-1175
875.131	-935
875.215	-1229
875.215	-1228
875.298	-934
875.323	-1084
875.381	-1449
875.430	-1086
875.465	-836
875.538	-1243
875.548	-1300
875.631	-1462
875.646	-1522
875.714	-1821
875.753	-1573
875.798	-1282
875.861	-1434
875.881	-1475
875.964	-1512
875.968	-1502
876.047	-1296
876.076	-1073
876.130	-654
876.183	-958
876.213	-1180
876.291	-359
876.296	-296
876.379	-1351
876.398	-1184
876.462	-620
876.506	-984
876.545	-1363
876.613	-954
876.628	-823
876.711	-562
876.721	-551
876.794	-636
876.828	-944
876.877	-1318
876.935	-693
876.960	-466
877.043	-236
877.043	-238
877.125	-394
877.150	-328
877.208	-100
877.258	-71
877.291	-76
877.365	-201
877.374	-230
877.456	-183
877.472	-115
877.539	157
877.579	-82
877.622	-269
877.687	-930
877.704	-1054
877.787	-244
877.794	-243
877.869	-608
877.901	-851
877.952	-1087
878.008	-336
878.034	5
878.115	-553
878.117	-561
878.199	-578
878.222	-585
878.282	-728
878.329	-639
878.364	-537
878.437	-573
878.447	-580
878.529	-1205
878.544	-1100
878.611	-555
878.651	-690
878.694	-808
878.758	-559
878.776	-499
878.858	-470
878.865	-472
878.941	-470
878.972	-542
879.023	-764
879.078	-717
879.105	-579
879.185	-533
879.187	-537
879.269	-856
879.292	-987
879.351	-1099
879.399	-865
879.433	-773
879.506	-737
879.516	-719
879.598	-700
879.613	-718
879.680	-804
879.720	-607
879.762	-407
879.827	-814
879.844	-933
879.926	-573
879.933	-537
880.007	-136
880.040	-442
880.089	-844
880.147	-826
880.171	-756
880.253	-30
880.254	-34
880.335	-618
880.360	-580
880.417	-305
880.467	-210
880.499	-226
880.574	-90
880.580	-56
880.662	-384
880.680	-427
880.744	-775
880.787	-834
880.825	-751
880.893	-344
880.907	-292
880.989	-322
881.000	-359
881.070	-315
881.106	-363
881.152	-624
881.213	-170
881.233	-36
881.315	-1184
881.319	-1165
881.396	-412
881.426	-615
881.478	-1041
881.532	-553
881.559	-325
881.639	-599
881.641	-608
881.722	-627
881.745	-738
881.803	-617
881.852	-368
881.885	-320
881.958	-589
881.966	-624
882.047	-436
882.064	-565
882.129	-820
882.171	-570
882.210	-431
882.277	-401
882.291	-382
882.372	-141
882.383	-186
882.454	-669
882.489	-673
882.535	-316
882.596	-198
882.616	-255
882.697	-355
882.702	-355
882.778	-364
882.808	-346
882.859	-233
882.914	-331
882.940	-374
883.020	-186
883.021	-180
883.102	-262
883.127	-213
883.183	-345
883.233	-624
883.264	-737
883.339	-523
883.345	-479
883.426	-715
883.445	-577
883.507	-137
883.551	129
883.587	201
883.657	-658
883.668	-732
883.749	29
883.763	59
883.830	7
883.869	-130
883.910	-457
883.975	-457
883.991	-356
884.072	-164
884.081	-178
884.152	-390
884.187	-526
884.233	-705
884.292	-347
884.314	-212
884.394	-432
884.398	-431
884.475	138
884.504	313
884.555	287
884.610	84
884.636	-136
884.716	-324
884.716	-316
884.797	114
884.821	199
884.877	40
884.927	-51
884.958	-199
885.033	-324
885.038	-298
885.118	-58
885.139	-121
885.199	-592
885.244	-638
885.279	-462
885.350	-406
885.359	-437
885.439	-581
885.456	-646
885.520	-820
885.561	-759
885.600	-560
885.667	-505
885.680	-548
885.760	-596
885.773	-636
885.840	-204
885.878	160
885.920	425
885.984	558
886.000	375
886.080	-627
886.089	-705
886.160	-124
886.195	58
886.240	78
886.300	189
886.320	183
886.400	112
886.406	92
886.480	-34
886.511	26
886.560	125
886.616	-101
886.640	-81
886.720	360
886.722	359
886.800	-530
886.827	-773
886.879	-346
886.932	-86
886.959	-23
887.038	382
887.039	383
887.119	-201
887.143	-322
887.198	-208
887.248	-174
887.278	-179
887.354	-200
887.358	-180
887.437	112
887.459	199
887.517	97
887.564	-15
887.596	-76
887.669	-268
887.676	-251
887.755	38
887.774	57
887.835	-70
887.880	-16
887.914	-44
887.985	-329
887.994	-284
888.073	131
888.090	218
888.153	133
888.195	98
888.232	178
888.300	305
888.311	210
888.391	-576
888.405	-701
888.470	-295
888.510	-71
888.549	18
888.615	142
888.628	134
888.708	56
888.720	45
888.787	-173
888.825	-307
888.866	-52
888.930	371
888.945	261
889.024	-409
889.035	-496
889.103	50
889.140	336
889.182	412
889.245	508
889.261	511
889.340	500
889.349	493
889.419	944
889.454	1160
889.498	614
889.559	-148
889.577	-57
889.656	324
889.664	361
889.735	570
889.768	664
889.814	547
889.873	390
889.978	902
890.083	-487
890.187	606
890.292	481
890.397	863
890.501	758
890.606	273
890.710	603
890.815	636
890.919	442
891.024	377
891.128	481
891.233	283
891.337	742
891.442	386
891.546	-106
891.650	462
891.755	325
891.859	1290
891.963	430
892.068	-368
892.172	98
892.276	-190
892.380	757
892.484	570
892.589	445
892.693	-88
892.797	-356
892.901	728
893.005	256
893.109	710
893.213	17
893.317	620
893.421	399
893.525	717
893.629	89
893.733	581
893.837	697
893.941	-48
894.045	509
894.148	54
894.252	172
894.356	475
894.460	342
894.564	570
894.667	131
894.771	300
894.875	317
894.978	-7
895.082	-174
895.186	1069
895.289	-220
895.393	212
895.496	-7
895.600	-182
895.703	457
895.807	164
895.910	1053
896.014	506
896.117	-738
896.221	-71
896.324	-122
896.427	139
896.531	-722
896.634	-86
896.737	-368
896.840	-14
896.944	-532
897.047	610
897.150	-317
897.253	-330
897.356	360
897.460	-374
897.563	-171
897.666	162
897.769	-136
897.872	46
897.975	-327
898.078	267
898.181	-167
898.284	469
898.387	472
898.490	38
898.593	26
898.695	141
898.798	-409
898.901	-138
899.004	103
899.107	-330
899.209	-452
899.312	-602
899.415	15
899.518	-524
899.620	176
899.723	137
899.826	-57
899.928	210
900.031	-550
900.133	-601
900.236	491
900.338	-635
900.441	-193
900.543	92
900.646	-551
900.748	-25
900.851	-57
900.953	257
901.055	-701
901.158	-596
901.260	-130
901.362	11
901.465	-646
901.567	-657
901.669	-145
901.771	-350
901.873	-454
901.976	128
902.078	287
902.180	-192
902.282	-315
902.384	58
902.486	-883
902.588	-969
902.690	-102
902.792	1109
902.894	1084
902.996	470
903.098	-133
903.200	-630
903.302	308
903.404	9
903.505	-731
903.607	-132
903.709	-448
903.811	-501
903.913	-284
904.014	-462
904.116	343
904.218	-169
904.319	769
904.421	1392
904.523	3527
904.624	1837
904.726	809
904.827	686
904.929	1830
905.030	1150
905.132	637
905.233	-368
905.335	-402
905.436	-154
905.537	-16
905.639	272
905.740	-419
905.841	196
905.943	1711
906.044	2090
906.145	606
906.247	684
906.348	118
906.449	-83
906.550	725
906.651	-475
906.752	-988
906.854	-238
906.955	-457
907.056	-421
907.157	-293
907.258	-347
907.359	-1061
907.460	-488
907.561	-632
907.662	-779
907.762	850
907.863	392
907.964	-107
908.065	-232
908.166	-305
908.267	-515
908.367	-172
908.468	-727
908.569	-376
908.670	-567
908.770	467
908.871	11
908.971	83
909.072	-617
909.173	-238
909.273	-1023
909.374	43
909.474	-424
909.575	104
909.675	-957
909.776	-237
909.876	-76
909.977	-930
910.077	-72
910.177	-638
910.278	-330
910.378	-323
910.478	-700
910.579	-672
910.679	-156
910.779	255
910.879	341
910.980	-178
911.080	-517
911.180	-124
911.280	-590
911.380	-833
911.480	-122
911.580	-1048
911.680	-64
911.780	-455
911.880	-614
911.980	-493
912.080	-386
912.180	-527
912.280	517
912.380	-260
912.480	-246
912.580	-583
912.679	-106
912.779	-370
912.879	-293
912.979	-535
913.078	-599
913.178	-762
913.278	-364
913.377	375
913.477	-834
913.577	-900
913.676	288
913.776	-874
913.875	-507
913.975	-645
914.074	-384
914.174	-987
914.273	-999
914.373	-65
914.472	-448
914.572	-128
914.671	-483
914.770	-600
914.870	-788
914.969	-1054
915.068	192
915.167	509
915.267	-197
915.366	-847
915.465	-1685
915.564	-800
915.663	-376
915.763	-886
915.862	5
915.961	326
916.060	-1351
916.159	-615
916.258	-516
916.357	-1132
916.456	446
916.555	-315
916.654	-287
916.752	385
916.851	24
916.950	-170
917.049	186
917.148	-1285
917.247	-464
917.345	-503
917.444	-707
917.543	-473
917.642	-498
917.740	-487
917.839	-727
917.937	655
918.036	-379
918.135	-406
918.233	-375
918.332	-196
918.430	-448
918.529	-461
918.627	-191
918.726	-557
918.824	-417
918.923	135
919.021	-309
919.119	-835
919.218	-53
919.316	345
919.414	-268
919.512	-325
919.611	-434
919.709	-559
919.807	-469
919.905	48
920.003	-480
920.102	-205
920.200	-542
920.298	-327
920.396	538
920.494	-263
920.592	-516
920.690	80
920.788	-417
920.886	-325
920.984	120
921.082	-544
921.180	36
921.277	-936
921.375	18
921.473	-382
921.571	-341
921.669	-918
921.766	239
921.864	-359
921.962	444
922.060	168
922.157	317
922.255	266
922.352	-240
922.450	193
922.548	-1067
922.645	91
922.743	817
922.840	594
922.938	330
923.035	283
923.133	-246
923.230	93
923.327	363
923.425	822
923.522	402
923.619	-494
923.717	-731
923.814	334
923.911	333
924.008	-240
924.106	406
924.203	163
924.300	-342
924.397	-92
924.494	1078
924.591	-106
924.688	253
924.786	193
924.883	110
924.979	-555
925.077	649
925.173	602
925.270	132
925.367	-357
925.464	18
925.561	328
925.658	153
925.755	181
925.852	1423
925.948	1470
926.045	3445
926.142	4051
926.239	5192
926.335	4462
926.432	3922
926.529	4306
926.625	5173
926.722	3926
926.818	1771
926.915	1253
927.011	802
927.108	186
927.204	416
927.301	-518
927.397	259
927.494	564
927.590	-524
927.687	-412
927.783	-530
927.879	341
927.976	371
928.072	303
928.168	586
928.264	-160
928.361	14
928.457	35
928.553	805
928.649	40
928.745	-145
928.841	-318
928.937	107
929.033	-188
929.129	-434
929.225	-561
929.321	-41
929.417	162
929.513	-89
929.609	-578
929.705	442
929.801	505
929.897	-412
929.993	-425
930.089	341
930.184	-365
930.280	33
930.376	-579
930.471	-323
930.567	701
930.663	277
930.758	32
930.854	-558
930.950	-691
931.045	-551
931.141	-179
931.236	-184
931.332	640
931.427	-253
931.523	42
931.618	96
931.714	-69
931.809	972
931.905	-982
932.000	424
932.095	-355
932.191	-18
932.286	-243
932.381	-330
932.476	-906
932.572	-108
932.667	68
932.762	-88
932.857	751
932.952	-219
933.047	-46
933.142	499
933.237	-1167
933.332	45
933.427	-461
933.522	-442
933.617	-752
933.712	-650
933.807	732
933.902	-482
933.997	-96
934.092	-589
934.187	59
934.282	-62
934.376	427
934.471	321
934.566	-258
934.661	249
934.755	-1394
934.850	442
934.945	-597
935.039	367
935.134	238
935.228	-86
935.323	-4
935.417	7
935.512	-160
935.606	-409
935.701	-135
935.795	-181
935.890	-152
935.984	16
936.079	-240
936.173	3
936.267	-333
936.362	-470
936.456	-776
936.550	-300
936.644	-494
936.738	82
936.833	559
936.927	-58
937.021	-282
937.115	-389
937.209	-370
937.303	919
937.397	-625
937.491	-803
937.585	-196
937.679	737
937.773	-504
937.867	-313
937.961	-247
938.055	99
938.149	157
938.243	107
938.337	619
938.430	564
938.524	3779
938.618	6953
938.712	4408
938.805	1634
938.899	485
938.993	912
939.086	2868
939.180	8754
939.274	11234
939.367	3651
939.461	560
939.554	585
939.648	-291
939.741	348
939.835	-111
939.928	-145
940.022	-50
940.115	-91
940.208	-170
940.302	-472
940.395	-308
940.488	-1031
940.582	-586
940.675	-564
940.768	-938
940.861	93
940.954	262
941.048	-100
941.141	-268
941.234	187
941.327	1894
941.420	1633
941.513	398
941.606	-905
941.699	586
941.792	-506
941.885	-746
941.978	-440
942.071	-290
942.164	-1168
942.257	-503
942.349	846
942.442	-329
942.535	-481
942.628	-674
942.721	164
942.813	-869
942.906	-115
942.999	-756
943.091	-1288
943.184	-381
943.277	-1187
943.369	-414
943.462	-435
943.554	-573
943.647	-1517
943.739	-81
943.832	-268
943.924	-1327
944.017	-108
944.109	-432
944.201	162
944.294	-549
944.386	-422
944.478	-1049
944.571	396
944.663	-262
944.755	-213
944.847	228
944.940	127
945.032	-764
945.124	-319
945.216	54
945.308	-731
945.400	-498
945.492	312
945.584	-1082
945.676	905
945.768	-870
945.860	731
945.952	538
946.044	1271
946.136	452
946.228	-225
946.320	-1099
946.412	-792
946.503	-253
946.595	-775
946.687	-472
946.779	-1194
946.870	-520
946.962	-595
947.054	-637
947.145	-727
947.237	-601
947.329	-685
947.420	-345
947.512	-598
947.603	91
947.695	-727
947.786	-710
947.878	-607
947.969	13
948.061	-445
948.152	107
948.243	-313
948.335	-568
948.426	-646
948.517	-344
948.609	-256
948.700	-628
948.791	-573
948.882	-155
948.973	143
949.065	-501
949.156	-681
949.247	-938
949.338	-470
949.429	-1166
949.520	-379
949.611	-1424
949.702	106
949.793	-230
949.884	-1012
949.975	18
950.066	-69
950.157	-858
950.247	-1194
950.338	-717
950.429	-1065
950.520	-809
950.611	-278
950.701	-728
950.792	-1065
950.883	-851
950.973	-937
951.064	-990
951.155	-828
951.245	-717
951.336	-935
951.427	-1347
951.517	-985
951.608	-158
951.698	-570
951.788	-1249
951.879	-942
951.969	-1748
952.060	-881
952.150	-1048
952.240	-108
952.331	-1894
952.421	127
952.511	-1055
952.602	-1207
952.692	-827
952.782	-780
952.872	-855
952.962	-203
953.052	-1731
953.143	-1447
953.233	360
953.323	-695
953.413	-975
953.503	-596
953.593	-877
953.683	-1671
953.773	-1216
953.863	-920
953.953	-1358
954.042	-646
954.132	-700
954.222	-770
954.312	-1397
954.402	-1263
954.492	-1055
954.581	-1803
954.671	-902
954.761	-949
954.850	-636
954.940	-500
955.030	-1215
955.119	-502
955.209	-617
955.298	-1076
955.388	-1448
955.477	-348
955.567	-1462
955.656	-732
955.746	-766
955.835	-1269
955.925	-1537
956.014	-1024
956.103	-1032
956.193	-1212
956.282	-345
956.371	-555
956.461	-593
956.550	-1388
956.639	-835
956.728	-742
956.817	-1419
956.906	-1956
956.995	-748
957.085	-956
957.174	-467
957.263	-1093
957.352	-932
957.441	-1293
957.530	-768
957.619	-826
957.708	-964
957.796	-1265
957.885	-819
957.974	-1336
958.063	-643
958.152	-1247
958.241	-493
958.329	-779
958.418	-951
958.507	-1455
958.596	-1140
958.684	-1397
958.773	-1111
958.861	-203
958.950	-474
959.039	-1281
959.127	-1317
959.216	-1059
959.304	-1040
959.393	-708
959.481	-1069
959.570	-1430
959.658	-1397
959.746	-791
959.835	-821
959.923	-518
960.011	-1300
960.100	40
960.188	27
960.276	-1092
960.365	-590
960.453	-1248
960.541	-1123
960.629	-814
960.717	-1496
960.805	-1641
960.893	-361
960.981	-1256
961.069	-926
961.158	-1151
961.245	-799
961.333	-1349
961.421	-1386
961.509	-648
961.597	-207
961.685	-1050
961.773	-1325
961.861	-1071
961.949	-461
962.036	-1617
962.124	-1187
962.212	-1346
962.299	-1244
962.387	-1073
962.475	-157
962.562	-1286
962.650	84
962.738	-346
962.825	-943
962.913	-974
963.000	-843
963.088	-1868
963.175	-1489
963.263	-1141
963.350	-1641
963.438	-1337
963.525	-980
963.612	-530
963.700	-1549
963.787	176
963.874	-753
963.962	-1232
964.049	-908
964.136	-1185
964.223	-1569
964.310	-750
964.398	-1599
964.485	-1084
964.572	-1365
964.659	-1187
964.746	-1029
964.833	-554
964.920	-1057
965.007	-961
965.094	-565
965.181	-1416
965.268	-1003
965.355	-1066
965.441	-1491
965.528	-1493
965.615	-956
965.702	-1494
965.789	-1623
965.875	-1079
965.962	-1378
966.049	-1538
966.136	-1195
966.222	-898
966.309	-304
966.395	-1859
966.482	-763
966.569	-1406
966.655	-725
966.742	-1935
966.828	-1156
966.915	-1352
967.001	-1201
967.087	-773
967.174	-1384
967.260	-527
967.347	-1469
967.433	-1752
967.519	-1362
967.605	-895
967.692	-1416
967.778	-1611
967.864	-1494
967.950	-1513
968.036	-1254
968.123	-866
968.209	-2094
968.295	-1498
968.381	37
968.467	-638
968.553	-1966
968.639	146
968.725	-1798
968.811	-175
968.897	-1508
968.983	-1285
969.069	-1744
969.154	-854
969.240	-502
969.326	-904
969.412	-1651
969.497	-1434
969.583	-1344
969.669	-735
969.755	-1247
969.840	-899
969.926	-993
970.012	-1562
970.097	-1077
970.183	-1282
970.268	-1093
970.354	-1306
970.439	-2834
970.525	-997
970.610	-1494
970.696	-1607
970.781	-920
970.866	-1185
970.952	-591
971.037	-1852
971.122	-1247
971.208	-1150
971.293	-1149
971.378	-2298
971.463	-1628
971.549	-1728
971.634	-2029
971.719	-1461
971.804	-1304
971.889	-1027
971.974	-1406
972.059	-1145
972.144	-1147
972.229	-1523
972.314	-1488
972.399	-1308
972.484	-1552
972.569	-1017
972.654	-1803
972.739	-135
972.824	-1224
972.908	-1342
972.993	-1054
973.078	-1685
973.163	-1685
973.247	-1323
973.332	-2380
973.417	-1157
973.501	-1605
973.586	-1375
973.671	-1890
973.755	-992
973.840	-1355
973.924	-697
974.009	-1262
974.093	-1737
974.178	-803
974.262	-1347
974.346	-1153
974.431	-1563
974.515	-1607
974.600	-669
974.684	-579
974.768	-1479
974.852	-829
974.937	-2129
975.021	-1475
975.105	-1347
975.189	-1665
975.273	-244
975.358	-1798
975.442	-2809
975.526	-1779
975.610	-1747
975.694	-1888
975.778	415
975.862	-1674
975.946	-3422
976.030	268
976.114	-1409
976.198	-1796
976.281	-876
976.365	-982
976.449	-1392
976.533	-1740
976.617	-1890
976.700	-1156
976.784	-924
976.868	-1774
976.951	-734
977.035	-1372
977.119	-805
977.202	-1311
977.286	-1664
977.369	-1835
977.453	-993
977.536	-1587
977.620	-2718
977.703	-2109
977.787	-1844
977.870	-979
977.953	-717
978.037	-2750
978.120	-974
978.203	-1895
978.287	-1514
978.370	-2218
978.453	-1834
978.536	-1830
978.620	-504
978.703	-1766
978.786	-1470
978.869	-1084
978.952	-2411
979.035	-1349
979.118	-710
979.201	-1840
979.284	-920
979.367	-851
979.450	-1073
979.533	-2000
979.616	-1581
979.699	-1417
979.782	-1162
979.865	-1172
979.948	-1219
980.030	-1372
980.113	-1548
980.196	-2232
980.279	-1183
980.361	-1522
980.444	-1580
980.526	-1204
980.609	-1634
980.692	-1492
980.774	-1279
980.857	-2317
980.939	-800
981.022	-1683
981.104	-1207
981.187	-2007
981.269	-1613
981.352	-1004
981.434	-2160
981.516	-1972
981.599	-474
981.681	-1605
981.763	-1318
981.846	-1010
981.928	-936
982.010	-1391
982.092	-1877
982.174	-1116
982.256	-1198
982.339	-955
982.421	-1812
982.503	-1398
982.585	-2749
982.667	-1143
982.749	-1142
982.831	-1698
982.913	-2136
982.995	-1381
983.077	-1944
983.158	-1559
983.240	-2009
983.322	-1351
983.404	-1428
983.486	-2807
983.568	-572
983.649	-2036
983.731	-587
983.813	-1223
983.894	-1191
983.976	-2328
984.058	-1393
984.139	-684
984.221	-2608
984.302	-1374
984.384	-1164
984.465	-1527
984.547	-478
984.628	-1627
984.710	-1187
984.791	-1815
984.872	-1056
984.954	-1743
985.035	-1456
985.116	-1041
985.198	-1693
985.279	-686
985.360	-2237
985.441	-1982
985.522	-1212
985.604	-2013
985.685	-3709
985.766	-593
985.847	-340
985.928	-2269
986.009	-1536
986.090	-1491
986.171	-686
986.252	-1345
986.333	-1484
986.414	-615
986.495	-1354
986.576	-1743
986.656	-1583
986.737	-692
986.818	-853
986.899	-1563
986.980	-1798
987.060	-1146
987.141	-2136
987.222	-1271
987.302	-1106
987.383	-1250
987.464	-2173
987.544	-1453
987.625	-1485
987.705	-1276
987.786	-1819
987.866	-1647
987.947	-2025
988.027	-1059
988.108	-1789
988.188	-1039
988.268	-1997
988.349	-1335
988.429	-1230
988.509	-2136
988.589	-1376
988.670	-2936
988.750	-264
988.830	-1477
988.910	-707
988.990	-1891
989.070	-1330
989.151	-2200
989.231	-2110
989.311	-995
989.391	-1097
989.471	-1877
989.551	-1444
989.631	-1372
989.711	-1435
989.791	-1876
989.870	-1742
989.950	-56
990.030	-1354
990.110	-1780
990.190	-1899
990.269	-1855
990.349	-2031
990.429	-1300
990.509	-1688
990.588	-1851
990.668	-1199
990.747	-1363
990.827	-1073
990.907	-1105
990.986	-1699
991.066	-1367
991.145	-1367
991.225	-1651
991.304	-2027
991.383	-1837
991.463	-1798
991.542	-1342
991.622	-1770
991.701	-1903
991.780	-1672
991.859	-1440
991.939	-1101
992.018	-1313
992.097	-1071
992.176	-1505
992.256	-1933
992.335	-2056
992.414	-425
992.493	-1515
992.572	-1660
992.651	-718
992.730	-1786
992.809	-730
992.888	-2342
992.967	-1190
993.046	-1382
993.125	-2080
993.203	-1547
993.282	-1465
993.361	-1501
993.440	-1075
993.519	-2298
993.597	-1356
993.676	-1618
993.755	-565
993.834	-451
993.912	-1960
993.991	-380
994.069	-2023
994.148	-1592
994.226	-2220
994.305	-1016
994.384	-1537
994.462	-811
994.540	-2084
994.619	-2076
994.697	-1284
994.776	-2208
994.854	-798
994.932	-1881
995.011	-1257
995.089	-2531
995.167	-1426
995.245	-1363
995.324	-1919
995.402	-1169
995.480	-1965
995.558	-1305
995.636	-2428
995.714	-1901
995.792	-842
995.870	-2404
995.948	-1400
996.026	-769
996.104	-1673
996.182	-1401
996.260	-2254
996.338	-635
996.416	-2785
996.494	-1822
996.572	-294
996.649	-1055
996.727	-2243
996.805	-899
996.883	-1131
996.960	-1462
997.038	-1580
997.116	-1215
997.193	-1426
997.271	-1168
997.348	-1729
997.426	-1648
997.504	-2049
997.581	-1472
997.658	-817
997.736	-1515
997.813	-2085
997.891	-653
997.968	-2381
998.046	-1764
998.123	-2130
998.200	-1470
998.277	-2209
998.355	-988
998.432	-967
998.509	-1451
998.586	-1056
998.663	-1519
998.741	-2089
998.818	-1882
998.895	-2058
998.972	-2032
999.049	-2324
999.126	-1754
999.203	-1217
999.280	-1461
999.357	-1803
999.434	-2032
999.511	-1113
999.587	-1212
999.664	-2468
999.741	-1539
999.818	-1439
999.895	-2179
999.971	-2487
1000.048	-1490
1000.125	-829
1000.202	-952
1000.278	-1758
1000.355	-1170
1000.431	-1090
1000.508	-1960
1000.584	-1239
1000.661	-755
1000.738	-1216
1000.814	-1522
1000.890	-1751
1000.967	-2237
1001.043	-925
1001.120	-2239
1001.196	-1830
1001.272	-1313
1001.349	-1524
1001.425	-1308
1001.501	-1393
1001.577	-2229
1001.654	-1384
1001.730	-2255
1001.806	-1200
1001.882	-2377
1001.958	-1224
1002.034	-1467
1002.110	-1998
1002.186	-2064
1002.262	-2151
1002.338	-1191
1002.414	-1924
1002.490	-1335
1002.566	-1974
1002.642	-1455
1002.718	-827
1002.794	-1700
1002.870	-1479
1002.945	-2182
1003.021	-2185
1003.097	-1156
1003.173	-188
1003.248	-2117
1003.324	-1902
1003.400	-1520
1003.475	-1635
1003.551	-1197
1003.626	-897
1003.702	-1495
1003.777	-1391
1003.853	-1260
1003.928	-1840
1004.004	-1665
1004.079	-630
1004.155	-1972
1004.230	-2539
1004.305	-1257
1004.381	-1594
1004.456	-1700
1004.531	-1286
1004.607	-1413
1004.682	-1795
1004.757	-1965
1004.832	-2092
1004.907	-2328
1004.982	-1330
1005.057	-1824
1005.133	-2204
1005.208	-1879
1005.283	-2159
1005.358	-1532
1005.433	-2864
1005.508	-1299
1005.583	-2473
1005.657	-2094
1005.732	-1740
1005.807	-1364
1005.882	-1596
1005.957	-1343
1006.032	-1054
1006.106	-2405
1006.181	-1487
1006.256	-1463
1006.331	-2159
1006.405	-1969
1006.480	-761
1006.554	-1549
1006.629	-1815
1006.704	-1210
1006.778	-1244
1006.853	-1847
1006.927	-1963
1007.002	-1722
1007.076	-1839
1007.150	-2442
1007.225	-1623
1007.299	-1852
1007.373	-2125
1007.448	-1687
1007.522	-956
1007.596	-1101
1007.671	-1018
1007.745	-925
1007.819	-2372
1007.893	-1835
1007.967	-1408
1008.041	-1482
1008.115	-1138
1008.190	-1760
1008.264	-1226
1008.338	-2673
1008.412	-2369
1008.486	-1732
1008.560	-1745
1008.633	-2126
1008.707	-1906
1008.781	-1109
1008.855	-2385
1008.929	-1747
1009.003	-889
1009.076	-2382
1009.150	-1732
1009.224	-1360
1009.298	-2089
1009.371	-2611
1009.445	-1185
1009.519	-1591
1009.592	-1745
1009.666	-1426
1009.739	-1147
1009.813	-2686
1009.886	-1192
1009.960	-2175
1010.033	-1879
1010.107	-1808
1010.180	-2322
1010.253	-1355
1010.327	-2436
1010.400	-1446
1010.473	-1563
1010.547	-1037
1010.620	-872
1010.693	-919
1010.766	-1141
1010.840	-1007
1010.913	-1077
1010.986	-1629
1011.059	-749
1011.132	-354
1011.205	-560
1011.278	-163
1011.351	58
1011.424	587
1011.497	-1444
1011.570	-1072
1011.643	-1263
1011.716	-2156
1011.789	-2137
1011.862	-656
1011.934	-1466
1012.007	-1896
1012.080	-1096
1012.153	-1103
1012.225	-1512
1012.298	-2298
1012.371	-2046
1012.443	-927
1012.516	-2560
1012.588	-918
1012.661	-2450
1012.733	-2233
1012.806	-519
1012.879	-1724
1012.951	-2194
1013.023	-2391
1013.096	-1843
1013.168	-2060
1013.241	-2042
1013.313	-1252
1013.385	-2075
1013.458	-2047
1013.530	-1058
1013.602	-2179
1013.674	-1092
1013.746	-2007
1013.819	-2042
1013.891	-1550
1013.963	-2907
1014.035	-2023
1014.107	-1706
1014.179	-1990
1014.251	-2533
1014.323	-1669
1014.395	-1071
1014.467	-1550
1014.539	-1245
1014.611	-2454
1014.683	-2251
1014.754	-1796
1014.826	-2345
1014.898	-2383
1014.970	-2539
1015.042	-1389
1015.113	-1680
1015.185	-1344
1015.257	-2381
1015.328	-2271
1015.400	-1481
1015.471	-1670
1015.543	-2354
1015.615	-1513
1015.686	-2142
1015.757	-1929
1015.829	-2326
1015.901	-2117
1015.972	-1907
1016.043	-2247
1016.115	-2002
1016.186	-1345
1016.257	-2271
1016.328	-1285
1016.400	-849
1016.471	-2518
1016.542	-2331
1016.613	-1380
1016.685	-1859
1016.756	-1517
1016.827	-2772
1016.898	-2489
1016.969	-2237
1017.040	-1717
1017.111	-1357
1017.182	-2334
1017.253	-1314
1017.324	-2103
1017.395	-2067
1017.466	-2071
1017.537	-1996
1017.608	-2371
1017.678	-1985
1017.749	-2104
1017.820	-2428
1017.891	-2929
1017.961	-2248
1018.032	-1963
1018.103	-1638
1018.173	-1799
1018.244	-1681
1018.315	-2266
1018.385	-1266
1018.456	-2696
1018.526	-2494
1018.597	-1693
1018.667	-1986
1018.738	-2551
1018.808	-1715
1018.878	-1636
1018.949	-1933
1019.019	-2881
1019.089	-2131
1019.160	-1906
1019.230	-2258
1019.300	-2162
1019.371	-2667
1019.441	-1562
1019.511	-2104
1019.581	-1225
1019.651	-957
1019.721	-1729
1019.791	-2316
1019.861	-1900
1019.931	-1701
1020.001	-2245
1020.071	-2120
1020.141	-3207
1020.211	-2420
1020.281	-2757
1020.351	-2224
1020.421	-2024
1020.491	-1190
1020.560	-1634
1020.630	-1845
1020.700	-2435
1020.770	-2481
1020.839	-2631
1020.909	-1149
1020.979	-2420
1021.048	-2552
1021.118	-1640
1021.187	-1509
1021.257	-2051
1021.326	-1109
1021.396	-1821
1021.465	-2090
1021.535	-2023
1021.604	-2936
1021.674	-1644
1021.743	-2609
1021.812	-2375
1021.882	-2387
1021.951	-2036
1022.020	-2179
1022.089	-2156
1022.159	-2587
1022.228	-2303
1022.297	-2673
1022.366	-2304
1022.435	-2168
1022.504	-2817
1022.573	-2823
1022.642	-1947
1022.711	-2647
1022.781	-2167
1022.849	-2227
1022.918	-2024
1022.987	-1937
1023.056	-1952
1023.125	-2889
1023.194	-2022
1023.263	-2184
1023.331	-1079
1023.400	-3027
1023.469	-2219
1023.538	-1956
1023.606	-2377
1023.675	-1843
1023.744	-2900
1023.812	-2101
1023.881	-1961
1023.949	-1987
1024.018	-1948
1024.086	-2349
1024.155	-2147
1024.223	-2474
1024.292	-2186
1024.360	-1958
1024.429	-2499
1024.497	-2418
1024.565	-2169
1024.634	-2407
1024.702	-2409
1024.770	-1716
1024.838	-1778
1024.907	-2299
1024.975	-2029
1025.043	-2729
1025.111	-2426
1025.179	-1662
1025.247	-2300
1025.315	-1976
1025.383	-1822
1025.451	-2079
1025.519	-1529
1025.587	-1732
1025.655	-1692
1025.723	-2368
1025.791	-2015
1025.859	-1527
1025.927	-1789
1025.995	-2576
1026.062	-2425
1026.130	-2044
1026.198	-2555
1026.266	-2097
1026.333	-1765
1026.401	-2270
1026.469	-1713
1026.536	-1255
1026.604	-2597
1026.671	-2595
1026.739	-2307
1026.806	-2034
1026.874	-1856
1026.941	-2341
1027.009	-1895
1027.076	-2028
1027.144	-999
1027.211	-2181
1027.278	-1597
1027.345	-1895
1027.413	-1889
1027.480	-2423
1027.547	-1206
1027.614	-2371
1027.682	-1981
1027.749	-1838
1027.816	-1705
1027.883	-2221
1027.950	-1878
1028.017	-1308
1028.084	-1583
1028.151	-1698
1028.218	-2042
1028.285	-2099
1028.352	-2555
1028.419	-2546
1028.486	-1995
1028.553	-1350
1028.619	-2336
1028.686	-1130
1028.753	-2697
1028.820	-2360
1028.886	-2384
1028.953	-2210
1029.020	-2523
1029.086	-2452
1029.153	-2394
1029.220	-1842
1029.286	-1718
1029.353	-2624
1029.419	-1794
1029.486	-2507
1029.552	-2606
1029.619	-1984
1029.685	-3150
1029.751	-2286
1029.818	-1493
1029.884	-2030
1029.951	-768
1030.017	-2247
1030.083	-2752
1030.149	-1815
1030.216	-2159
1030.282	-2480
1030.348	-1538
1030.414	-2747
1030.480	-2395
1030.546	-2512
1030.612	-1002
1030.678	-2171
1030.744	-1886
1030.810	-2134
1030.876	-2362
1030.942	-2927
1031.008	-1678
1031.074	-2628
1031.140	-2279
1031.206	-1934
1031.272	-2747
1031.337	-1960
1031.403	-1360
1031.469	-1326
1031.534	-2120
1031.600	-1867
1031.666	-2018
1031.731	-2654
1031.797	-1257
1031.863	-2468
1031.928	-2305
1031.994	-2114
1032.059	-1597
1032.125	-2708
1032.190	-2022
1032.256	-2430
1032.321	-2333
1032.386	-2111
1032.452	-1602
1032.517	-2290
1032.582	-2914
1032.647	-2098
1032.713	-2683
1032.778	-2235
1032.843	-2560
1032.908	-1377
1032.974	-3002
1033.039	-2493
1033.104	-1450
1033.169	-1752
1033.234	-2316
1033.299	-1926
1033.364	-1465
1033.429	-2599
1033.494	-1799
1033.559	-1547
1033.624	-2054
1033.688	-1733
1033.753	-2459
1033.818	-1211
1033.883	-2042
1033.948	-2331
1034.013	-1911
1034.077	-1950
1034.142	-1155
1034.207	-1955
1034.271	-1900
1034.336	-1822
1034.400	-1815
1034.465	-2107
1034.530	-2745
1034.594	-2122
1034.658	-2699
1034.723	-2342
1034.787	-1949
1034.852	-1641
1034.916	-1995
1034.981	-2588
1035.045	-2371
1035.109	-1242
1035.173	-1576
1035.238	-2507
1035.302	-2117
1035.366	-2484
1035.430	-2118
1035.495	-2758
1035.559	-1522
1035.623	-1670
1035.687	-2326
1035.751	-1461
1035.815	-2320
1035.879	-2335
1035.943	-2209
1036.007	-2285
1036.071	-1742
1036.135	-1201
1036.198	-1437
1036.262	-2226
1036.326	-2391
1036.390	-1523
1036.454	-2748
1036.517	-2081
1036.581	-1758
1036.645	-1872
1036.709	-1643
1036.772	-2662
1036.836	-2007
1036.900	-1913
1036.963	-2272
1037.026	-2258
1037.090	-1512
1037.154	-1463
1037.217	-2068
1037.280	-2003
1037.344	-1882
1037.407	-2761
1037.471	-2097
1037.534	-1830
1037.597	-2018
1037.661	-3006
1037.724	-2448
1037.787	-2186
1037.850	-1432
1037.913	-2754
1037.977	-1367
1038.040	-1964
1038.103	-2180
1038.166	-3600
1038.229	-1719
1038.292	-2798
1038.355	-2570
1038.418	-2589
1038.481	-2581
1038.544	-2539
1038.607	-2872
1038.670	-2775
1038.732	-2379
1038.795	-2455
1038.858	-2616
1038.921	-1990
1038.984	-1743
1039.046	-2849
1039.109	-3316
1039.172	-2094
1039.234	-2088
1039.297	-2442
1039.360	-1871
1039.422	-2620
1039.485	-2110
1039.547	-2859
1039.610	-1663
1039.672	-2708
1039.734	-2232
1039.797	-1990
1039.859	-2219
1039.922	-2667
1039.984	-2429
1040.046	-2028
1040.109	-1914
1040.171	-2049
1040.233	-2141
1040.295	-2039
1040.358	-2164
1040.420	-1677
1040.482	-2552
1040.544	-1953
1040.606	-2459
1040.668	-2236
1040.730	-2571
1040.792	-1972
1040.854	-2332
1040.916	-2316
1040.978	-2921
1041.040	-1432
1041.102	-2093
1041.164	-2877
1041.225	-1731
1041.287	-2617
1041.349	-2291
1041.411	-2299
1041.472	-2027
1041.534	-2888
1041.596	-2771
1041.657	-1371
1041.719	-1489
1041.781	-2210
1041.842	-1913
1041.904	-2113
1041.965	-2240
1042.027	-3444
1042.088	-2086
1042.150	-1709
1042.211	-2642
1042.272	-1745
1042.334	-1371
1042.395	-2158
1042.456	-2067
1042.518	-2182
1042.579	-2055
1042.640	-3178
1042.701	-2076
1042.763	-2806
1042.824	-2530
1042.885	-2067
1042.946	-2010
1043.007	-2054
1043.068	-2065
1043.129	-2361
1043.190	-1856
1043.251	-2378
1043.312	-2610
1043.373	-2027
1043.434	-1987
1043.495	-1799
1043.556	-1420
1043.616	-1423
1043.677	-726
1043.738	-1932
1043.799	-1594
1043.859	-1847
1043.920	-1887
1043.981	-2089
1044.041	-2260
1044.102	-2193
1044.162	-2316
1044.223	-2987
1044.284	-1620
1044.344	-3126
1044.405	-2980
1044.465	-1839
1044.525	-1994
1044.586	-1737
1044.646	-1479
1044.707	-1649
1044.767	-1965
1044.827	-2327
1044.887	-1801
1044.948	-2130
1045.008	-1689
1045.068	-1646
1045.128	-2251
1045.188	-2171
1045.249	-1353
1045.309	-1899
1045.369	-2407
1045.429	-1838
1045.489	-1693
1045.549	-1419
1045.609	-1957
1045.669	-2384
1045.729	-1807
1045.789	-2117
1045.848	-1622
1045.908	-1743
1045.968	-1962
1046.028	-1795
1046.088	-1210
1046.147	-944
1046.207	-1370
1046.267	-2089
1046.326	-1658
1046.386	-2077
1046.446	-1133
1046.505	-1438
1046.565	-549
1046.624	-1900
1046.684	-1134
1046.743	-545
1046.803	-1032
1046.862	-996
1046.922	0
