'Start Wavelength	183.907
'End Wavelength	1046.922
'Gate Delay	5.000
'Gate Width (ms)	1.050
'Laser Output Level	0.000
'X Position	0.000
'Y Position	0.000
'Z Position	0.000
'Grid Point Number	1.000
'Shot Number	100.000
183.907	495.000
183.977	-46.000
184.047	-254
184.116	-421
184.186	1007
184.256	-235
184.325	-640
184.395	-1132
184.465	704
184.534	38
184.604	391
184.674	165
184.743	-763
184.813	1113
184.883	658
184.952	-218
185.022	755
185.092	392
185.161	26
185.231	-514
185.301	466
185.370	306
185.440	-54
185.509	-292
185.579	159
185.649	488
185.718	227
185.788	333
185.857	957
185.927	-71
185.996	27
186.066	-222
186.136	11
186.205	-457
186.275	-51
186.344	-26
186.414	57
186.483	-699
186.553	420
186.622	1648
186.692	386
186.761	-37
186.831	800
186.900	-560
186.970	1118
187.039	636
187.109	1321
187.178	60
187.248	51
187.317	1530
187.387	971
187.456	864
187.526	752
187.595	737
187.664	206
187.734	-76
187.803	-141
187.873	933
187.942	1702
188.012	602
188.081	350
188.150	-187
188.220	1147
188.289	1793
188.358	-276
188.428	4
188.497	-405
188.567	296
188.636	-229
188.705	-222
188.775	1073
188.844	347
188.913	1075
188.983	529
189.052	398
189.121	510
189.191	966
189.260	2172
189.329	2464
189.399	759
189.468	1628
189.537	-301
189.606	1407
189.676	875
189.745	431
189.814	731
189.883	1049
189.953	867
190.022	2308
190.091	6870
190.161	9763
190.230	3689
190.299	1037
190.368	226
190.437	539
190.507	604
190.576	875
190.645	463
190.714	277
190.783	120
190.853	1250
190.922	-253
190.991	676
191.060	-51
191.129	-82
191.198	179
191.268	158
191.337	24
191.406	1178
191.475	-430
191.544	879
191.613	439
191.682	748
191.752	205
191.821	363
191.890	401
191.959	580
192.028	465
192.097	499
192.166	760
192.235	15
192.304	1163
192.373	373
192.442	-300
192.511	182
192.580	489
192.650	711
192.719	465
192.788	1059
192.857	762
192.926	767
192.995	1922
193.064	2693
193.133	3221
193.202	4696
193.271	4560
193.340	3558
193.409	2587
193.478	3773
193.547	4422
193.615	7792
193.684	7410
193.753	3462
193.822	2878
193.891	2319
193.960	1309
194.029	1287
194.098	756
194.167	1031
194.236	629
194.305	730
194.374	351
194.443	512
194.512	921
194.580	719
194.649	1390
194.718	298
194.787	1245
194.856	1119
194.925	1101
194.994	325
195.062	366
195.131	1361
195.200	867
195.269	1626
195.338	618
195.407	807
195.475	1195
195.544	1349
195.613	711
195.682	1112
195.751	794
195.819	636
195.888	1288
195.957	1247
196.026	1145
196.094	992
196.163	964
196.232	1443
196.301	820
196.369	1869
196.438	1463
196.507	1686
196.576	1229
196.644	1448
196.713	1488
196.782	1180
196.850	915
196.919	1466
196.988	1323
197.056	1189
197.125	1430
197.194	1627
197.262	1081
197.331	1363
197.400	1140
197.468	1993
197.537	1163
197.606	1622
197.674	3593
197.743	9492
197.812	4090
197.880	8871
197.949	6218
198.017	7216
198.086	5898
198.155	3007
198.223	3976
198.292	9779
198.360	4995
198.429	3016
198.497	3089
198.566	5832
198.635	9102
198.703	3880
198.772	2900
198.840	10461
198.909	11595
198.977	3984
199.046	3754
199.114	2504
199.183	2792
199.251	1995
199.320	2122
199.388	1914
199.457	1460
199.525	1578
199.594	1547
199.662	1909
199.731	1862
199.799	2175
199.867	2012
199.936	1924
200.004	1704
200.073	2617
200.141	1508
200.210	1221
200.278	1610
200.346	1837
200.415	2581
200.483	2324
200.552	1697
200.620	2013
200.688	1730
200.757	2269
200.825	1656
200.893	1718
200.962	1545
201.030	1680
201.098	1543
201.167	1887
201.235	1232
201.303	2678
201.372	1767
201.440	2076
201.508	1799
201.577	1955
201.645	1946
201.713	1829
201.781	2833
201.850	1927
201.918	812
201.986	2462
202.055	1894
202.123	2142
202.191	1810
202.259	1644
202.327	1667
202.396	2260
202.464	1778
202.532	1956
202.600	2975
202.669	2636
202.737	1524
202.805	2123
202.873	1456
202.941	1988
203.009	1805
203.078	1682
203.146	2358
203.214	2160
203.282	1762
203.350	2531
203.418	2307
203.487	2811
203.555	1861
203.623	1542
203.691	2444
203.759	2594
203.827	1409
203.895	2940
203.963	2202
204.031	2535
204.099	2761
204.168	2694
204.236	2420
204.304	3214
204.372	2808
204.440	2930
204.508	2448
204.576	2600
204.644	2870
204.712	2321
204.780	2798
204.848	2709
204.916	2251
204.984	2831
205.052	2852
205.120	2685
205.188	2081
205.256	3123
205.324	2917
205.392	2680
205.460	4318
205.528	4588
205.596	3813
205.664	3964
205.732	3461
205.799	12033
205.867	21778
205.935	6486
206.003	4628
206.071	4284
206.139	4118
206.207	3507
206.275	3862
206.343	2833
206.411	2770
206.478	2679
206.546	3013
206.614	3896
206.682	3144
206.750	3171
206.818	4644
206.885	4787
206.953	1893
207.021	3395
207.089	3105
207.157	3076
207.225	3689
207.292	3868
207.360	3780
207.428	4109
207.496	2787
207.563	3144
207.631	2850
207.699	2833
207.767	2382
207.834	2907
207.902	3105
207.970	3211
208.038	2942
208.105	3350
208.173	3839
208.241	6204
208.309	6018
208.376	3941
208.444	7228
208.512	6603
208.579	3340
208.647	5255
208.715	4664
208.782	3097
208.850	3410
208.918	4022
208.985	2525
209.053	3588
209.120	4047
209.188	3228
209.256	2894
209.323	3107
209.391	2626
209.459	4765
209.526	3223
209.594	4275
209.661	2992
209.729	4200
209.796	3692
209.864	3950
209.932	3398
209.999	4903
210.067	4125
210.134	3741
210.202	3651
210.269	4607
210.337	4515
210.404	5330
210.472	3828
210.539	4184
210.607	3691
210.674	3911
210.742	4528
210.809	4356
210.877	3958
210.944	4157
211.012	3480
211.079	5541
211.146	4191
211.214	4547
211.281	5375
211.349	5594
211.416	4778
211.484	5249
211.551	4001
211.618	4971
211.686	4090
211.753	3640
211.821	4662
211.888	4209
211.955	4117
212.023	4815
212.090	5359
212.157	6915
212.225	6544
212.292	13493
212.359	24921
212.427	51975
212.494	29258
212.561	11961
212.629	7612
212.696	6933
212.763	5858
212.831	4877
212.898	5533
212.965	4918
213.032	5099
213.100	4989
213.167	5411
213.234	5311
213.301	5325
213.369	5805
213.436	5243
213.503	4841
213.570	4612
213.638	5742
213.705	4547
213.772	4184
213.839	3062
213.906	5803
213.973	3963
214.041	4850
214.108	5275
214.175	4597
214.242	4571
214.309	5251
214.376	4998
214.444	5820
214.511	5796
214.578	5144
214.645	5637
214.712	5794
214.779	6006
214.846	5410
214.913	6322
214.980	7320
215.048	7215
215.115	7341
215.182	5104
215.249	5202
215.316	4628
215.383	5600
215.450	4683
215.517	4296
215.584	3998
215.651	4204
215.718	4105
215.785	4826
215.852	3529
215.919	4793
215.986	3561
216.053	4052
216.120	3783
216.187	4230
216.254	4436
216.321	5243
216.388	5074
216.455	5430
216.522	5925
216.589	5225
216.656	6854
216.722	8249
216.789	8021
216.856	8638
216.923	8463
216.990	7884
217.057	7556
217.124	8533
217.191	7845
217.258	10718
217.324	11865
217.391	13674
217.458	10551
217.525	8575
217.592	7058
217.659	6005
217.725	7434
217.792	6098
217.859	6014
217.926	4894
217.993	4656
218.059	5273
218.126	4818
218.193	3890
218.260	3538
218.327	4132
218.393	3564
218.460	3533
218.527	3268
218.594	3704
218.660	4321
218.727	5120
218.794	3200
218.860	3775
218.927	3305
218.994	3330
219.061	2688
219.127	2598
219.194	2951
219.261	3378
219.327	2493
219.394	3718
219.461	2108
219.527	2853
219.594	3476
219.661	4002
219.727	2503
219.794	4660
219.860	3436
219.927	4509
219.994	5118
220.060	5920
220.127	6516
220.193	7450
220.260	7502
220.326	11804
220.393	17837
220.460	21922
220.526	16343
220.593	10895
220.659	10679
220.726	12500
220.792	25307
220.859	25743
220.925	29704
220.992	35974
221.058	37054
221.125	36632
221.191	28262
221.258	13386
221.324	9168
221.391	7126
221.457	5734
221.524	7094
221.590	9297
221.657	29966
221.723	23312
221.789	19492
221.856	18419
221.922	10094
221.989	6157
222.055	5034
222.121	3843
222.188	6309
222.254	4268
222.321	3874
222.387	2912
222.453	3309
222.520	3067
222.586	2582
222.652	3042
222.719	2458
222.785	3572
222.851	2542
222.918	3084
222.984	3074
223.050	2105
223.116	2554
223.183	3012
223.249	1735
223.315	1285
223.382	3018
223.448	2381
223.514	2083
223.580	2355
223.647	2376
223.713	2024
223.779	3179
223.845	1729
223.911	2541
223.978	2041
224.044	3154
224.110	1567
224.176	2361
224.242	1896
224.309	1670
224.375	2348
224.441	1832
224.507	1621
224.573	1628
224.639	1712
224.705	1790
224.772	2273
224.838	1500
224.904	2714
224.970	2288
225.036	1567
225.102	1441
225.168	2125
225.234	2584
225.300	2163
225.366	2675
225.432	2744
225.499	2979
225.565	2478
225.631	2802
225.697	2762
225.763	5247
225.829	6345
225.895	6224
225.961	7557
226.027	7600
226.093	6784
226.159	10001
226.225	17381
226.291	38674
226.357	56136
226.423	32371
226.489	16673
226.554	12853
226.620	11313
226.686	12175
226.752	18198
226.818	37570
226.884	73238
226.950	67514
227.016	31579
227.082	17614
227.148	10847
227.214	8369
227.279	6101
227.345	5470
227.411	4914
227.477	4631
227.543	9182
227.609	8646
227.674	5109
227.740	4290
227.806	5017
227.872	5068
227.938	3907
228.003	3823
228.069	3434
228.135	2662
228.201	3321
228.267	3685
228.332	2801
228.398	1952
228.464	3067
228.530	2630
228.595	2687
228.661	2516
228.727	2279
228.792	3647
228.858	2115
228.924	2948
228.990	5866
229.055	3272
229.121	4924
229.187	2066
229.252	2165
229.318	1869
229.384	2035
229.449	2138
229.515	4
229.581	1045
229.646	3178
229.712	1795
229.777	1573
229.843	2997
229.909	2854
229.974	3565
230.040	3415
230.105	4307
230.171	3971
230.236	9044
230.302	14231
230.368	8439
230.433	4241
230.499	4067
230.564	3448
230.630	2630
230.695	3783
230.761	4183
230.826	1561
230.892	4317
230.957	2423
231.023	2760
231.088	2716
231.154	2769
231.219	2968
231.284	3725
231.350	3465
231.415	2456
231.481	3274
231.546	2431
231.612	1784
231.677	1833
231.742	1738
231.808	3762
231.873	1487
231.939	680
232.004	2575
232.069	2703
232.135	3586
232.200	2951
232.265	1669
232.331	2154
232.396	1910
232.461	1599
232.527	901
232.592	1792
232.657	1554
232.723	2189
232.788	1442
232.853	2336
232.918	1537
232.984	1450
233.049	1400
233.114	1233
233.179	2595
233.245	3190
233.310	2968
233.375	1080
233.440	2235
233.506	1790
233.571	2546
233.636	2144
233.701	1254
233.766	2236
233.832	2309
233.897	1432
233.962	-15
234.027	2206
234.092	1677
234.157	1826
234.222	946
234.288	3280
234.353	5486
234.418	5460
234.483	3990
234.548	3098
234.613	2677
234.678	3570
234.743	2315
234.808	6711
234.873	4023
234.938	4868
235.004	2462
235.069	3481
235.134	2124
235.199	3000
235.264	1973
235.329	2098
235.394	3283
235.459	3625
235.524	2175
235.589	3257
235.654	2932
235.719	1927
235.784	3370
235.849	3274
235.913	3632
235.978	4972
236.043	4841
236.108	4556
236.173	3047
236.238	4512
236.303	3655
236.368	3863
236.433	6479
236.498	8140
236.563	11284
236.627	27076
236.692	88606
236.757	86652
236.822	33867
236.887	19868
236.952	17867
237.017	13920
237.081	14499
237.146	18336
237.211	46623
237.276	91882
237.341	139385
237.405	75672
237.470	29491
237.535	17550
237.600	12023
237.664	10367
237.729	6531
237.794	11198
237.859	24285
237.923	12713
237.988	7483
238.053	6109
238.118	4458
238.182	11114
238.247	10827
238.312	3754
238.376	4503
238.441	2421
238.506	3287
238.570	1299
238.635	4011
238.700	3455
238.764	2661
238.829	4429
238.893	4281
238.958	3801
239.023	2749
239.087	3104
239.152	3189
239.216	2091
239.281	2768
239.346	3286
239.410	2951
239.475	1898
239.539	7327
239.604	6259
239.668	3350
239.733	2932
239.797	4297
239.862	12048
239.926	9331
239.991	4590
240.055	2702
240.120	2612
240.184	1778
240.249	1484
240.313	1790
240.378	2516
240.442	3950
240.507	6497
240.571	2278
240.635	2834
240.700	2928
240.764	2765
240.829	1464
240.893	798
240.957	2117
241.022	3464
241.086	5156
241.151	2093
241.215	796
241.279	3212
241.344	3105
241.408	3193
241.472	2614
241.537	4027
241.601	3738
241.665	2938
241.730	2752
241.794	3642
241.858	2442
241.922	3329
241.987	3376
242.051	2964
242.115	1623
242.179	2979
242.244	2116
242.308	3776
242.372	2448
242.436	2890
242.501	2672
242.565	2798
242.629	2358
242.693	3940
242.757	2552
242.822	3681
242.886	3488
242.950	4162
243.014	3001
243.078	3334
243.142	4267
243.206	3742
243.271	5380
243.335	6395
243.399	14738
243.463	60832
243.527	157506
243.591	53749
243.655	16552
243.719	10125
243.783	8367
243.847	15406
243.911	20158
243.975	9218
244.040	4034
244.104	5216
244.168	3442
244.232	3941
244.296	8262
244.360	17252
244.424	4596
244.488	3192
244.552	3067
244.615	1907
244.679	2616
244.743	1758
244.807	1758
244.871	1982
244.935	2131
244.999	1237
245.063	1674
245.127	3883
245.191	11144
245.255	11970
245.319	3981
245.383	1311
245.446	3108
245.510	1142
245.574	2328
245.638	2175
245.702	-256
245.766	2978
245.829	2679
245.893	1170
245.957	3123
246.021	3771
246.085	2272
246.149	1927
246.212	3823
246.276	6526
246.340	2433
246.404	2101
246.467	3338
246.531	1828
246.595	3929
246.659	3760
246.722	940
246.786	2689
246.850	2426
246.913	2527
246.977	497
247.041	2849
247.104	1960
247.168	2128
247.232	3534
247.295	8374
247.359	4257
247.423	2244
247.486	1732
247.550	2956
247.614	1424
247.677	2176
247.741	2410
247.804	2332
247.868	2964
247.932	3229
247.995	8662
248.059	2944
248.122	1876
248.186	3164
248.249	3478
248.313	17137
248.376	17602
248.440	8721
248.503	3547
248.567	4655
248.630	3241
248.694	4190
248.757	7817
248.821	20960
248.884	11300
248.948	8737
249.011	11774
249.075	22084
249.138	18010
249.202	6946
249.265	5236
249.328	7455
249.392	4642
249.455	5234
249.519	4433
249.582	5036
249.645	6352
249.709	8127
249.772	8562
249.835	7009
249.899	5058
249.962	6069
250.025	5408
250.089	9093
250.152	10166
250.215	6747
250.279	6350
250.342	8482
250.405	7926
250.468	8726
250.532	12797
250.595	26860
250.658	118946
250.721	209771
250.785	69620
250.848	30460
250.911	19454
250.974	15890
251.038	13776
251.101	18526
251.164	14706
251.227	15281
251.290	19065
251.354	40823
251.417	167071
251.480	187141
251.543	131901
251.606	297793
251.669	256675
251.732	97236
251.795	58773
251.859	69820
251.922	190405
251.985	120808
252.048	40044
252.111	25292
252.174	18708
252.237	22828
252.300	40493
252.363	82096
252.426	223996
252.489	99174
252.552	35396
252.615	22745
252.678	22417
252.741	36601
252.804	92136
252.867	242674
252.930	113968
252.993	37892
253.056	23480
253.119	16485
253.182	17014
253.245	45733
253.308	30675
253.371	11363
253.434	8672
253.497	7981
253.559	8676
253.622	6726
253.685	5293
253.748	5742
253.811	4400
253.874	6239
253.937	4462
254.000	5023
254.062	4937
254.125	8247
254.188	5969
254.251	4627
254.314	3505
254.376	4126
254.439	4054
254.502	3443
254.565	3990
254.628	8315
254.690	3274
254.753	2593
254.816	2685
254.878	3294
254.941	4989
255.004	5662
255.067	3174
255.129	1908
255.192	1692
255.255	1352
255.317	1818
255.380	2817
255.443	2326
255.505	2285
255.568	1424
255.631	2670
255.693	1382
255.756	1693
255.819	2819
255.881	2292
255.944	2510
256.006	2457
256.069	2195
256.132	2251
256.194	3304
256.257	5864
256.319	4084
256.382	4315
256.444	4576
256.507	4305
256.569	4688
256.632	6018
256.694	10662
256.757	42093
256.819	142194
256.882	64961
256.944	21793
257.007	12352
257.069	8741
257.132	6975
257.194	6515
257.257	6462
257.319	5663
257.381	10522
257.444	31365
257.506	150369
257.569	176487
257.631	54207
257.693	24817
257.756	16199
257.818	9582
257.880	7781
257.943	6063
258.005	4306
258.067	3875
258.130	3707
258.192	3348
258.254	3027
258.317	2912
258.379	3802
258.441	3982
258.503	4000
258.566	5413
258.628	8329
258.690	2966
258.753	3381
258.815	3491
258.877	2864
258.939	3213
259.001	4252
259.064	3344
259.126	2540
259.188	3213
259.250	3450
259.312	3766
259.375	6034
259.437	4268
259.499	3332
259.561	2674
259.623	2976
259.685	1577
259.747	2484
259.809	4613
259.872	10304
259.934	18287
259.996	14951
260.058	3604
260.120	2998
260.182	2762
260.244	2124
260.306	1172
260.368	2461
260.430	1374
260.492	1431
260.554	3849
260.616	2902
260.678	4450
260.740	8727
260.802	2548
260.864	2466
260.926	1392
260.988	3158
261.050	2207
261.112	2076
261.174	7255
261.236	7721
261.298	2685
261.359	4692
261.421	5798
261.483	1953
261.545	2331
261.607	600
261.669	2670
261.731	3079
261.793	4550
261.854	1619
261.916	2784
261.978	1744
262.040	2251
262.102	1798
262.164	1328
262.225	3150
262.287	1801
262.349	2056
262.411	1839
262.472	2510
262.534	1453
262.596	5590
262.658	1693
262.719	1415
262.781	2429
262.843	4210
262.904	3965
262.966	5550
263.028	10921
263.090	62232
263.151	195502
263.213	58927
263.275	16273
263.336	9760
263.398	7342
263.459	3986
263.521	3114
263.583	3731
263.644	2415
263.706	2010
263.767	1927
263.829	2311
263.891	1103
263.952	1449
264.014	695
264.075	926
264.137	1513
264.198	1373
264.260	640
264.321	1017
264.383	1295
264.444	1855
264.506	1546
264.567	2002
264.629	2179
264.690	-28
264.752	1757
264.813	1975
264.875	388
264.936	2139
264.998	1619
265.059	3400
265.120	4178
265.182	10016
265.243	65679
265.305	78972
265.366	17498
265.427	7645
265.489	6026
265.550	3016
265.611	3138
265.673	2160
265.734	2026
265.795	3411
265.857	2729
265.918	6037
265.979	18256
266.040	112058
266.102	109957
266.163	26588
266.224	12058
266.286	7962
266.347	4424
266.408	3818
266.469	3545
266.530	2353
266.592	2007
266.653	2176
266.714	1456
266.775	2060
266.836	1422
266.898	710
266.959	2369
267.020	1302
267.081	2354
267.142	2269
267.203	925
267.264	853
267.326	1995
267.387	1391
267.448	370
267.509	1460
267.570	1004
267.631	1719
267.692	408
267.753	1400
267.814	305
267.875	2427
267.936	2571
267.997	3413
268.058	2957
268.119	2465
268.180	1254
268.241	1140
268.302	455
268.363	1236
268.424	1332
268.485	1042
268.546	93
268.607	513
268.668	1476
268.729	-64
268.790	675
268.851	1379
268.912	993
268.972	967
269.033	1096
269.094	1104
269.155	1316
269.216	923
269.277	637
269.338	938
269.398	778
269.459	852
269.520	1279
269.581	2067
269.642	904
269.702	1598
269.763	1712
269.824	1179
269.885	1089
269.945	2077
270.006	664
270.067	787
270.128	460
270.188	1531
270.249	265
270.310	1238
270.370	1281
270.431	717
270.492	353
270.553	1143
270.613	1293
270.674	2294
270.734	-199
270.795	1255
270.856	1431
270.916	1227
270.977	116
271.038	1095
271.098	1029
271.159	405
271.219	379
271.280	905
271.340	713
271.401	1376
271.462	2305
271.522	1409
271.583	96
271.643	1212
271.704	858
271.764	1314
271.825	1795
271.885	10772
271.946	20320
272.006	5101
272.066	5628
272.127	13692
272.187	5083
272.248	2538
272.308	1327
272.369	6226
272.429	3612
272.489	1837
272.550	722
272.610	2018
272.671	1302
272.731	1865
272.791	672
272.852	892
272.912	2040
272.972	1325
273.033	623
273.093	926
273.153	1551
273.214	1706
273.274	926
273.334	2798
273.394	5894
273.455	1402
273.515	1504
273.575	3196
273.635	1807
273.696	3145
273.756	7222
273.816	2760
273.876	2264
273.936	3284
273.997	7257
274.057	2095
274.117	1208
274.177	1366
274.237	6935
274.297	8111
274.358	3963
274.418	4382
274.478	2726
274.538	1291
274.598	-44
274.658	5183
274.718	7204
274.778	2440
274.838	1586
274.898	2460
274.958	10737
275.018	8183
275.078	5380
275.138	2435
275.198	135
275.258	1212
275.318	499
275.378	2127
275.438	1682
275.498	1571
275.558	4906
275.618	9631
275.678	4009
275.738	1711
275.798	909
275.858	510
275.918	794
275.978	863
276.038	899
276.098	1184
276.157	691
276.217	2490
276.277	367
276.337	1171
276.397	530
276.457	776
276.517	84
276.576	958
276.636	1390
276.696	404
276.756	1936
276.815	2118
276.875	1633
276.935	1203
276.995	524
277.055	1263
277.114	1214
277.174	1097
277.234	2633
277.293	578
277.353	-131
277.413	1062
277.472	150
277.532	417
277.592	433
277.651	2352
277.711	1480
277.771	1217
277.830	2831
277.890	2286
277.950	2806
278.009	8864
278.069	2864
278.128	2228
278.188	2761
278.248	1847
278.307	2858
278.367	3150
278.426	545
278.486	1685
278.545	724
278.605	1038
278.664	498
278.724	1225
278.783	3172
278.843	8318
278.902	2637
278.962	1020
279.021	1251
279.081	2430
279.140	2029
279.199	2508
279.259	2391
279.318	3755
279.378	4228
279.437	8048
279.496	26489
279.556	101419
279.615	86990
279.675	16081
279.734	8778
279.793	9621
279.853	16720
279.912	6991
279.971	2635
280.031	2377
280.090	5606
280.149	10426
280.208	9534
280.268	55450
280.327	65617
280.386	11871
280.445	5483
280.505	4393
280.564	2491
280.623	1536
280.682	2198
280.742	2831
280.801	554
280.860	1195
280.919	788
280.978	2110
281.037	639
281.097	163
281.156	675
281.215	971
281.274	1032
281.333	2793
281.392	2409
281.451	957
281.510	587
281.569	742
281.628	1705
281.688	2151
281.747	1847
281.806	1162
281.865	528
281.924	537
281.983	329
282.042	730
282.101	1000
282.160	749
282.219	-283
282.278	1280
282.337	1306
282.396	1133
282.454	1213
282.513	888
282.572	1287
282.631	878
282.690	498
282.749	137
282.808	366
282.867	889
282.926	632
282.985	844
283.043	637
283.102	-3
283.161	999
283.220	1536
283.279	2289
283.338	1934
283.396	603
283.455	624
283.514	447
283.573	1310
283.631	543
283.690	768
283.749	725
283.808	1442
283.866	1298
283.925	305
283.984	1260
284.043	854
284.101	1268
284.160	251
284.219	1577
284.277	1206
284.336	858
284.395	2949
284.453	2189
284.512	1339
284.570	936
284.629	1615
284.688	923
284.746	357
284.805	1417
284.863	1619
284.922	1639
284.981	2099
285.039	3701
285.098	5759
285.156	15966
285.215	87242
285.273	97594
285.332	33448
285.390	13373
285.449	9023
285.507	6091
285.566	3892
285.624	2829
285.683	2566
285.741	1895
285.799	1605
285.858	1435
285.916	1724
285.975	618
286.033	995
286.091	1376
286.150	1154
286.208	1558
286.267	732
286.325	688
286.383	1736
286.442	1437
286.500	2179
286.558	1687
286.616	1648
286.675	1983
286.733	2297
286.791	921
286.850	1849
286.908	1438
286.966	1773
287.024	1745
287.083	2374
287.141	2115
287.199	2973
287.257	2347
287.315	2988
287.374	3054
287.432	3664
287.490	3851
287.548	3320
287.606	3238
287.664	4190
287.723	4655
287.781	5531
287.839	6741
287.897	8845
287.955	14510
288.013	28984
288.071	70361
288.129	240862
288.187	588525
288.245	322466
288.303	110104
288.361	59828
288.419	39906
288.477	27592
288.535	19383
288.593	14249
288.651	9623
288.709	7649
288.767	5253
288.825	4906
288.883	4070
288.941	3767
288.999	2939
289.057	3291
289.115	2451
289.173	2782
289.231	2389
289.289	2749
289.346	1606
289.404	1918
289.462	2703
289.520	1917
289.578	2258
289.636	1519
289.694	2210
289.751	1772
289.809	1351
289.867	2549
289.925	1663
289.983	1580
290.040	1620
290.098	1713
290.156	2223
290.214	1156
290.271	753
290.329	1891
290.387	1732
290.444	1227
290.502	1032
290.560	1370
290.617	938
290.675	1343
290.733	752
290.790	973
290.848	556
290.906	316
290.963	681
291.021	1122
291.078	672
291.136	409
291.194	1377
291.251	1025
291.309	-143
291.366	986
291.424	-107
291.481	1714
291.539	-102
291.596	806
291.654	-368
291.711	-242
291.769	697
291.826	960
291.884	685
291.941	409
291.999	342
292.056	1057
292.114	475
292.171	648
292.228	1418
292.286	304
292.343	-156
292.401	858
292.458	243
292.515	83
292.573	398
292.630	881
292.687	1058
292.745	841
292.802	1438
292.859	1383
292.917	2844
292.974	1188
293.031	-245
293.089	76
293.146	-147
293.203	876
293.260	804
293.318	412
293.375	450
293.432	1232
293.489	985
293.546	643
293.604	1320
293.661	2664
293.718	6845
293.775	2975
293.832	1314
293.889	1296
293.947	1219
294.004	1029
294.061	681
294.118	727
294.175	1283
294.232	1438
294.289	1056
294.346	1278
294.403	2167
294.460	1509
294.517	600
294.574	813
294.631	-90
294.688	700
294.745	1185
294.802	6493
294.859	4246
294.916	1659
294.973	1486
295.030	1177
295.087	90
295.144	353
295.201	866
295.258	-183
295.315	927
295.372	2124
295.429	4532
295.486	2331
295.542	77
295.599	1015
295.656	529
295.713	2393
295.770	2404
295.827	1432
295.883	681
295.940	1096
295.997	632
296.054	-281
296.111	270
296.167	532
296.224	143
296.281	197
296.338	105
296.394	267
296.451	-303
296.508	1765
296.564	2030
296.621	3636
296.678	8669
296.734	13908
296.791	4085
296.848	1583
296.904	1016
296.961	1516
297.018	5291
297.074	6517
297.131	1748
297.187	1206
297.244	1946
297.301	6630
297.357	12964
297.414	3760
297.470	1856
297.527	1611
297.583	769
297.640	1404
297.696	1088
297.753	-46
297.809	-217
297.866	727
297.922	456
297.979	680
298.035	-111
298.092	1336
298.148	2150
298.204	2753
298.261	1496
298.317	3303
298.374	9092
298.430	5721
298.486	2369
298.543	1072
298.599	1812
298.656	4524
298.712	12386
298.768	56675
298.824	54811
298.881	14272
298.937	6121
298.993	4767
299.050	3325
299.106	2653
299.162	2092
299.218	2379
299.275	582
299.331	2086
299.387	2250
299.443	10158
299.500	13454
299.556	6801
299.612	2275
299.668	2453
299.724	5694
299.780	8094
299.837	2195
299.893	1831
299.949	5934
300.005	9311
300.061	7497
300.117	15988
300.173	6000
300.229	1656
300.285	1115
300.341	1792
300.397	1717
300.453	1026
300.510	301
300.566	1862
300.622	2939
300.678	12978
300.734	19340
300.790	7909
300.845	8069
300.901	6669
300.957	9395
301.013	4655
301.069	978
301.125	1257
301.181	476
301.237	1390
301.293	118
301.349	758
301.405	-413
301.461	-323
301.516	-513
301.572	-12
301.628	-267
301.684	167
301.740	137
301.796	1545
301.851	641
301.907	1931
301.963	3746
302.019	9024
302.074	32311
302.130	33289
302.186	12942
302.242	4224
302.297	3371
302.353	2382
302.409	3015
302.464	2374
302.520	2403
302.576	5152
302.631	5845
302.687	3063
302.743	1903
302.798	1469
302.854	1484
302.910	1476
302.965	1221
303.021	1888
303.076	1764
303.132	1946
303.187	1837
303.243	401
303.299	1744
303.354	1189
303.410	1320
303.465	959
303.521	170
303.576	1726
303.632	1125
303.687	2663
303.743	6543
303.798	5879
303.853	2415
303.909	1976
303.964	1419
304.020	1282
304.075	1129
304.130	1627
304.186	2134
304.241	3674
304.297	2752
304.352	2147
304.358	1975
304.407	578
304.449	1428
304.463	1718
304.518	775
304.539	954
304.573	1241
304.629	1290
304.630	1305
304.684	2039
304.720	4157
304.739	5211
304.794	8730
304.811	7548
304.850	4706
304.902	3138
304.905	3053
304.960	3688
304.992	5649
305.015	6903
305.071	6349
305.083	5503
305.126	2624
305.173	1198
305.181	950
305.236	1126
305.264	1178
305.292	1280
305.347	1943
305.354	2012
305.402	2723
305.445	5425
305.457	6078
305.512	7107
305.535	5923
305.567	4368
305.622	3432
305.626	3636
305.678	8255
305.716	17085
305.733	20024
305.788	14194
305.807	11606
305.843	7782
305.897	9767
305.898	9782
305.953	9928
305.988	7116
306.008	5541
306.063	2580
306.078	2371
306.118	2110
306.168	1633
306.173	1601
306.228	1883
306.259	1709
306.283	1586
306.338	2126
306.349	2460
306.393	4179
306.440	7887
306.448	8338
306.503	5826
306.530	4621
306.558	4244
306.613	8129
306.620	8349
306.668	8448
306.711	6169
306.723	5544
306.778	4714
306.801	3855
306.833	2884
306.888	2739
306.892	2692
306.943	2419
306.982	2275
306.997	2149
307.052	2187
307.072	2217
307.107	2444
307.162	2510
307.163	2513
307.217	2533
307.253	2167
307.272	2172
307.327	2530
307.343	2623
307.381	2514
307.434	2836
307.436	2882
307.491	3413
307.524	4170
307.546	4545
307.600	5108
307.614	5002
307.655	4437
307.704	4854
307.710	5012
307.765	6061
307.795	6744
307.819	7176
307.874	8929
307.885	9328
307.929	12692
307.975	17775
307.984	19601
308.038	35900
308.065	48568
308.093	84722
308.148	176939
308.156	197992
308.202	304927
308.246	375892
308.257	368294
308.312	200773
308.336	133229
308.366	88790
308.421	45452
308.426	42709
308.475	31193
308.517	24656
308.530	23121
308.585	18616
308.607	16957
308.639	15081
308.694	12874
308.697	12829
308.748	12485
308.787	12410
308.803	12479
308.857	13498
308.877	13969
308.912	15667
308.967	19029
308.967	19103
309.021	28812
309.058	38021
309.076	49996
309.130	93077
309.148	112078
309.185	212737
309.238	391556
309.239	392853
309.293	435341
309.328	403977
309.348	352530
309.402	173172
309.418	130526
309.457	87175
309.508	49127
309.511	47800
309.566	34046
309.598	27222
309.620	24386
309.674	18755
309.688	17763
309.729	15385
309.778	12474
309.783	12179
309.837	9753
309.868	8688
309.892	8297
309.946	8095
309.959	8132
310.001	8063
310.049	7916
310.055	7749
310.109	5978
310.139	5115
310.163	4693
310.218	3809
310.229	3660
310.272	3360
310.319	3332
310.326	3295
310.381	2875
310.409	2755
310.435	2897
310.489	3124
310.499	3164
310.543	2800
310.589	2497
310.598	2522
310.652	2512
310.679	2620
310.706	2560
310.760	2308
310.769	2266
310.814	1943
310.859	1687
310.868	1678
310.923	1689
310.948	1659
310.977	1891
311.031	2403
311.038	2462
311.085	1956
311.128	1416
311.139	1426
311.193	1670
311.218	1723
311.247	1848
311.301	2148
311.308	2184
311.356	1832
311.398	1452
311.410	1425
311.464	1304
311.488	1264
311.518	1317
311.572	1395
311.578	1411
311.626	1738
311.668	1973
311.680	1977
311.734	1996
311.758	2007
311.788	1888
311.842	1669
311.847	1643
311.896	2087
311.937	2482
311.950	2409
312.004	2060
312.027	1897
312.058	1885
312.112	1881
312.117	1881
312.165	1833
312.207	1799
312.297	1403
312.386	1176
312.476	1528
312.566	1770
312.656	2782
312.745	1920
312.835	1403
312.925	2274
313.015	2287
313.104	2584
313.194	1670
313.284	1405
313.374	2222
313.463	2149
313.553	2007
313.643	1288
313.732	1487
313.822	1949
313.912	1948
314.001	2486
314.091	2036
314.180	1521
314.270	2686
314.360	2858
314.449	2485
314.539	1717
314.628	1708
314.718	2298
314.808	2031
314.897	2562
314.987	2865
315.076	2467
315.166	2440
315.255	2778
315.345	2290
315.434	2075
315.524	3210
315.613	3756
315.703	6290
315.792	20310
315.881	87056
315.971	27589
316.060	5943
316.150	3209
316.239	2288
316.328	2836
316.418	1924
316.507	1663
316.597	3498
316.686	1819
316.775	1636
316.865	2380
316.954	1903
317.043	2676
317.133	1678
317.222	2309
317.311	2363
317.400	1845
317.490	3738
317.579	4296
317.668	6657
317.757	11754
317.847	39896
317.936	152571
318.025	40611
318.114	24725
318.203	11035
318.293	3119
318.382	2113
318.471	3137
318.560	2142
318.649	2121
318.738	1393
318.828	2046
318.917	1208
319.006	1558
319.095	1148
319.184	2418
319.273	1283
319.362	2259
319.451	845
319.540	1395
319.629	1602
319.718	1806
319.807	1338
319.896	1286
319.985	1921
320.074	1051
320.163	876
320.252	1748
320.341	854
320.430	1036
320.519	1019
320.608	1026
320.697	1654
320.786	1502
320.875	2339
320.964	1219
321.053	2218
321.142	3008
321.230	3907
321.319	3135
321.408	3899
321.497	2954
321.586	2907
321.675	2321
321.764	2187
321.852	1944
321.941	2369
322.030	2355
322.119	1924
322.207	4389
322.296	2679
322.385	3394
322.474	3297
322.562	5096
322.651	2850
322.740	2993
322.829	2657
322.917	2157
323.006	1628
323.095	2149
323.183	1240
323.272	1177
323.361	1609
323.449	2937
323.538	1772
323.626	1966
323.715	1035
323.804	381
323.892	1280
323.981	2046
324.069	2070
324.158	1604
324.246	1354
324.335	1482
324.424	1452
324.512	1463
324.601	2144
324.689	2338
324.778	3467
324.866	2115
324.954	925
325.043	1728
325.131	37
325.220	2229
325.308	1236
325.397	1459
325.485	1219
325.574	463
325.662	502
325.750	-149
325.839	1296
325.927	1251
326.015	481
326.104	628
326.192	590
326.280	820
326.369	574
326.457	993
326.545	1952
326.634	1092
326.722	966
326.810	731
326.898	971
326.987	1135
327.075	722
327.163	1702
327.251	628
327.340	1574
327.428	2688
327.516	1307
327.604	913
327.692	970
327.781	1363
327.869	775
327.957	804
328.045	912
328.133	1049
328.221	461
328.309	772
328.397	1189
328.485	830
328.574	1698
328.662	2489
328.750	1513
328.838	847
328.926	805
329.014	1461
329.102	1593
329.190	2033
329.278	1438
329.366	888
329.454	1339
329.542	1597
329.630	1184
329.718	2090
329.806	1868
329.893	2946
329.981	5245
330.069	14650
330.157	56045
330.245	150534
330.333	76698
330.421	10765
330.509	3746
330.597	4322
330.684	2117
330.772	947
330.860	1572
330.948	1432
331.036	1158
331.123	578
331.211	955
331.299	697
331.387	722
331.475	1827
331.562	1640
331.650	107
331.738	375
331.825	1090
331.913	261
332.001	-188
332.089	1203
332.176	715
332.264	448
332.352	134
332.439	670
332.527	-110
332.614	640
332.702	165
332.790	1028
332.877	323
332.965	993
333.052	834
333.140	-133
333.228	659
333.315	790
333.403	1038
333.490	955
333.578	377
333.665	1538
333.753	884
333.840	792
333.928	1553
334.015	911
334.103	1732
334.190	2698
334.278	2325
334.365	3429
334.452	3640
334.540	2042
334.627	1203
334.715	2284
334.802	4051
334.889	6520
334.977	8330
335.064	5558
335.151	3252
335.239	1906
335.326	663
335.413	1796
335.501	2173
335.588	1468
335.675	1607
335.762	1581
335.850	3179
335.937	4627
336.024	7394
336.111	12453
336.199	11014
336.286	5003
336.373	2228
336.460	1879
336.547	1194
336.635	1996
336.722	1651
336.809	1241
336.896	-56
336.983	1163
337.070	1418
337.157	2102
337.245	857
337.332	46
337.419	519
337.506	569
337.593	763
337.680	1220
337.767	1135
337.854	826
337.941	797
338.028	1182
338.115	2211
338.202	1649
338.289	913
338.376	661
338.463	877
338.550	572
338.637	1210
338.724	711
338.811	744
338.898	366
338.984	-413
339.071	680
339.158	632
339.245	936
339.332	809
339.419	502
339.506	459
339.593	9
339.679	908
339.766	221
339.853	281
339.940	809
340.027	1047
340.113	962
340.200	603
340.287	858
340.374	184
340.460	1055
340.547	159
340.634	878
340.720	2098
340.807	1612
340.894	562
340.980	338
341.067	-518
341.154	887
341.240	-239
341.327	774
341.414	377
341.500	442
341.587	864
341.674	762
341.760	1046
341.847	963
341.933	-62
342.020	-403
342.106	-214
342.193	455
342.279	848
342.366	26
342.452	-173
342.539	-350
342.625	903
342.712	1991
342.798	1000
342.885	834
342.971	-124
343.058	249
343.144	701
343.230	1322
343.317	1012
343.403	151
343.490	412
343.576	-93
343.662	844
343.749	309
343.835	384
343.921	543
344.008	10233
344.094	20671
344.180	4033
344.267	1232
344.353	2282
344.439	1686
344.525	641
344.612	2068
344.698	616
344.784	-467
344.870	753
344.957	281
345.043	1211
345.129	478
345.215	983
345.301	1142
345.387	286
345.474	-449
345.560	631
345.646	-335
345.732	715
345.818	489
345.904	334
345.990	791
346.076	72
346.162	-165
346.249	621
346.335	1221
346.421	1759
346.507	1930
346.593	3722
346.679	64
346.765	1535
346.851	1237
346.937	162
347.023	503
347.108	444
347.194	1
347.280	796
347.366	756
347.452	3175
347.538	6693
347.624	5416
347.710	2384
347.796	261
347.882	-522
347.967	233
348.053	241
348.139	348
348.225	265
348.311	18
348.397	171
348.482	1071
348.568	957
348.654	-257
348.740	3199
348.825	1308
348.911	2456
348.997	3315
349.083	5799
349.168	627
349.254	422
349.340	90
349.425	-103
349.511	112
349.597	227
349.682	172
349.768	1774
349.854	537
349.939	524
350.025	-472
350.110	816
350.196	21
350.282	-47
350.367	-56
350.453	365
350.538	700
350.624	-76
350.709	357
350.795	-297
350.880	232
350.966	1249
351.051	-313
351.137	359
351.222	-15
351.308	140
351.393	1004
351.479	-63
351.564	-93
351.649	238
351.735	-602
351.820	598
351.906	398
351.991	-229
352.076	619
352.162	1743
352.247	164
352.332	-256
352.418	121
352.503	650
352.588	1948
352.673	655
352.759	380
352.844	256
352.929	-48
353.014	-367
353.100	386
353.185	943
353.270	-31
353.355	1070
353.441	321
353.526	78
353.611	289
353.696	443
353.781	1206
353.866	-43
353.952	855
354.037	113
354.122	1711
354.207	199
354.292	358
354.377	-146
354.462	916
354.547	54
354.632	328
354.717	90
354.802	121
354.887	643
354.972	258
355.057	495
355.142	-48
355.227	612
355.312	498
355.397	659
355.482	1255
355.567	432
355.652	500
355.737	1212
355.822	2492
355.907	1491
355.991	1538
356.076	-310
356.161	691
356.246	229
356.331	239
356.416	322
356.501	8274
356.585	7636
356.670	-141
356.755	1893
356.840	1162
356.924	8304
357.009	25085
357.094	8354
357.179	-55
357.263	511
357.348	1073
357.433	450
357.517	263
357.602	-133
357.687	-558
357.771	1071
357.856	-126
357.941	1294
358.025	7444
358.110	38875
358.195	14973
358.279	483
358.364	193
358.448	1881
358.533	5381
358.617	2441
358.702	3796
358.787	809
358.871	738
358.956	546
359.040	121
359.125	-26
359.209	479
359.294	469
359.378	1134
359.462	232
359.547	-332
359.631	4
359.716	-521
359.800	-336
359.885	877
359.969	-229
360.053	209
360.138	-35
360.222	206
360.306	394
360.391	586
360.475	910
360.559	33
360.644	1634
360.728	525
360.812	4742
360.896	12588
360.981	2990
361.065	735
361.149	1336
361.233	588
361.318	-229
361.402	1337
361.486	1508
361.570	-269
361.654	216
361.739	1247
361.823	8300
361.907	13543
361.991	1442
362.075	879
362.159	1459
362.243	4089
362.327	6220
362.411	13467
362.495	4366
362.580	1947
362.664	1645
362.748	1640
362.832	3301
362.916	6679
363.000	23898
363.084	40266
363.168	24398
363.252	5535
363.336	2270
363.420	1056
363.503	1447
363.587	875
363.671	981
363.755	139
363.839	2281
363.923	1053
364.007	2590
364.091	2385
364.175	3105
364.258	11276
364.342	26715
364.426	57703
364.510	26646
364.594	8202
364.677	4470
364.761	10438
364.845	8444
364.929	1507
365.013	1299
365.096	919
365.180	262
365.264	706
365.347	1562
365.431	167
365.515	-383
365.598	-864
365.682	1498
365.766	-686
365.849	115
365.933	-60
366.017	1066
366.100	-280
366.184	-766
366.267	1182
366.351	356
366.435	-103
366.518	-379
366.602	72
366.685	-66
366.769	-353
366.852	657
366.936	825
367.019	-347
367.103	-1187
367.186	999
367.270	45
367.353	-1017
367.436	862
367.520	-367
367.603	39
367.687	-173
367.770	14
367.853	220
367.937	2251
368.020	2794
368.104	-406
368.187	1060
368.270	679
368.353	-309
368.437	284
368.520	995
368.603	1102
368.687	717
368.770	3343
368.853	818
368.936	746
369.020	958
369.103	-832
369.186	-768
369.269	-279
369.352	574
369.436	-170
369.519	459
369.602	-1535
369.685	1301
369.768	-1278
369.851	1264
369.934	-132
370.018	-51
370.101	-1047
370.184	2513
370.267	1074
370.350	854
370.433	1353
370.516	8881
370.599	28786
370.682	11524
370.765	3743
370.848	3449
370.931	4020
371.014	2718
371.097	-229
371.180	800
371.263	84
371.346	-338
371.429	1143
371.511	-37
371.594	15
371.677	615
371.760	1135
371.843	1155
371.926	12915
372.009	30991
372.091	8955
372.174	885
372.257	5128
372.340	805
372.423	-480
372.505	823
372.588	-92
372.671	2171
372.754	2786
372.836	959
372.919	600
373.002	1144
373.085	-86
373.167	885
373.250	1577
373.332	4383
373.415	15505
373.498	38812
373.580	16642
373.663	52390
373.746	56748
373.828	8194
373.911	3474
373.993	1208
374.076	723
374.159	710
374.241	1649
374.324	4241
374.406	3303
374.489	6399
374.571	19495
374.654	6001
374.736	2735
374.819	10222
374.901	20653
374.983	22531
375.066	3577
375.148	949
375.231	964
375.313	1601
375.395	661
375.478	715
375.560	1010
375.643	860
375.725	3810
375.807	15142
375.890	9837
375.972	-22
376.054	569
376.136	1266
376.219	269
376.301	3406
376.383	9314
376.465	2910
376.548	-158
376.630	2075
376.712	6586
376.794	2410
376.877	557
376.959	-526
377.041	193
377.123	94
377.205	-378
377.287	-1111
377.369	-227
377.452	-777
377.534	357
377.616	-84
377.698	-1197
377.780	-512
377.862	117
377.944	569
378.026	-973
378.108	385
378.190	-156
378.272	1099
378.354	-798
378.436	205
378.518	-1014
378.600	628
378.682	116
378.764	1462
378.846	1953
378.928	275
379.010	-702
379.091	1122
379.173	257
379.255	-953
379.337	-508
379.419	425
379.501	3548
379.583	1179
379.664	37
379.746	-636
379.828	2645
379.910	1832
379.991	2997
380.073	-16
380.155	465
380.237	515
380.318	-143
380.400	866
380.482	583
380.564	736
380.645	233
380.727	-105
380.809	1116
380.890	-57
380.972	-1340
381.053	-281
381.135	398
381.217	-200
381.298	2883
381.380	567
381.461	806
381.543	6530
381.624	9186
381.706	651
381.787	145
381.869	861
381.951	4967
382.032	22936
382.113	14911
382.195	45
382.276	1614
382.358	1151
382.439	4333
382.521	10006
382.602	17316
382.684	5748
382.765	6919
382.846	5435
382.928	5933
383.009	2130
383.090	2194
383.172	6951
383.253	12136
383.334	6041
383.416	9911
383.497	4959
383.578	989
383.659	1645
383.741	6698
383.822	19743
383.903	8544
383.984	4024
384.066	11016
384.147	5068
384.228	1654
384.309	1628
384.390	973
384.471	1125
384.553	355
384.634	803
384.715	1375
384.796	-241
384.877	475
384.958	2582
385.039	1080
385.120	13
385.201	1958
385.282	403
385.363	1214
385.444	564
385.525	2005
385.606	6000
385.687	4637
385.768	1582
385.849	877
385.930	9792
386.011	20498
386.092	4358
386.173	1593
386.254	1555
386.335	1859
386.416	994
386.496	986
386.577	2756
386.658	204
386.739	-455
386.820	1289
386.901	90
386.981	1924
387.062	979
387.143	1401
387.224	3668
387.304	4134
387.385	2736
387.466	701
387.547	2161
387.627	1151
387.708	2389
387.789	6258
387.869	6775
387.950	3473
388.031	983
388.111	-585
388.192	1303
388.273	2327
388.353	1357
388.434	674
388.514	1289
388.595	7783
388.676	8020
388.756	2791
388.837	2470
388.917	1935
388.998	-472
389.078	2007
389.159	809
389.239	73
389.320	2971
389.400	-329
389.480	2368
389.561	2065
389.641	2408
389.722	1342
389.802	951
389.883	2090
389.963	5054
390.043	2610
390.124	332
390.204	2577
390.284	4396
390.365	5372
390.445	29070
390.525	158920
390.605	142397
390.686	18807
390.766	5391
390.846	3659
390.927	2002
391.007	1315
391.087	2594
391.167	1186
391.247	293
391.328	2206
391.408	2831
391.488	2612
391.568	1152
391.648	2478
391.728	3610
391.808	3785
391.888	2126
391.969	3103
392.049	3758
392.129	4312
392.209	4303
392.289	7498
392.369	5701
392.449	6069
392.529	5359
392.609	8426
392.689	8259
392.769	12692
392.849	13335
392.929	16730
393.009	22806
393.089	35484
393.169	71507
393.248	243273
393.328	795076
393.408	803569
393.488	235478
393.568	67447
393.648	33792
393.728	20673
393.807	15573
393.887	14448
393.967	13568
394.047	13808
394.127	18193
394.206	33904
394.286	124413
394.366	498359
394.446	523338
394.525	135411
394.605	34243
394.685	18893
394.764	13424
394.844	10741
394.924	10847
395.003	8345
395.083	8324
395.163	7238
395.242	7009
395.322	7183
395.402	6481
395.481	9025
395.561	8732
395.640	14850
395.720	21667
395.799	19279
395.879	25429
395.958	52582
396.038	191735
396.117	638226
396.197	680932
396.276	216900
396.356	63964
396.435	34063
396.515	28729
396.594	31180
396.673	61620
396.753	248405
396.832	705705
396.912	458215
396.991	94834
397.070	31663
397.150	16471
397.229	12790
397.308	14363
397.388	22385
397.467	11628
397.546	7399
397.625	2839
397.705	5319
397.784	3272
397.863	3247
397.942	2636
398.022	1907
398.101	1202
398.180	2641
398.259	1183
398.338	1896
398.417	1131
398.497	1406
398.576	1967
398.655	175
398.734	1425
398.813	914
398.892	1756
398.971	1144
399.050	-168
399.129	566
399.208	1132
399.287	848
399.366	470
399.445	619
399.524	1093
399.603	-1416
399.682	1113
399.761	333
399.840	1235
399.919	593
399.998	-348
400.077	-828
400.156	-578
400.235	1885
400.313	-421
400.392	-624
400.471	1523
400.550	2335
400.629	-325
400.708	655
400.786	-544
400.865	-772
400.944	-938
401.023	1468
401.102	-786
401.180	391
401.259	217
401.338	-276
401.416	-396
401.495	-348
401.574	347
401.652	-566
401.731	849
401.810	-1105
401.888	221
401.967	-537
402.046	559
402.124	-438
402.203	-858
402.281	304
402.360	-1105
402.438	432
402.517	-1389
402.596	17
402.674	-381
402.753	-212
402.831	540
402.910	1115
402.988	481
403.066	4084
403.145	4083
403.223	3127
403.302	5359
403.380	3428
403.459	2763
403.537	400
403.615	-147
403.694	-704
403.772	710
403.850	-421
403.929	17
404.007	-553
404.085	1857
404.164	-204
404.242	839
404.320	2576
404.398	9887
404.477	7633
404.555	11381
404.633	9594
404.711	6111
404.789	4748
404.868	92
404.946	86
405.024	503
405.102	-273
405.180	-724
405.258	-629
405.336	-223
405.415	-929
405.493	-540
405.571	176
405.649	-817
405.727	-1231
405.805	502
405.883	157
405.961	168
406.039	-241
406.117	-1143
406.195	162
406.273	-245
406.351	7041
406.429	4574
406.507	-727
406.585	-316
406.663	-135
406.740	-249
406.818	-897
406.896	-898
406.974	162
407.052	-184
407.130	3531
407.208	4351
407.285	1421
407.363	-134
407.441	173
407.519	584
407.596	2806
407.674	25193
407.752	116921
407.830	81832
407.907	8700
407.985	1214
408.063	172
408.141	-422
408.218	254
408.296	-361
408.373	-25
408.451	478
408.529	271
408.606	-347
408.684	89
408.762	567
408.839	-807
408.917	7
408.994	-487
409.072	-855
409.149	206
409.227	1001
409.304	1720
409.382	2082
409.459	1953
409.537	3792
409.614	3217
409.692	1721
409.769	1982
409.846	2952
409.924	5200
410.001	1565
410.079	691
410.156	1672
410.233	1712
410.311	1462
410.388	1089
410.465	692
410.543	-388
410.620	574
410.697	834
410.775	-142
410.852	-993
410.929	428
411.006	681
411.083	-154
411.161	-594
411.238	184
411.315	-665
411.392	-70
411.469	736
411.547	417
411.624	-1227
411.701	-467
411.778	-447
411.855	152
411.932	-431
412.009	-495
412.086	-217
412.163	216
412.240	-930
412.317	133
412.394	-1026
412.471	520
412.548	-817
412.625	-802
412.702	-1009
412.779	-741
412.856	-840
412.933	-227
413.010	-255
413.087	826
413.164	-396
413.241	1386
413.318	-991
413.395	169
413.471	-850
413.548	-319
413.625	-496
413.702	-1312
413.779	-997
413.855	-279
413.932	-1161
414.009	-1360
414.086	-1240
414.162	-254
414.239	-1078
414.316	442
414.393	1967
414.469	-686
414.546	-1034
414.623	-860
414.699	-784
414.776	-672
414.853	-1103
414.929	-33
415.006	-721
415.082	-615
415.159	-854
415.236	144
415.312	119
415.389	-80
415.465	-948
415.542	-131
415.618	-1231
415.695	-357
415.771	-1301
415.848	-323
415.924	-706
416.000	-638
416.077	425
416.153	-1246
416.230	-1548
416.306	-1301
416.383	-1476
416.459	368
416.535	-1149
416.612	-1099
416.688	-663
416.764	-1128
416.841	-1279
416.917	-997
416.993	-84
417.069	-358
417.146	116
417.222	1462
417.298	209
417.374	-553
417.451	150
417.527	-954
417.603	-1237
417.679	-531
417.755	-628
417.831	-1068
417.908	-544
417.984	-708
418.060	-1726
418.136	-942
418.212	-278
418.288	-757
418.364	27
418.440	-1685
418.516	82
418.592	-1008
418.668	-190
418.744	-539
418.820	-75
418.896	-332
418.972	-1697
419.048	-601
419.124	10
419.200	-1809
419.276	-916
419.352	-799
419.428	-1044
419.504	-867
419.579	-1063
419.655	-116
419.731	-408
419.807	-346
419.883	270
419.959	-237
420.034	-653
420.110	-139
420.186	437
420.262	763
420.337	-817
420.413	367
420.489	71
420.565	1014
420.640	-168
420.716	740
420.792	-1200
420.867	788
420.943	-493
421.019	-497
421.094	-1021
421.170	23
421.245	78
421.321	548
421.397	1877
421.472	20151
421.548	66792
421.623	34373
421.699	3659
421.774	1503
421.850	768
421.925	2152
422.001	1746
422.076	2672
422.152	2540
422.227	3885
422.302	7585
422.378	11861
422.453	22110
422.529	63354
422.604	215139
422.679	370085
422.755	224089
422.830	67162
422.905	25115
422.981	12563
423.056	8340
423.131	6287
423.207	3016
423.282	2926
423.357	2242
423.432	1783
423.508	2117
423.583	1257
423.658	479
423.733	36
423.808	694
423.883	1257
423.959	695
424.034	859
424.109	895
424.184	85
424.259	346
424.334	-767
424.409	-1093
424.484	-53
424.559	-606
424.634	-192
424.709	-440
424.784	248
424.859	-411
424.934	-1036
425.009	371
425.084	657
425.159	-803
425.234	-121
425.309	-1298
425.384	-313
425.459	-1487
425.534	-788
425.609	-1715
425.683	-925
425.758	-776
425.833	-824
425.908	-3
425.983	-886
426.058	968
426.132	-211
426.207	-757
426.282	141
426.357	-1619
426.431	-900
426.506	-329
426.581	-1138
426.655	-927
426.730	-916
426.805	-1495
426.879	-358
426.954	-473
427.029	-818
427.103	636
427.178	3534
427.253	1440
427.327	-1166
427.402	-1358
427.476	-759
427.551	-1100
427.625	-418
427.700	-484
427.774	-1842
427.849	605
427.923	-801
427.998	-1124
428.072	-1139
428.147	1376
428.221	17801
428.296	68301
428.370	37205
428.444	2897
428.519	-185
428.593	-681
428.667	415
428.742	294
428.816	3587
428.890	34944
428.965	58590
429.039	12272
429.113	521
429.188	-888
429.262	-140
429.336	-453
429.410	22
429.485	-45
429.559	-183
429.633	410
429.707	314
429.781	3375
429.855	30179
429.930	47812
430.004	9719
430.078	3296
430.152	18460
430.226	102964
430.300	103182
430.374	13815
430.448	2432
430.522	111
430.596	1270
430.670	7291
430.744	48081
430.818	55060
430.892	7462
430.966	-32
431.040	172
431.114	-1177
431.188	-940
431.262	-818
431.336	-1249
431.410	-504
431.484	-1549
431.557	-326
431.631	-690
431.705	561
431.779	12332
431.853	64833
431.927	43252
432.000	4607
432.074	576
432.148	-225
432.222	-425
432.295	-653
432.369	-564
432.443	-912
432.516	781
432.590	4207
432.664	746
432.737	-591
432.811	-1020
432.885	-1106
432.958	-304
433.032	-1482
433.106	-1117
433.179	-395
433.253	-532
433.326	-394
433.400	-1250
433.473	-95
433.547	-1311
433.620	-1045
433.694	-1395
433.767	-369
433.841	-1190
433.914	-1325
433.988	-541
434.061	-1265
434.134	-1190
434.208	-1605
434.281	-1264
434.355	-1544
434.428	-1179
434.501	-1688
434.575	-1249
434.648	-1162
434.721	-1467
434.795	-1487
434.868	-1014
434.941	-1435
435.014	-353
435.088	-761
435.161	-757
435.234	-1331
435.307	-1174
435.381	-1036
435.454	-13
435.527	1576
435.600	1168
435.673	757
435.746	117
435.819	-664
435.892	49
435.966	-838
436.039	-762
436.112	-1122
436.185	-603
436.258	-1101
436.331	-1709
436.404	-1384
436.477	-1564
436.550	-1150
436.623	-972
436.696	-1323
436.769	-1086
436.842	-1596
436.915	-983
436.987	-1441
437.060	-692
437.133	-1034
437.206	-1350
437.279	-376
437.352	-1543
437.425	-1544
437.498	-1348
437.570	-823
437.643	-990
437.716	-1849
437.789	-1241
437.861	-325
437.934	-317
438.007	-1573
438.080	-1109
438.152	-857
438.225	-388
438.298	2127
438.370	10078
438.443	2762
438.516	-134
438.588	-751
438.661	-1142
438.734	-1075
438.806	-1371
438.879	-132
438.951	-1509
439.024	-1530
439.096	-942
439.169	-1274
439.241	-1698
439.314	-1101
439.386	-2004
439.459	-1025
439.531	-1644
439.604	-1060
439.676	-1008
439.749	-880
439.821	-1117
439.893	-800
439.966	-967
440.038	-1944
440.110	-1029
440.183	-983
440.255	-1204
440.327	-479
440.400	-310
440.472	3026
440.544	1378
440.617	-443
440.689	-52
440.761	-505
440.833	-1266
440.905	-513
440.978	-1490
441.050	-1081
441.122	-767
441.194	-1824
441.266	-1151
441.338	-1016
441.411	-551
441.483	-288
441.555	503
441.627	77
441.699	-631
441.771	-1740
441.843	-252
441.915	-1326
441.987	-841
442.059	-1250
442.131	-295
442.203	545
442.275	-320
442.347	669
442.419	4021
442.491	27775
442.563	69613
442.635	27431
442.706	3556
442.778	1280
442.850	252
442.922	-1169
442.994	553
443.066	-271
443.137	-207
443.209	50
443.281	2443
443.353	6421
443.425	35227
443.496	137223
443.568	131671
443.640	44274
443.711	7111
443.783	1540
443.855	364
443.926	-182
443.998	222
444.070	-481
444.141	-410
444.213	-858
444.285	-175
444.356	-1073
444.428	-467
444.499	-967
444.571	-1323
444.642	-929
444.714	-1214
444.785	-353
444.857	-928
444.928	-472
445.000	-447
445.071	266
445.143	442
445.214	1435
445.285	4732
445.357	16249
445.428	88664
445.500	217367
445.571	125936
445.642	60001
445.714	14512
445.785	3636
445.856	884
445.928	511
445.999	-1225
446.070	-568
446.141	-740
446.213	-1242
446.284	-707
446.355	-192
446.426	-559
446.497	-72
446.569	-738
446.640	-662
446.711	-1196
446.782	-636
446.853	-560
446.924	-151
446.995	-569
447.066	-1037
447.138	-1143
447.209	-1023
447.280	-939
447.351	-782
447.422	-1429
447.493	-1125
447.564	-1265
447.635	-1162
447.706	-999
447.777	-1079
447.847	-495
447.918	-976
447.989	-1055
448.060	-589
448.131	-1156
448.202	-1067
448.273	-1240
448.344	-978
448.414	-548
448.485	-831
448.556	-647
448.627	-1151
448.698	-384
448.768	-902
448.839	-660
448.910	-1245
448.981	-898
449.051	-948
449.122	-1105
449.193	-673
449.263	258
449.334	-1164
449.405	-747
449.475	151
449.546	-178
449.616	22
449.687	546
449.758	0
449.828	-807
449.899	-996
449.969	-787
450.040	-871
450.110	109
450.181	269
450.251	-697
450.322	-185
450.392	-531
450.463	-409
450.533	-870
450.604	-202
450.674	-722
450.744	437
450.815	-894
450.885	-269
450.955	-2
451.026	-1813
451.096	-1184
451.166	-859
451.237	-585
451.307	-322
451.377	-761
451.447	-352
451.518	-993
451.588	-1204
451.658	77
451.728	-696
451.799	-474
451.869	642
451.939	-1240
452.009	-336
452.079	-201
452.149	-1007
452.219	-1035
452.289	-603
452.360	-834
452.430	-97
452.500	-875
452.570	503
452.640	2083
452.710	4521
452.780	5770
452.850	2756
452.920	714
452.990	523
453.060	9
453.129	-625
453.199	-323
453.269	-453
453.339	-349
453.409	-257
453.479	56
453.549	46
453.619	-823
453.688	-859
453.758	11
453.828	-116
453.898	-129
453.968	-636
454.037	-314
454.087	-609
454.107	-742
454.168	-682
454.177	-688
454.247	-207
454.249	-218
454.316	-820
454.330	-855
454.386	-1039
454.411	-1249
454.456	-1699
454.492	-545
454.525	469
454.574	65
454.595	-123
454.655	-371
454.665	-434
454.734	-39
454.736	-45
454.804	-722
454.817	-594
454.873	-138
454.898	-261
454.943	-513
454.979	-382
455.013	-275
455.060	-129
455.082	-65
455.141	-527
455.152	-579
455.221	219
455.222	262
455.291	2794
455.303	4061
455.360	8753
455.384	14458
455.430	23062
455.465	16236
455.499	10235
455.546	3707
455.569	889
455.627	225
455.638	88
455.707	-234
455.708	-222
455.777	-453
455.789	-336
455.846	147
455.869	96
455.916	-11
455.950	-154
455.985	-317
456.031	-582
456.054	-748
456.112	-435
456.124	-378
456.193	-116
456.193	-127
456.262	-82
456.274	-9
456.332	145
456.355	-55
456.401	-537
456.436	-466
456.470	-400
456.516	-473
456.540	-472
456.597	-553
456.609	-605
456.678	-185
456.678	-193
456.747	36
456.759	-50
456.817	-513
456.840	-495
456.886	-530
456.920	-208
456.955	79
457.001	77
457.024	69
457.082	-219
457.093	-241
457.162	443
457.163	452
457.232	-91
457.243	31
457.301	196
457.324	171
457.370	348
457.405	356
457.439	284
457.485	220
457.508	278
457.566	964
457.577	1097
457.646	1361
457.647	1378
457.715	2953
457.727	3282
457.784	5494
457.808	7443
457.853	10017
457.889	12068
457.922	12387
457.969	8095
457.991	7773
458.050	8772
458.060	9012
458.129	15997
458.130	16222
458.198	18083
458.211	16426
458.267	9292
458.292	6509
458.336	4088
458.372	3634
458.405	4462
458.453	6108
458.474	7707
458.533	15327
458.543	16015
458.611	27827
458.614	27997
458.680	19374
458.694	15569
458.749	7183
458.775	5276
458.818	2917
458.855	2070
458.887	1357
458.936	892
458.955	830
459.016	649
459.024	642
459.093	1599
459.097	1591
459.162	1091
459.177	1080
459.230	981
459.257	955
459.299	1261
459.338	1691
459.368	1602
459.418	1457
459.437	1558
459.499	1301
459.505	1235
459.574	867
459.579	864
459.643	1030
459.659	1041
459.711	1132
459.740	1241
459.780	1060
459.820	1088
459.849	1184
459.900	1004
459.917	1091
459.981	1115
459.986	1072
460.054	1148
460.061	1180
460.123	1663
460.141	1668
460.191	1388
460.222	1290
460.260	1665
460.302	2088
460.328	2261
460.382	2901
460.397	3044
460.462	3739
460.465	3945
460.534	8140
460.543	8783
460.602	34019
460.623	43782
460.671	70602
460.703	96840
460.739	91502
460.783	76377
460.808	65136
460.864	14253
460.876	9758
460.944	2524
460.945	2452
461.013	2381
461.024	2392
461.081	2253
461.104	2164
461.150	1487
461.184	1062
461.218	1392
461.264	1693
461.286	1557
461.345	1553
461.355	1639
461.423	1914
461.425	1916
461.491	993
461.505	895
461.559	1343
461.585	1678
461.628	1899
461.665	1911
461.696	1808
461.745	1273
461.764	1097
461.825	1094
461.832	1154
461.901	1638
461.905	1668
461.969	1269
461.985	1107
462.037	1820
462.065	2269
462.105	1523
462.145	964
462.173	1281
462.225	1444
462.241	1397
462.305	1556
462.310	1536
462.378	1075
462.385	1033
462.446	1480
462.465	1583
462.514	1702
462.545	2011
462.582	1939
462.625	1527
462.650	1587
462.705	1774
462.718	1746
462.785	1568
462.786	1561
462.854	1130
462.865	1082
462.922	1496
462.945	1629
462.990	1777
463.025	1786
463.058	1375
463.104	1115
463.126	1401
463.184	1960
463.194	1917
463.262	1238
463.264	1237
463.330	1754
463.344	1752
463.398	1921
463.424	2026
463.466	1614
463.504	1402
463.533	1578
463.583	1691
463.601	1757
463.663	1868
463.669	1829
463.737	1893
463.743	1841
463.805	1694
463.823	1719
463.873	1920
463.903	2068
463.940	2147
463.982	2138
464.008	2126
464.062	2100
464.076	2126
464.142	2160
464.144	2161
464.211	2134
464.221	2132
464.279	1696
464.301	1514
464.347	1301
464.381	1128
464.414	1773
464.461	2729
464.482	2429
464.540	1355
464.550	1415
464.617	2021
464.620	2039
464.685	3727
464.699	4121
464.753	6275
464.779	7280
464.820	8702
464.859	10104
464.888	8872
464.938	6475
464.956	6494
465.018	6535
465.023	6573
465.091	6895
465.098	6929
465.158	6498
465.177	6391
465.226	6020
465.257	5668
465.293	5587
465.336	5499
465.361	5667
465.416	6038
465.428	6096
465.495	6436
465.496	6443
465.563	5877
465.575	5813
465.631	6340
465.654	6522
465.698	6552
465.734	6502
465.765	6394
465.813	6170
465.833	6339
465.893	6965
465.900	6937
465.968	6559
465.972	6520
466.035	6866
466.052	6960
466.102	7233
466.131	7323
466.170	7676
466.210	8069
466.237	8213
466.290	8515
466.304	8744
466.369	9557
466.372	9587
466.439	10145
466.449	10187
466.506	10535
466.528	10673
466.573	11018
466.607	11204
466.641	11230
466.687	11276
466.708	11356
466.766	11453
466.775	11658
466.842	13094
466.845	13142
466.909	13168
466.925	13132
466.977	12886
467.004	12736
467.044	12517
467.083	12240
467.111	13852
467.163	16842
467.178	17187
467.242	18493
467.245	18369
467.312	15172
467.321	14724
467.379	12679
467.400	11903
467.446	11888
467.480	11844
467.559	12017
467.638	11198
467.717	9702
467.796	10526
467.875	9419
467.955	9263
468.034	9059
468.113	9009
468.192	9452
468.271	9680
468.350	9894
468.429	11320
468.508	11982
468.588	9209
468.667	7465
468.746	7892
468.825	7729
468.904	7161
468.983	7476
469.062	6946
469.141	6567
469.220	6809
469.299	7616
469.378	9568
469.456	13509
469.535	11750
469.614	9882
469.693	9242
469.772	9320
469.851	9301
469.930	8808
470.009	9856
470.088	7778
470.166	8201
470.245	7755
470.324	8702
470.403	8006
470.482	8949
470.560	7061
470.639	6605
470.718	7767
470.797	6774
470.875	7659
470.954	6394
471.033	7027
471.111	6316
471.190	6737
471.269	6117
471.347	6297
471.426	7380
471.505	8339
471.583	10364
471.662	10007
471.740	8715
471.819	8084
471.898	7918
471.976	7356
472.055	8093
472.133	9524
472.212	9989
472.290	7176
472.369	6792
472.447	8363
472.526	6866
472.604	8085
472.683	6446
472.761	5956
472.839	6122
472.918	6426
472.996	5079
473.075	6026
473.153	5926
473.231	5893
473.310	6244
473.388	5948
473.466	6931
473.545	7351
473.623	8810
473.701	6608
473.780	7020
473.858	5717
473.936	7988
474.014	6284
474.093	7631
474.171	7451
474.249	7695
474.327	5834
474.405	5058
474.484	5233
474.562	5562
474.640	5453
474.718	7408
474.796	8717
474.874	7919
474.952	6147
475.030	7035
475.108	7461
475.187	9755
475.265	8886
475.343	8301
475.421	7822
475.499	6772
475.577	6392
475.655	6013
475.733	5511
475.811	5071
475.889	5800
475.966	5914
476.044	4908
476.122	4264
476.200	4795
476.278	4789
476.356	4014
476.434	5726
476.512	4418
476.590	4765
476.667	4856
476.745	3933
476.823	4885
476.901	3713
476.979	4752
477.056	4885
477.134	4050
477.212	4521
477.290	5028
477.367	4860
477.445	4590
477.523	4198
477.601	3938
477.678	3528
477.756	4916
477.834	3607
477.911	3892
477.989	3382
478.066	3095
478.144	4186
478.222	4068
478.299	3918
478.377	4771
478.454	4564
478.532	3085
478.609	3568
478.687	4662
478.764	3211
478.842	3814
478.919	2860
478.997	3112
479.074	4267
479.152	2854
479.229	3675
479.307	2627
479.384	2481
479.461	3741
479.539	2844
479.616	3257
479.694	3127
479.771	2273
479.848	3913
479.926	2221
480.003	3666
480.080	3432
480.157	2771
480.235	2300
480.312	3338
480.389	3429
480.467	2583
480.544	2897
480.621	3189
480.698	3016
480.775	3194
480.853	3083
480.930	2580
481.007	3327
481.084	5752
481.161	9199
481.238	6428
481.315	1445
481.392	2825
481.470	2888
481.547	1597
481.624	1727
481.701	1992
481.778	1908
481.855	1907
481.932	2475
482.009	2517
482.086	2173
482.163	2408
482.240	3518
482.317	3863
482.393	3074
482.470	1866
482.547	2745
482.624	1089
482.701	2112
482.778	2344
482.855	2128
482.932	2288
483.009	2546
483.085	4291
483.162	6079
483.239	6561
483.316	3039
483.393	2869
483.469	2334
483.546	2513
483.623	2370
483.699	1260
483.776	2531
483.853	2616
483.930	2914
484.006	4467
484.083	8363
484.160	23729
484.236	47895
484.313	35974
484.389	24015
484.466	22186
484.543	21064
484.619	20325
484.696	22651
484.772	19754
484.849	19516
484.925	19166
485.002	18351
485.078	18909
485.155	17564
485.231	17193
485.308	16294
485.384	17437
485.461	17953
485.537	15931
485.614	16849
485.690	15919
485.766	15366
485.843	14774
485.919	14693
485.995	15430
486.072	14553
486.148	15460
486.224	14389
486.301	14133
486.377	15246
486.453	14107
486.530	16570
486.606	24778
486.682	27050
486.758	22050
486.835	20625
486.911	18313
486.987	18938
487.063	18910
487.139	19875
487.215	22102
487.292	20333
487.368	17653
487.444	18324
487.520	20900
487.596	22873
487.672	31793
487.748	64416
487.824	95320
487.900	39914
487.976	19677
488.052	14251
488.128	16069
488.204	14240
488.280	13653
488.356	14658
488.432	13765
488.508	12632
488.584	12628
488.660	13039
488.736	13200
488.812	13009
488.888	15085
488.964	15562
489.039	13743
489.115	15365
489.191	15238
489.267	12957
489.343	11292
489.418	11723
489.494	11826
489.570	9674
489.646	12728
489.722	10610
489.797	10794
489.873	10310
489.949	10897
490.024	10800
490.100	9580
490.176	10182
490.251	10255
490.327	9887
490.403	9127
490.478	10026
490.554	8481
490.629	9459
490.705	7947
490.781	9933
490.856	7443
490.932	9873
491.007	8686
491.083	8630
491.158	8316
491.234	9047
491.309	8946
491.385	7399
491.460	7289
491.536	9097
491.611	7300
491.686	7825
491.762	8157
491.837	7584
491.913	9880
491.988	7546
492.063	9978
492.139	7810
492.214	7669
492.289	6445
492.365	5384
492.440	7195
492.515	5911
492.590	6021
492.666	5252
492.741	6574
492.816	5710
492.891	4362
492.967	8205
493.042	4990
493.117	6651
493.192	6502
493.267	12668
493.342	39147
493.418	58653
493.493	12651
493.568	4496
493.643	5648
493.718	6183
493.793	4493
493.868	5746
493.943	4284
494.018	5197
494.093	4259
494.168	5001
494.243	4392
494.318	4678
494.393	4942
494.468	4090
494.543	4371
494.618	4776
494.693	4119
494.768	4414
494.842	4412
494.917	3815
494.992	4671
495.067	5170
495.142	3764
495.217	3938
495.292	4388
495.366	4077
495.441	2422
495.516	3861
495.591	4280
495.665	6007
495.740	8418
495.815	5608
495.890	3458
495.964	3136
496.039	6046
496.114	6201
496.188	11012
496.263	9149
496.338	3546
496.412	4392
496.487	5679
496.561	4763
496.636	6764
496.710	6707
496.785	5592
496.860	6354
496.934	5513
497.009	6324
497.083	6943
497.158	7464
497.232	6048
497.307	9364
497.381	10284
497.455	11311
497.530	12106
497.604	12821
497.679	14033
497.753	18686
497.827	25631
497.902	30016
497.976	29850
498.050	27375
498.125	27327
498.199	33030
498.273	41359
498.348	42389
498.422	34036
498.496	27831
498.570	21823
498.645	18087
498.719	14618
498.793	12920
498.867	11553
498.941	9832
499.016	8477
499.090	8574
499.164	8243
499.238	6420
499.312	5181
499.386	6367
499.460	4935
499.534	4216
499.609	4227
499.683	3727
499.757	3134
499.831	3653
499.905	4395
499.979	4405
500.053	1721
500.127	3083
500.201	2983
500.275	1688
500.349	2676
500.422	2228
500.496	2077
500.570	3179
500.644	3122
500.718	3390
500.792	3482
500.866	2900
500.940	2690
501.013	2161
501.087	1540
501.161	1724
501.235	1153
501.309	2741
501.382	2149
501.456	3573
501.530	835
501.603	1234
501.677	1787
501.751	693
501.825	2863
501.898	2236
501.972	1312
502.046	782
502.119	698
502.193	2452
502.266	1307
502.340	1490
502.413	1692
502.487	2253
502.561	289
502.634	1440
502.708	1717
502.781	1019
502.855	2087
502.928	220
503.002	1026
503.075	1123
503.149	967
503.222	522
503.295	597
503.369	1153
503.442	1376
503.516	1356
503.589	1596
503.662	1740
503.736	1771
503.809	3435
503.882	2532
503.956	5045
504.029	8677
504.102	26191
504.175	43596
504.249	16013
504.322	5691
504.395	2265
504.468	1764
504.542	258
504.615	918
504.688	2171
504.761	-1114
504.834	1573
504.907	1949
504.980	1065
505.053	735
505.127	-1468
505.200	3018
505.273	387
505.346	370
505.419	248
505.492	1433
505.565	833
505.638	2053
505.711	308
505.784	-134
505.857	-85
505.930	991
506.003	-400
506.076	2222
506.149	202
506.221	-1250
506.294	1914
506.367	-739
506.440	450
506.513	1005
506.586	750
506.659	-541
506.731	504
506.804	136
506.877	237
506.950	655
507.022	1217
507.095	-895
507.168	734
507.241	1086
507.313	360
507.386	-1172
507.459	987
507.531	182
507.604	-407
507.677	1758
507.749	-746
507.822	2209
507.894	7337
507.967	15444
508.040	7777
508.112	7070
508.185	5378
508.257	4116
508.330	5514
508.402	3301
508.475	3741
508.547	5168
508.620	4162
508.692	4213
508.765	4530
508.837	3234
508.909	3916
508.982	3655
509.054	3426
509.127	3825
509.199	3010
509.271	2504
509.344	2841
509.416	3459
509.488	3120
509.560	3369
509.633	2861
509.705	3360
509.777	2529
509.849	4062
509.922	2763
509.994	3630
510.066	4648
510.138	4777
510.210	17042
510.283	13263
510.355	10133
510.427	8739
510.499	7150
510.571	6904
510.643	5725
510.715	8114
510.787	4692
510.859	7429
510.931	6479
511.003	6482
511.076	6345
511.148	5613
511.219	5483
511.291	5681
511.363	6163
511.435	5184
511.507	5218
511.579	6148
511.651	6861
511.723	4799
511.795	4999
511.867	5192
511.939	5049
512.010	4650
512.082	5422
512.154	3308
512.226	6097
512.298	11157
512.369	15725
512.441	11957
512.513	9584
512.585	7819
512.656	8085
512.728	6729
512.800	6148
512.871	7517
512.943	6889
513.015	6478
513.086	6782
513.158	7098
513.230	5618
513.301	5534
513.373	6336
513.444	6296
513.516	5101
513.588	5640
513.659	5657
513.731	5250
513.802	3654
513.874	7988
513.945	6054
514.016	4653
514.088	5136
514.159	4369
514.231	6551
514.302	12242
514.374	11308
514.445	7733
514.516	8913
514.588	7087
514.659	7394
514.730	6644
514.802	8827
514.873	12617
514.944	15301
515.016	10109
515.087	7998
515.158	7409
515.229	10254
515.301	15368
515.372	24719
515.443	13130
515.514	10089
515.585	6254
515.656	7503
515.728	5940
515.799	4667
515.870	6055
515.941	5186
516.012	5435
516.083	9848
516.154	8640
516.225	7172
516.296	8228
516.367	5509
516.438	5176
516.509	4972
516.580	5481
516.651	8740
516.722	11051
516.793	8798
516.864	5147
516.935	5199
517.006	6089
517.077	5314
517.148	6736
517.219	11658
517.289	16610
517.360	5646
517.431	6129
517.502	4499
517.573	5063
517.643	5024
517.714	6077
517.785	6878
517.856	4705
517.926	7118
517.997	5093
518.068	4455
518.138	6177
518.209	4775
518.280	8610
518.350	25624
518.421	14376
518.492	7391
518.562	7000
518.633	8412
518.703	8762
518.774	20984
518.845	53451
518.915	55905
518.986	16124
519.056	8630
519.127	8630
519.197	7608
519.268	5919
519.338	4448
519.408	4022
519.479	4616
519.549	3068
519.620	5337
519.690	2982
519.760	4119
519.831	2192
519.901	3060
519.971	3112
520.042	2656
520.112	1917
520.182	4033
520.253	3298
520.323	3395
520.393	3762
520.463	5448
520.534	43
520.604	4750
520.674	3796
520.744	1821
520.814	2082
520.885	3995
520.955	2979
521.025	3046
521.095	2413
521.165	4120
521.235	2317
521.305	1848
521.375	2954
521.445	2433
521.515	1990
521.585	3149
521.655	1126
521.725	3406
521.795	4823
521.865	303
521.935	4692
522.005	2425
522.075	1611
522.145	3995
522.215	1577
522.285	3299
522.355	1595
522.424	2394
522.494	1769
522.564	3215
522.634	3719
522.704	4822
522.774	1490
522.843	2500
522.913	2341
522.983	1741
523.053	837
523.122	2144
523.192	1342
523.262	2443
523.331	1441
523.401	3202
523.471	2397
523.540	2661
523.610	425
523.680	2136
523.749	1773
523.819	3987
523.888	1561
523.958	1508
524.027	1801
524.097	1105
524.166	1500
524.236	646
524.305	2586
524.375	864
524.444	452
524.514	2982
524.583	1000
524.653	852
524.722	1960
524.791	409
524.861	3050
524.930	623
524.999	1009
525.069	2095
525.138	1210
525.207	978
525.277	1889
525.346	1727
525.415	2706
525.484	2786
525.554	745
525.623	3283
525.692	5787
525.761	4188
525.830	5602
525.900	6527
525.969	9201
526.038	17097
526.107	34983
526.176	117965
526.245	103843
526.314	28546
526.383	54717
526.452	82812
526.522	137927
526.591	146770
526.660	21770
526.729	13186
526.797	15175
526.867	16774
526.935	58043
527.004	269222
527.073	192367
527.142	17246
527.211	5320
527.280	4590
527.349	2814
527.418	1227
527.487	2390
527.555	220
527.624	1363
527.693	-539
527.762	1821
527.831	352
527.899	1249
527.968	996
528.037	-1128
528.106	1958
528.174	499
528.243	1422
528.312	480
528.380	725
528.449	172
528.518	1592
528.586	-104
528.655	1270
528.723	99
528.792	594
528.861	-447
528.929	-150
528.998	1223
529.066	-261
529.135	881
529.203	586
529.272	-1514
529.340	1012
529.409	1195
529.477	180
529.545	-499
529.614	2510
529.682	-1874
529.751	241
529.819	1779
529.887	-87
529.956	-931
530.024	643
530.092	-304
530.161	223
530.229	528
530.297	-501
530.365	424
530.434	1154
530.502	-756
530.570	187
530.638	-1738
530.707	578
530.775	706
530.843	-74
530.911	-132
530.979	413
531.047	-94
531.115	668
531.183	457
531.252	533
531.320	-180
531.388	-386
531.456	713
531.524	-1451
531.592	1642
531.660	2103
531.728	-204
531.796	-186
531.864	76
531.932	-569
532.000	-280
532.067	274
532.135	397
532.203	1569
532.271	-858
532.339	989
532.407	811
532.475	1546
532.542	581
532.610	-13
532.678	-767
532.746	2460
532.814	5235
532.881	960
532.949	559
533.017	-68
533.084	5
533.152	-107
533.220	808
533.287	-1027
533.355	-4
533.423	210
533.490	-189
533.558	247
533.625	545
533.693	1616
533.761	1197
533.828	2011
533.896	-349
533.963	2133
534.031	1271
534.098	1417
534.166	1188
534.233	-418
534.300	1861
534.368	1342
534.435	414
534.503	2200
534.570	2266
534.637	1997
534.705	3875
534.772	4865
534.840	7720
534.907	50499
534.974	74443
535.041	8430
535.109	490
535.176	522
535.243	1517
535.310	771
535.378	110
535.445	313
535.512	311
535.579	1127
535.646	44
535.714	2008
535.781	3409
535.848	2949
535.915	2547
535.982	1520
536.049	1199
536.116	1726
536.183	636
536.250	1348
536.317	466
536.384	2161
536.451	1677
536.518	1251
536.585	460
536.652	2524
536.719	1552
536.786	-666
536.853	701
536.920	2351
536.987	1079
537.053	-310
537.120	2648
537.187	2898
537.254	605
537.321	1256
537.388	1736
537.454	716
537.521	227
537.588	898
537.654	2435
537.721	4144
537.788	4279
537.855	1672
537.921	1152
537.988	1802
538.055	2120
538.121	692
538.188	1028
538.254	1693
538.321	1696
538.388	2436
538.454	1592
538.521	894
538.587	1512
538.654	1622
538.720	496
538.787	1919
538.853	707
538.920	1414
538.986	940
539.053	723
539.119	1602
539.185	1946
539.252	2572
539.318	1714
539.385	2785
539.451	2700
539.517	3219
539.583	3377
539.650	1729
539.716	2570
539.782	1829
539.849	1967
539.915	2424
539.981	15
540.047	1277
540.114	1803
540.180	3031
540.246	570
540.312	1518
540.378	2329
540.444	3448
540.510	3089
540.576	2997
540.643	1543
540.709	1336
540.775	2113
540.841	812
540.907	2277
540.973	4768
541.039	3799
541.105	2784
541.171	2212
541.237	1649
541.303	3169
541.369	4133
541.435	2715
541.500	2225
541.566	268
541.632	1553
541.698	1052
541.764	2288
541.830	2339
541.896	463
541.961	2796
542.027	763
542.093	1844
542.159	2898
542.224	1155
542.290	4238
542.356	2364
542.421	2734
542.487	3220
542.553	2520
542.618	2219
542.684	1855
542.750	2036
542.815	2454
542.881	1585
542.947	2703
543.012	3220
543.078	1345
543.143	1418
543.209	2247
543.274	1941
543.340	2120
543.405	2549
543.471	2221
543.536	2678
543.602	1915
543.667	1905
543.732	2931
543.798	717
543.863	2666
543.928	2531
543.994	1429
544.059	1892
544.124	2216
544.190	1913
544.255	3206
544.320	3145
544.386	634
544.451	2467
544.516	2829
544.581	2720
544.646	3152
544.712	5219
544.777	3523
544.842	3249
544.907	2009
544.972	2431
545.037	2157
545.102	4309
545.168	2680
545.233	2311
545.298	3272
545.363	3435
545.428	3197
545.493	3693
545.558	2370
545.623	2379
545.688	1607
545.753	3324
545.818	2486
545.883	3288
545.947	2339
546.012	2537
546.077	2160
546.142	3913
546.207	3090
546.272	3960
546.337	3127
546.401	4617
546.466	5197
546.531	2631
546.596	3992
546.661	4059
546.725	4974
546.790	3696
546.855	4965
546.919	3218
546.984	5326
547.049	5605
547.113	6511
547.178	6879
547.243	9124
547.307	9184
547.372	10252
547.436	9812
547.501	9957
547.565	10889
547.630	10964
547.695	10179
547.759	11129
547.823	11098
547.888	10876
547.952	11293
548.017	12174
548.081	16427
548.146	13076
548.210	11945
548.274	11319
548.339	11801
548.403	10365
548.468	10733
548.532	9766
548.596	10824
548.660	10498
548.725	11800
548.789	11490
548.853	13307
548.917	11738
548.982	10890
549.046	9757
549.110	9333
549.174	8747
549.238	10861
549.303	11360
549.367	13607
549.431	10913
549.495	11594
549.559	10538
549.623	13356
549.687	13949
549.751	13830
549.815	15777
549.879	18401
549.943	14272
550.007	17192
550.071	16080
550.135	14447
550.199	13301
550.263	14184
550.327	13663
550.391	15047
550.455	15877
550.519	16324
550.582	17748
550.646	18757
550.710	19254
550.774	19485
550.838	19879
550.901	19579
550.965	22162
551.029	22192
551.093	25712
551.156	27877
551.220	33194
551.284	41481
551.347	30261
551.411	22672
551.475	20544
551.538	21148
551.602	19708
551.666	18419
551.729	15683
551.793	16701
551.856	16246
551.920	16072
551.983	15918
552.047	14589
552.110	15335
552.174	16666
552.237	15283
552.301	14756
552.364	14112
552.428	13386
552.491	12360
552.554	14144
552.618	14253
552.681	14756
552.745	13177
552.808	14483
552.871	15132
552.934	14838
552.998	13671
553.061	13746
553.124	12752
553.187	13972
553.251	13512
553.314	14608
553.377	14836
553.440	17944
553.503	31170
553.567	46251
553.630	18133
553.693	13874
553.756	13995
553.819	14148
553.882	11935
553.945	13401
554.008	14022
554.071	12613
554.134	13766
554.197	12351
554.260	12159
554.323	12560
554.386	12573
554.449	12279
554.512	13193
554.575	11656
554.638	12029
554.701	12209
554.764	12075
554.827	11277
554.889	10699
554.952	10390
555.015	10078
555.078	10435
555.141	9691
555.203	10814
555.266	10774
555.329	9841
555.391	9367
555.454	9575
555.517	9982
555.580	9958
555.642	8513
555.705	8767
555.768	9821
555.830	8591
555.893	7576
555.955	8158
556.018	7203
556.080	7739
556.143	7850
556.206	8063
556.268	6761
556.330	7664
556.393	6908
556.455	6539
556.518	6130
556.580	5897
556.643	5580
556.705	6733
556.767	4728
556.830	6284
556.892	5592
556.955	5266
557.017	5919
557.079	4806
557.142	5140
557.204	5981
557.266	6162
557.328	5396
557.391	4069
557.453	4810
557.515	4109
557.577	4645
557.639	5669
557.701	6307
557.764	4688
557.826	6281
557.888	6081
557.950	7126
558.012	8338
558.074	11488
558.136	31678
558.198	88757
558.260	32368
558.322	10363
558.384	10804
558.446	13537
558.508	15867
558.570	19259
558.632	24045
558.694	31351
558.756	53769
558.818	185345
558.880	513636
558.942	165397
559.003	99608
559.065	52385
559.127	19550
559.189	18203
559.251	19175
559.312	29253
559.374	78580
559.436	298812
559.498	158101
559.559	23506
559.621	18315
559.683	19616
559.744	31792
559.806	121924
559.868	208601
559.929	37246
559.991	16865
560.052	25885
560.114	83403
560.176	56091
560.237	43460
560.299	82155
560.360	15646
560.422	5200
560.483	3102
560.545	3114
560.606	2927
560.667	2186
560.729	1152
560.790	2276
560.852	1387
560.913	2331
560.974	2152
561.036	1236
561.097	1241
561.158	2266
561.220	1208
561.281	1025
561.342	1562
561.403	2129
561.465	1500
561.526	2623
561.587	2926
561.648	539
561.709	1016
561.771	1509
561.832	854
561.893	405
561.954	914
562.015	2085
562.076	1783
562.137	464
562.198	1902
562.259	514
562.320	1215
562.381	1232
562.442	1243
562.503	1497
562.564	1049
562.625	1767
562.686	1245
562.747	870
562.808	1186
562.869	1058
562.930	1388
562.991	538
563.051	832
563.112	1900
563.173	1020
563.234	846
563.294	1804
563.355	1490
563.416	1329
563.477	1221
563.537	968
563.598	1930
563.659	716
563.720	993
563.780	1002
563.841	883
563.901	926
563.962	935
564.023	1169
564.083	1788
564.144	1532
564.204	1388
564.265	437
564.325	1015
564.386	1411
564.446	1405
564.507	1173
564.567	1825
564.628	839
564.688	1305
564.749	1310
564.809	2504
564.869	1501
564.930	1110
564.990	2184
565.050	1614
565.111	1927
565.171	1026
565.231	2578
565.292	2440
565.352	503
565.412	2815
565.472	1272
565.532	1850
565.593	1476
565.653	1906
565.713	2008
565.773	1447
565.833	1695
565.893	3769
565.953	2301
566.013	2927
566.074	3520
566.134	3116
566.194	2411
566.254	3725
566.314	3999
566.374	3162
566.434	4756
566.494	4909
566.554	4951
566.614	5632
566.673	5678
566.733	6226
566.793	7465
566.853	6864
566.913	8528
566.973	9475
567.033	8813
567.092	7666
567.152	8268
567.212	8216
567.272	10355
567.331	10723
567.391	10454
567.451	12382
567.511	13061
567.570	12796
567.630	11230
567.690	10586
567.749	11674
567.809	13021
567.868	16212
567.928	19481
567.988	24468
568.047	29282
568.107	39376
568.166	57749
568.226	99937
568.285	144145
568.345	122700
568.404	93575
568.464	76624
568.523	69322
568.582	67760
568.642	75274
568.701	98245
568.761	152696
568.820	248657
568.879	246587
568.939	171693
568.998	122172
569.057	88267
569.116	67502
569.176	51197
569.235	41254
569.294	33748
569.353	27419
569.413	23900
569.472	19828
569.531	17748
569.590	15500
569.649	13336
569.708	12371
569.767	10644
569.827	9319
569.886	8646
569.945	7243
570.004	6774
570.063	6301
570.122	6408
570.181	6597
570.240	5458
570.299	5648
570.358	5125
570.417	4834
570.475	3780
570.534	4824
570.593	2849
570.652	3743
570.711	3563
570.770	3537
570.829	4988
570.887	4707
570.946	3817
571.005	3056
571.064	2295
571.122	2998
571.181	2108
571.240	2070
571.299	2508
571.357	2934
571.416	2246
571.475	2344
571.533	2854
571.592	2799
571.650	2747
571.709	1151
571.768	3175
571.826	2192
571.885	2106
571.943	1798
572.002	1490
572.060	1513
572.119	2472
572.177	1473
572.236	1187
572.294	1989
572.352	1863
572.411	2606
572.469	1963
572.528	1536
572.586	2197
572.644	1419
572.703	1699
572.761	1535
572.819	1349
572.877	2142
572.936	892
572.994	1926
573.052	1345
573.110	856
573.169	2286
573.227	830
573.285	2079
573.343	850
573.401	1395
573.459	1788
573.517	1113
573.576	1754
573.634	2199
573.692	1122
573.750	1307
573.808	1782
573.866	1226
573.924	1153
573.982	970
574.040	1065
574.098	1715
574.155	1086
574.213	1810
574.271	1268
574.329	1230
574.387	1113
574.445	711
574.503	1388
574.560	400
574.618	937
574.676	536
574.734	922
574.792	1140
574.849	1066
574.907	1044
574.965	1104
575.022	364
575.080	602
575.138	873
575.195	349
575.253	401
575.311	942
575.368	1575
575.426	1049
575.483	2166
575.541	1246
575.598	935
575.656	770
575.713	1356
575.771	1417
575.828	1352
575.886	1851
575.943	1897
576.001	555
576.058	164
576.115	427
576.173	1339
576.230	141
576.287	793
576.345	1571
576.402	1016
576.459	682
576.517	816
576.574	1036
576.631	1405
576.688	661
576.746	1571
576.803	958
576.860	655
576.917	1645
576.974	967
577.031	1401
577.089	1051
577.146	1186
577.203	1341
577.260	1968
577.317	1232
577.374	693
577.431	1717
577.488	1586
577.545	831
577.602	1177
577.659	1840
577.716	1782
577.773	1726
577.830	1465
577.886	782
577.943	404
578.000	956
578.057	1090
578.114	1241
578.171	2141
578.227	1986
578.284	1267
578.341	2167
578.398	1812
578.454	1997
578.511	1334
578.568	265
578.625	1177
578.681	1656
578.738	1611
578.794	1313
578.851	1469
578.908	689
578.964	1204
579.021	1210
579.077	1248
579.134	1153
579.190	777
579.247	1648
579.303	1825
579.360	1772
579.416	1444
579.473	1779
579.529	1223
579.586	1727
579.642	1811
579.698	1331
579.755	1726
579.811	2162
579.867	2295
579.924	1227
579.980	1921
580.036	3055
580.093	2692
580.149	2561
580.205	3484
580.261	3282
580.317	2200
580.374	1462
580.430	1728
580.486	1685
580.542	1535
580.598	2218
580.619	2132
580.654	1981
580.692	1979
580.710	1979
580.765	2390
580.767	2405
580.823	1803
580.838	1773
580.879	1692
580.911	1933
580.935	2109
580.984	2327
580.991	2362
581.047	3389
581.057	3107
581.103	1833
581.130	1958
581.159	2104
581.203	2300
581.215	2348
581.270	2825
581.276	2759
581.326	2083
581.349	2066
581.382	2080
581.422	1829
581.438	1703
581.494	1975
581.494	1971
581.550	1629
581.567	1848
581.606	2315
581.640	2337
581.661	2365
581.713	3034
581.717	3083
581.773	2084
581.786	2150
581.829	2336
581.859	2390
581.885	2524
581.932	2498
581.940	2456
581.996	2378
582.004	2348
582.052	2279
582.077	1909
582.107	1500
582.150	2387
582.163	2638
582.219	2266
582.223	2307
582.274	2747
582.296	2668
582.330	2616
582.368	2877
582.386	3030
582.441	3142
582.441	3141
582.497	3086
582.514	3146
582.552	3380
582.587	3326
582.608	3236
582.659	3125
582.663	3113
582.719	2724
582.732	2716
582.774	2879
582.805	2752
582.830	2578
582.877	3501
582.885	3655
582.941	3058
582.950	3232
582.996	4023
583.023	3678
583.052	3553
583.095	4039
583.107	4093
583.162	4227
583.168	4319
583.218	4969
583.240	4604
583.273	4092
583.313	4055
583.328	4152
583.384	3816
583.385	3850
583.439	4550
583.458	4470
583.494	4292
583.531	4414
583.549	4546
583.603	4131
583.605	4112
583.660	4862
583.676	4766
583.715	4739
583.748	4820
583.770	4737
583.820	5007
583.825	5056
583.881	4822
583.893	4756
583.936	4447
583.965	4685
583.991	4882
584.038	4640
584.046	4633
584.101	5114
584.110	5187
584.156	5205
584.183	5136
584.211	5246
584.255	5524
584.266	5624
584.321	6385
584.328	6367
584.376	5815
584.400	5878
584.431	6269
584.472	6281
584.486	6147
584.541	6293
584.545	6271
584.596	6251
584.617	6466
584.651	6980
584.689	7122
584.706	7040
584.761	7200
584.762	7197
584.816	7670
584.834	7919
584.871	8078
584.906	8106
584.926	8255
584.978	8246
584.980	8251
585.035	9331
585.051	9314
585.090	9315
585.123	9915
585.145	10137
585.195	10894
585.200	11094
585.254	12621
585.267	13412
585.309	15387
585.340	16528
585.364	17410
585.412	18394
585.419	18550
585.473	20213
585.484	20642
585.528	23628
585.556	27610
585.583	36194
585.628	55717
585.637	63065
585.692	125224
585.700	137136
585.747	182726
585.772	160808
585.801	104712
585.845	40165
585.856	32516
585.910	20975
585.917	19764
585.965	16908
585.989	16162
586.019	15986
586.061	15815
586.074	15773
586.128	15693
586.133	15629
586.183	15246
586.205	15440
586.237	15890
586.277	16728
586.292	16929
586.346	16456
586.349	16453
586.401	17314
586.421	17460
586.455	17471
586.493	18163
586.509	18614
586.564	19335
586.565	19350
586.618	20449
586.637	20653
586.672	21455
586.709	22489
586.727	22984
586.781	24535
586.781	24559
586.835	24627
586.853	24704
586.889	24808
586.925	24924
586.944	25347
586.996	26435
586.998	26472
587.052	27568
587.068	27807
587.106	29270
587.140	30155
587.161	30641
587.212	31956
587.215	32081
587.269	34501
587.284	35133
587.323	36215
587.356	36845
587.377	37649
587.427	40158
587.431	40425
587.485	43307
587.499	44022
587.539	46131
587.571	48115
587.593	49913
587.643	53241
587.648	53647
587.702	58543
587.715	59683
587.755	63650
587.786	66419
587.810	69095
587.858	75160
587.864	75954
587.917	83720
587.930	85180
587.971	92088
588.001	98424
588.025	103816
588.073	113816
588.079	115492
588.133	131275
588.145	134733
588.187	149445
588.217	160643
588.241	171891
588.288	194955
588.295	198660
588.348	229595
588.360	236607
588.402	268691
588.431	291207
588.456	314504
588.503	363610
588.510	373152
588.564	452559
588.575	470362
588.617	560894
588.646	628461
588.671	712524
588.718	882647
588.725	918190
588.778	1211192
588.789	1272933
588.832	1497633
588.861	1636678
588.886	1603954
588.932	1421372
588.939	1395172
588.993	1162860
589.004	1159656
589.047	1517578
589.075	1694122
589.100	1625697
589.147	1401104
589.154	1362294
589.207	1071671
589.218	1017499
589.261	928319
589.290	880605
589.314	900372
589.361	955850
589.368	980319
589.421	1200482
589.433	1250317
589.475	1426832
589.504	1530951
589.528	1474971
589.576	1261293
589.582	1268323
589.635	1444130
589.647	1462524
589.689	1279360
589.718	1117380
589.742	957476
589.790	661918
589.795	642677
589.849	475777
589.861	438839
589.902	367422
589.932	316620
589.955	291866
590.004	241974
590.009	238848
590.062	203888
590.075	195354
590.115	177412
590.146	163589
590.168	155799
590.218	138391
590.222	137613
590.275	125075
590.289	121788
590.328	112801
590.360	105113
590.381	101704
590.431	93504
590.435	93182
590.488	85370
590.503	83028
590.541	79929
590.574	77356
590.594	75401
590.645	69648
590.647	69631
590.700	66173
590.716	64943
590.753	61592
590.787	58491
590.806	57597
590.859	55028
590.859	55093
590.912	52721
590.930	51857
590.965	50411
591.001	48933
591.018	48221
591.071	45464
591.072	45345
591.124	44194
591.143	43546
591.177	42332
591.214	40988
591.230	40639
591.283	39326
591.285	39179
591.336	37672
591.356	37106
591.389	36589
591.427	35692
591.442	35246
591.495	33333
591.498	33117
591.547	32821
591.569	32672
591.600	32166
591.640	31175
591.653	30958
591.706	29909
591.711	29719
591.759	29694
591.782	29608
591.811	29182
591.853	28448
591.864	28502
591.917	28373
591.924	28290
591.969	28279
591.995	28157
592.022	27341
592.066	25870
592.075	25972
592.127	26221
592.137	26204
592.180	25096
592.208	24233
592.233	24368
592.279	24564
592.285	24678
592.338	25066
592.350	25114
592.390	24429
592.421	23771
592.443	23405
592.491	22446
592.495	22558
592.548	23385
592.562	23557
592.600	22380
592.633	21271
592.653	21258
592.704	20992
592.705	21106
592.775	20732
592.846	21733
592.916	20027
592.987	19956
593.058	20094
593.128	19920
593.199	19752
593.270	18818
593.341	19702
593.411	18647
593.482	18100
593.553	19679
593.623	18086
593.694	18327
593.764	18217
593.835	18136
593.906	17916
593.976	18016
594.047	17213
594.117	18105
594.188	16921
594.258	17673
594.329	17891
594.399	17630
594.470	18110
594.540	17747
594.611	17699
594.681	17884
594.751	17450
594.822	19587
594.892	19864
594.963	18582
595.033	18032
595.103	18510
595.174	17673
595.244	18662
595.314	17700
595.384	19139
595.455	18931
595.525	19438
595.595	18895
595.665	19334
595.736	19561
595.806	18633
595.876	19578
595.946	19192
596.016	19253
596.087	19675
596.157	19899
596.227	20039
596.297	20047
596.367	21373
596.437	22340
596.507	22365
596.577	21133
596.647	22553
596.717	23349
596.787	23571
596.857	23046
596.927	23513
596.997	23127
597.067	24625
597.137	25172
597.207	24954
597.277	23885
597.347	23391
597.417	22782
597.487	23168
597.557	23304
597.626	23784
597.696	24319
597.766	23781
597.836	22166
597.906	20967
597.975	20383
598.045	20565
598.115	20638
598.185	22916
598.254	23892
598.324	27445
598.394	27629
598.464	26591
598.533	25772
598.603	24138
598.672	23503
598.742	25264
598.812	24296
598.881	25760
598.951	24682
599.020	25302
599.090	26543
599.159	25429
599.229	25565
599.299	24940
599.368	25344
599.437	24579
599.507	22418
599.576	23334
599.646	22925
599.715	22772
599.785	21201
599.854	21094
599.924	20633
599.993	20056
600.062	20101
600.132	21328
600.201	22550
600.270	26577
600.340	26884
600.409	26250
600.478	25980
600.547	27489
600.617	24561
600.686	20096
600.755	17595
600.824	17502
600.894	16377
600.963	17029
601.032	17182
601.101	17091
601.170	15564
601.239	15125
601.308	15349
601.378	16050
601.447	15073
601.516	15322
601.585	15041
601.654	16138
601.723	16164
601.792	15713
601.861	16218
601.930	18035
601.999	17753
602.068	16964
602.137	16521
602.206	17267
602.275	16592
602.343	17272
602.412	17243
602.481	16509
602.550	18136
602.619	18395
602.688	18111
602.756	18400
602.825	18510
602.894	19047
602.963	18760
603.032	19566
603.100	19509
603.169	19994
603.238	19416
603.307	19819
603.375	20916
603.444	19926
603.513	20596
603.581	20703
603.650	21140
603.719	22209
603.787	21546
603.856	22140
603.924	23150
603.993	23494
604.061	23976
604.130	25701
604.198	25900
604.267	26209
604.335	25169
604.404	27097
604.472	26910
604.541	26731
604.609	27478
604.678	27883
604.746	27166
604.815	29605
604.883	28914
604.951	29163
605.020	29409
605.088	30726
605.156	29280
605.225	31190
605.293	32137
605.361	32105
605.429	32441
605.498	32501
605.566	34034
605.634	34924
605.702	35796
605.771	36446
605.839	37626
605.907	36436
605.975	35031
606.043	33815
606.111	34433
606.180	34866
606.248	35705
606.316	34886
606.384	33389
606.452	34582
606.520	34288
606.588	36567
606.656	35801
606.724	34440
606.792	33371
606.860	29590
606.928	27915
606.996	27009
607.064	26469
607.132	27218
607.200	28003
607.267	29263
607.335	28964
607.403	31197
607.471	28429
607.539	28584
607.607	29201
607.674	25812
607.742	25904
607.810	25156
607.878	25685
607.946	25890
608.013	26594
608.081	27473
608.149	27653
608.216	29151
608.284	28486
608.352	29998
608.419	28353
608.487	29293
608.555	27843
608.622	29666
608.690	30982
608.757	33671
608.825	35554
608.893	34245
608.960	30696
609.028	30487
609.095	31338
609.163	29954
609.230	27384
609.298	25676
609.365	26955
609.432	29155
609.500	30654
609.567	36071
609.635	40311
609.702	43326
609.769	41351
609.837	31734
609.904	27672
609.971	29280
610.039	36981
610.106	53996
610.173	118213
610.241	293195
610.308	157628
610.375	44526
610.442	31333
610.509	29204
610.577	29957
610.644	29199
610.711	29939
610.778	31207
610.845	31473
610.912	34766
610.980	36020
611.047	38413
611.114	35210
611.181	32823
611.248	32122
611.315	36362
611.382	35672
611.449	38080
611.516	38873
611.583	37731
611.650	38377
611.717	39129
611.784	40598
611.851	44702
611.918	49380
611.984	64905
612.051	109635
612.118	256895
612.185	665923
612.252	408153
612.319	81896
612.386	57326
612.452	48053
612.519	46033
612.586	43150
612.653	45140
612.719	45497
612.786	42561
612.853	39021
612.919	38457
612.986	39451
613.053	37534
613.120	33867
613.186	32971
613.253	35327
613.319	33368
613.386	33345
613.453	34810
613.519	34507
613.586	34066
613.652	34402
613.719	32861
613.785	35965
613.852	34588
613.918	35748
613.985	37092
614.051	41634
614.118	53446
614.184	51018
614.250	35712
614.317	37143
614.383	34549
614.449	35474
614.516	35710
614.582	35348
614.648	34867
614.715	34957
614.781	34244
614.847	33704
614.914	34236
614.980	32875
615.046	34952
615.112	35506
615.179	38147
615.245	42259
615.311	53877
615.377	86525
615.443	96400
615.509	56588
615.575	45733
615.642	42268
615.708	43217
615.774	47585
615.840	56418
615.906	74032
615.972	120918
616.038	246873
616.104	431976
616.170	863105
616.236	713803
616.302	143931
616.368	87684
616.434	59239
616.500	53011
616.565	58420
616.631	74379
616.697	60175
616.763	63066
616.829	100130
616.895	189378
616.961	180091
617.026	68825
617.092	42722
617.158	37932
617.224	36362
617.289	33603
617.355	30283
617.421	29594
617.487	30707
617.552	29121
617.618	27555
617.684	27901
617.749	30215
617.815	26194
617.880	25786
617.946	26279
618.012	26600
618.077	27445
618.143	25884
618.208	27347
618.274	28331
618.339	27336
618.405	22371
618.470	23134
618.536	22026
618.601	23038
618.667	21433
618.732	19892
618.798	20455
618.863	19533
618.928	18786
618.994	19865
619.059	19601
619.124	19949
619.190	18760
619.255	18432
619.320	19889
619.386	19569
619.451	18726
619.516	19018
619.581	19009
619.647	19050
619.712	18456
619.777	18097
619.842	17722
619.907	18340
619.972	18898
620.038	19304
620.103	18571
620.168	17857
620.233	18725
620.298	19703
620.363	18538
620.428	20209
620.493	19416
620.558	19626
620.623	20253
620.688	20784
620.753	20234
620.818	20172
620.883	20804
620.948	21814
621.013	20252
621.078	19197
621.143	18572
621.207	22403
621.272	19066
621.337	18193
621.402	19751
621.467	19343
621.532	18659
621.596	19668
621.661	18529
621.726	18683
621.791	18215
621.855	19531
621.920	17751
621.985	18607
622.049	19206
622.114	18423
622.179	20678
622.243	19288
622.308	19314
622.373	21957
622.437	20574
622.502	19252
622.566	19302
622.631	18222
622.695	20767
622.760	19572
622.824	19618
622.889	19188
622.953	18644
623.018	22138
623.082	21020
623.147	20045
623.211	20263
623.276	20177
623.340	18674
623.404	19031
623.469	18211
623.533	19159
623.597	18233
623.662	18517
623.726	16015
623.790	16008
623.854	14846
623.919	16181
623.983	16401
624.047	15425
624.111	15867
624.176	16837
624.240	16824
624.304	18120
624.368	17136
624.432	16977
624.496	17498
624.560	18408
624.625	17277
624.689	18796
624.753	19173
624.817	18171
624.881	16566
624.945	15670
625.009	15688
625.073	16467
625.137	16234
625.201	17660
625.265	16935
625.329	16569
625.393	16653
625.456	16286
625.520	18490
625.584	17601
625.648	17925
625.712	17618
625.776	17529
625.839	17966
625.903	13362
625.967	13135
626.031	15854
626.095	17525
626.158	15171
626.222	11575
626.286	11688
626.349	10398
626.413	9735
626.477	10974
626.540	10580
626.604	9647
626.668	10720
626.731	9340
626.795	10457
626.858	9886
626.922	9773
626.986	10343
627.049	8237
627.113	10623
627.176	11052
627.240	10432
627.303	10228
627.366	9559
627.430	10038
627.493	9492
627.557	8532
627.620	10760
627.684	10095
627.747	10356
627.810	7282
627.874	8659
627.937	7020
628.000	10065
628.064	8666
628.127	6319
628.190	8416
628.253	8035
628.317	6649
628.380	6407
628.443	6315
628.506	5699
628.569	5977
628.632	4998
628.696	5853
628.759	5052
628.822	5238
628.885	4619
628.948	5651
629.011	5581
629.074	4607
629.137	4825
629.200	4232
629.263	5895
629.326	4064
629.389	4828
629.452	5085
629.515	4760
629.578	4693
629.641	5322
629.704	4132
629.767	3968
629.830	5116
629.892	4487
629.955	3918
630.018	5980
630.081	4468
630.144	4614
630.207	4034
630.269	6037
630.332	3035
630.395	3952
630.458	4582
630.520	3069
630.583	4835
630.646	4859
630.708	3569
630.771	4065
630.834	4276
630.896	4989
630.959	4057
631.021	3998
631.084	4638
631.146	4448
631.209	4612
631.272	4098
631.334	4720
631.397	5317
631.459	3833
631.522	5257
631.584	5516
631.646	6848
631.709	6725
631.771	6693
631.834	6349
631.896	7109
631.958	4611
632.021	5874
632.083	4014
632.145	4563
632.208	4427
632.270	5673
632.332	3642
632.395	3473
632.457	4775
632.519	3086
632.581	4782
632.643	3545
632.706	4514
632.768	2854
632.830	4383
632.892	4306
632.954	3685
633.016	4900
633.078	3686
633.141	4472
633.203	3945
633.265	3843
633.327	4846
633.389	3692
633.451	4861
633.513	3953
633.575	4387
633.637	3796
633.698	3967
633.760	5709
633.822	5022
633.884	5587
633.946	5559
634.008	6051
634.070	6998
634.132	6517
634.193	7152
634.255	8577
634.317	8661
634.379	9504
634.441	6840
634.502	7088
634.564	6721
634.626	6418
634.687	6328
634.749	5446
634.811	4958
634.873	4368
634.934	3843
634.996	5870
635.057	3632
635.119	3309
635.181	4806
635.242	5061
635.304	2414
635.365	6932
635.427	4039
635.488	4417
635.550	3753
635.611	5242
635.673	3812
635.734	6439
635.796	5501
635.857	7642
635.918	6863
635.980	8751
636.041	7986
636.102	10274
636.164	9762
636.225	10555
636.286	6125
636.348	7757
636.409	5570
636.470	5365
636.531	4970
636.593	3258
636.654	4461
636.715	4061
636.776	3768
636.838	3620
636.899	4693
636.960	3374
637.021	3133
637.082	3855
637.143	3357
637.204	2897
637.265	2692
637.326	3725
637.387	4082
637.448	2130
637.509	3719
637.570	3292
637.631	4151
637.692	2612
637.753	2381
637.814	3281
637.875	1997
637.936	3575
637.997	2770
638.058	3536
638.119	3592
638.179	3614
638.240	2212
638.301	2847
638.362	1977
638.423	2355
638.483	3137
638.544	1403
638.605	3253
638.666	2915
638.726	2619
638.787	4105
638.848	2254
638.908	1949
638.969	2991
639.030	2434
639.090	2535
639.151	1195
639.211	2707
639.272	3111
639.332	3279
639.393	3670
639.453	1823
639.514	3747
639.574	2866
639.635	2454
639.695	2775
639.756	1020
639.816	1842
639.877	2537
639.937	3334
639.997	2917
640.058	1552
640.118	2051
640.178	2707
640.239	2061
640.299	2358
640.359	1711
640.420	2302
640.480	3859
640.540	4837
640.600	4985
640.661	4194
640.721	4628
640.781	8360
640.841	7589
640.901	4228
640.961	2878
641.021	3474
641.082	3415
641.142	2684
641.202	3565
641.262	1424
641.322	3044
641.382	665
641.442	3072
641.502	2026
641.562	3002
641.622	1917
641.682	3213
641.742	3137
641.802	3146
641.861	2784
641.921	1462
641.981	3037
642.041	1528
642.101	1617
642.161	704
642.221	1256
642.280	1125
642.340	781
642.400	1614
642.460	2930
642.519	2282
642.579	2379
642.639	3131
642.698	-170
642.758	3399
642.818	2314
642.877	748
642.937	2195
642.997	3354
643.056	1891
643.116	312
643.175	3851
643.235	1710
643.294	2895
643.354	3621
643.414	4631
643.473	6884
643.532	7368
643.592	13837
643.651	25147
643.711	50569
643.770	103533
643.830	257802
643.889	551697
643.948	121052
644.008	16646
644.067	9621
644.126	5131
644.186	5883
644.245	4546
644.304	2747
644.363	4855
644.423	2324
644.482	3469
644.541	4134
644.600	1453
644.659	6039
644.719	7009
644.778	11940
644.837	22231
644.896	51899
644.955	121673
645.014	36490
645.073	7248
645.132	3788
645.191	3914
645.250	2974
645.309	4306
645.368	4231
645.427	6971
645.486	10642
645.545	20697
645.604	4911
645.663	3208
645.722	3517
645.781	3972
645.840	5428
645.898	8021
645.957	14413
646.016	21511
646.075	45640
646.134	94232
646.192	261935
646.251	380223
646.310	50956
646.369	11601
646.427	8514
646.486	4876
646.545	4257
646.603	3644
646.662	3992
646.721	3583
646.779	2059
646.838	2118
646.896	5719
646.955	6458
647.014	12923
647.072	25871
647.131	74921
647.189	33344
647.248	3678
647.306	3143
647.365	3248
647.423	447
647.481	2341
647.540	275
647.598	1039
647.657	1292
647.715	1482
647.773	296
647.832	1697
647.890	-528
647.948	1439
648.007	1370
648.065	610
648.123	558
648.181	1849
648.240	1845
648.298	1272
648.356	1364
648.414	2050
648.472	1473
648.531	1412
648.589	262
648.647	877
648.705	809
648.763	823
648.821	1439
648.879	705
648.937	2055
648.995	3852
649.053	3999
649.111	9368
649.169	17252
649.227	34148
649.285	75313
649.343	221021
649.401	99533
649.459	10758
649.516	6619
649.574	3867
649.632	10797
649.690	12456
649.748	6883
649.806	9907
649.863	20486
649.921	51735
649.979	32039
650.037	3722
650.094	610
650.152	2195
650.210	844
650.268	2844
650.325	3020
650.383	4896
650.440	610
650.498	1458
650.556	95
650.613	514
650.671	773
650.728	232
650.786	300
650.843	1853
650.901	-575
650.958	676
651.016	-308
651.073	539
651.131	-98
651.188	-259
651.246	116
651.303	-227
651.360	229
651.418	207
651.475	208
651.532	-781
651.590	921
651.647	285
651.704	202
651.762	263
651.819	5
651.876	-399
651.933	331
651.990	546
652.048	-988
652.105	93
652.162	109
652.219	-539
652.276	671
652.333	571
652.390	-940
652.448	446
652.505	-237
652.562	384
652.619	274
652.676	752
652.733	1309
652.790	65
652.847	-760
652.904	1298
652.961	-579
653.017	-549
653.074	630
653.131	610
653.188	-612
653.245	-18
653.302	-319
653.359	-477
653.415	555
653.472	-446
653.529	420
653.586	-475
653.642	-85
653.699	1410
653.756	-352
653.813	-141
653.869	140
653.926	228
653.983	-1369
654.039	842
654.096	-700
654.152	724
654.209	-1258
654.266	100
654.322	-1140
654.379	580
654.435	383
654.492	-397
654.548	-7
654.605	-748
654.661	1533
654.717	614
654.774	-187
654.830	-60
654.887	61
654.943	583
655.000	2159
655.056	195
655.112	-150
655.168	-1099
655.225	-62
655.281	299
655.337	-780
655.394	-1328
655.450	116
655.506	165
655.562	-866
655.618	281
655.675	-971
655.731	194
655.787	-385
655.843	868
655.899	-620
655.955	804
656.011	9
656.067	-433
656.123	401
656.179	335
656.235	1212
656.291	-633
656.347	351
656.403	-665
656.459	-595
656.515	-514
656.571	-393
656.627	629
656.683	-87
656.739	384
656.795	226
656.850	196
656.906	-230
656.962	781
657.018	-1204
657.074	-142
657.129	-122
657.185	1666
657.241	4409
657.297	1584
657.352	-323
657.408	-151
657.464	159
657.519	-687
657.575	-1162
657.630	-302
657.686	-304
657.742	-696
657.797	-672
657.853	-795
657.908	45
657.964	-670
658.019	-785
658.075	-606
658.130	-710
658.186	-1358
658.241	-346
658.297	-833
658.352	-687
658.407	649
658.463	-1207
658.518	229
658.573	-397
658.629	-1511
658.684	-461
658.739	331
658.795	-963
658.850	-174
658.905	-679
658.960	-723
659.016	-164
659.071	-30
659.126	-677
659.181	-279
659.236	202
659.291	704
659.346	-564
659.401	20
659.457	588
659.512	458
659.567	685
659.622	-548
659.677	-266
659.732	-1849
659.787	-454
659.842	-1417
659.897	-772
659.952	13
660.007	-328
660.061	-490
660.116	-1066
660.171	-371
660.226	-1500
660.281	214
660.336	-876
660.391	828
660.445	-1232
660.500	-82
660.555	-429
660.610	-1071
660.664	174
660.719	-1323
660.774	-517
660.828	-727
660.883	-656
660.938	237
660.992	-768
661.047	220
661.101	-413
661.156	-420
661.211	-941
661.265	-797
661.320	-265
661.374	-798
661.429	-1452
661.483	477
661.538	-753
661.592	-187
661.647	280
661.701	1679
661.755	333
661.810	-136
661.864	-1394
661.919	-277
661.973	-222
662.027	-502
662.081	-1515
662.136	-1323
662.190	-371
662.244	-797
662.299	-1036
662.353	-487
662.407	-679
662.461	-863
662.515	-901
662.569	-284
662.624	-89
662.678	-321
662.732	-1119
662.786	-212
662.840	-919
662.894	-61
662.948	-1384
663.002	-625
663.056	-323
663.110	-1597
663.164	-628
663.218	-1627
663.272	-172
663.326	-1258
663.380	-783
663.434	-43
663.488	-889
663.542	-409
663.595	-734
663.649	-1044
663.703	-1058
663.757	-760
663.811	-1390
663.864	-749
663.918	79
663.972	-752
664.026	-442
664.079	-813
664.133	20
664.187	-815
664.240	-102
664.294	156
664.348	-519
664.401	-861
664.455	107
664.508	-891
664.562	-622
664.615	-214
664.669	-515
664.722	-693
664.776	-981
664.829	-312
664.883	-653
664.936	-1547
664.990	-1530
665.043	-436
665.097	-1091
665.150	-591
665.203	-1491
665.257	-337
665.310	-334
665.363	-982
665.417	-1435
665.470	-669
665.523	-808
665.576	-222
665.630	-1473
665.683	-477
665.736	-231
665.789	-598
665.842	-1000
665.895	-306
665.949	-263
666.002	-404
666.055	-1534
666.108	-575
666.161	-1766
666.214	-700
666.267	-556
666.320	-564
666.373	-1327
666.426	-61
666.479	-1053
666.532	-1054
666.585	-1340
666.638	-152
666.691	-816
666.744	-422
666.796	-1000
666.849	-98
666.902	-575
666.955	-532
667.008	-1083
667.060	-1142
667.113	-1225
667.166	-521
667.219	-226
667.271	211
667.324	-1694
667.377	-437
667.430	-439
667.482	-103
667.535	-739
667.587	164
667.640	-881
667.693	-562
667.745	-615
667.798	94
667.850	-432
667.903	-287
667.955	-1004
668.008	-563
668.060	-959
668.113	-573
668.165	-731
668.218	-674
668.270	-897
668.322	-949
668.375	-850
668.427	-401
668.479	-1141
668.532	-870
668.584	-376
668.636	-1182
668.689	-1078
668.741	-502
668.793	-426
668.845	-764
668.898	-417
668.950	-856
669.002	-1530
669.054	-1191
669.106	-944
669.158	-144
669.211	-558
669.263	-548
669.315	-196
669.367	476
669.419	298
669.471	1831
669.523	1652
669.575	3307
669.627	2610
669.679	-13
669.731	333
669.783	1446
669.835	1428
669.886	391
669.938	290
669.990	-513
670.042	-851
670.094	-107
670.146	-268
670.197	-725
670.249	-330
670.301	-217
670.353	161
670.404	63
670.456	1002
670.508	2631
670.560	5766
670.611	11326
670.663	20520
670.715	54418
670.766	83659
670.818	18206
670.869	1896
670.921	487
670.972	397
671.024	-623
671.075	2
671.127	-314
671.178	-498
671.230	30
671.281	-643
671.333	101
671.384	-521
671.436	140
671.487	480
671.538	2140
671.590	4745
671.641	8107
671.692	14741
671.744	29511
671.795	19323
671.846	5681
671.897	1697
671.949	333
672.000	256
672.051	-151
672.102	-77
672.153	-738
672.204	-291
672.256	-544
672.307	-329
672.358	-585
672.409	-429
672.460	-828
672.511	-1475
672.562	-1104
672.613	-1599
672.664	-1494
672.715	-981
672.766	-536
672.817	-835
672.868	-1623
672.919	-180
672.970	-1523
673.021	-964
673.071	-1429
673.122	-1385
673.173	-939
673.224	-1494
673.275	-1167
673.326	-1010
673.376	-1310
673.427	-1055
673.478	-1315
673.528	-311
673.579	-484
673.630	-1588
673.680	-244
673.731	-1071
673.782	-1186
673.832	-1961
673.883	-742
673.934	-1469
673.984	-1343
674.035	-1516
674.085	-937
674.136	-725
674.186	-934
674.237	-1310
674.287	-1530
674.338	-1513
674.388	-1345
674.438	-1557
674.489	-1169
674.539	-1540
674.589	-880
674.640	-477
674.690	-1804
674.740	-1467
674.791	-1188
674.841	-883
674.891	-643
674.942	-1475
674.992	-874
675.042	-1689
675.092	-1159
675.142	-802
675.193	-1879
675.243	-1318
675.293	-1179
675.343	-1719
675.393	-1340
675.443	-1019
675.493	-858
675.543	-1253
675.593	-1105
675.643	-1831
675.693	-1498
675.743	-1548
675.793	-605
675.843	-1389
675.893	-1352
675.943	-1147
675.993	-1151
676.043	-1133
676.093	-1002
676.142	-1840
676.192	-1209
676.242	-1652
676.292	-1357
676.341	-1715
676.391	-1500
676.441	-2052
676.491	-1379
676.540	-1674
676.590	-1368
676.640	-1031
676.689	-1333
676.739	-1543
676.789	-1704
676.838	-2265
676.888	-1079
676.937	-1753
676.987	-1435
677.037	-2474
677.086	-2017
677.136	-1709
677.185	-1272
677.235	-1577
677.284	-1205
677.333	-1814
677.383	-1890
677.432	-1674
677.482	-371
677.531	-1239
677.580	-2167
677.630	-1428
677.679	-961
677.728	-1154
677.778	-966
677.827	-2181
677.876	-1578
677.925	-1736
677.975	-2383
678.024	-1649
678.073	-1303
678.122	-1983
678.171	-1647
678.220	-1476
678.269	-1323
678.319	-1042
678.368	-1311
678.417	-1962
678.466	-1918
678.515	-1865
678.564	-1514
678.613	-1983
678.662	-1278
678.711	-1503
678.760	-1539
678.809	-1403
678.857	-1473
678.906	-1728
678.955	-1499
679.004	-360
679.053	-1699
679.102	-1431
679.151	-1922
679.199	-2166
679.248	-1277
679.297	-2083
679.346	-2187
679.394	-2041
679.443	-1804
679.492	-1373
679.540	-989
679.589	-978
679.638	-1703
679.686	-1409
679.735	-1348
679.784	-1367
679.832	-1365
679.881	-1947
679.929	-1699
679.978	-2353
680.026	-1717
680.075	-1587
680.123	-1642
680.172	-1648
680.220	-1737
680.268	-1277
680.317	-1995
680.365	-1639
680.414	-1414
680.462	-1428
680.510	-1548
680.559	-1594
680.607	-1031
680.655	-2180
680.703	-1457
680.752	-1568
680.800	-1469
680.848	-1420
680.896	-1295
680.945	-1667
680.993	-1923
681.041	-1730
681.089	-2121
681.137	-1740
681.185	-1512
681.233	-1315
681.258	-1226
681.281	-1151
681.329	-1399
681.377	-2377
681.380	-2322
681.425	-1544
681.473	-1133
681.502	-1427
681.521	-1652
681.569	-1630
681.617	-1463
681.624	-1511
681.665	-1893
681.713	-578
681.745	-965
681.761	-1165
681.809	-1418
681.857	-611
681.867	-719
681.904	-1126
681.952	-1279
681.989	-1121
682.000	-1087
682.048	-1050
682.096	-1179
682.111	-1258
682.143	-1458
682.191	-639
682.233	-398
682.239	-370
682.286	-1637
682.334	-1428
682.354	-1414
682.382	-1423
682.430	-1278
682.476	-1447
682.477	-1460
682.525	-1036
682.572	-1466
682.598	-1338
682.620	-1238
682.667	-1069
682.715	-682
682.720	-758
682.763	-1589
682.810	-445
682.841	-1062
682.857	-1390
682.905	-881
682.952	-407
682.963	-559
683.000	-1134
683.047	-666
683.085	-154
683.095	-22
683.142	-953
683.190	-400
683.206	-535
683.237	-816
683.284	-332
683.328	-685
683.332	-724
683.379	-1208
683.426	-1154
683.449	-1156
683.473	-1123
683.521	-734
683.568	-816
683.571	-792
683.615	-663
683.662	-483
683.693	-513
683.709	-522
683.757	-973
683.804	-670
683.814	-733
683.851	-1041
683.898	182
683.936	-516
683.945	-685
683.992	-682
684.039	-501
684.057	-269
684.086	60
684.133	-1082
684.179	-705
684.180	-697
684.227	24
684.274	-415
684.300	-419
684.321	-490
684.368	-529
684.415	-56
684.422	-210
684.462	-1046
684.509	-513
684.543	160
684.556	373
684.603	-79
684.649	-961
684.665	-643
684.696	71
684.743	-520
684.786	250
684.790	305
684.837	-287
684.883	201
684.908	117
684.930	1
684.977	-26
685.023	44
685.029	48
685.070	56
685.117	420
685.150	185
685.164	101
685.210	-121
685.257	118
685.272	16
685.303	-201
685.350	262
685.393	115
685.396	91
685.443	245
685.490	567
685.514	731
685.536	909
685.583	66
685.629	-449
685.636	-434
685.675	-357
685.722	427
685.757	20
685.768	-114
685.815	-57
685.861	480
685.878	257
685.908	-162
685.954	-354
686.000	-355
686.000	-356
686.047	130
686.093	531
686.121	308
686.139	135
686.185	525
686.232	1191
686.242	1081
686.278	631
686.324	248
686.363	632
686.370	712
686.416	1209
686.463	648
686.484	729
686.509	836
686.555	960
686.601	853
686.606	894
686.647	1130
686.693	874
686.727	906
686.739	945
686.785	1008
686.831	1099
686.848	978
686.877	705
686.923	911
686.969	551
686.969	549
687.015	494
687.061	702
687.090	1104
687.107	1340
687.153	1152
687.199	1858
687.211	1693
687.245	1132
687.291	766
687.332	957
687.336	1002
687.382	1199
687.428	757
687.453	1218
687.474	1460
687.520	1494
687.565	919
687.574	899
687.611	1350
687.657	2296
687.695	3100
687.702	3325
687.748	4395
687.794	6383
687.816	6493
687.839	5452
687.885	3931
687.931	2726
687.937	2444
687.976	1494
688.022	1463
688.058	624
688.067	531
688.113	1235
688.158	1057
688.179	1175
688.204	1267
688.249	1321
688.295	1363
688.300	1249
688.340	583
688.386	1574
688.421	1428
688.431	1364
688.477	1341
688.522	1606
688.542	1904
688.567	2247
688.613	1234
688.658	1295
688.663	1295
688.703	1365
688.749	1574
688.784	1698
688.794	1728
688.839	1796
688.884	1476
688.905	1655
688.930	1902
688.975	1241
689.020	1270
689.026	1323
689.065	1875
689.110	1472
689.146	1786
689.155	1872
689.201	2272
689.246	2670
689.267	2634
689.291	2288
689.336	2026
689.381	1946
689.388	1788
689.426	1398
689.471	2014
689.509	1937
689.516	1929
689.561	1877
689.606	2418
689.630	2435
689.651	2409
689.696	1959
689.741	1958
689.750	2010
689.785	2263
689.830	2600
689.871	2221
689.875	2173
689.920	1934
689.965	1798
689.992	1815
690.010	1927
690.054	1726
690.099	1877
690.112	2048
690.144	2398
690.189	2092
690.233	2105
690.233	2111
690.278	2105
690.323	2131
690.354	2102
690.367	2135
690.412	2150
690.457	2326
690.474	2358
690.501	2341
690.546	2815
690.590	2488
690.595	2475
690.635	2525
690.680	2574
690.716	2729
690.724	2793
690.769	2890
690.813	3524
690.836	3507
690.857	3856
690.902	5145
690.946	5813
690.957	6074
690.991	8446
691.035	11673
691.077	14634
691.080	14622
691.124	13371
691.168	12288
691.198	11542
691.213	10745
691.257	8378
691.301	5540
691.318	4764
691.346	4742
691.390	3907
691.434	3691
691.439	3660
691.478	3766
691.522	3250
691.559	3199
691.567	3222
691.611	3314
691.655	3053
691.680	3168
691.699	3228
691.743	2728
691.787	2900
691.800	2834
691.831	2781
691.875	2926
691.919	2591
691.921	2577
691.964	2613
692.008	3029
692.041	3058
692.052	3052
692.096	2979
692.139	3225
692.162	3124
692.183	3011
692.227	3285
692.271	3062
692.282	3094
692.315	3122
692.359	2812
692.402	2821
692.403	2832
692.447	2544
692.490	2709
692.523	2753
692.534	2796
692.578	2913
692.622	2640
692.643	2722
692.666	2863
692.709	3066
692.753	3359
692.763	3359
692.797	3242
692.840	3438
692.884	3088
692.884	3100
692.928	3653
692.971	3758
693.004	3961
693.015	3924
693.059	3672
693.102	3851
693.124	3504
693.146	3332
693.189	3490
693.233	3817
693.245	3834
693.276	3950
693.320	4103
693.363	4151
693.365	4135
693.407	4166
693.450	4722
693.485	4587
693.493	4721
693.537	6053
693.580	7030
693.605	7618
693.624	8528
693.667	10546
693.710	12559
693.725	13349
693.753	17851
693.797	24693
693.840	31629
693.845	32398
693.883	30355
693.926	27239
693.966	24900
693.970	24434
694.013	19017
694.056	13545
694.086	9745
694.099	9291
694.142	7787
694.185	6406
694.206	5724
694.229	5622
694.272	5082
694.315	4829
694.326	4704
694.358	4621
694.401	4602
694.444	4751
694.446	4741
694.487	4788
694.530	4297
694.566	4367
694.573	4401
694.616	4248
694.659	4417
694.686	4209
694.702	4113
694.745	4207
694.787	3899
694.806	3907
694.830	4082
694.873	3904
694.916	4308
694.926	4349
694.959	4387
695.002	4049
695.044	4028
695.046	4011
695.087	4046
695.130	4003
695.166	4263
695.172	4350
695.215	4285
695.258	4715
695.286	4709
695.301	4585
695.343	4314
695.386	4157
695.406	4014
695.428	4042
695.471	4057
695.514	4176
695.526	4124
695.556	4360
695.599	4919
695.641	5320
695.646	5358
695.684	5014
695.726	4615
695.766	4261
695.769	4300
695.811	4608
695.854	4759
695.886	4999
695.896	5018
695.938	4981
695.981	4881
696.005	4787
696.023	4795
696.065	4955
696.108	5102
696.125	5057
696.150	5051
696.192	5239
696.235	5246
696.245	5283
696.277	5401
696.319	5208
696.361	5320
696.365	5297
696.404	5325
696.446	5439
696.485	5414
696.488	5430
696.530	5478
696.572	5369
696.604	5392
696.614	5404
696.656	5413
696.698	5354
696.724	5316
696.740	5454
696.783	5698
696.825	6084
696.844	6161
696.867	5989
696.909	5722
696.951	5423
696.964	5316
696.992	5289
697.034	5196
697.076	5057
697.083	5031
697.118	5014
697.160	4974
697.202	4887
697.203	4866
697.244	4971
697.286	5132
697.323	5198
697.327	5201
697.369	5088
697.411	4985
697.442	4916
697.453	5036
697.494	5374
697.536	5796
697.562	5981
697.578	5927
697.620	5845
697.661	5642
697.682	5556
697.703	5711
697.744	5956
697.786	6257
697.801	6320
697.828	6299
697.869	6289
697.911	6148
697.921	6135
697.952	6162
697.994	6040
698.035	6050
698.040	6017
698.077	5844
698.118	5671
698.160	5483
698.160	5461
698.201	5849
698.243	6214
698.279	6530
698.284	6555
698.325	6596
698.367	6603
698.399	6565
698.408	6613
698.449	6754
698.491	6924
698.518	6999
698.532	7035
698.573	7095
698.614	7112
698.638	7118
698.656	7093
698.697	6970
698.738	6836
698.757	6754
698.779	6794
698.820	6821
698.862	6877
698.877	6869
698.903	6881
698.944	6867
698.985	6856
698.996	6833
699.026	6813
699.067	6756
699.116	6670
699.235	7122
699.354	7020
699.474	7234
699.593	6599
699.713	7625
699.832	6892
699.951	7331
700.070	7315
700.190	6896
700.309	6497
700.428	6842
700.547	6834
700.667	6727
700.786	6425
700.905	5945
701.024	6074
701.143	6494
701.262	6339
701.381	6906
701.500	6717
701.619	7000
701.738	6292
701.857	6339
701.976	6426
702.095	6356
702.214	6624
702.333	6557
702.452	6865
702.571	5794
702.690	5861
702.809	6864
702.928	5947
703.047	6911
703.165	5511
703.284	6328
703.403	6534
703.522	5415
703.640	6172
703.759	6713
703.878	6183
703.997	6456
704.115	5664
704.234	6201
704.353	6039
704.471	5582
704.590	5667
704.708	5582
704.827	5410
704.946	6557
705.064	5036
705.183	5736
705.301	6097
705.420	6123
705.538	5584
705.656	5652
705.775	5804
705.893	10019
706.012	10926
706.130	5818
706.249	5049
706.367	5517
706.485	5375
706.604	5772
706.722	6296
706.840	8218
706.958	16632
707.077	10292
707.195	5061
707.313	5733
707.431	4593
707.549	5088
707.668	4345
707.786	5376
707.904	5561
708.022	4479
708.140	4487
708.258	3931
708.376	5824
708.494	4381
708.612	4655
708.730	5102
708.848	5175
708.966	4571
709.084	5462
709.202	5299
709.320	4880
709.438	5725
709.556	4867
709.674	4004
709.791	4798
709.909	4945
710.027	4040
710.145	4283
710.263	4479
710.380	4583
710.498	5326
710.616	4504
710.733	4128
710.851	4776
710.969	4008
711.086	3890
711.204	4831
711.322	4232
711.439	4053
711.557	4604
711.674	3787
711.792	4142
711.909	4520
712.027	5089
712.144	3535
712.262	4212
712.379	3800
712.497	4080
712.614	4069
712.732	3889
712.849	4477
712.966	3599
713.084	5152
713.201	4513
713.318	3934
713.436	4752
713.553	4709
713.670	5450
713.787	5142
713.905	4434
714.022	4624
714.139	5861
714.256	7794
714.373	10923
714.490	23415
714.608	73456
714.725	335836
714.842	315194
714.959	17496
715.076	7825
715.193	6690
715.310	6193
715.427	5300
715.544	4452
715.661	4772
715.778	3952
715.895	3410
716.011	4882
716.128	4243
716.245	4810
716.362	5013
716.479	3935
716.596	5057
716.713	4701
716.829	4767
716.946	3865
717.063	3895
717.180	3170
717.296	3696
717.413	3237
717.530	3421
717.646	4377
717.763	4253
717.880	2589
717.996	3208
718.113	3528
718.229	3958
718.346	3032
718.462	3683
718.579	3702
718.695	3830
718.812	3698
718.928	3360
719.045	2948
719.161	3828
719.277	2734
719.394	3877
719.510	4042
719.626	4671
719.743	5511
719.859	9402
719.975	18588
720.092	84612
720.208	189477
720.324	19119
720.440	4806
720.557	4302
720.673	4619
720.789	3462
720.905	3234
721.021	3122
721.137	3358
721.253	3223
721.369	3581
721.486	3719
721.602	2802
721.718	3393
721.834	2304
721.950	2738
722.066	2858
722.181	3066
722.297	2168
722.413	2937
722.529	2885
722.645	3078
722.761	2673
722.877	2636
722.993	3484
723.108	3744
723.224	2950
723.340	3343
723.456	3562
723.571	2944
723.687	3182
723.803	2988
723.918	2993
724.034	3002
724.150	2409
724.265	2705
724.381	2457
724.497	3363
724.612	3261
724.728	2709
724.843	2482
724.959	3310
725.074	3895
725.190	3919
725.305	3014
725.421	3100
725.536	2808
725.651	2744
725.767	2576
725.882	2976
725.997	2626
726.113	2307
726.228	2883
726.343	2493
726.459	2513
726.574	3327
726.689	2433
726.804	3133
726.920	2885
727.035	2823
727.150	2750
727.265	3059
727.380	3313
727.495	3178
727.610	2274
727.725	2190
727.841	3176
727.956	5556
728.071	4195
728.186	2011
728.301	2752
728.416	3477
728.531	2866
728.645	3352
728.760	3801
728.875	5324
728.990	4800
729.105	3659
729.220	2918
729.335	2503
729.449	2232
729.564	2557
729.679	2251
729.794	2849
729.908	2836
730.023	2609
730.138	3405
730.253	3012
730.367	3070
730.482	2839
730.596	2401
730.711	3638
730.826	5446
730.940	5761
731.055	2949
731.169	2857
731.284	2640
731.398	2039
731.513	3004
731.627	2883
731.742	3656
731.856	3430
731.970	4353
732.085	4636
732.199	6330
732.313	12220
732.428	32145
732.542	96385
732.656	50304
732.771	8755
732.885	5481
732.999	4299
733.113	4131
733.227	4017
733.342	4281
733.456	3003
733.570	3469
733.684	3272
733.798	3803
733.912	3367
734.026	3105
734.140	2668
734.254	3613
734.368	3439
734.482	3606
734.596	2379
734.710	2880
734.824	3290
734.938	2887
735.052	3240
735.166	3206
735.280	3825
735.393	2716
735.507	2714
735.621	2934
735.735	3209
735.849	3622
735.962	2881
736.076	3776
736.190	2884
736.303	2606
736.417	3245
736.531	2451
736.644	2320
736.758	2722
736.872	3667
736.985	3936
737.099	3021
737.212	2609
737.326	3139
737.439	2584
737.553	2501
737.666	3344
737.780	2639
737.893	2170
738.007	2807
738.120	3379
738.233	3554
738.347	2440
738.460	3120
738.573	3301
738.687	2571
738.800	3601
738.913	2742
739.026	2493
739.140	2805
739.253	3337
739.366	2629
739.479	1768
739.592	2086
739.705	1942
739.818	2370
739.932	3177
740.045	2443
740.158	2817
740.271	3092
740.384	2419
740.497	3940
740.610	4608
740.723	3943
740.836	3951
740.949	3732
741.062	3587
741.174	3408
741.287	2699
741.400	3390
741.513	4004
741.626	5031
741.739	3921
741.851	2073
741.964	2943
742.077	3386
742.189	3153
742.302	5769
742.415	5373
742.527	3126
742.640	3213
742.753	3644
742.865	2792
742.978	2358
743.090	2952
743.203	2153
743.316	2635
743.428	2149
743.541	2606
743.653	1808
743.766	1845
743.878	2024
743.990	2756
744.103	3371
744.215	4063
744.327	1682
744.440	2328
744.552	2758
744.664	1562
744.777	1937
744.889	2231
745.001	2698
745.113	1614
745.226	2294
745.338	2210
745.450	2024
745.562	2518
745.674	1828
745.786	2341
745.898	1332
746.010	2021
746.122	1392
746.234	2412
746.347	1945
746.459	2112
746.570	1775
746.682	3139
746.794	5181
746.906	2779
747.018	1922
747.130	2496
747.242	2584
747.354	1773
747.466	2767
747.577	1565
747.689	1718
747.801	2226
747.913	2471
748.024	1678
748.136	1929
748.248	1519
748.359	2019
748.471	1829
748.583	1208
748.694	1336
748.806	2063
748.918	1730
749.029	1624
749.141	2152
749.252	2218
749.364	1322
749.475	924
749.587	1453
749.698	1854
749.809	1585
749.921	2564
750.032	1345
750.144	2134
750.255	931
750.366	1369
750.478	1864
750.589	2060
750.700	2052
750.811	2114
750.923	2184
751.034	1744
751.145	2853
751.256	1227
751.367	2530
751.479	2099
751.590	1265
751.701	1767
751.812	1008
751.923	1597
752.034	1785
752.145	1679
752.256	1731
752.367	2004
752.478	1505
752.589	1398
752.700	2915
752.811	1015
752.922	1080
753.032	986
753.143	1773
753.254	1269
753.365	2322
753.476	1641
753.586	1607
753.697	824
753.808	1198
753.919	1811
754.029	1702
754.140	1376
754.251	1373
754.361	655
754.472	1830
754.582	1002
754.693	1416
754.804	1408
754.914	1284
755.025	1734
755.135	769
755.246	1621
755.356	1500
755.466	1560
755.577	1616
755.687	1780
755.798	1304
755.908	1813
756.018	1082
756.129	1655
756.239	2299
756.349	1911
756.460	1828
756.570	1895
756.680	492
756.790	1560
756.900	1862
757.011	1024
757.121	1525
757.231	1867
757.341	1424
757.451	1445
757.561	1509
757.671	1312
757.781	834
757.891	2054
758.001	1275
758.111	1833
758.221	1782
758.331	1542
758.441	1830
758.551	1370
758.661	1738
758.771	2214
758.880	1727
758.990	1407
759.100	1565
759.210	2541
759.320	1631
759.429	1395
759.539	2135
759.649	2014
759.758	1862
759.868	2391
759.978	2174
760.087	2593
760.197	2465
760.307	2260
760.416	2431
760.526	1112
760.635	2942
760.745	2432
760.854	2193
760.964	3143
761.073	2776
761.182	2539
761.292	2603
761.401	2922
761.511	2549
761.620	1949
761.729	2240
761.839	1553
761.948	2812
762.057	1672
762.166	2627
762.276	1297
762.385	3164
762.494	2510
762.603	2624
762.712	2263
762.822	1556
762.931	2348
763.040	2432
763.149	2196
763.258	2075
763.367	2592
763.476	2614
763.585	2199
763.694	2758
763.803	3369
763.912	2656
764.021	3263
764.130	3394
764.238	3979
764.347	3947
764.456	3789
764.565	4474
764.674	5418
764.783	4642
764.891	4772
765.000	6413
765.109	6634
765.217	7152
765.326	9203
765.435	10365
765.543	13235
765.652	16515
765.761	21131
765.869	30302
765.978	49501
766.086	86602
766.195	172600
766.303	401841
766.412	778008
766.520	713503
766.629	314520
766.737	120980
766.846	65674
766.954	42909
767.062	30422
767.171	22877
767.279	18357
767.387	13279
767.496	11415
767.604	10606
767.712	8755
767.820	7825
767.928	6928
768.037	7292
768.145	7201
768.253	7233
768.361	6825
768.469	5945
768.577	6185
768.685	7064
768.793	7147
768.901	7203
769.009	9044
769.117	9986
769.225	13810
769.333	20685
769.441	34071
769.549	62785
769.657	143363
769.765	400819
769.873	661569
769.981	338249
770.088	93503
770.196	43426
770.304	27937
770.412	18495
770.519	13865
770.627	10481
770.735	7914
770.842	6990
770.950	5433
771.058	4329
771.165	5853
771.273	5418
771.380	5607
771.488	4065
771.595	3848
771.703	3365
771.810	3870
771.918	3527
772.025	2889
772.133	3420
772.240	3935
772.348	3350
772.455	2905
772.562	2141
772.670	2019
772.777	2698
772.884	2882
772.991	3154
773.099	3112
773.206	2393
773.313	2825
773.420	2799
773.528	2486
773.635	1945
773.742	1995
773.849	2260
773.956	1585
774.063	2190
774.170	1752
774.277	2263
774.384	2125
774.491	2270
774.598	1885
774.705	1333
774.812	1698
774.919	1898
775.026	1772
775.133	1807
775.239	938
775.346	2595
775.453	1445
775.560	1539
775.667	1700
775.773	857
775.880	2610
775.987	1614
776.093	2245
776.200	1652
776.307	1059
776.413	1861
776.520	1423
776.627	2140
776.733	1740
776.840	624
776.946	2565
777.053	4706
777.159	8361
777.266	4195
777.372	7382
777.478	5689
777.585	3297
777.691	1655
777.798	709
777.904	2275
778.010	1390
778.117	1702
778.223	1686
778.329	1590
778.435	1001
778.542	1876
778.648	1270
778.754	568
778.860	1460
778.966	481
779.072	1026
779.178	665
779.284	760
779.391	436
779.497	1246
779.603	2762
779.708	1467
779.815	5596
779.920	17841
780.026	36091
780.132	4231
780.238	1836
780.344	1712
780.450	1801
780.556	1540
780.661	896
780.767	1680
780.873	358
780.979	1535
781.085	799
781.190	1013
781.296	813
781.402	1461
781.507	863
781.613	1212
781.719	1646
781.824	1210
781.930	1654
782.035	1158
782.141	1456
782.246	220
782.352	1236
782.457	1052
782.563	1497
782.668	856
782.773	1188
782.879	709
782.984	1904
783.090	1456
783.195	1408
783.300	1082
783.405	1423
783.511	600
783.616	2176
783.721	2043
783.826	1456
783.932	920
784.037	1881
784.142	436
784.247	630
784.352	1751
784.457	1382
784.562	1433
784.667	2024
784.772	1537
784.877	475
784.982	1195
785.087	762
785.192	1881
785.297	1082
785.402	661
785.507	845
785.611	551
785.716	1485
785.821	867
785.926	508
786.031	-245
786.135	698
786.240	879
786.345	322
786.450	681
786.554	1228
786.659	247
786.763	-482
786.868	1390
786.973	1177
787.077	1054
787.182	520
787.286	144
787.391	55
787.495	113
787.600	1277
787.704	598
787.809	720
787.913	146
788.017	822
788.122	757
788.226	791
788.330	403
788.435	557
788.539	822
788.643	845
788.747	544
788.852	1075
788.956	1126
789.060	401
789.164	153
789.268	384
789.372	1017
789.476	824
789.580	672
789.684	807
789.788	878
789.892	417
789.996	1052
790.100	247
790.204	402
790.308	730
790.412	388
790.516	871
790.620	552
790.724	716
790.828	686
790.931	-98
791.035	1882
791.139	335
791.242	382
791.346	1443
791.450	707
791.554	260
791.657	-235
791.761	1159
791.864	1531
791.968	810
792.072	1107
792.175	259
792.279	-208
792.382	1271
792.486	278
792.589	-56
792.693	574
792.796	485
792.899	469
793.003	1548
793.106	-1320
793.209	518
793.313	1731
793.416	-217
793.519	393
793.623	1651
793.726	495
793.829	-156
793.932	1427
794.035	-316
794.138	1426
794.242	631
794.345	715
794.448	412
794.551	1607
794.654	9000
794.757	18358
794.860	2050
794.963	736
795.066	189
795.169	1016
795.272	-200
795.375	310
795.477	-143
795.580	540
795.683	-571
795.786	452
795.889	-468
795.991	1695
796.094	197
796.197	-697
796.300	765
796.402	177
796.505	-384
796.608	208
796.710	808
796.813	607
796.915	757
797.018	591
797.120	843
797.223	-513
797.326	681
797.428	-359
797.530	46
797.633	-484
797.735	1685
797.838	-163
797.940	475
798.042	-628
798.145	62
798.247	379
798.349	-1175
798.452	772
798.554	-26
798.656	-997
798.758	415
798.860	460
798.962	-243
799.065	324
799.167	-757
799.269	512
799.371	674
799.473	-111
799.575	-668
799.677	187
799.779	2255
799.881	-1574
799.983	398
800.085	792
800.187	751
800.289	-518
800.390	-163
800.492	-185
800.594	1691
800.696	-225
800.798	299
800.899	527
801.001	661
801.103	455
801.205	-190
801.306	-82
801.408	77
801.509	88
801.611	282
801.713	755
801.814	-462
801.916	-166
802.017	-290
802.119	-519
802.220	469
802.322	-1094
802.423	307
802.525	-837
802.626	451
802.727	151
802.829	955
802.930	-1423
803.031	1756
803.133	-1335
803.234	176
803.335	227
803.436	-523
803.538	100
803.639	-356
803.740	665
803.841	-442
803.942	105
804.043	164
804.144	-859
804.245	329
804.346	-558
804.447	159
804.548	-327
804.649	910
804.750	681
804.851	3
804.952	-457
805.053	-78
805.154	-1463
805.255	609
805.355	-407
805.456	-131
805.557	-22
805.658	-584
805.758	-23
805.859	269
805.960	271
806.061	-310
806.161	276
806.262	11
806.362	226
806.463	-94
806.564	279
806.664	-382
806.765	331
806.865	-506
806.966	-811
807.066	-60
807.166	942
807.267	731
807.367	-1185
807.468	800
807.568	-1476
807.668	666
807.769	324
807.869	243
807.969	191
808.069	153
808.170	330
808.270	-525
808.370	398
808.470	-254
808.570	-827
808.670	436
808.770	-229
808.870	-6
808.970	-82
809.070	-273
809.170	-604
809.271	1251
809.370	-17
809.470	456
809.570	-924
809.670	-558
809.770	-728
809.870	191
809.970	59
810.070	63
810.169	360
810.269	-1031
810.369	1018
810.469	384
810.568	24
810.668	-410
810.768	-223
810.867	548
810.967	-712
811.066	-875
811.166	105
811.265	242
811.365	-261
811.464	-347
811.564	109
811.663	532
811.763	-558
811.862	-259
811.962	589
812.061	-355
812.160	-450
812.260	507
812.359	176
812.458	-130
812.557	1082
812.657	238
812.756	1102
812.855	160
812.954	-224
813.053	336
813.153	95
813.252	10
813.351	476
813.450	44
813.549	559
813.648	338
813.747	1074
813.846	879
813.945	-258
814.044	384
814.143	854
814.242	1581
814.341	-126
814.439	1252
814.538	1778
814.637	254
814.736	540
814.835	972
814.933	471
815.032	1262
815.131	1129
815.229	1074
815.328	2574
815.427	1546
815.525	2337
815.624	1875
815.722	1442
815.821	2130
815.919	2759
816.018	2082
816.116	2823
816.215	2500
816.313	2716
816.412	2729
816.510	3093
816.609	4582
816.707	4248
816.805	3614
816.904	4695
817.002	4954
817.100	6186
817.198	6956
817.296	7008
817.395	8711
817.493	11243
817.591	12835
817.689	18054
817.787	25519
817.885	40549
817.983	71915
818.081	143305
818.179	323116
818.277	692062
818.375	607671
818.473	223863
818.571	95694
818.669	61662
818.767	51336
818.865	50782
818.963	59375
819.061	83104
819.158	136200
819.256	263851
819.354	545931
819.452	914851
819.549	680103
819.647	285554
819.745	131793
819.842	77694
819.940	51688
820.038	37613
820.135	28909
820.233	23805
820.330	17969
820.428	13652
820.525	12830
820.623	10418
820.720	8656
820.818	8274
820.915	7535
821.012	7509
821.110	4993
821.207	5499
821.304	3480
821.402	4509
821.499	4855
821.596	6048
821.693	4446
821.791	3896
821.888	2770
821.985	3292
822.082	2662
822.179	2857
822.276	2579
822.373	2002
822.470	1914
822.567	1742
822.664	1349
822.761	2706
822.858	1556
822.955	1557
823.052	1755
823.149	812
823.246	1375
823.343	857
823.440	1351
823.536	323
823.633	678
823.730	573
823.827	1127
823.923	582
824.020	1770
824.117	987
824.213	876
824.310	1588
824.407	547
824.503	1367
824.600	1147
824.696	500
824.793	1455
824.889	1139
824.986	342
825.082	139
825.179	663
825.275	835
825.371	368
825.468	583
825.564	-937
825.660	689
825.757	783
825.853	1227
825.949	-516
826.045	261
826.142	-919
826.238	261
826.334	36
826.430	-623
826.526	166
826.622	-648
826.718	-419
826.814	-520
826.910	1186
827.006	-819
827.102	-932
827.198	393
827.294	-188
827.390	-170
827.486	901
827.582	-923
827.678	-920
827.774	516
827.869	-582
827.965	277
828.061	-539
828.157	-1131
828.252	-340
828.348	-1308
828.444	205
828.539	-1283
828.635	45
828.731	585
828.826	-184
828.922	787
829.017	-434
829.113	-17
829.208	-628
829.304	-932
829.399	789
829.495	-417
829.590	994
829.685	-184
829.781	68
829.876	-630
829.971	21
830.066	-942
830.162	-415
830.257	-780
830.352	187
830.447	210
830.543	-752
830.638	-1944
830.733	397
830.828	-975
830.923	-235
831.018	-793
831.113	325
831.208	-1228
831.303	-391
831.398	-617
831.493	-800
831.588	-612
831.683	-1010
831.778	490
831.873	-383
831.967	-583
832.062	-435
832.157	-895
832.252	-117
832.346	-682
832.441	559
832.536	-692
832.631	348
832.725	-712
832.820	-597
832.914	-1104
833.009	-519
833.104	-509
833.198	-560
833.293	-456
833.387	46
833.482	-903
833.576	-862
833.670	480
833.765	-713
833.859	-1083
833.954	-205
834.048	-1216
834.142	-295
834.237	-403
834.331	-736
834.425	-14
834.519	-962
834.613	412
834.708	-284
834.802	292
834.896	-1229
834.990	-1129
835.084	-289
835.178	-415
835.272	-750
835.366	-934
835.460	-235
835.554	-154
835.648	-388
835.742	-1313
835.836	-568
835.930	-2070
836.024	901
836.117	86
836.211	-1226
836.305	-83
836.399	-200
836.493	-1466
836.586	571
836.680	-1145
836.774	-1250
836.867	-33
836.961	-1537
837.055	-840
837.148	-983
837.242	-923
837.335	-543
837.429	-990
837.522	-846
837.616	-503
837.709	-218
837.803	-2191
837.896	-898
837.989	-1623
838.083	-860
838.176	-781
838.269	-616
838.363	-585
838.456	-1326
838.549	127
838.642	-1240
838.735	-138
838.829	346
838.922	-1207
839.015	-640
839.108	-1831
839.201	-1150
839.294	-339
839.387	247
839.480	-1238
839.573	-1123
839.666	-1079
839.759	-572
839.852	-1464
839.945	-439
840.038	-636
840.131	-767
840.223	-1176
840.316	-691
840.409	-1094
840.502	-1295
840.594	320
840.687	-1509
840.780	-181
840.873	-1141
840.965	-1238
841.058	-898
841.150	-1016
841.243	-1599
841.336	-658
841.428	-554
841.521	-1111
841.613	-1294
841.706	-603
841.798	144
841.890	-552
841.983	-2004
842.075	-533
842.167	-937
842.260	-758
842.352	63
842.444	-1116
842.537	-1497
842.629	-688
842.721	-677
842.813	-609
842.905	-879
842.997	-520
843.090	-833
843.182	-762
843.274	-1631
843.366	627
843.458	-1336
843.550	-555
843.642	-1384
843.734	-1210
843.826	-655
843.918	-571
844.009	-435
844.101	-1080
844.193	-199
844.285	-167
844.377	-238
844.469	800
844.560	1655
844.652	1068
844.744	391
844.835	-899
844.927	-1095
845.019	-1392
845.110	-1178
845.202	-272
845.293	-805
845.385	-1449
845.476	-852
845.568	221
845.659	49
845.751	-981
845.842	-884
845.934	-1464
846.025	-1477
846.116	-838
846.208	-792
846.299	-1481
846.390	-2000
846.482	-1072
846.573	-646
846.664	-1081
846.755	-1089
846.846	-863
846.937	-1741
847.029	-770
847.120	-409
847.211	-1162
847.302	-203
847.393	-2404
847.484	-1186
847.575	-871
847.666	-1742
847.757	-458
847.847	-1377
847.938	-510
848.029	-942
848.120	-1229
848.211	-918
848.302	-1381
848.392	-1506
848.483	-669
848.574	-1001
848.664	-1170
848.755	-1071
848.846	-416
848.936	-1296
849.027	-454
849.118	-492
849.208	-864
849.299	-421
849.389	650
849.480	3676
849.570	7597
849.661	16366
849.751	27571
849.841	8644
849.932	421
850.022	-534
850.112	-401
850.203	-428
850.293	-684
850.383	-415
850.474	-1690
850.564	-990
850.654	-1751
850.744	-1250
850.834	-1814
850.924	38
851.014	-170
851.104	-1060
851.194	-1469
851.284	-921
851.374	-327
851.464	-1402
851.554	-1125
851.644	-1170
851.734	-300
851.824	-615
851.914	-1626
852.004	-717
852.094	-976
852.183	-835
852.273	-545
852.363	-1206
852.452	47
852.542	-588
852.632	-1085
852.721	-658
852.811	-1387
852.901	-357
852.990	-661
853.080	30
853.169	368
853.259	-759
853.348	-304
853.438	467
853.527	675
853.617	2129
853.706	5539
853.795	11584
853.885	30139
853.974	56999
854.063	108256
854.152	168423
854.242	59655
854.331	8354
854.420	2091
854.509	1033
854.598	1188
854.687	537
854.777	742
854.866	-230
854.955	-832
855.044	-1029
855.133	-626
855.222	-264
855.311	-753
855.400	-389
855.488	-521
855.577	-519
855.666	-487
855.755	-485
855.844	-339
855.933	-1270
856.021	-729
856.110	-558
856.199	-1653
856.288	-870
856.376	-1055
856.465	-1120
856.554	-1265
856.642	-1686
856.731	-184
856.819	-44
856.908	-1342
856.996	-1109
857.085	-1331
857.173	-1326
857.262	-949
857.350	-1199
857.438	-504
857.527	-1322
857.615	-1941
857.703	-16
857.792	-1145
857.880	-1611
857.968	-1199
858.056	-885
858.145	-1236
858.233	-1071
858.321	-982
858.409	-35
858.497	-1580
858.585	-1247
858.673	-1049
858.761	-1573
858.849	-1223
858.937	-1429
859.025	-298
859.113	-754
859.201	-1209
859.289	-450
859.377	-1281
859.465	-1367
859.552	-1075
859.640	-832
859.728	-936
859.816	-310
859.903	-698
859.991	-976
860.079	-652
860.166	-1756
860.254	-1532
860.342	-1127
860.429	-1242
860.517	-1829
860.604	-1191
860.692	-1669
860.779	-1257
860.867	-436
860.954	-1306
861.042	-1077
861.129	-997
861.216	-1126
861.304	-810
861.391	-796
861.478	-888
861.565	-453
861.653	202
861.740	-791
861.827	-1043
861.914	-1198
862.001	-1519
862.089	-1484
862.176	-1693
862.263	-1671
862.350	-1343
862.437	-1517
862.524	-877
862.611	-1339
862.698	-481
862.785	-271
862.871	-452
862.958	-722
863.045	-890
863.132	-324
863.219	-846
863.306	-1597
863.392	-673
863.479	-1447
863.566	-1059
863.652	-73
863.739	-1619
863.826	-138
863.912	-1415
863.999	-625
864.086	-1222
864.172	-1550
864.259	-912
864.345	-1098
864.432	-671
864.518	-766
864.604	-1489
864.691	-290
864.777	-590
864.863	-483
864.950	-382
865.036	-124
865.122	63
865.209	1239
865.295	-118
865.381	67
865.467	-469
865.553	1802
865.639	1791
865.726	5255
865.812	12765
865.898	28180
865.984	39813
866.070	76747
866.156	82488
866.242	19690
866.328	3852
866.414	1002
866.499	1656
866.585	653
866.671	1343
866.757	490
866.843	-507
866.928	-766
867.014	-403
867.100	-89
867.186	-1203
867.271	-20
867.357	-125
867.442	-1082
867.528	-563
867.614	358
867.699	-266
867.785	1253
867.870	579
867.956	1304
868.041	633
868.127	283
868.212	684
868.297	44
868.383	31
868.468	381
868.553	52
868.639	30
868.724	-749
868.809	-117
868.894	-290
868.979	-1114
869.065	-198
869.150	-1455
869.235	-881
869.320	-873
869.405	-938
869.490	-1351
869.575	-855
869.660	-1168
869.745	-8
869.830	-1402
869.915	-565
870.000	-1412
870.085	-169
870.169	101
870.254	-681
870.339	-1403
870.424	-1035
870.509	-543
870.593	-425
870.678	-123
870.763	-883
870.847	-935
870.932	-1080
871.016	177
871.101	102
871.186	-299
871.270	14
871.355	-324
871.439	-481
871.523	-1114
871.608	-1620
871.692	-827
871.777	456
871.861	4
871.945	-1046
872.030	-584
872.114	-614
872.198	-898
872.282	-729
872.367	-304
872.451	-433
872.535	-688
872.619	41
872.703	-954
872.787	-1166
872.871	-82
872.955	-876
873.039	-1321
873.123	-988
873.207	-20
873.291	-245
873.375	-1372
873.459	-643
873.543	-1750
873.627	-719
873.711	-40
873.794	-264
873.878	322
873.962	-1273
874.045	-888
874.129	-1352
874.137	-1282
874.213	-582
874.245	-552
874.296	-500
874.352	-1076
874.380	-1359
874.460	-830
874.464	-809
874.547	-231
874.568	-288
874.631	-427
874.676	-743
874.714	-1031
874.784	-144
874.798	41
874.881	788
874.892	577
874.965	-914
874.999	-629
875.048	-222
875.107	-166
875.131	-166
875.215	-827
875.215	-827
875.298	-513
875.323	-517
875.381	-628
875.430	-570
875.465	-474
875.538	-667
875.548	-700
875.631	-434
875.646	-572
875.714	-1214
875.753	-1078
875.798	-945
875.861	-500
875.881	-335
875.964	-1158
875.968	-1106
876.047	-293
876.076	-314
876.130	-287
876.183	-553
876.213	-721
876.291	-241
876.296	-206
876.379	-468
876.398	-532
876.462	-898
876.506	-983
876.545	-977
876.613	-658
876.628	-557
876.711	-95
876.721	-33
876.794	183
876.828	60
876.877	-103
876.935	-485
876.960	-548
877.043	406
877.043	405
877.125	-133
877.150	-25
877.208	262
877.258	308
877.291	396
877.365	-387
877.374	-487
877.456	591
877.472	512
877.539	135
877.579	166
877.622	292
877.687	572
877.704	573
877.787	-51
877.794	-23
877.869	595
877.901	466
877.952	102
878.008	210
878.034	348
878.115	51
878.117	38
878.199	-156
878.222	-323
878.282	-328
878.329	-82
878.364	-157
878.437	-117
878.447	-74
878.529	-204
878.544	-203
878.611	-319
878.651	-493
878.694	-512
878.758	-213
878.776	-179
878.858	-54
878.865	-57
878.941	-190
878.972	-220
879.023	-147
879.078	-518
879.105	-644
879.185	-394
879.187	-394
879.269	-448
879.292	-361
879.351	-30
879.399	-499
879.433	-879
879.506	-810
879.516	-750
879.598	-560
879.613	-546
879.680	-919
879.720	-832
879.762	-562
879.827	-278
879.844	-229
879.926	-551
879.933	-573
880.007	-531
880.040	-425
880.089	-451
880.147	-425
880.171	-385
880.253	-510
880.254	-512
880.335	-485
880.360	-546
880.417	-663
880.467	-500
880.499	-367
880.574	-70
880.580	-44
880.662	76
880.680	-77
880.744	-884
880.787	-992
880.825	-711
880.893	-318
880.907	-420
880.989	-747
881.000	-829
881.070	-392
881.106	-165
881.152	-290
881.213	-478
881.233	-433
881.315	-233
881.319	-226
881.396	-257
881.426	-422
881.478	-592
881.532	-486
881.559	-572
881.639	-264
881.641	-244
881.722	-487
881.745	-454
881.803	-345
881.852	-73
881.885	-38
881.958	-356
881.966	-391
882.047	-240
882.064	-343
882.129	-377
882.171	-114
882.210	-265
882.277	-517
882.291	-421
882.372	-321
882.383	-319
882.454	-688
882.489	-710
882.535	-436
882.596	-88
882.616	-228
882.697	-1167
882.702	-1199
882.778	-223
882.808	13
882.859	-460
882.914	-669
882.940	-515
883.020	-407
883.021	-407
883.102	-458
883.127	-493
883.183	-203
883.233	22
883.264	-55
883.339	-201
883.345	-181
883.426	-150
883.445	-105
883.507	-75
883.551	-120
883.587	-180
883.657	8
883.668	12
883.749	-372
883.763	-434
883.830	-554
883.869	-697
883.910	-811
883.975	-546
883.991	-404
884.072	-225
884.081	-217
884.152	-606
884.187	-550
884.233	-23
884.292	421
884.314	246
884.394	-494
884.398	-547
884.475	-717
884.504	-605
884.555	-537
884.610	-708
884.636	-734
884.716	-322
884.716	-319
884.797	-781
884.821	-736
884.877	-142
884.927	-134
884.958	-259
885.033	1
885.038	-7
885.118	-545
885.139	-656
885.199	-818
885.244	-727
885.279	-446
885.350	-228
885.359	-231
885.439	-181
885.456	-240
885.520	-383
885.561	-201
885.600	-41
885.667	-157
885.680	-187
885.760	-132
885.773	-158
885.840	-456
885.878	-474
885.920	-340
885.984	-400
886.000	-467
886.080	-789
886.089	-788
886.160	-510
886.195	-611
886.240	-492
886.300	-77
886.320	13
886.400	357
886.406	368
886.480	-171
886.511	-385
886.560	45
886.616	466
886.640	354
886.720	35
886.722	22
886.800	-176
886.827	-230
886.879	-262
886.932	-389
886.959	-203
887.038	569
887.039	561
887.119	-523
887.143	-891
887.198	-241
887.248	422
887.278	195
887.354	-394
887.358	-353
887.437	356
887.459	589
887.517	498
887.564	306
887.596	191
887.669	-9
887.676	-40
887.755	-397
887.774	-543
887.835	-286
887.880	49
887.914	-96
887.985	-504
887.994	-399
888.073	497
888.090	678
888.153	-169
888.195	-714
888.232	-460
888.300	-56
888.311	-127
888.391	-611
888.405	-700
888.470	-245
888.510	-29
888.549	-60
888.615	16
888.628	-68
888.708	-673
888.720	-757
888.787	-167
888.825	127
888.866	-177
888.930	-651
888.945	-617
889.024	-410
889.035	-380
889.103	112
889.140	355
889.182	241
889.245	66
889.261	58
889.340	35
889.349	30
889.419	154
889.454	209
889.498	164
889.559	86
889.577	-46
889.656	-611
889.664	-665
889.735	-87
889.768	192
889.814	166
889.873	132
889.978	-73
890.083	-39
890.187	210
890.292	-720
890.397	205
890.501	-62
890.606	-325
890.710	-9
890.815	-6
890.919	-175
891.024	528
891.128	631
891.233	193
891.337	-493
891.442	392
891.546	-1034
891.650	117
891.755	75
891.859	1701
891.963	204
892.068	1222
892.172	-379
892.276	453
892.380	-185
892.484	1047
892.589	-791
892.693	845
892.797	-428
892.901	-118
893.005	-264
893.109	647
893.213	52
893.317	762
893.421	381
893.525	-189
893.629	-27
893.733	304
893.837	-911
893.941	59
894.045	689
894.148	-84
894.252	-165
894.356	-234
894.460	-924
894.564	-1198
894.667	149
894.771	439
894.875	-486
894.978	355
895.082	-759
895.186	606
895.289	59
895.393	810
895.496	-402
895.600	-233
895.703	-282
895.807	736
895.910	-291
896.014	-1038
896.117	-766
896.221	97
896.324	-577
896.427	104
896.531	-222
896.634	986
896.737	0
896.840	-142
896.944	-39
897.047	1486
897.150	814
897.253	-215
897.356	-604
897.460	319
897.563	-876
897.666	-136
897.769	-794
897.872	-293
897.975	240
898.078	-341
898.181	-118
898.284	517
898.387	148
898.490	503
898.593	-489
898.695	-11
898.798	-997
898.901	240
899.004	-120
899.107	-643
899.209	-577
899.312	-179
899.415	186
899.518	-43
899.620	-446
899.723	-86
899.826	55
899.928	161
900.031	-401
900.133	84
900.236	-798
900.338	-152
900.441	-849
900.543	478
900.646	-55
900.748	-478
900.851	-866
900.953	672
901.055	-594
901.158	172
901.260	173
901.362	483
901.465	25
901.567	244
901.669	181
901.771	757
901.873	111
901.976	-133
902.078	-770
902.180	-214
902.282	-281
902.384	754
902.486	-35
902.588	86
902.690	-1145
902.792	37
902.894	-233
902.996	1034
903.098	138
903.200	-208
903.302	52
903.404	313
903.505	-1197
903.607	-534
903.709	429
903.811	220
903.913	-298
904.014	-59
904.116	295
904.218	17
904.319	-655
904.421	84
904.523	-850
904.624	57
904.726	-421
904.827	128
904.929	777
905.030	623
905.132	-443
905.233	-534
905.335	-821
905.436	-182
905.537	-936
905.639	324
905.740	-599
905.841	691
905.943	-316
906.044	-54
906.145	554
906.247	229
906.348	173
906.449	70
906.550	-1056
906.651	928
906.752	-511
906.854	-841
906.955	-1039
907.056	423
907.157	344
907.258	455
907.359	-297
907.460	776
907.561	-698
907.662	382
907.762	176
907.863	-250
907.964	-537
908.065	638
908.166	-262
908.267	-262
908.367	-403
908.468	554
908.569	-1509
908.670	-445
908.770	437
908.871	-112
908.971	-399
909.072	130
909.173	-535
909.273	-857
909.374	-595
909.474	-37
909.575	110
909.675	73
909.776	401
909.876	-476
909.977	-424
910.077	45
910.177	-709
910.278	-557
910.378	-578
910.478	-122
910.579	-485
910.679	209
910.779	-961
910.879	-33
910.980	-671
911.080	-106
911.180	-304
911.280	-134
911.380	-1563
911.480	605
911.580	-589
911.680	675
911.780	-781
911.880	-299
911.980	-1660
912.080	41
912.180	-561
912.280	683
912.380	-669
912.480	134
912.580	-487
912.679	-94
912.779	-582
912.879	-62
912.979	-381
913.078	171
913.178	-864
913.278	-356
913.377	-1127
913.477	42
913.577	-755
913.676	464
913.776	-1463
913.875	-155
913.975	-188
914.074	-15
914.174	-657
914.273	-897
914.373	106
914.472	190
914.572	-678
914.671	-658
914.770	-802
914.870	-1186
914.969	-1700
915.068	272
915.167	-31
915.267	-274
915.366	-752
915.465	-786
915.564	-874
915.663	81
915.763	-667
915.862	574
915.961	-275
916.060	-37
916.159	-896
916.258	-505
916.357	-532
916.456	50
916.555	-143
916.654	-264
916.752	-501
916.851	-701
916.950	-1140
917.049	-143
917.148	-960
917.247	-319
917.345	-745
917.444	-395
917.543	-596
917.642	92
917.740	144
917.839	934
917.937	-357
918.036	-533
918.135	-862
918.233	-469
918.332	-820
918.430	-403
918.529	-1275
918.627	-137
918.726	-756
918.824	67
918.923	-1209
919.021	-1023
919.119	-1058
919.218	377
919.316	-1025
919.414	-946
919.512	-558
919.611	-154
919.709	-379
919.807	140
919.905	-653
920.003	93
920.102	-1005
920.200	-200
920.298	-1314
920.396	-89
920.494	-867
920.592	-60
920.690	-1112
920.788	140
920.886	-563
920.984	111
921.082	-534
921.180	624
921.277	-375
921.375	331
921.473	-526
921.571	-601
921.669	-463
921.766	718
921.864	-169
921.962	493
922.060	-1111
922.157	309
922.255	-115
922.352	348
922.450	45
922.548	-155
922.645	-795
922.743	131
922.840	269
922.938	930
923.035	1017
923.133	640
923.230	-270
923.327	1092
923.425	588
923.522	1084
923.619	-180
923.717	533
923.814	-244
923.911	623
924.008	348
924.106	451
924.203	41
924.300	-481
924.397	844
924.494	1654
924.591	-338
924.688	143
924.786	433
924.883	823
924.979	-558
925.077	310
925.173	280
925.270	764
925.367	530
925.464	746
925.561	694
925.658	1277
925.755	80
925.852	546
925.948	410
926.045	1430
926.142	1393
926.239	1696
926.335	492
926.432	1136
926.529	1419
926.625	1252
926.722	239
926.818	672
926.915	459
927.011	486
927.108	-139
927.204	542
927.301	-159
927.397	249
927.494	-300
927.590	191
927.687	-192
927.783	926
927.879	364
927.976	-817
928.072	-357
928.168	109
928.264	-517
928.361	173
928.457	1462
928.553	76
928.649	347
928.745	401
928.841	-671
928.937	292
929.033	-251
929.129	1140
929.225	-325
929.321	1022
929.417	-125
929.513	297
929.609	236
929.705	-33
929.801	75
929.897	247
929.993	-801
930.089	788
930.184	-473
930.280	438
930.376	450
930.471	111
930.567	-207
930.663	750
930.758	-906
930.854	638
930.950	-631
931.045	-136
931.141	-184
931.236	-172
931.332	-191
931.427	-268
931.523	-409
931.618	865
931.714	-24
931.809	-137
931.905	-224
932.000	-210
932.095	-514
932.191	388
932.286	16
932.381	-146
932.476	-120
932.572	791
932.667	-269
932.762	-199
932.857	-185
932.952	-4
933.047	-421
933.142	-249
933.237	518
933.332	402
933.427	9
933.522	417
933.617	-775
933.712	851
933.807	-550
933.902	169
933.997	271
934.092	463
934.187	-187
934.282	-171
934.376	24
934.471	693
934.566	-796
934.661	-692
934.755	-129
934.850	502
934.945	-592
935.039	-466
935.134	-116
935.228	603
935.323	-876
935.417	92
935.512	-230
935.606	-168
935.701	-511
935.795	63
935.890	-631
935.984	67
936.079	-752
936.173	836
936.267	-1504
936.362	-291
936.456	-235
936.550	-389
936.644	547
936.738	-413
936.833	-704
936.927	-3
937.021	-892
937.115	-288
937.209	-1258
937.303	1120
937.397	-502
937.491	219
937.585	-627
937.679	293
937.773	-1361
937.867	-148
937.961	267
938.055	75
938.149	425
938.243	-190
938.337	-303
938.430	-520
938.524	-145
938.618	370
938.712	1214
938.805	121
938.899	-85
938.993	385
939.086	129
939.180	1247
939.274	2169
939.367	617
939.461	54
939.554	342
939.648	-1083
939.741	-26
939.835	-358
939.928	384
940.022	204
940.115	-335
940.208	-59
940.302	340
940.395	372
940.488	-758
940.582	91
940.675	618
940.768	-412
940.861	-79
940.954	475
941.048	402
941.141	-184
941.234	427
941.327	1458
941.420	2689
941.513	-95
941.606	-160
941.699	174
941.792	-1111
941.885	-428
941.978	-548
942.071	-374
942.164	444
942.257	-331
942.349	211
942.442	-509
942.535	-1158
942.628	-1313
942.721	-323
942.813	-1220
942.906	831
942.999	-645
943.091	-339
943.184	-1023
943.277	-371
943.369	-672
943.462	182
943.554	-234
943.647	449
943.739	-267
943.832	729
943.924	-652
944.017	217
944.109	-1219
944.201	-313
944.294	-651
944.386	182
944.478	-975
944.571	34
944.663	-706
944.755	-719
944.847	-538
944.940	515
945.032	-1422
945.124	-678
945.216	984
945.308	149
945.400	15
945.492	-90
945.584	-73
945.676	816
945.768	-683
945.860	630
945.952	-615
946.044	645
946.136	-244
946.228	-186
946.320	-498
946.412	120
946.503	-234
946.595	1170
946.687	-582
946.779	-475
946.870	-890
946.962	-708
947.054	-1207
947.145	171
947.237	-1109
947.329	442
947.420	-463
947.512	-777
947.603	-788
947.695	-144
947.786	-1503
947.878	-24
947.969	-751
948.061	-535
948.152	-316
948.243	-434
948.335	-667
948.426	-217
948.517	-264
948.609	229
948.700	-484
948.791	-496
948.882	-320
948.973	-51
949.065	-998
949.156	-542
949.247	-1513
949.338	262
949.429	-1276
949.520	93
949.611	-752
949.702	-886
949.793	-302
949.884	-327
949.975	-297
950.066	-633
950.157	-812
950.247	-232
950.338	-470
950.429	-60
950.520	-1204
950.611	-245
950.701	-815
950.792	275
950.883	-599
950.973	-202
951.064	-984
951.155	-671
951.245	-1158
951.336	415
951.427	-866
951.517	321
951.608	-242
951.698	-455
951.788	-723
951.879	-810
951.969	-1309
952.060	-342
952.150	-785
952.240	362
952.331	-1887
952.421	581
952.511	-992
952.602	-584
952.692	-541
952.782	6
952.872	-1294
952.962	-94
953.052	-869
953.143	-719
953.233	-1062
953.323	124
953.413	-1475
953.503	-278
953.593	-983
953.683	-606
953.773	-1212
953.863	-187
953.953	-1296
954.042	-1010
954.132	-1211
954.222	-220
954.312	-1463
954.402	-1261
954.492	-1210
954.581	-350
954.671	-1904
954.761	-1407
954.850	552
954.940	-1332
955.030	-1725
955.119	-1284
955.209	-534
955.298	-1440
955.388	-966
955.477	247
955.567	-1551
955.656	-756
955.746	-1360
955.835	-1169
955.925	-792
956.014	-1119
956.103	-744
956.193	-597
956.282	-1177
956.371	-567
956.461	-860
956.550	-652
956.639	-1085
956.728	-112
956.817	-966
956.906	-825
956.995	-704
957.085	-305
957.174	-826
957.263	-942
957.352	-1290
957.441	-926
957.530	-1177
957.619	-975
957.708	-1339
957.796	-623
957.885	-720
957.974	-1064
958.063	-725
958.152	-1072
958.241	-1000
958.329	-324
958.418	-1425
958.507	-1304
958.596	-306
958.684	-1783
958.773	190
958.861	-755
958.950	-972
959.039	-652
959.127	-1429
959.216	-465
959.304	-1293
959.393	-651
959.481	-697
959.570	-1038
959.658	-1553
959.746	-459
959.835	-941
959.923	-276
960.011	-1782
960.100	-537
960.188	-1962
960.276	-1514
960.365	-1187
960.453	-959
960.541	-2166
960.629	-397
960.717	-922
960.805	-1310
960.893	-1269
960.981	-1105
961.069	-50
961.158	-472
961.245	-1617
961.333	-839
961.421	-1990
961.509	-1164
961.597	-514
961.685	-1479
961.773	-991
961.861	-1618
961.949	-367
962.036	-1461
962.124	-622
962.212	-1345
962.299	-2332
962.387	-1270
962.475	-958
962.562	-1553
962.650	-833
962.738	-279
962.825	-1240
962.913	-710
963.000	-816
963.088	-336
963.175	-1468
963.263	-972
963.350	-2230
963.438	-1462
963.525	-1595
963.612	-870
963.700	-1595
963.787	-1127
963.874	-1672
963.962	-435
964.049	-1972
964.136	-1101
964.223	-1493
964.310	-761
964.398	-1611
964.485	-824
964.572	-1731
964.659	-378
964.746	-1595
964.833	-398
964.920	-1615
965.007	-543
965.094	-1826
965.181	-1531
965.268	-1332
965.355	-837
965.441	-1043
965.528	-1135
965.615	-479
965.702	-1511
965.789	-1588
965.875	-337
965.962	-1815
966.049	-824
966.136	-1616
966.222	-1488
966.309	-1438
966.395	-1308
966.482	-804
966.569	-1154
966.655	-1307
966.742	-1380
966.828	-2099
966.915	-1907
967.001	-1348
967.087	-1791
967.174	-1401
967.260	-644
967.347	-584
967.433	-1414
967.519	-948
967.605	-1345
967.692	-1861
967.778	-1617
967.864	-1730
967.950	-333
968.036	-2439
968.123	-578
968.209	-960
968.295	-1715
968.381	410
968.467	-617
968.553	-1935
968.639	-497
968.725	-1907
968.811	-477
968.897	-1108
968.983	-1335
969.069	-2130
969.154	-1073
969.240	-375
969.326	-1994
969.412	-1204
969.497	-1812
969.583	-2563
969.669	-376
969.755	-1613
969.840	-1229
969.926	-564
970.012	-1367
970.097	-331
970.183	-849
970.268	-1706
970.354	-666
970.439	-2178
970.525	-814
970.610	-2604
970.696	455
970.781	-1195
970.866	-2163
970.952	-755
971.037	-2064
971.122	-1290
971.208	-737
971.293	-1559
971.378	-2008
971.463	-1357
971.549	-673
971.634	-1211
971.719	-1159
971.804	-1472
971.889	-261
971.974	-2000
972.059	-1094
972.144	-1899
972.229	-1068
972.314	-1185
972.399	-557
972.484	-1246
972.569	-1104
972.654	-2767
972.739	-532
972.824	-1424
972.908	-518
972.993	-2093
973.078	-877
973.163	-2215
973.247	-1303
973.332	-3040
973.417	-53
973.501	-1745
973.586	-1281
973.671	-1281
973.755	-1783
973.840	-1271
973.924	-1291
974.009	-736
974.093	-1755
974.178	-447
974.262	-947
974.346	-1182
974.431	-520
974.515	-788
974.600	-2089
974.684	-2332
974.768	-1008
974.852	249
974.937	-1728
975.021	-927
975.105	-365
975.189	-1587
975.273	-425
975.358	-1778
975.442	-1808
975.526	-1258
975.610	-1791
975.694	-2482
975.778	9
975.862	-1537
975.946	-2593
976.030	-704
976.114	-1206
976.198	-1669
976.281	-684
976.365	-999
976.449	-644
976.533	-1720
976.617	-1241
976.700	-1354
976.784	-1393
976.868	-2143
976.951	-1065
977.035	-1221
977.119	-525
977.202	-1667
977.286	-1562
977.369	-1617
977.453	-850
977.536	-1350
977.620	-862
977.703	-996
977.787	-2316
977.870	-1121
977.953	-164
978.037	-2288
978.120	-459
978.203	-1959
978.287	-1368
978.370	-1736
978.453	-1755
978.536	-782
978.620	-296
978.703	-1500
978.786	-1118
978.869	-1374
978.952	-1659
979.035	-578
979.118	-630
979.201	-1628
979.284	100
979.367	-1884
979.450	-342
979.533	-1612
979.616	-471
979.699	-1591
979.782	-459
979.865	-1452
979.948	-1135
980.030	-1477
980.113	-1235
980.196	-2269
980.279	-785
980.361	-1964
980.444	-1231
980.526	-2067
980.609	-1459
980.692	-1234
980.774	-274
980.857	-2942
980.939	-521
981.022	-1713
981.104	-1723
981.187	-1572
981.269	-405
981.352	-2360
981.434	-2286
981.516	-2169
981.599	-102
981.681	-1379
981.763	-1041
981.846	-1754
981.928	-1484
982.010	-1412
982.092	-1901
982.174	-1247
982.256	-1909
982.339	-1806
982.421	-854
982.503	-1647
982.585	-1836
982.667	-2021
982.749	-1354
982.831	-1501
982.913	-1788
982.995	-1711
983.077	-1005
983.158	-903
983.240	-2271
983.322	-1926
983.404	-511
983.486	-2043
983.568	-209
983.649	-1466
983.731	-1116
983.813	-1985
983.894	-1232
983.976	-1559
984.058	-1946
984.139	-761
984.221	-1518
984.302	-764
984.384	-1007
984.465	-2105
984.547	-1044
984.628	-1859
984.710	-1504
984.791	-1743
984.872	-1257
984.954	-1181
985.035	-943
985.116	-1975
985.198	-763
985.279	-420
985.360	-1694
985.441	-1647
985.522	-794
985.604	-1318
985.685	-2367
985.766	-441
985.847	-70
985.928	-1677
986.009	-1106
986.090	-1928
986.171	-465
986.252	-2411
986.333	-563
986.414	-2008
986.495	-854
986.576	-1217
986.656	-1181
986.737	-1599
986.818	-827
986.899	-1264
986.980	-1475
987.060	-1193
987.141	-888
987.222	-1876
987.302	-1319
987.383	-1692
987.464	-951
987.544	-1237
987.625	-867
987.705	-772
987.786	-776
987.866	-1794
987.947	-47
988.027	-1187
988.108	-1408
988.188	-921
988.268	-1524
988.349	-1054
988.429	-1118
988.509	-1013
988.589	-1281
988.670	-2215
988.750	223
988.830	-1382
988.910	-621
988.990	-1539
989.070	-737
989.151	-1440
989.231	-1334
989.311	-1042
989.391	-1330
989.471	-1477
989.551	-1260
989.631	-2175
989.711	-292
989.791	-1617
989.870	-1541
989.950	-1610
990.030	-1430
990.110	-1764
990.190	-1754
990.269	-1399
990.349	-1196
990.429	-831
990.509	-259
990.588	-2185
990.668	-507
990.747	-2092
990.827	-786
990.907	-1499
990.986	-868
991.066	-933
991.145	-1495
991.225	-2359
991.304	-1665
991.383	-1527
991.463	-794
991.542	-1061
991.622	-1617
991.701	-1662
991.780	-1186
991.859	-1775
991.939	-1067
992.018	-2599
992.097	-1029
992.176	-1011
992.256	-1439
992.335	-1961
992.414	-1059
992.493	-801
992.572	-1536
992.651	-538
992.730	-1829
992.809	-1401
992.888	-1281
992.967	-1789
993.046	-647
993.125	-2756
993.203	-1446
993.282	-1524
993.361	-701
993.440	-1178
993.519	-1582
993.597	-976
993.676	-1940
993.755	-1185
993.834	-829
993.912	-2200
993.991	115
994.069	-2262
994.148	-1449
994.226	-1782
994.305	-1042
994.384	-2253
994.462	-75
994.540	-2441
994.619	-1356
994.697	-1020
994.776	-1815
994.854	-751
994.932	-1196
995.011	-1619
995.089	-2198
995.167	-952
995.245	-775
995.324	-2275
995.402	-733
995.480	-1509
995.558	-854
995.636	-2110
995.714	-1365
995.792	-837
995.870	-1722
995.948	-1627
996.026	-557
996.104	-2652
996.182	-1698
996.260	-1539
996.338	-1268
996.416	-2617
996.494	-831
996.572	-307
996.649	-1699
996.727	-2812
996.805	-380
996.883	-1466
996.960	-1085
997.038	-1391
997.116	-1018
997.193	-2136
997.271	-1106
997.348	-2611
997.426	-1007
997.504	-1625
997.581	-797
997.658	-1564
997.736	-1845
997.813	-2040
997.891	-658
997.968	-1468
998.046	-607
998.123	-2041
998.200	-519
998.277	-2307
998.355	-493
998.432	-2537
998.509	-1620
998.586	-697
998.663	-1144
998.741	-2127
998.818	-1229
998.895	-1451
998.972	-1368
999.049	-1625
999.126	-1796
999.203	-1235
999.280	-1361
999.357	-2671
999.434	-1961
999.511	-1305
999.587	-913
999.664	-1897
999.741	-1378
999.818	-1137
999.895	-1518
999.971	-2440
1000.048	-1373
1000.125	-1364
1000.202	-1878
1000.278	-1506
1000.355	-2144
1000.431	-1751
1000.508	-1249
1000.584	-1613
1000.661	-724
1000.738	-2594
1000.814	-1752
1000.890	-1559
1000.967	-1509
1001.043	-1027
1001.120	-2549
1001.196	-2298
1001.272	-1959
1001.349	-898
1001.425	-838
1001.501	-1810
1001.577	-1714
1001.654	-1684
1001.730	-1841
1001.806	-2524
1001.882	-2113
1001.958	-2293
1002.034	-1543
1002.110	-1689
1002.186	-2440
1002.262	-1689
1002.338	-1800
1002.414	-2221
1002.490	-1244
1002.566	-2197
1002.642	-1158
1002.718	-1391
1002.794	-1437
1002.870	-1979
1002.945	-1533
1003.021	-1585
1003.097	-1799
1003.173	-1841
1003.248	-1825
1003.324	-1480
1003.400	-1408
1003.475	-2250
1003.551	-1618
1003.626	-1986
1003.702	-2682
1003.777	-1306
1003.853	-2044
1003.928	-2190
1004.004	-1450
1004.079	-1563
1004.155	-1324
1004.230	-2451
1004.305	-838
1004.381	-2403
1004.456	-1269
1004.531	-1457
1004.607	-1637
1004.682	-1776
1004.757	-1317
1004.832	-2560
1004.907	-1635
1004.982	-1719
1005.057	-928
1005.133	-2189
1005.208	-1911
1005.283	-2088
1005.358	-1277
1005.433	-2130
1005.508	-1245
1005.583	-2424
1005.657	-1365
1005.732	-1729
1005.807	-1039
1005.882	-2823
1005.957	-1312
1006.032	-2175
1006.106	-1763
1006.181	-1659
1006.256	-1305
1006.331	-1903
1006.405	-1965
1006.480	-1163
1006.554	-2006
1006.629	-2076
1006.704	-1755
1006.778	-1558
1006.853	-835
1006.927	-2060
1007.002	-1803
1007.076	-2387
1007.150	-1384
1007.225	-2277
1007.299	-1684
1007.373	-2984
1007.448	-1176
1007.522	-1946
1007.596	-1320
1007.671	-2096
1007.745	-1285
1007.819	-2627
1007.893	-1387
1007.967	-1518
1008.041	-2601
1008.115	-1250
1008.190	-2174
1008.264	-1461
1008.338	-2043
1008.412	-3004
1008.486	-1880
1008.560	-1489
1008.633	-1398
1008.707	-1134
1008.781	-961
1008.855	-2600
1008.929	-1282
1009.003	-2230
1009.076	-1970
1009.150	-2532
1009.224	-1161
1009.298	-1660
1009.371	-2044
1009.445	-1395
1009.519	-2164
1009.592	-2537
1009.666	-1689
1009.739	-2191
1009.813	-2219
1009.886	-958
1009.960	-2376
1010.033	-994
1010.107	-1136
1010.180	-2462
1010.253	-965
1010.327	-2366
1010.400	-1861
1010.473	-2744
1010.547	-5
1010.620	-2049
1010.693	-1551
1010.766	-2326
1010.840	-604
1010.913	-2926
1010.986	-1515
1011.059	-2588
1011.132	-1699
1011.205	-1845
1011.278	-1441
1011.351	-1467
1011.424	-471
1011.497	-2557
1011.570	-2232
1011.643	-2035
1011.716	-2027
1011.789	-2448
1011.862	-1412
1011.934	-1136
1012.007	-1998
1012.080	-2409
1012.153	-2014
1012.225	-654
1012.298	-1592
1012.371	-1463
1012.443	-1022
1012.516	-2887
1012.588	-1550
1012.661	-2076
1012.733	-2614
1012.806	-1480
1012.879	-1648
1012.951	-1698
1013.023	-1763
1013.096	-1566
1013.168	-1516
1013.241	-812
1013.313	-1129
1013.385	-2190
1013.458	-2032
1013.530	-1787
1013.602	-2143
1013.674	-1507
1013.746	-2247
1013.819	-2334
1013.891	-796
1013.963	-2075
1014.035	-1611
1014.107	-1579
1014.179	-1246
1014.251	-2910
1014.323	-578
1014.395	-2408
1014.467	-1739
1014.539	-2384
1014.611	-2044
1014.683	-1026
1014.754	-1827
1014.826	-2379
1014.898	-1428
1014.970	-2698
1015.042	-523
1015.113	-1830
1015.185	-1196
1015.257	-3573
1015.328	-171
1015.400	-2739
1015.471	-1418
1015.543	-2826
1015.615	-798
1015.686	-2179
1015.757	-2252
1015.829	-2093
1015.901	-1930
1015.972	-1196
1016.043	-1800
1016.115	-2114
1016.186	-1839
1016.257	-2553
1016.328	-1310
1016.400	-1373
1016.471	-1993
1016.542	-2267
1016.613	-1519
1016.685	-1542
1016.756	-1597
1016.827	-2280
1016.898	-2042
1016.969	-1821
1017.040	-1286
1017.111	-1805
1017.182	-2150
1017.253	-1891
1017.324	-1901
1017.395	-1973
1017.466	-1932
1017.537	-2144
1017.608	-1598
1017.678	-2440
1017.749	-1598
1017.820	-1313
1017.891	-2109
1017.961	-2108
1018.032	-2399
1018.103	-1963
1018.173	-1335
1018.244	-2431
1018.315	-1389
1018.385	-1853
1018.456	-1847
1018.526	-2348
1018.597	-1875
1018.667	-2451
1018.738	-2184
1018.808	-1981
1018.878	-1811
1018.949	-2141
1019.019	-1482
1019.089	-2243
1019.160	-2056
1019.230	-2570
1019.300	-1623
1019.371	-2565
1019.441	-1948
1019.511	-1522
1019.581	-1551
1019.651	-1704
1019.721	-2202
1019.791	-2034
1019.861	-2255
1019.931	-2200
1020.001	-1177
1020.071	-2479
1020.141	-2859
1020.211	-2388
1020.281	-2055
1020.351	-2506
1020.421	-2099
1020.491	-1177
1020.560	-1694
1020.630	-2264
1020.700	-1390
1020.770	-2006
1020.839	-2551
1020.909	-1725
1020.979	-1815
1021.048	-2175
1021.118	-2437
1021.187	-1300
1021.257	-917
1021.326	-1859
1021.396	-1118
1021.465	-2282
1021.535	-1706
1021.604	-2724
1021.674	-1614
1021.743	-1957
1021.812	-1469
1021.882	-2703
1021.951	-2654
1022.020	-2284
1022.089	-1391
1022.159	-2991
1022.228	-2478
1022.297	-1894
1022.366	-3436
1022.435	-2417
1022.504	-1632
1022.573	-2418
1022.642	-1803
1022.711	-2179
1022.781	-1201
1022.849	-2372
1022.918	-1515
1022.987	-1819
1023.056	-1940
1023.125	-2342
1023.194	-1555
1023.263	-1473
1023.331	-1388
1023.400	-2043
1023.469	-2658
1023.538	-2461
1023.606	-1757
1023.675	-2031
1023.744	-1625
1023.812	-1761
1023.881	-2142
1023.949	-2305
1024.018	-2195
1024.086	-2510
1024.155	-2051
1024.223	-2075
1024.292	-846
1024.360	-1739
1024.429	-1849
1024.497	-2368
1024.565	-1609
1024.634	-2011
1024.702	-1127
1024.770	-1893
1024.838	-2893
1024.907	-1794
1024.975	-2026
1025.043	-2481
1025.111	-1773
1025.179	-2103
1025.247	-1801
1025.315	-1854
1025.383	-1468
1025.451	-2786
1025.519	-591
1025.587	-2510
1025.655	-1065
1025.723	-2384
1025.791	-1877
1025.859	-1764
1025.927	-1725
1025.995	-2600
1026.062	-989
1026.130	-1688
1026.198	-1958
1026.266	-3058
1026.333	-1583
1026.401	-1527
1026.469	-2118
1026.536	-2046
1026.604	-1318
1026.671	-2125
1026.739	-2141
1026.806	-1883
1026.874	-2060
1026.941	-2363
1027.009	-2130
1027.076	-2006
1027.144	-1022
1027.211	-3139
1027.278	-1872
1027.345	-2179
1027.413	-2202
1027.480	-2519
1027.547	-2174
1027.614	-2401
1027.682	-1115
1027.749	-1865
1027.816	-1802
1027.883	-2353
1027.950	-1833
1028.017	-2065
1028.084	-1538
1028.151	-2441
1028.218	-2022
1028.285	-2751
1028.352	-2330
1028.419	-2486
1028.486	-2004
1028.553	-1922
1028.619	-1832
1028.686	-1825
1028.753	-2053
1028.820	-1953
1028.886	-1722
1028.953	-2675
1029.020	-1676
1029.086	-1611
1029.153	-1389
1029.220	-2979
1029.286	-2612
1029.353	-3450
1029.419	-2419
1029.486	-1631
1029.552	-1814
1029.619	-2800
1029.685	-1798
1029.751	-2545
1029.818	-1338
1029.884	-2006
1029.951	-1304
1030.017	-2892
1030.083	-2587
1030.149	-2363
1030.216	-2606
1030.282	-2055
1030.348	-3200
1030.414	-2676
1030.480	-1944
1030.546	-2081
1030.612	-1635
1030.678	-1887
1030.744	-2594
1030.810	-2381
1030.876	-1557
1030.942	-2121
1031.008	-1685
1031.074	-2647
1031.140	-2302
1031.206	-1989
1031.272	-2193
1031.337	-1942
1031.403	-1788
1031.469	-2778
1031.534	-2366
1031.600	-2465
1031.666	-2591
1031.731	-3052
1031.797	-2488
1031.863	-1642
1031.928	-1632
1031.994	-2695
1032.059	-2720
1032.125	-1919
1032.190	-2356
1032.256	-2484
1032.321	-2085
1032.386	-3087
1032.452	-1825
1032.517	-2470
1032.582	-1534
1032.647	-2020
1032.713	-2211
1032.778	-2482
1032.843	-1994
1032.908	-2441
1032.974	-1719
1033.039	-1961
1033.104	-1808
1033.169	-2650
1033.234	-1964
1033.299	-1521
1033.364	-2071
1033.429	-2485
1033.494	-1501
1033.559	-2635
1033.624	-1240
1033.688	-2000
1033.753	-1981
1033.818	-2285
1033.883	-2642
1033.948	-2183
1034.013	-2032
1034.077	-2269
1034.142	-1556
1034.207	-1914
1034.271	-1321
1034.336	-1908
1034.400	-1240
1034.465	-2695
1034.530	-2366
1034.594	-2431
1034.658	-1858
1034.723	-2259
1034.787	-1738
1034.852	-2241
1034.916	-2193
1034.981	-2174
1035.045	-3224
1035.109	-2855
1035.173	-1423
1035.238	-3009
1035.302	-2243
1035.366	-2188
1035.430	-1494
1035.495	-1695
1035.559	-1164
1035.623	-1812
1035.687	-2169
1035.751	-2312
1035.815	-2035
1035.879	-1914
1035.943	-1863
1036.007	-2083
1036.071	-1938
1036.135	-2357
1036.198	-2428
1036.262	-3103
1036.326	-1769
1036.390	-1728
1036.454	-1514
1036.517	-2302
1036.581	-1828
1036.645	-2511
1036.709	-1513
1036.772	-2637
1036.836	-1956
1036.900	-1794
1036.963	-2559
1037.026	-1976
1037.090	-2115
1037.154	-2478
1037.217	-2128
1037.280	-1607
1037.344	-1472
1037.407	-1436
1037.471	-2051
1037.534	-2614
1037.597	-1380
1037.661	-2399
1037.724	-2329
1037.787	-2492
1037.850	-2090
1037.913	-1667
1037.977	-1629
1038.040	-2797
1038.103	-1850
1038.166	-2765
1038.229	-2202
1038.292	-2245
1038.355	-1521
1038.418	-1636
1038.481	-1312
1038.544	-2781
1038.607	-1993
1038.670	-3162
1038.732	-1131
1038.795	-3026
1038.858	-1587
1038.921	-2354
1038.984	-1207
1039.046	-2572
1039.109	-1888
1039.172	-2098
1039.234	-1580
1039.297	-2756
1039.360	-1752
1039.422	-1581
1039.485	-2168
1039.547	-2740
1039.610	-2730
1039.672	-3197
1039.734	-2271
1039.797	-2082
1039.859	-2220
1039.922	-2326
1039.984	-2260
1040.046	-1744
1040.109	-2663
1040.171	-2305
1040.233	-1744
1040.295	-2329
1040.358	-1394
1040.420	-2021
1040.482	-1287
1040.544	-2253
1040.606	-2017
1040.668	-1506
1040.730	-1829
1040.792	-2225
1040.854	-2251
1040.916	-2112
1040.978	-2230
1041.040	-1691
1041.102	-1578
1041.164	-2828
1041.225	-2406
1041.287	-2705
1041.349	-2371
1041.411	-2404
1041.472	-2530
1041.534	-2041
1041.596	-1843
1041.657	-2472
1041.719	-1456
1041.781	-2469
1041.842	-2505
1041.904	-2427
1041.965	-1829
1042.027	-2503
1042.088	-2013
1042.150	-2484
1042.211	-2016
1042.272	-1353
1042.334	-1986
1042.395	-2822
1042.456	-2273
1042.518	-2354
1042.579	-1456
1042.640	-1805
1042.701	-972
1042.763	-2266
1042.824	-1800
1042.885	-1800
1042.946	-1550
1043.007	-2586
1043.068	-1514
1043.129	-2398
1043.190	-2262
1043.251	-1809
1043.312	-2245
1043.373	-2200
1043.434	-1981
1043.495	-2507
1043.556	-2324
1043.616	-1894
1043.677	-2073
1043.738	-2272
1043.799	-1493
1043.859	-1944
1043.920	-2385
1043.981	-2464
1044.041	-1707
1044.102	-2392
1044.162	-1572
1044.223	-2926
1044.284	-1527
1044.344	-1890
1044.405	-2333
1044.465	-2754
1044.525	-1483
1044.586	-2219
1044.646	-1972
1044.707	-2316
1044.767	-1523
1044.827	-2730
1044.887	-1999
1044.948	-2539
1045.008	-1451
1045.068	-1782
1045.128	-2604
1045.188	-2731
1045.249	-1504
1045.309	-2639
1045.369	-1302
1045.429	-2809
1045.489	-1623
1045.549	-2297
1045.609	-1634
1045.669	-2764
1045.729	-1442
1045.789	-2259
1045.848	-1270
1045.908	-1910
1045.968	-1355
1046.028	-1683
1046.088	-1113
1046.147	-1752
1046.207	-1354
1046.267	-1504
1046.326	-1212
1046.386	-1831
1046.446	-1160
1046.505	-1854
1046.565	-1321
1046.624	-1747
1046.684	-1238
1046.743	-1605
1046.803	-697
1046.862	-905
1046.922	0
