'Start Wavelength	183.907
'End Wavelength	1046.922
'Gate Delay	5.000
'Gate Width (ms)	1.050
'Laser Output Level	0.000
'X Position	0.000
'Y Position	0.000
'Z Position	0.000
'Grid Point Number	1.000
'Shot Number	100.000
183.907	1014.000
183.977	330.000
184.047	-197
184.116	296
184.186	467
184.256	190
184.325	165
184.395	-304
184.465	828
184.534	-88
184.604	-882
184.674	103
184.743	330
184.813	-63
184.883	-234
184.952	254
185.022	651
185.092	86
185.161	188
185.231	3
185.301	264
185.370	1159
185.440	-695
185.509	-295
185.579	-3
185.649	182
185.718	517
185.788	451
185.857	-169
185.927	-243
185.996	122
186.066	-835
186.136	46
186.205	253
186.275	-654
186.344	-383
186.414	451
186.483	-826
186.553	732
186.622	598
186.692	434
186.761	650
186.831	246
186.900	491
186.970	768
187.039	23
187.109	712
187.178	-433
187.248	616
187.317	342
187.387	181
187.456	376
187.526	-103
187.595	-352
187.664	-375
187.734	-307
187.803	81
187.873	9
187.942	858
188.012	732
188.081	-361
188.150	175
188.220	0
188.289	58
188.358	848
188.428	453
188.497	144
188.567	63
188.636	-225
188.705	-83
188.775	289
188.844	-512
188.913	1626
188.983	770
189.052	927
189.121	185
189.191	337
189.260	488
189.329	1035
189.399	858
189.468	375
189.537	-417
189.606	574
189.676	601
189.745	-296
189.814	1103
189.883	621
189.953	373
190.022	138
190.091	3439
190.161	4532
190.230	1673
190.299	-382
190.368	-205
190.437	497
190.507	563
190.576	23
190.645	119
190.714	-47
190.783	-33
190.853	-222
190.922	1397
190.991	279
191.060	346
191.129	-632
191.198	992
191.268	917
191.337	507
191.406	714
191.475	553
191.544	-33
191.613	510
191.682	345
191.752	553
191.821	671
191.890	411
191.959	852
192.028	741
192.097	602
192.166	1190
192.235	222
192.304	928
192.373	697
192.442	-124
192.511	194
192.580	1032
192.650	769
192.719	-5
192.788	337
192.857	1025
192.926	734
192.995	-256
193.064	792
193.133	1380
193.202	1410
193.271	772
193.340	1821
193.409	1100
193.478	1871
193.547	1922
193.615	3259
193.684	2718
193.753	1297
193.822	1410
193.891	873
193.960	810
194.029	816
194.098	1023
194.167	-15
194.236	285
194.305	395
194.374	760
194.443	965
194.512	839
194.580	493
194.649	738
194.718	672
194.787	182
194.856	71
194.925	852
194.994	319
195.062	657
195.131	839
195.200	561
195.269	1327
195.338	455
195.407	635
195.475	157
195.544	454
195.613	824
195.682	633
195.751	897
195.819	278
195.888	619
195.957	1536
196.026	978
196.094	927
196.163	741
196.232	1733
196.301	151
196.369	655
196.438	608
196.507	951
196.576	380
196.644	733
196.713	1046
196.782	1422
196.850	976
196.919	480
196.988	606
197.056	567
197.125	171
197.194	720
197.262	1117
197.331	832
197.400	536
197.468	1905
197.537	372
197.606	320
197.674	1381
197.743	4555
197.812	1304
197.880	3796
197.949	2803
198.017	3300
198.086	1719
198.155	1303
198.223	1945
198.292	4552
198.360	1839
198.429	1542
198.497	1056
198.566	2409
198.635	4399
198.703	1744
198.772	1584
198.840	5345
198.909	4874
198.977	1294
199.046	1670
199.114	1078
199.183	1858
199.251	829
199.320	362
199.388	931
199.457	368
199.525	1148
199.594	703
199.662	1210
199.731	453
199.799	1111
199.867	994
199.936	1317
200.004	1478
200.073	1962
200.141	1281
200.210	1032
200.278	531
200.346	1394
200.415	746
200.483	1404
200.552	1481
200.620	792
200.688	504
200.757	565
200.825	1072
200.893	589
200.962	649
201.030	952
201.098	862
201.167	1140
201.235	1035
201.303	1254
201.372	866
201.440	1518
201.508	1029
201.577	1414
201.645	1526
201.713	964
201.781	671
201.850	1039
201.918	1050
201.986	919
202.055	369
202.123	628
202.191	1206
202.259	1654
202.327	1510
202.396	391
202.464	942
202.532	850
202.600	1537
202.669	1039
202.737	971
202.805	154
202.873	1644
202.941	943
203.009	1455
203.078	1450
203.146	1054
203.214	993
203.282	-7
203.350	1351
203.418	950
203.487	1376
203.555	1056
203.623	1692
203.691	875
203.759	963
203.827	736
203.895	973
203.963	838
204.031	1048
204.099	1288
204.168	969
204.236	1103
204.304	1731
204.372	699
204.440	1952
204.508	957
204.576	568
204.644	1269
204.712	914
204.780	1183
204.848	1231
204.916	727
204.984	1183
205.052	1571
205.120	1582
205.188	1465
205.256	1137
205.324	1324
205.392	1388
205.460	2209
205.528	1656
205.596	2067
205.664	1525
205.732	1405
205.799	5123
205.867	8902
205.935	2147
206.003	2166
206.071	1293
206.139	1707
206.207	1871
206.275	1371
206.343	1134
206.411	1009
206.478	2270
206.546	1220
206.614	2005
206.682	1200
206.750	1864
206.818	1752
206.885	2359
206.953	1326
207.021	2138
207.089	2379
207.157	1214
207.225	2081
207.292	1302
207.360	1667
207.428	1900
207.496	1169
207.563	1543
207.631	1968
207.699	1585
207.767	1320
207.834	1379
207.902	1698
207.970	1983
208.038	1356
208.105	1808
208.173	1174
208.241	3316
208.309	3157
208.376	2637
208.444	3190
208.512	2982
208.579	956
208.647	1548
208.715	1321
208.782	1455
208.850	1533
208.918	1383
208.985	1463
209.053	1684
209.120	1910
209.188	1444
209.256	1837
209.323	1797
209.391	1577
209.459	2617
209.526	1955
209.594	1336
209.661	1777
209.729	1582
209.796	2189
209.864	1841
209.932	1126
209.999	2651
210.067	2643
210.134	1162
210.202	1929
210.269	2157
210.337	2427
210.404	1664
210.472	2462
210.539	2549
210.607	1667
210.674	1829
210.742	2151
210.809	999
210.877	2637
210.944	2352
211.012	1880
211.079	3361
211.146	1552
211.214	2449
211.281	1187
211.349	2212
211.416	2668
211.484	2610
211.551	1326
211.618	2836
211.686	2418
211.753	1580
211.821	2189
211.888	1491
211.955	2339
212.023	1962
212.090	2965
212.157	2879
212.225	2334
212.292	5816
212.359	9922
212.427	24201
212.494	12233
212.561	5064
212.629	3484
212.696	3249
212.763	3632
212.831	2674
212.898	3047
212.965	2201
213.032	3034
213.100	2628
213.167	2356
213.234	2936
213.301	2561
213.369	2513
213.436	1967
213.503	2617
213.570	2768
213.638	2322
213.705	1086
213.772	1857
213.839	1221
213.906	3011
213.973	2051
214.041	1948
214.108	2265
214.175	2722
214.242	2452
214.309	2434
214.376	2120
214.444	1717
214.511	3088
214.578	1713
214.645	2703
214.712	3062
214.779	2583
214.846	2137
214.913	3667
214.980	3048
215.048	3347
215.115	2687
215.182	2805
215.249	1851
215.316	2503
215.383	2013
215.450	2390
215.517	2141
215.584	2208
215.651	2163
215.718	1692
215.785	3015
215.852	1572
215.919	2371
215.986	2492
216.053	1977
216.120	2304
216.187	1950
216.254	2318
216.321	1572
216.388	2293
216.455	2225
216.522	3406
216.589	2196
216.656	2935
216.722	3380
216.789	3968
216.856	4274
216.923	3823
216.990	3360
217.057	3893
217.124	4507
217.191	3439
217.258	5065
217.324	4619
217.391	5499
217.458	4729
217.525	4387
217.592	3815
217.659	2824
217.725	3933
217.792	3476
217.859	2841
217.926	3033
217.993	1770
218.059	1685
218.126	2424
218.193	2228
218.260	1730
218.327	1847
218.393	1537
218.460	2300
218.527	1191
218.594	2008
218.660	1317
218.727	2080
218.794	1886
218.860	2240
218.927	2338
218.994	1962
219.061	1476
219.127	1807
219.194	2142
219.261	1941
219.327	1619
219.394	1680
219.461	862
219.527	1686
219.594	1353
219.661	1612
219.727	721
219.794	2319
219.860	1473
219.927	1900
219.994	2760
220.060	2831
220.127	3307
220.193	3501
220.260	3396
220.326	6293
220.393	8638
220.460	9300
220.526	7638
220.593	5617
220.659	6410
220.726	5267
220.792	12466
220.859	12292
220.925	14429
220.992	17559
221.058	18043
221.125	17558
221.191	12777
221.258	6112
221.324	4409
221.391	3629
221.457	2203
221.524	3426
221.590	5227
221.657	14807
221.723	11089
221.789	9242
221.856	9111
221.922	4556
221.989	3835
222.055	2885
222.121	1444
222.188	3129
222.254	2389
222.321	2014
222.387	1596
222.453	1873
222.520	1285
222.586	1509
222.652	2352
222.719	1353
222.785	1995
222.851	2316
222.918	2031
222.984	1885
223.050	1476
223.116	1306
223.183	2619
223.249	1341
223.315	1032
223.382	1503
223.448	1005
223.514	1136
223.580	1476
223.647	1502
223.713	950
223.779	1132
223.845	2005
223.911	1712
223.978	409
224.044	2037
224.110	1081
224.176	2010
224.242	1780
224.309	200
224.375	1324
224.441	1248
224.507	846
224.573	625
224.639	2116
224.705	789
224.772	1074
224.838	1284
224.904	1212
224.970	1188
225.036	1265
225.102	1077
225.168	670
225.234	2020
225.300	1371
225.366	1044
225.432	1795
225.499	1470
225.565	1829
225.631	1843
225.697	1489
225.763	2483
225.829	3324
225.895	3704
225.961	3984
226.027	3515
226.093	2840
226.159	5083
226.225	8997
226.291	18764
226.357	28481
226.423	15050
226.489	7039
226.554	5495
226.620	5432
226.686	6175
226.752	8676
226.818	16826
226.884	38355
226.950	34001
227.016	15229
227.082	8556
227.148	5651
227.214	3796
227.279	3509
227.345	2277
227.411	2273
227.477	2893
227.543	1644
227.609	1275
227.674	2358
227.740	2008
227.806	2206
227.872	1957
227.938	1577
228.003	2302
228.069	1948
228.135	1018
228.201	1607
228.267	1978
228.332	1286
228.398	299
228.464	1593
228.530	2149
228.595	1610
228.661	917
228.727	769
228.792	2736
228.858	1705
228.924	672
228.990	4151
229.055	1434
229.121	2317
229.187	2498
229.252	465
229.318	1311
229.384	1925
229.449	608
229.515	117
229.581	235
229.646	2959
229.712	1458
229.777	1182
229.843	1138
229.909	1579
229.974	1463
230.040	1831
230.105	2414
230.171	1566
230.236	4606
230.302	5844
230.368	3911
230.433	5533
230.499	3909
230.564	3299
230.630	1249
230.695	2141
230.761	2294
230.826	569
230.892	1991
230.957	558
231.023	2152
231.088	1621
231.154	1911
231.219	1977
231.284	1437
231.350	1995
231.415	1409
231.481	1705
231.546	1213
231.612	1747
231.677	1851
231.742	494
231.808	2493
231.873	905
231.939	-149
232.004	1852
232.069	1990
232.135	1196
232.200	1241
232.265	1516
232.331	1656
232.396	894
232.461	1455
232.527	256
232.592	893
232.657	1513
232.723	250
232.788	-6
232.853	1396
232.918	1006
232.984	420
233.049	4
233.114	434
233.179	1413
233.245	1314
233.310	1160
233.375	523
233.440	2155
233.506	3875
233.571	3383
233.636	2261
233.701	958
233.766	422
233.832	1137
233.897	597
233.962	316
234.027	2187
234.092	948
234.157	1098
234.222	587
234.288	921
234.353	1320
234.418	2840
234.483	2808
234.548	2904
234.613	1439
234.678	2636
234.743	1626
234.808	2976
234.873	1271
234.938	3103
235.004	2564
235.069	1828
235.134	1285
235.199	2159
235.264	1644
235.329	459
235.394	2244
235.459	2010
235.524	1125
235.589	2582
235.654	1330
235.719	1131
235.784	2124
235.849	1691
235.913	1909
235.978	2426
236.043	2335
236.108	2018
236.173	898
236.238	3347
236.303	1523
236.368	2231
236.433	2702
236.498	3265
236.563	5922
236.627	13065
236.692	44860
236.757	43438
236.822	14719
236.887	8394
236.952	7712
237.017	5648
237.081	7472
237.146	7670
237.211	20478
237.276	46819
237.341	72404
237.405	33582
237.470	13424
237.535	7915
237.600	6044
237.664	4982
237.729	3279
237.794	5203
237.859	12247
237.923	6320
237.988	2955
238.053	3717
238.118	2101
238.182	3298
238.247	3820
238.312	1260
238.376	2324
238.441	433
238.506	2760
238.570	466
238.635	2286
238.700	2055
238.764	1504
238.829	2790
238.893	1175
238.958	2135
239.023	1950
239.087	2102
239.152	2642
239.216	1263
239.281	2249
239.346	2035
239.410	1898
239.475	2068
239.539	2531
239.604	1001
239.668	2535
239.733	1145
239.797	962
239.862	1693
239.926	1960
239.991	1148
240.055	1407
240.120	1073
240.184	1046
240.249	1132
240.313	388
240.378	1437
240.442	1064
240.507	2029
240.571	951
240.635	1243
240.700	475
240.764	1029
240.829	1203
240.893	177
240.957	1436
241.022	1469
241.086	2131
241.151	246
241.215	-19
241.279	1838
241.344	309
241.408	2456
241.472	1998
241.537	3049
241.601	2662
241.665	1585
241.730	1965
241.794	2575
241.858	2028
241.922	2363
241.987	3216
242.051	1467
242.115	698
242.179	2386
242.244	2196
242.308	2702
242.372	1781
242.436	1822
242.501	1724
242.565	1816
242.629	2458
242.693	2793
242.757	1541
242.822	1831
242.886	1638
242.950	2660
243.014	688
243.078	2125
243.142	1864
243.206	1673
243.271	2891
243.335	2930
243.399	7207
243.463	27479
243.527	75809
243.591	24718
243.655	8487
243.719	4656
243.783	5159
243.847	7432
243.911	10286
243.975	4425
244.040	694
244.104	2699
244.168	2183
244.232	1243
244.296	4025
244.360	9501
244.424	1855
244.488	2805
244.552	1670
244.615	453
244.679	1398
244.743	1450
244.807	442
244.871	1414
244.935	1299
244.999	-15
245.063	708
245.127	2995
245.191	6009
245.255	5945
245.319	1532
245.383	-1048
245.446	2724
245.510	679
245.574	1216
245.638	2391
245.702	338
245.766	1612
245.829	1834
245.893	996
245.957	1345
246.021	2638
246.085	1079
246.149	1220
246.212	1871
246.276	1788
246.340	1053
246.404	1679
246.467	1708
246.531	-384
246.595	2794
246.659	2449
246.722	283
246.786	307
246.850	1681
246.913	297
246.977	144
247.041	1425
247.104	923
247.168	1274
247.232	1423
247.295	3000
247.359	2015
247.423	958
247.486	1259
247.550	2097
247.614	1295
247.677	1603
247.741	1693
247.804	1128
247.868	1994
247.932	1395
247.995	3485
248.059	1311
248.122	1151
248.186	2293
248.249	2018
248.313	7802
248.376	8453
248.440	2962
248.503	952
248.567	2890
248.630	1020
248.694	2183
248.757	3669
248.821	9935
248.884	6083
248.948	3918
249.011	5251
249.075	9460
249.138	8090
249.202	3571
249.265	2901
249.328	4036
249.392	1613
249.455	3737
249.519	3398
249.582	3188
249.645	3551
249.709	2407
249.772	2306
249.835	3546
249.899	3108
249.962	3105
250.025	2430
250.089	4975
250.152	5053
250.215	3947
250.279	3722
250.342	5395
250.405	3992
250.468	4413
250.532	6492
250.595	14090
250.658	61275
250.721	108478
250.785	34146
250.848	16250
250.911	9670
250.974	8841
251.038	6802
251.101	8573
251.164	7000
251.227	7527
251.290	10035
251.354	20047
251.417	88222
251.480	94911
251.543	64970
251.606	159657
251.669	129899
251.732	46086
251.795	27861
251.859	33409
251.922	100311
251.985	62020
252.048	19932
252.111	13860
252.174	8642
252.237	11059
252.300	19972
252.363	41043
252.426	116798
252.489	48519
252.552	18049
252.615	10671
252.678	11168
252.741	17613
252.804	45551
252.867	127288
252.930	55201
252.993	17941
253.056	11552
253.119	7988
253.182	8406
253.245	20568
253.308	13277
253.371	5333
253.434	4253
253.497	4999
253.559	4622
253.622	2991
253.685	2200
253.748	3351
253.811	1635
253.874	3143
253.937	1660
254.000	2597
254.062	2223
254.125	2636
254.188	2494
254.251	890
254.314	1574
254.376	2194
254.439	1786
254.502	2091
254.565	1467
254.628	3110
254.690	1607
254.753	1147
254.816	1463
254.878	1124
254.941	1811
255.004	1388
255.067	1851
255.129	595
255.192	1312
255.255	-413
255.317	709
255.380	1336
255.443	1048
255.505	550
255.568	675
255.631	967
255.693	1292
255.756	526
255.819	1860
255.881	553
255.944	949
256.006	1290
256.069	848
256.132	926
256.194	1461
256.257	1637
256.319	1454
256.382	1311
256.444	3079
256.507	2548
256.569	1408
256.632	2700
256.694	5404
256.757	22738
256.819	74817
256.882	30819
256.944	10747
257.007	6865
257.069	4336
257.132	2977
257.194	3953
257.257	3327
257.319	2189
257.381	4630
257.444	15595
257.506	79241
257.569	89091
257.631	24073
257.693	11042
257.756	7994
257.818	4478
257.880	3376
257.943	3317
258.005	1747
258.067	1608
258.130	1938
258.192	1663
258.254	1141
258.317	1431
258.379	1936
258.441	1117
258.503	2156
258.566	1446
258.628	2799
258.690	228
258.753	1983
258.815	2098
258.877	1710
258.939	1009
259.001	2414
259.064	973
259.126	1653
259.188	1445
259.250	1740
259.312	1441
259.375	1241
259.437	816
259.499	1291
259.561	1010
259.623	2061
259.685	701
259.747	1389
259.809	1474
259.872	2789
259.934	3614
259.996	3726
260.058	1662
260.120	1443
260.182	1269
260.244	1122
260.306	464
260.368	1556
260.430	115
260.492	1202
260.554	1507
260.616	953
260.678	1790
260.740	1504
260.802	32
260.864	1378
260.926	-415
260.988	1567
261.050	378
261.112	1317
261.174	2833
261.236	1766
261.298	901
261.359	588
261.421	2165
261.483	111
261.545	1429
261.607	-498
261.669	969
261.731	197
261.793	1417
261.854	-540
261.916	1401
261.978	874
262.040	642
262.102	1467
262.164	461
262.225	1290
262.287	731
262.349	-47
262.411	38
262.472	2348
262.534	216
262.596	1068
262.658	1640
262.719	117
262.781	1737
262.843	302
262.904	1809
262.966	2367
263.028	3726
263.090	25116
263.151	84639
263.213	23939
263.275	6654
263.336	3553
263.398	3210
263.459	1260
263.521	1735
263.583	1004
263.644	706
263.706	970
263.767	-232
263.829	1019
263.891	731
263.952	372
264.014	146
264.075	465
264.137	339
264.198	300
264.260	142
264.321	274
264.383	134
264.444	1395
264.506	-386
264.567	1037
264.629	1640
264.690	30
264.752	495
264.813	660
264.875	1216
264.936	1708
264.998	94
265.059	523
265.120	1854
265.182	4393
265.243	33899
265.305	39754
265.366	8215
265.427	3386
265.489	2867
265.550	620
265.611	909
265.673	631
265.734	454
265.795	1885
265.857	226
265.918	2523
265.979	9133
266.040	60634
266.102	55818
266.163	12852
266.224	5186
266.286	3577
266.347	1970
266.408	1343
266.469	830
266.530	683
266.592	-228
266.653	1304
266.714	732
266.775	69
266.836	963
266.898	-69
266.959	1009
267.020	778
267.081	1716
267.142	1186
267.203	179
267.264	47
267.326	1610
267.387	270
267.448	-683
267.509	753
267.570	1302
267.631	393
267.692	-334
267.753	1037
267.814	333
267.875	721
267.936	1145
267.997	626
268.058	131
268.119	63
268.180	-333
268.241	409
268.302	88
268.363	-121
268.424	283
268.485	201
268.546	-463
268.607	-157
268.668	-240
268.729	65
268.790	-8
268.851	319
268.912	-136
268.972	-244
269.033	-159
269.094	-659
269.155	648
269.216	113
269.277	386
269.338	-193
269.398	274
269.459	-168
269.520	1399
269.581	34
269.642	235
269.702	156
269.763	264
269.824	613
269.885	186
269.945	692
270.006	13
270.067	-122
270.128	111
270.188	151
270.249	-795
270.310	-222
270.370	388
270.431	155
270.492	-232
270.553	752
270.613	-317
270.674	229
270.734	-747
270.795	392
270.856	-198
270.916	116
270.977	391
271.038	1013
271.098	280
271.159	374
271.219	-226
271.280	272
271.340	78
271.401	-540
271.462	-117
271.522	884
271.583	527
271.643	297
271.704	429
271.764	308
271.825	178
271.885	4250
271.946	7262
272.006	1099
272.066	1677
272.127	4593
272.187	945
272.248	-519
272.308	131
272.369	1655
272.429	1110
272.489	-635
272.550	-147
272.610	884
272.671	-174
272.731	106
272.791	-459
272.852	-604
272.912	-129
272.972	-24
273.033	-151
273.093	-1111
273.153	119
273.214	249
273.274	-986
273.334	1543
273.394	1325
273.455	-5
273.515	308
273.575	408
273.635	864
273.696	322
273.756	1675
273.816	-220
273.876	512
273.936	774
273.997	861
274.057	-921
274.117	-449
274.177	614
274.237	2109
274.297	2211
274.358	953
274.418	858
274.478	837
274.538	-646
274.598	-537
274.658	636
274.718	802
274.778	-101
274.838	-753
274.898	-615
274.958	473
275.018	1870
275.078	1267
275.138	500
275.198	-590
275.258	-113
275.318	197
275.378	-509
275.438	-1049
275.498	-23
275.558	-926
275.618	1698
275.678	311
275.738	95
275.798	-492
275.858	-383
275.918	-349
275.978	163
276.038	10
276.098	578
276.157	469
276.217	441
276.277	436
276.337	73
276.397	-150
276.457	885
276.517	216
276.576	448
276.636	-575
276.696	-1181
276.756	-868
276.815	-106
276.875	143
276.935	-463
276.995	-950
277.055	-753
277.114	-870
277.174	-4
277.234	224
277.293	-465
277.353	-185
277.413	-63
277.472	-142
277.532	-159
277.592	-108
277.651	110
277.711	479
277.771	243
277.830	67
277.890	100
277.950	318
278.009	1237
278.069	8
278.128	-161
278.188	194
278.248	337
278.307	334
278.367	548
278.426	-615
278.486	-322
278.545	-175
278.605	167
278.664	-101
278.724	-595
278.783	209
278.843	2428
278.902	53
278.962	-872
279.021	-826
279.081	-53
279.140	-335
279.199	1047
279.259	621
279.318	2026
279.378	1568
279.437	1021
279.496	5705
279.556	24153
279.615	21499
279.675	4016
279.734	918
279.793	1418
279.853	1991
279.912	1322
279.971	-421
280.031	130
280.090	1280
280.149	1245
280.208	1298
280.268	11873
280.327	13866
280.386	1192
280.445	589
280.505	831
280.564	-8
280.623	45
280.682	443
280.742	-296
280.801	409
280.860	401
280.919	-106
280.978	197
281.037	-1207
281.097	-657
281.156	257
281.215	-62
281.274	63
281.333	593
281.392	-166
281.451	-320
281.510	-1072
281.569	103
281.628	133
281.688	-46
281.747	-52
281.806	-419
281.865	-378
281.924	-542
281.983	-866
282.042	-938
282.101	-1182
282.160	126
282.219	-822
282.278	244
282.337	-946
282.396	-937
282.454	-496
282.513	427
282.572	-206
282.631	-284
282.690	-904
282.749	-737
282.808	-929
282.867	-325
282.926	-443
282.985	-982
283.043	-337
283.102	84
283.161	-1092
283.220	726
283.279	-47
283.338	226
283.396	-910
283.455	-438
283.514	-214
283.573	-44
283.631	-172
283.690	-493
283.749	-312
283.808	269
283.866	-667
283.925	-822
283.984	-221
284.043	185
284.101	519
284.160	-1025
284.219	-222
284.277	-419
284.336	-616
284.395	553
284.453	180
284.512	-307
284.570	-919
284.629	128
284.688	-220
284.746	161
284.805	-386
284.863	324
284.922	-192
284.981	11
285.039	744
285.098	2135
285.156	6948
285.215	44232
285.273	45950
285.332	11422
285.390	4507
285.449	3348
285.507	1579
285.566	1254
285.624	589
285.683	469
285.741	-357
285.799	175
285.858	-70
285.916	44
285.975	83
286.033	728
286.091	-452
286.150	-842
286.208	23
286.267	-81
286.325	-84
286.383	-139
286.442	-151
286.500	-338
286.558	555
286.616	234
286.675	211
286.733	-180
286.791	-331
286.850	543
286.908	639
286.966	82
287.024	755
287.083	450
287.141	371
287.199	367
287.257	406
287.315	690
287.374	1042
287.432	1703
287.490	787
287.548	547
287.606	1064
287.664	1168
287.723	1142
287.781	2588
287.839	2514
287.897	4391
287.955	5887
288.013	14661
288.071	35031
288.129	128446
288.187	330097
288.245	167903
288.303	53570
288.361	29331
288.419	19111
288.477	13178
288.535	9294
288.593	5407
288.651	3989
288.709	2701
288.767	1923
288.825	1357
288.883	995
288.941	1077
288.999	579
289.057	1000
289.115	228
289.173	35
289.231	707
289.289	173
289.346	634
289.404	621
289.462	506
289.520	564
289.578	260
289.636	134
289.694	38
289.751	-124
289.809	1089
289.867	326
289.925	343
289.983	-145
290.040	90
290.098	492
290.156	494
290.214	344
290.271	-110
290.329	-309
290.387	-311
290.444	-156
290.502	-403
290.560	79
290.617	-527
290.675	-650
290.733	-673
290.790	-150
290.848	605
290.906	-534
290.963	-612
291.021	-584
291.078	35
291.136	-466
291.194	-367
291.251	-38
291.309	-760
291.366	-585
291.424	-1055
291.481	-752
291.539	-1528
291.596	351
291.654	-971
291.711	-138
291.769	-1066
291.826	-526
291.884	-985
291.941	-1417
291.999	-158
292.056	-685
292.114	-943
292.171	-395
292.228	44
292.286	-921
292.343	-845
292.401	-248
292.458	-417
292.515	-1105
292.573	-450
292.630	-524
292.687	-823
292.745	-866
292.802	-661
292.859	-454
292.917	161
292.974	-1024
293.031	-431
293.089	-389
293.146	65
293.203	-279
293.260	-932
293.318	-460
293.375	-544
293.432	-901
293.489	-1283
293.546	-926
293.604	-138
293.661	434
293.718	1960
293.775	260
293.832	-794
293.889	-993
293.947	-1104
294.004	-234
294.061	-1165
294.118	-1331
294.175	-357
294.232	185
294.289	-387
294.346	-216
294.403	397
294.460	98
294.517	-869
294.574	-425
294.631	-1085
294.688	-1029
294.745	-103
294.802	2100
294.859	1455
294.916	-751
294.973	-624
295.030	-258
295.087	-250
295.144	-939
295.201	-948
295.258	-484
295.315	-104
295.372	181
295.429	991
295.486	-260
295.542	-690
295.599	-599
295.656	-392
295.713	31
295.770	-359
295.827	312
295.883	201
295.940	-990
295.997	-684
296.054	-227
296.111	-692
296.167	-552
296.224	-1058
296.281	-343
296.338	-939
296.394	-363
296.451	-290
296.508	-890
296.564	-49
296.621	-35
296.678	2899
296.734	4292
296.791	1013
296.848	-380
296.904	-710
296.961	-13
297.018	1362
297.074	1616
297.131	188
297.187	-447
297.244	-138
297.301	1170
297.357	4534
297.414	216
297.470	403
297.527	-665
297.583	-717
297.640	-77
297.696	-323
297.753	-387
297.809	-640
297.866	-753
297.922	-55
297.979	-679
298.035	-110
298.092	-539
298.148	-138
298.204	-156
298.261	-986
298.317	984
298.374	2139
298.430	835
298.486	-238
298.543	-554
298.599	173
298.656	1522
298.712	6185
298.768	28237
298.824	26673
298.881	6462
298.937	2500
298.993	1968
299.050	899
299.106	964
299.162	-390
299.218	433
299.275	-353
299.331	-376
299.387	125
299.443	2866
299.500	3395
299.556	1100
299.612	-645
299.668	199
299.724	-470
299.780	203
299.837	-754
299.893	-496
299.949	-343
300.005	-338
300.061	311
300.117	2727
300.173	499
300.229	-409
300.285	-951
300.341	-402
300.397	-512
300.453	-734
300.510	-755
300.566	-1010
300.622	-422
300.678	141
300.734	269
300.790	543
300.845	979
300.901	102
300.957	282
301.013	-36
301.069	-497
301.125	-686
301.181	-584
301.237	-626
301.293	-1639
301.349	-1080
301.405	-1221
301.461	-386
301.516	-1130
301.572	-759
301.628	-1275
301.684	-707
301.740	-609
301.796	114
301.851	-804
301.907	344
301.963	163
302.019	2469
302.074	12186
302.130	12571
302.186	4029
302.242	1209
302.297	441
302.353	348
302.409	486
302.464	295
302.520	-75
302.576	860
302.631	1215
302.687	1
302.743	-1090
302.798	624
302.854	483
302.910	69
302.965	-360
303.021	-417
303.076	569
303.132	-537
303.187	-15
303.243	313
303.299	-514
303.354	-316
303.410	508
303.465	63
303.521	-950
303.576	189
303.632	151
303.687	472
303.743	1511
303.798	1250
303.853	92
303.909	504
303.964	-748
304.020	-307
304.075	-234
304.130	-27
304.186	-60
304.241	1256
304.297	730
304.352	-487
304.358	-409
304.407	222
304.449	391
304.463	449
304.518	-784
304.539	-568
304.573	-235
304.629	56
304.630	54
304.684	-39
304.720	807
304.739	1240
304.794	2769
304.811	2183
304.850	692
304.902	641
304.905	653
304.960	1175
304.992	2053
305.015	2573
305.071	1657
305.083	1270
305.126	-109
305.173	465
305.181	576
305.236	358
305.264	178
305.292	1
305.347	-9
305.354	49
305.402	661
305.445	2010
305.457	2299
305.512	2972
305.535	2560
305.567	2036
305.622	936
305.626	1041
305.678	3933
305.716	7338
305.733	8117
305.788	5209
305.807	3937
305.843	2375
305.897	3495
305.898	3504
305.953	3732
305.988	2921
306.008	2461
306.063	1406
306.078	1110
306.118	619
306.168	-280
306.173	-360
306.228	396
306.259	784
306.283	1158
306.338	1086
306.349	1152
306.393	1816
306.440	3720
306.448	3879
306.503	3008
306.530	2289
306.558	2268
306.613	4198
306.620	4371
306.668	4291
306.711	2955
306.723	2599
306.778	1780
306.801	1426
306.833	1301
306.888	1559
306.892	1535
306.943	1319
306.982	1421
306.997	1453
307.052	1702
307.072	1837
307.107	2483
307.162	3461
307.163	3464
307.217	3306
307.253	2700
307.272	2587
307.327	2509
307.343	2465
307.381	2398
307.434	2776
307.436	2820
307.491	3285
307.524	3772
307.546	4036
307.600	3939
307.614	4106
307.655	4597
307.704	4910
307.710	5019
307.765	5858
307.795	6288
307.819	6871
307.874	9079
307.885	9455
307.929	12602
307.975	16861
307.984	18981
308.038	35039
308.065	45700
308.093	88136
308.148	184570
308.156	203228
308.202	300880
308.246	375599
308.257	358334
308.312	186444
308.336	114133
308.366	79766
308.421	39166
308.426	35958
308.475	26856
308.517	20372
308.530	19100
308.585	15189
308.607	13716
308.639	12965
308.694	11937
308.697	11935
308.748	12840
308.787	13107
308.803	13316
308.857	13795
308.877	14265
308.912	16602
308.967	20446
308.967	20474
309.021	32013
309.058	40963
309.076	55023
309.130	101716
309.148	119517
309.185	244156
309.238	445984
309.239	447680
309.293	471928
309.328	446490
309.348	382877
309.402	183289
309.418	130853
309.457	90249
309.508	47278
309.511	46255
309.566	32575
309.598	24910
309.620	22549
309.674	17466
309.688	16260
309.729	13904
309.778	11098
309.783	10911
309.837	9078
309.868	8137
309.892	7815
309.946	7351
309.959	7359
310.001	7419
310.049	7107
310.055	7005
310.109	5874
310.139	5282
310.163	4763
310.218	3866
310.229	3677
310.272	4199
310.319	4503
310.326	4367
310.381	3532
310.409	3069
310.435	3008
310.489	2714
310.499	2722
310.543	2885
310.589	2802
310.598	2786
310.652	2781
310.679	2752
310.706	2622
310.760	2186
310.769	2144
310.814	2113
310.859	1924
310.868	1974
310.923	2134
310.948	2350
310.977	2449
311.031	2473
311.038	2462
311.085	2244
311.128	2064
311.139	2067
311.193	2021
311.218	1987
311.247	2226
311.301	2691
311.308	2735
311.356	2558
311.398	2364
311.410	2384
311.464	2491
311.488	2485
311.518	2455
311.572	2441
311.578	2421
311.626	2050
311.668	1784
311.680	1950
311.734	2619
311.758	2904
311.788	2547
311.842	1877
311.847	1799
311.896	2287
311.937	2713
311.950	2766
312.004	2949
312.027	3017
312.058	2892
312.112	2652
312.117	2619
312.165	2140
312.207	1719
312.297	2274
312.386	2178
312.476	1815
312.566	2726
312.656	2144
312.745	1458
312.835	2091
312.925	2457
313.015	1959
313.104	2124
313.194	2868
313.284	1467
313.374	2088
313.463	1805
313.553	1686
313.643	1293
313.732	2500
313.822	1650
313.912	2414
314.001	1578
314.091	1807
314.180	2189
314.270	1519
314.360	2118
314.449	1861
314.539	1566
314.628	2319
314.718	2199
314.808	2320
314.897	2219
314.987	1666
315.076	1635
315.166	1936
315.255	2016
315.345	2123
315.434	1423
315.524	1924
315.613	1747
315.703	2312
315.792	3208
315.881	6422
315.971	2368
316.060	3062
316.150	2767
316.239	2040
316.328	1823
316.418	2097
316.507	2161
316.597	2646
316.686	1972
316.775	1587
316.865	3004
316.954	2058
317.043	1861
317.133	1398
317.222	1604
317.311	1375
317.400	233
317.490	2269
317.579	1882
317.668	1204
317.757	1856
317.847	3378
317.936	10894
318.025	4561
318.114	3125
318.203	1563
318.293	1787
318.382	1945
318.471	2533
318.560	1900
318.649	3711
318.738	1955
318.828	1288
318.917	549
319.006	1756
319.095	2467
319.184	4146
319.273	3053
319.362	2089
319.451	1546
319.540	933
319.629	1558
319.718	2059
319.807	1745
319.896	1568
319.985	5198
320.074	2787
320.163	1024
320.252	1258
320.341	1529
320.430	1938
320.519	1062
320.608	1210
320.697	1881
320.786	1986
320.875	1127
320.964	1977
321.053	1468
321.142	1961
321.230	2564
321.319	1320
321.408	2393
321.497	2174
321.586	3410
321.675	3239
321.764	5259
321.852	3658
321.941	2916
322.030	2022
322.119	1559
322.207	1828
322.296	2419
322.385	1516
322.474	1939
322.562	2599
322.651	1842
322.740	1310
322.829	2474
322.917	1666
323.006	1833
323.095	1448
323.183	1530
323.272	2036
323.361	2235
323.449	4366
323.538	2713
323.626	2962
323.715	2630
323.804	1770
323.892	2878
323.981	2043
324.069	1834
324.158	2832
324.246	2466
324.335	1229
324.424	2220
324.512	1616
324.601	1905
324.689	1993
324.778	3848
324.866	2428
324.954	1666
325.043	1130
325.131	465
325.220	2205
325.308	1398
325.397	2092
325.485	1802
325.574	1043
325.662	2079
325.750	805
325.839	1769
325.927	1081
326.015	1095
326.104	1086
326.192	1346
326.280	1091
326.369	907
326.457	1196
326.545	1079
326.634	925
326.722	1841
326.810	561
326.898	1298
326.987	1938
327.075	810
327.163	1837
327.251	855
327.340	1829
327.428	1908
327.516	1415
327.604	1412
327.692	1021
327.781	1007
327.869	756
327.957	1261
328.045	1285
328.133	998
328.221	1096
328.309	1022
328.397	1482
328.485	2019
328.574	954
328.662	2130
328.750	1648
328.838	1330
328.926	2473
329.014	1126
329.102	1651
329.190	1920
329.278	2165
329.366	1606
329.454	1076
329.542	2028
329.630	1329
329.718	2745
329.806	1624
329.893	3127
329.981	4780
330.069	14671
330.157	58363
330.245	172064
330.333	81294
330.421	12006
330.509	4164
330.597	4077
330.684	2511
330.772	2151
330.860	1469
330.948	1529
331.036	789
331.123	846
331.211	1159
331.299	1796
331.387	1374
331.475	1690
331.562	799
331.650	882
331.738	474
331.825	1181
331.913	1051
332.001	918
332.089	1276
332.176	799
332.264	1027
332.352	750
332.439	1328
332.527	558
332.614	727
332.702	686
332.790	168
332.877	695
332.965	1500
333.052	646
333.140	332
333.228	998
333.315	674
333.403	1434
333.490	967
333.578	631
333.665	1634
333.753	881
333.840	93
333.928	1167
334.015	1317
334.103	1987
334.190	5251
334.278	1113
334.365	2677
334.452	1134
334.540	491
334.627	1097
334.715	882
334.802	2137
334.889	3944
334.977	4147
335.064	1959
335.151	1645
335.239	1226
335.326	1237
335.413	2699
335.501	3214
335.588	880
335.675	535
335.762	1490
335.850	1704
335.937	1524
336.024	2501
336.111	5256
336.199	3001
336.286	1608
336.373	1576
336.460	498
336.547	1177
336.635	1706
336.722	1051
336.809	239
336.896	458
336.983	1724
337.070	2656
337.157	4481
337.245	2823
337.332	2184
337.419	955
337.506	1241
337.593	495
337.680	866
337.767	3187
337.854	985
337.941	1440
338.028	1844
338.115	776
338.202	629
338.289	1489
338.376	2051
338.463	1856
338.550	1686
338.637	2024
338.724	1004
338.811	1339
338.898	1165
338.984	626
339.071	683
339.158	1116
339.245	602
339.332	1107
339.419	536
339.506	1344
339.593	461
339.679	907
339.766	646
339.853	1133
339.940	1103
340.027	652
340.113	429
340.200	1382
340.287	509
340.374	1238
340.460	315
340.547	-602
340.634	624
340.720	1948
340.807	1287
340.894	1203
340.980	938
341.067	132
341.154	1040
341.240	857
341.327	1018
341.414	1105
341.500	170
341.587	898
341.674	1074
341.760	741
341.847	744
341.933	993
342.020	354
342.106	1132
342.193	999
342.279	1810
342.366	299
342.452	1576
342.539	292
342.625	1056
342.712	1499
342.798	1832
342.885	454
342.971	338
343.058	845
343.144	354
343.230	1612
343.317	1172
343.403	127
343.490	1025
343.576	519
343.662	1578
343.749	326
343.835	1008
343.921	1913
344.008	8981
344.094	20002
344.180	4337
344.267	1543
344.353	3586
344.439	2578
344.525	5296
344.612	18691
344.698	24395
344.784	11908
344.870	4262
344.957	1865
345.043	2449
345.129	154
345.215	1134
345.301	445
345.387	904
345.474	1099
345.560	634
345.646	-249
345.732	1014
345.818	743
345.904	698
345.990	740
346.076	791
346.162	500
346.249	1543
346.335	837
346.421	1646
346.507	1853
346.593	4038
346.679	826
346.765	510
346.851	454
346.937	-306
347.023	1460
347.108	1450
347.194	274
347.280	449
347.366	785
347.452	1592
347.538	4503
347.624	5808
347.710	1863
347.796	1310
347.882	110
347.967	727
348.053	668
348.139	1250
348.225	544
348.311	437
348.397	346
348.482	1610
348.568	718
348.654	412
348.740	596
348.825	71
348.911	2284
348.997	2989
349.083	5746
349.168	1168
349.254	433
349.340	255
349.425	900
349.511	338
349.597	9
349.682	388
349.768	2764
349.854	2085
349.939	1860
350.025	3181
350.110	8903
350.196	3206
350.282	252
350.367	1495
350.453	457
350.538	313
350.624	462
350.709	696
350.795	490
350.880	-134
350.966	1139
351.051	651
351.137	764
351.222	1074
351.308	588
351.393	2216
351.479	286
351.564	375
351.649	1088
351.735	613
351.820	808
351.906	234
351.991	746
352.076	761
352.162	1349
352.247	1505
352.332	563
352.418	-164
352.503	1071
352.588	3548
352.673	1281
352.759	949
352.844	249
352.929	628
353.014	728
353.100	1088
353.185	715
353.270	497
353.355	1424
353.441	1500
353.526	356
353.611	706
353.696	417
353.781	1491
353.866	-97
353.952	1884
354.037	397
354.122	1658
354.207	1180
354.292	856
354.377	704
354.462	1412
354.547	963
354.632	1479
354.717	1193
354.802	1274
354.887	297
354.972	934
355.057	461
355.142	-398
355.227	1296
355.312	780
355.397	1079
355.482	1465
355.567	871
355.652	1238
355.737	1131
355.822	2844
355.907	1588
355.991	1328
356.076	356
356.161	1120
356.246	574
356.331	1789
356.416	405
356.501	7418
356.585	6573
356.670	348
356.755	2308
356.840	1078
356.924	5329
357.009	22384
357.094	7494
357.179	736
357.263	929
357.348	784
357.433	953
357.517	176
357.602	392
357.687	700
357.771	738
357.856	878
357.941	1594
358.025	6985
358.110	36860
358.195	15508
358.279	1181
358.364	759
358.448	2458
358.533	4680
358.617	2988
358.702	3244
358.787	1587
358.871	683
358.956	1074
359.040	518
359.125	273
359.209	1031
359.294	741
359.378	1590
359.462	658
359.547	1182
359.631	706
359.716	-15
359.800	680
359.885	1120
359.969	666
360.053	1457
360.138	170
360.222	160
360.306	1014
360.391	1052
360.475	453
360.559	1367
360.644	1481
360.728	1364
360.812	4382
360.896	11578
360.981	3050
361.065	762
361.149	1487
361.233	1044
361.318	-205
361.402	510
361.486	720
361.570	170
361.654	670
361.739	887
361.823	6495
361.907	12426
361.991	1734
362.075	429
362.159	109
362.243	2259
362.327	753
362.411	2642
362.495	735
362.580	1034
362.664	1049
362.748	784
362.832	878
362.916	163
363.000	5031
363.084	9911
363.168	14545
363.252	3248
363.336	1736
363.420	2592
363.503	2878
363.587	4200
363.671	1343
363.755	601
363.839	1495
363.923	207
364.007	1849
364.091	1572
364.175	362
364.258	8078
364.342	4776
364.426	8476
364.510	3349
364.594	3478
364.677	2716
364.761	8473
364.845	6549
364.929	1408
365.013	956
365.096	1158
365.180	637
365.264	1818
365.347	6240
365.431	2115
365.515	383
365.598	-482
365.682	1769
365.766	-373
365.849	360
365.933	882
366.017	2191
366.100	254
366.184	-814
366.267	1423
366.351	355
366.435	-159
366.518	124
366.602	595
366.685	703
366.769	427
366.852	231
366.936	1148
367.019	649
367.103	-933
367.186	1874
367.270	327
367.353	-495
367.436	1805
367.520	-272
367.603	707
367.687	872
367.770	558
367.853	608
367.937	2201
368.020	3102
368.104	791
368.187	1033
368.270	716
368.353	1207
368.437	471
368.520	2042
368.603	1062
368.687	420
368.770	2462
368.853	1052
368.936	1655
369.020	1088
369.103	15
369.186	578
369.269	-196
369.352	313
369.436	601
369.519	179
369.602	-539
369.685	1739
369.768	-296
369.851	1078
369.934	220
370.018	500
370.101	241
370.184	1838
370.267	1015
370.350	910
370.433	484
370.516	3427
370.599	5715
370.682	576
370.765	2528
370.848	2970
370.931	3806
371.014	2497
371.097	-485
371.180	1192
371.263	744
371.346	33
371.429	905
371.511	-160
371.594	498
371.677	1063
371.760	1826
371.843	1682
371.926	12180
372.009	31904
372.091	9740
372.174	1649
372.257	5045
372.340	1614
372.423	1114
372.505	2106
372.588	512
372.671	1589
372.754	2975
372.836	2591
372.919	1500
373.002	2820
373.085	246
373.167	2086
373.250	1624
373.332	4126
373.415	13444
373.498	34440
373.580	11027
373.663	15146
373.746	22154
373.828	3408
373.911	1987
373.993	279
374.076	1808
374.159	1314
374.241	1290
374.324	3149
374.406	3357
374.489	6117
374.571	17406
374.654	4755
374.736	3372
374.819	8411
374.901	17630
374.983	20386
375.066	2839
375.148	1120
375.231	1195
375.313	3498
375.395	444
375.478	498
375.560	107
375.643	259
375.725	2846
375.807	12455
375.890	10225
375.972	1479
376.054	1362
376.136	1649
376.219	638
376.301	3287
376.383	7814
376.465	3126
376.548	828
376.630	1721
376.712	6694
376.794	2802
376.877	1055
376.959	-48
377.041	1180
377.123	1491
377.205	495
377.287	-415
377.369	714
377.452	65
377.534	255
377.616	384
377.698	121
377.780	-259
377.862	-150
377.944	1710
378.026	-548
378.108	365
378.190	268
378.272	712
378.354	892
378.436	-65
378.518	-243
378.600	686
378.682	799
378.764	2106
378.846	2265
378.928	-170
379.010	408
379.091	621
379.173	1158
379.255	-624
379.337	105
379.419	142
379.501	3841
379.583	1304
379.664	349
379.746	-77
379.828	2636
379.910	1109
379.991	2595
380.073	-218
380.155	570
380.237	425
380.318	290
380.400	592
380.482	1111
380.564	399
380.645	690
380.727	653
380.809	1527
380.890	-310
380.972	27
381.053	410
381.135	1241
381.217	248
381.298	2990
381.380	1245
381.461	1430
381.543	6270
381.624	8377
381.706	1516
381.787	1577
381.869	1476
381.951	4474
382.032	21036
382.113	14997
382.195	412
382.276	2479
382.358	1187
382.439	5593
382.521	8178
382.602	16127
382.684	5190
382.765	6467
382.846	4581
382.928	4506
383.009	1689
383.090	2299
383.172	4932
383.253	8761
383.334	4792
383.416	8969
383.497	4114
383.578	850
383.659	1255
383.741	4713
383.822	14731
383.903	6420
383.984	3542
384.066	9812
384.147	4470
384.228	1324
384.309	697
384.390	757
384.471	1419
384.553	650
384.634	240
384.715	1057
384.796	122
384.877	139
384.958	2232
385.039	1623
385.120	235
385.201	1422
385.282	635
385.363	1749
385.444	242
385.525	1420
385.606	4261
385.687	4240
385.768	1581
385.849	1090
385.930	10034
386.011	20051
386.092	3651
386.173	2268
386.254	1829
386.335	1906
386.416	599
386.496	1645
386.577	1934
386.658	696
386.739	83
386.820	2296
386.901	166
386.981	1433
387.062	1154
387.143	371
387.224	1694
387.304	2374
387.385	1610
387.466	-83
387.547	1773
387.627	-412
387.708	1676
387.789	4241
387.869	5027
387.950	2635
388.031	1008
388.111	-1440
388.192	1523
388.273	1475
388.353	516
388.434	1240
388.514	1500
388.595	6695
388.676	7342
388.756	2913
388.837	2804
388.917	2344
388.998	5
389.078	2095
389.159	4597
389.239	2212
389.320	3103
389.400	-11
389.480	1613
389.561	1911
389.641	2497
389.722	1496
389.802	65
389.883	2212
389.963	4348
390.043	2150
390.124	854
390.204	2170
390.284	3731
390.365	5772
390.445	33770
390.525	205406
390.605	190413
390.686	25491
390.766	5692
390.846	4108
390.927	2417
391.007	2384
391.087	3550
391.167	1933
391.247	137
391.328	2719
391.408	1472
391.488	1556
391.568	494
391.648	1686
391.728	1976
391.808	2488
391.888	1482
391.969	2417
392.049	2033
392.129	2007
392.209	2382
392.289	4378
392.369	3067
392.449	2944
392.529	2704
392.609	4160
392.689	2976
392.769	5025
392.849	5394
392.929	5905
393.009	6843
393.089	7862
393.169	13777
393.248	56592
393.328	343007
393.408	369419
393.488	64734
393.568	16389
393.648	9454
393.728	7450
393.807	7541
393.887	8812
393.967	10005
394.047	13206
394.127	19668
394.206	40915
394.286	162174
394.366	702392
394.446	781984
394.525	203082
394.605	50642
394.685	24566
394.764	16294
394.844	12343
394.924	10610
395.003	7630
395.083	8147
395.163	7643
395.242	7646
395.322	8137
395.402	7303
395.481	10187
395.561	10832
395.640	14303
395.720	17601
395.799	22630
395.879	34672
395.958	68641
396.038	253620
396.117	906585
396.197	1012531
396.276	322853
396.356	87050
396.435	40197
396.515	25288
396.594	18912
396.673	21898
396.753	77103
396.832	302144
396.912	187704
396.991	26106
397.070	10393
397.150	5698
397.229	6040
397.308	4379
397.388	5563
397.467	5234
397.546	3173
397.625	917
397.705	3921
397.784	2446
397.863	2004
397.942	1766
398.022	1938
398.101	1445
398.180	3027
398.259	1575
398.338	2863
398.417	863
398.497	782
398.576	2330
398.655	683
398.734	1575
398.813	1168
398.892	1728
398.971	3141
399.050	1622
399.129	414
399.208	1780
399.287	3391
399.366	3224
399.445	896
399.524	1097
399.603	-462
399.682	1277
399.761	1107
399.840	4419
399.919	3038
399.998	1063
400.077	-483
400.156	-680
400.235	2512
400.313	353
400.392	-193
400.471	1319
400.550	1571
400.629	-69
400.708	631
400.786	-746
400.865	201
400.944	-129
401.023	1314
401.102	-116
401.180	327
401.259	466
401.338	187
401.416	721
401.495	-181
401.574	1019
401.652	-316
401.731	1124
401.810	-691
401.888	-4
401.967	-162
402.046	184
402.124	244
402.203	23
402.281	875
402.360	-70
402.438	1707
402.517	-519
402.596	1207
402.674	360
402.753	287
402.831	689
402.910	1737
402.988	510
403.066	2016
403.145	2778
403.223	2940
403.302	3410
403.380	3392
403.459	1887
403.537	845
403.615	1170
403.694	737
403.772	2327
403.850	1701
403.929	1067
404.007	1378
404.085	3984
404.164	4403
404.242	8924
404.320	42382
404.398	158757
404.477	141139
404.555	46030
404.633	39554
404.711	103013
404.789	81330
404.868	16207
404.946	4877
405.024	3668
405.102	2315
405.180	741
405.258	88
405.336	1936
405.415	497
405.493	1034
405.571	2178
405.649	-6
405.727	-688
405.805	2065
405.883	523
405.961	1156
406.039	-693
406.117	-696
406.195	754
406.273	660
406.351	5552
406.429	4178
406.507	629
406.585	-101
406.663	365
406.740	264
406.818	-83
406.896	438
406.974	1121
407.052	183
407.130	3731
407.208	4066
407.285	1665
407.363	-493
407.441	837
407.519	983
407.596	2718
407.674	19808
407.752	95555
407.830	69369
407.907	8147
407.985	1087
408.063	1291
408.141	-204
408.218	1160
408.296	-41
408.373	472
408.451	743
408.529	1055
408.606	-319
408.684	960
408.762	186
408.839	192
408.917	-75
408.994	279
409.072	-442
409.149	418
409.227	810
409.304	332
409.382	885
409.459	-93
409.537	591
409.614	422
409.692	-126
409.769	455
409.846	61
409.924	1062
410.001	-1570
410.079	303
410.156	941
410.233	1451
410.311	2053
410.388	582
410.465	725
410.543	-226
410.620	1177
410.697	8
410.775	264
410.852	-1096
410.929	509
411.006	715
411.083	-347
411.161	204
411.238	469
411.315	-276
411.392	-967
411.469	861
411.547	511
411.624	-1359
411.701	-71
411.778	863
411.855	919
411.932	-38
412.009	-786
412.086	682
412.163	344
412.240	222
412.317	911
412.394	8
412.471	340
412.548	30
412.625	19
412.702	336
412.779	309
412.856	1270
412.933	-26
413.010	2744
413.087	5659
413.164	2359
413.241	1895
413.318	201
413.395	278
413.471	625
413.548	1038
413.625	1160
413.702	-293
413.779	196
413.855	-154
413.932	-417
414.009	-351
414.086	731
414.162	550
414.239	830
414.316	925
414.393	2661
414.469	-215
414.546	148
414.623	-110
414.699	160
414.776	-219
414.853	-262
414.929	-321
415.006	-269
415.082	-875
415.159	653
415.236	-145
415.312	347
415.389	456
415.465	-11
415.542	-610
415.618	-797
415.695	769
415.771	66
415.848	-565
415.924	666
416.000	484
416.077	670
416.153	-1055
416.230	-2
416.306	329
416.383	210
416.459	155
416.535	119
416.612	673
416.688	335
416.764	5
416.841	-231
416.917	-172
416.993	-39
417.069	737
417.146	1297
417.222	2841
417.298	1350
417.374	-422
417.451	231
417.527	-26
417.603	626
417.679	-944
417.755	294
417.831	-399
417.908	-471
417.984	-591
418.060	-116
418.136	125
418.212	-279
418.288	811
418.364	825
418.440	-306
418.516	351
418.592	-307
418.668	579
418.744	476
418.820	136
418.896	358
418.972	-812
419.048	-83
419.124	1057
419.200	-422
419.276	1085
419.352	-199
419.428	121
419.504	347
419.579	-116
419.655	-513
419.731	100
419.807	442
419.883	19
419.959	357
420.034	989
420.110	803
420.186	1549
420.262	1422
420.337	630
420.413	771
420.489	766
420.565	589
420.640	241
420.716	783
420.792	-494
420.867	944
420.943	-283
421.019	404
421.094	426
421.170	234
421.245	808
421.321	484
421.397	1440
421.472	14540
421.548	51481
421.623	27015
421.699	2972
421.774	1178
421.850	-681
421.925	1385
422.001	896
422.076	1510
422.152	605
422.227	631
422.302	2721
422.378	3649
422.453	5394
422.529	18301
422.604	109949
422.679	284976
422.755	127087
422.830	18451
422.905	6613
422.981	2622
423.056	1655
423.131	1562
423.207	612
423.282	791
423.357	185
423.432	709
423.508	893
423.583	191
423.658	843
423.733	657
423.808	-139
423.883	981
423.959	68
424.034	188
424.109	764
424.184	108
424.259	463
424.334	756
424.409	333
424.484	644
424.559	352
424.634	-125
424.709	-553
424.784	599
424.859	-29
424.934	-594
425.009	654
425.084	1337
425.159	189
425.234	498
425.309	-763
425.384	-84
425.459	-857
425.534	746
425.609	-234
425.683	-913
425.758	512
425.833	-26
425.908	834
425.983	-610
426.058	1540
426.132	-47
426.207	203
426.282	1610
426.357	-104
426.431	-467
426.506	409
426.581	207
426.655	220
426.730	-196
426.805	-854
426.879	176
426.954	-547
427.029	-835
427.103	1048
427.178	3753
427.253	1595
427.327	674
427.402	35
427.476	468
427.551	-216
427.625	164
427.700	291
427.774	-621
427.849	238
427.923	-1282
427.998	518
428.072	-30
428.147	1052
428.221	3717
428.296	14164
428.370	8053
428.444	1430
428.519	26
428.593	180
428.667	-17
428.742	501
428.816	830
428.890	7033
428.965	10826
429.039	2487
429.113	283
429.188	-319
429.262	207
429.336	-170
429.410	329
429.485	641
429.559	589
429.633	562
429.707	-430
429.781	551
429.855	5083
429.930	9155
430.004	2063
430.078	2244
430.152	4462
430.226	27190
430.300	27907
430.374	3340
430.448	1004
430.522	103
430.596	1707
430.670	2804
430.744	10036
430.818	12336
430.892	2036
430.966	-48
431.040	248
431.114	-1187
431.188	-1137
431.262	80
431.336	-759
431.410	719
431.484	-53
431.557	192
431.631	-208
431.705	214
431.779	1791
431.853	11858
431.927	8201
432.000	347
432.074	108
432.148	-515
432.222	-353
432.295	3
432.369	61
432.443	-110
432.516	902
432.590	4185
432.664	1728
432.737	-116
432.811	-25
432.885	299
432.958	514
433.032	-221
433.106	39
433.179	80
433.253	365
433.326	-74
433.400	-79
433.473	287
433.547	-125
433.620	365
433.694	-974
433.767	337
433.841	-344
433.914	-86
433.988	-126
434.061	374
434.134	-765
434.208	-769
434.281	242
434.355	-327
434.428	-86
434.501	-428
434.575	102
434.648	-25
434.721	-98
434.795	-199
434.868	-468
434.941	-394
435.014	347
435.088	-97
435.161	407
435.234	-429
435.307	253
435.381	-507
435.454	135
435.527	-833
435.600	421
435.673	-91
435.746	-625
435.819	72
435.892	-650
435.966	-351
436.039	-521
436.112	335
436.185	-171
436.258	-226
436.331	-738
436.404	72
436.477	-103
436.550	-661
436.623	678
436.696	-400
436.769	41
436.842	-645
436.915	-128
436.987	-511
437.060	-252
437.133	421
437.206	-1022
437.279	327
437.352	-760
437.425	-398
437.498	-59
437.570	-21
437.643	-317
437.716	288
437.789	-386
437.861	-38
437.934	-159
438.007	-472
438.080	-135
438.152	534
438.225	428
438.298	2474
438.370	7716
438.443	2840
438.516	-86
438.588	-659
438.661	-253
438.734	-88
438.806	-605
438.879	-268
438.951	-861
439.024	25
439.096	-460
439.169	-238
439.241	-269
439.314	-710
439.386	-319
439.459	564
439.531	-1143
439.604	-37
439.676	-115
439.749	34
439.821	130
439.893	352
439.966	-634
440.038	-315
440.110	92
440.183	-314
440.255	-167
440.327	-211
440.400	558
440.472	2196
440.544	1505
440.617	255
440.689	1272
440.761	-274
440.833	180
440.905	3
440.978	-453
441.050	-78
441.122	141
441.194	-519
441.266	63
441.338	-600
441.411	395
441.483	270
441.555	528
441.627	-558
441.699	294
441.771	215
441.843	-106
441.915	-332
441.987	104
442.059	-246
442.131	898
442.203	506
442.275	-218
442.347	704
442.419	1103
442.491	3516
442.563	7845
442.635	3999
442.706	248
442.778	355
442.850	-413
442.922	-218
442.994	-584
443.066	-160
443.137	198
443.209	1750
443.281	258
443.353	1636
443.425	4944
443.496	19939
443.568	16113
443.640	4027
443.711	424
443.783	-65
443.855	0
443.926	-693
443.998	103
444.070	401
444.141	-401
444.213	111
444.285	478
444.356	-35
444.428	-530
444.499	-251
444.571	-543
444.642	-480
444.714	-566
444.785	-657
444.857	-736
444.928	-241
445.000	-724
445.071	540
445.143	279
445.214	636
445.285	535
445.357	2913
445.428	13651
445.500	34318
445.571	16418
445.642	6346
445.714	1046
445.785	1065
445.856	-53
445.928	-123
445.999	-411
446.070	-606
446.141	58
446.213	221
446.284	-93
446.355	-515
446.426	-420
446.497	-164
446.569	-231
446.640	-369
446.711	-38
446.782	-315
446.853	565
446.924	335
446.995	-1035
447.066	-110
447.138	-241
447.209	-32
447.280	-852
447.351	-346
447.422	-897
447.493	-152
447.564	72
447.635	-112
447.706	-1195
447.777	-837
447.847	-23
447.918	-458
447.989	-1089
448.060	86
448.131	-292
448.202	-468
448.273	-284
448.344	133
448.414	102
448.485	-162
448.556	60
448.627	632
448.698	356
448.768	58
448.839	-446
448.910	-4
448.981	159
449.051	-349
449.122	356
449.193	-468
449.263	37
449.334	-26
449.405	145
449.475	408
449.546	744
449.616	896
449.687	860
449.758	554
449.828	-656
449.899	646
449.969	-328
450.040	-741
450.110	-63
450.181	339
450.251	98
450.322	-377
450.392	-394
450.463	553
450.533	545
450.604	294
450.674	470
450.744	-470
450.815	-616
450.885	259
450.955	489
451.026	-62
451.096	312
451.166	-352
451.237	202
451.307	669
451.377	-52
451.447	-507
451.518	-754
451.588	-522
451.658	469
451.728	454
451.799	313
451.869	39
451.939	-235
452.009	-124
452.079	-14
452.149	465
452.219	259
452.289	528
452.360	476
452.430	-12
452.500	143
452.570	877
452.640	935
452.710	510
452.780	568
452.850	714
452.920	-346
452.990	560
453.060	423
453.129	77
453.199	198
453.269	585
453.339	831
453.409	1085
453.479	1443
453.549	1860
453.619	1601
453.688	825
453.758	1499
453.828	577
453.898	105
453.968	-188
454.037	961
454.087	552
454.107	382
454.168	392
454.177	385
454.247	262
454.249	269
454.316	306
454.330	230
454.386	-141
454.411	-15
454.456	177
454.492	247
454.525	300
454.574	443
454.595	503
454.655	667
454.665	682
454.734	361
454.736	363
454.804	33
454.817	146
454.873	564
454.898	526
454.943	494
454.979	693
455.013	855
455.060	1513
455.082	1858
455.141	2324
455.152	2622
455.221	6529
455.222	6710
455.291	22528
455.303	33968
455.360	80381
455.384	133217
455.430	225997
455.465	161446
455.499	101920
455.546	41310
455.569	13428
455.627	5286
455.638	3752
455.707	1052
455.708	1058
455.777	1622
455.789	1534
455.846	861
455.869	831
455.916	925
455.950	934
455.985	871
456.031	740
456.054	705
456.112	898
456.124	920
456.193	1164
456.193	1158
456.262	753
456.274	775
456.332	891
456.355	871
456.401	713
456.436	766
456.470	831
456.516	369
456.540	158
456.597	424
456.609	438
456.678	156
456.678	148
456.747	0
456.759	-54
456.817	-132
456.840	73
456.886	347
456.920	399
456.955	463
457.001	399
457.024	320
457.082	116
457.093	82
457.162	411
457.163	415
457.232	-95
457.243	-44
457.301	276
457.324	389
457.370	699
457.405	962
457.439	1055
457.485	525
457.508	265
457.566	353
457.577	345
457.646	1140
457.647	1137
457.715	1152
457.727	1128
457.784	623
457.808	875
457.853	1598
457.889	2089
457.922	2317
457.969	2922
457.991	3039
458.050	1901
458.060	1762
458.129	1803
458.130	1804
458.198	1669
458.211	1682
458.267	1478
458.292	1109
458.336	606
458.372	702
458.405	838
458.453	742
458.474	681
458.533	1669
458.543	1848
458.611	2490
458.614	2522
458.680	2657
458.694	2360
458.749	1295
458.775	1137
458.818	999
458.855	1310
458.887	1389
458.936	600
458.955	361
459.016	804
459.024	898
459.093	1311
459.097	1307
459.162	1067
459.177	1108
459.230	1087
459.257	1257
459.299	1457
459.338	1051
459.368	737
459.418	1144
459.437	1248
459.499	621
459.505	570
459.574	733
459.579	751
459.643	970
459.659	928
459.711	948
459.740	1121
459.780	1319
459.820	1708
459.849	1759
459.900	1396
459.917	1394
459.981	1325
459.986	1312
460.054	1320
460.061	1344
460.123	1480
460.141	1431
460.191	1349
460.222	1411
460.260	1517
460.302	1667
460.328	1686
460.382	1807
460.397	1924
460.462	2024
460.465	2128
460.534	5319
460.543	5809
460.602	21568
460.623	27897
460.671	41999
460.703	63140
460.739	70715
460.783	63545
460.808	56176
460.864	13333
460.876	8011
460.944	2509
460.945	2446
461.013	1922
461.024	1783
461.081	1409
461.104	1555
461.150	1461
461.184	1425
461.218	1670
461.264	1891
461.286	1788
461.345	1315
461.355	1272
461.423	1366
461.425	1356
461.491	1086
461.505	1141
461.559	1193
461.585	1214
461.628	1489
461.665	1591
461.696	1447
461.745	1168
461.764	1189
461.825	1431
461.832	1519
461.901	2038
461.905	2078
461.969	717
461.985	483
462.037	1715
462.065	2270
462.105	1895
462.145	1467
462.173	1481
462.225	1665
462.241	1651
462.305	1209
462.310	1232
462.378	1873
462.385	1938
462.446	1515
462.465	1356
462.514	1444
462.545	1596
462.582	1638
462.625	1651
462.650	1746
462.705	1638
462.718	1489
462.785	1172
462.786	1174
462.854	1286
462.865	1248
462.922	1225
462.945	1324
462.990	1560
463.025	1746
463.058	1703
463.104	1583
463.126	1666
463.184	1791
463.194	1778
463.262	1567
463.264	1565
463.330	1509
463.344	1451
463.398	2003
463.424	2378
463.466	1813
463.504	1366
463.533	1707
463.583	2128
463.601	2086
463.663	1750
463.669	1696
463.737	1254
463.743	1210
463.805	1684
463.823	1810
463.873	1859
463.903	1956
463.940	2134
463.982	2112
464.008	1905
464.062	1696
464.076	1753
464.142	2110
464.144	2120
464.211	2169
464.221	2176
464.279	1902
464.301	1791
464.347	1540
464.381	1330
464.414	1581
464.461	1969
464.482	1835
464.540	1776
464.550	1842
464.617	1701
464.620	1705
464.685	2052
464.699	2079
464.753	3839
464.779	4832
464.820	4679
464.859	4533
464.888	4394
464.938	3940
464.956	4155
465.018	4815
465.023	4784
465.091	4429
465.098	4415
465.158	4136
465.177	3910
465.226	3698
465.257	3629
465.293	3680
465.336	3858
465.361	3842
465.416	3653
465.428	3629
465.495	3435
465.496	3442
465.563	3933
465.575	4048
465.631	3836
465.654	3743
465.698	3778
465.734	3726
465.765	3896
465.813	4108
465.833	4056
465.893	3895
465.900	3822
465.968	3294
465.972	3234
466.035	3633
466.052	3818
466.102	3606
466.131	3373
466.170	3457
466.210	3603
466.237	3633
466.290	3627
466.304	3641
466.369	3704
466.372	3710
466.439	3755
466.449	3762
466.506	3665
466.528	3608
466.573	3747
466.607	3828
466.641	3734
466.687	3659
466.708	3852
466.766	4284
466.775	4243
466.842	3939
466.845	3922
466.909	4011
466.925	4019
466.977	4384
467.004	4573
467.044	4664
467.083	4748
467.111	5663
467.163	7361
467.178	7304
467.242	7043
467.245	7009
467.312	6149
467.321	6029
467.379	5224
467.400	4923
467.446	5685
467.480	6228
467.559	6087
467.638	5322
467.717	4125
467.796	5530
467.875	4341
467.955	5074
468.034	4778
468.113	4531
468.192	5398
468.271	5507
468.350	4994
468.429	4475
468.508	5211
468.588	4861
468.667	4544
468.746	5083
468.825	3577
468.904	4503
468.983	4208
469.062	4987
469.141	6201
469.220	4922
469.299	4010
469.378	4054
469.456	7637
469.535	6030
469.614	5389
469.693	5288
469.772	5166
469.851	4875
469.930	4560
470.009	5828
470.088	4247
470.166	4570
470.245	4844
470.324	5188
470.403	4543
470.482	4609
470.560	4732
470.639	4338
470.718	5081
470.797	4207
470.875	4254
470.954	4597
471.033	4781
471.111	4266
471.190	4663
471.269	3959
471.347	4755
471.426	4638
471.505	4682
471.583	5185
471.662	5482
471.740	4811
471.819	4556
471.898	4151
471.976	4750
472.055	5124
472.133	5711
472.212	5992
472.290	3634
472.369	4236
472.447	5406
472.526	4650
472.604	5986
472.683	4851
472.761	4320
472.839	3223
472.918	4034
472.996	3569
473.075	4101
473.153	3832
473.231	3457
473.310	3601
473.388	3878
473.466	4180
473.545	5491
473.623	5304
473.701	3777
473.780	4547
473.858	3430
473.936	5235
474.014	4232
474.093	4718
474.171	5288
474.249	5035
474.327	3144
474.405	3858
474.484	3444
474.562	3250
474.640	3645
474.718	4490
474.796	4032
474.874	4555
474.952	4060
475.030	3477
475.108	3726
475.187	4000
475.265	4158
475.343	4495
475.421	5095
475.499	3487
475.577	3904
475.655	4151
475.733	3369
475.811	3873
475.889	3899
475.966	3340
476.044	4248
476.122	3221
476.200	3387
476.278	2817
476.356	3183
476.434	3629
476.512	4224
476.590	3863
476.667	3488
476.745	2852
476.823	4509
476.901	2847
476.979	2373
477.056	3696
477.134	3299
477.212	3200
477.290	2925
477.367	3713
477.445	2896
477.523	3162
477.601	1978
477.678	3132
477.756	3193
477.834	2387
477.911	3265
477.989	3542
478.066	2040
478.144	3849
478.222	2885
478.299	3629
478.377	3599
478.454	3317
478.532	2792
478.609	2508
478.687	2891
478.764	1864
478.842	3234
478.919	2832
478.997	2699
479.074	3003
479.152	3022
479.229	2326
479.307	2449
479.384	3083
479.461	2849
479.539	2526
479.616	2525
479.694	2644
479.771	2305
479.848	2569
479.926	2029
480.003	3724
480.080	2498
480.157	4057
480.235	2779
480.312	2996
480.389	2568
480.467	2277
480.544	2656
480.621	1978
480.698	2705
480.775	2466
480.853	2622
480.930	2340
481.007	2494
481.084	3836
481.161	6465
481.238	5254
481.315	2392
481.392	2154
481.470	2601
481.547	1969
481.624	2123
481.701	2814
481.778	2319
481.855	2099
481.932	2163
482.009	2125
482.086	1925
482.163	2879
482.240	2328
482.317	2405
482.393	1318
482.470	1777
482.547	3422
482.624	2184
482.701	2074
482.778	2115
482.855	1329
482.932	2375
483.009	1980
483.085	2476
483.162	4801
483.239	4444
483.316	1585
483.393	2832
483.469	2186
483.546	1891
483.623	1745
483.699	1941
483.776	1900
483.853	2631
483.930	2561
484.006	2921
484.083	5497
484.160	11916
484.236	23623
484.313	18805
484.389	13159
484.466	12176
484.543	10381
484.619	10220
484.696	11913
484.772	10428
484.849	10632
484.925	10215
485.002	10741
485.078	11528
485.155	9476
485.231	9697
485.308	8845
485.384	9264
485.461	9355
485.537	9073
485.614	10376
485.690	10070
485.766	9100
485.843	8470
485.919	9086
485.995	8123
486.072	8113
486.148	8358
486.224	8100
486.301	7926
486.377	7915
486.453	7178
486.530	9244
486.606	13459
486.682	15039
486.758	11875
486.835	12117
486.911	9767
486.987	11281
487.063	10517
487.139	11112
487.215	11701
487.292	11538
487.368	10250
487.444	8871
487.520	9751
487.596	10322
487.672	11702
487.748	11447
487.824	11675
487.900	10145
487.976	8812
488.052	8035
488.128	9229
488.204	7706
488.280	8681
488.356	7955
488.432	7634
488.508	8248
488.584	7277
488.660	6842
488.736	7913
488.812	6897
488.888	9069
488.964	7939
489.039	8421
489.115	9152
489.191	8010
489.267	8162
489.343	7084
489.418	7062
489.494	7900
489.570	6269
489.646	8020
489.722	6740
489.797	6099
489.873	7490
489.949	9765
490.024	8652
490.100	7205
490.176	6249
490.251	5923
490.327	5852
490.403	6126
490.478	5878
490.554	6772
490.629	5812
490.705	5199
490.781	5917
490.856	5696
490.932	6001
491.007	5873
491.083	5086
491.158	5639
491.234	5597
491.309	6499
491.385	5630
491.460	4525
491.536	5616
491.611	5250
491.686	4837
491.762	5240
491.837	5102
491.913	6712
491.988	5283
492.063	4362
492.139	4987
492.214	5893
492.289	4698
492.365	4802
492.440	5613
492.515	3765
492.590	5200
492.666	4145
492.741	5824
492.816	6479
492.891	5530
492.967	7940
493.042	9567
493.117	12675
493.192	17421
493.267	45873
493.342	216776
493.418	354027
493.493	58850
493.568	8462
493.643	5513
493.718	6071
493.793	3879
493.868	4177
493.943	3856
494.018	4782
494.093	4152
494.168	5288
494.243	4916
494.318	4209
494.393	4947
494.468	3940
494.543	3639
494.618	3865
494.693	4170
494.768	3808
494.842	3737
494.917	3067
494.992	4021
495.067	4015
495.142	3173
495.217	3595
495.292	3916
495.366	4084
495.441	3543
495.516	3759
495.591	3577
495.665	4170
495.740	4951
495.815	4797
495.890	2976
495.964	2908
496.039	5853
496.114	4669
496.188	5876
496.263	6063
496.338	4142
496.412	2908
496.487	4340
496.561	3628
496.636	3511
496.710	4439
496.785	4136
496.860	3983
496.934	3469
497.009	3454
497.083	3310
497.158	3242
497.232	3987
497.307	4244
497.381	4034
497.455	3835
497.530	4680
497.604	4264
497.679	4540
497.753	6862
497.827	6058
497.902	5979
497.976	7881
498.050	8275
498.125	10169
498.199	12163
498.273	8387
498.348	7084
498.422	7120
498.496	7423
498.570	6064
498.645	5365
498.719	4455
498.793	4278
498.867	4935
498.941	4027
499.016	4528
499.090	7033
499.164	5382
499.238	3833
499.312	2689
499.386	2645
499.460	2878
499.534	2448
499.609	2005
499.683	2646
499.757	3088
499.831	2883
499.905	4160
499.979	5214
500.053	1531
500.127	2409
500.201	1682
500.275	2322
500.349	1960
500.422	1825
500.496	2554
500.570	2451
500.644	3306
500.718	3859
500.792	3309
500.866	2290
500.940	2052
501.013	3228
501.087	1841
501.161	2196
501.235	640
501.309	3813
501.382	3516
501.456	4653
501.530	1748
501.603	2267
501.677	1354
501.751	338
501.825	2082
501.898	1342
501.972	2459
502.046	2468
502.119	1072
502.193	2330
502.266	2367
502.340	2248
502.413	1668
502.487	3333
502.561	1013
502.634	1962
502.708	2231
502.781	1113
502.855	2146
502.928	1009
503.002	1964
503.075	1142
503.149	1199
503.222	2052
503.295	1173
503.369	1989
503.442	889
503.516	2415
503.589	2333
503.662	2359
503.736	2320
503.809	2516
503.882	1249
503.956	1089
504.029	2344
504.102	2211
504.175	4077
504.249	1241
504.322	2294
504.395	1867
504.468	1346
504.542	433
504.615	-93
504.688	1957
504.761	436
504.834	2503
504.907	1455
504.980	1043
505.053	1215
505.127	-945
505.200	3486
505.273	1575
505.346	1319
505.419	764
505.492	1442
505.565	802
505.638	1634
505.711	915
505.784	1062
505.857	932
505.930	1865
506.003	9
506.076	2843
506.149	626
506.221	-1234
506.294	2438
506.367	631
506.440	1715
506.513	2064
506.586	1012
506.659	646
506.731	1527
506.804	871
506.877	563
506.950	1504
507.022	1959
507.095	-259
507.168	1510
507.241	1996
507.313	692
507.386	276
507.459	2547
507.531	1210
507.604	326
507.677	2015
507.749	-90
507.822	2251
507.894	4966
507.967	8417
508.040	5460
508.112	5124
508.185	4832
508.257	2807
508.330	5406
508.402	3885
508.475	3330
508.547	4555
508.620	3409
508.692	3694
508.765	4893
508.837	2497
508.909	2964
508.982	3018
509.054	4000
509.127	2954
509.199	3139
509.271	2172
509.344	2677
509.416	3227
509.488	3484
509.560	2825
509.633	3188
509.705	3444
509.777	4704
509.849	4909
509.922	5273
509.994	5239
510.066	5678
510.138	3461
510.210	11777
510.283	9288
510.355	8245
510.427	6324
510.499	6243
510.571	5729
510.643	4252
510.715	5724
510.787	3558
510.859	6706
510.931	4766
511.003	4940
511.076	6207
511.148	4858
511.219	6132
511.291	6370
511.363	6550
511.435	5859
511.507	4992
511.579	5889
511.651	4552
511.723	4810
511.795	4813
511.867	2772
511.939	4865
512.010	3577
512.082	4364
512.154	2364
512.226	4217
512.298	7215
512.369	8844
512.441	7392
512.513	6113
512.585	3812
512.656	4964
512.728	3630
512.800	3875
512.871	5263
512.943	3991
513.015	2521
513.086	4269
513.158	3899
513.230	3440
513.301	2766
513.373	4585
513.444	3888
513.516	2878
513.588	3430
513.659	3941
513.731	3473
513.802	2645
513.874	6023
513.945	3673
514.016	2785
514.088	3633
514.159	1648
514.231	5019
514.302	7311
514.374	6830
514.445	4435
514.516	6962
514.588	3370
514.659	3843
514.730	3498
514.802	5586
514.873	3455
514.944	7375
515.016	5286
515.087	3975
515.158	3721
515.229	5246
515.301	4597
515.372	7044
515.443	4572
515.514	4781
515.585	3030
515.656	4783
515.728	4301
515.799	2139
515.870	3748
515.941	4261
516.012	3220
516.083	6036
516.154	4188
516.225	5745
516.296	5272
516.367	3677
516.438	3478
516.509	3530
516.580	2986
516.651	6081
516.722	5284
516.793	5147
516.864	3070
516.935	3340
517.006	4734
517.077	4605
517.148	4570
517.219	6336
517.289	8448
517.360	4446
517.431	4401
517.502	2145
517.573	3919
517.643	3083
517.714	4039
517.785	5124
517.856	2402
517.926	4704
517.997	3273
518.068	2089
518.138	4571
518.209	3266
518.280	4540
518.350	12468
518.421	6417
518.492	4921
518.562	2609
518.633	3126
518.703	1514
518.774	5577
518.845	4807
518.915	4411
518.986	3265
519.056	3162
519.127	4549
519.197	4091
519.268	4000
519.338	4156
519.408	3055
519.479	2840
519.549	2237
519.620	3534
519.690	1791
519.760	2590
519.831	2611
519.901	1876
519.971	3447
520.042	2408
520.112	553
520.182	2320
520.253	2361
520.323	1913
520.393	1643
520.463	3172
520.534	-550
520.604	4028
520.674	2100
520.744	2445
520.814	1586
520.885	3008
520.955	2000
521.025	1575
521.095	2437
521.165	3160
521.235	1671
521.305	2090
521.375	2075
521.445	3452
521.515	1131
521.585	2520
521.655	-267
521.725	3168
521.795	2307
521.865	399
521.935	3571
522.005	782
522.075	1219
522.145	3106
522.215	632
522.285	1572
522.355	2454
522.424	1977
522.494	511
522.564	2018
522.634	2029
522.704	3671
522.774	1238
522.843	2406
522.913	1225
522.983	1286
523.053	1137
523.122	2050
523.192	577
523.262	1442
523.331	1787
523.401	2703
523.471	1437
523.540	2524
523.610	394
523.680	1270
523.749	1378
523.819	1966
523.888	1762
523.958	1126
524.027	811
524.097	1791
524.166	988
524.236	-141
524.305	2982
524.375	602
524.444	426
524.514	2395
524.583	785
524.653	94
524.722	1323
524.791	-516
524.861	2143
524.930	859
524.999	979
525.069	2510
525.138	-3
525.207	454
525.277	1626
525.346	1177
525.415	1578
525.484	665
525.554	-149
525.623	1138
525.692	3266
525.761	2017
525.830	1609
525.900	1173
525.969	849
526.038	1354
526.107	1079
526.176	9299
526.245	7418
526.314	3000
526.383	3667
526.452	4077
526.522	10027
526.591	11622
526.660	2312
526.729	1474
526.797	2458
526.867	955
526.935	7434
527.004	19272
527.073	16286
527.142	2285
527.211	1477
527.280	2275
527.349	685
527.418	-128
527.487	1630
527.555	-160
527.624	1150
527.693	-1407
527.762	1636
527.831	-576
527.899	1100
527.968	676
528.037	-1045
528.106	1256
528.174	1071
528.243	938
528.312	418
528.380	1080
528.449	-516
528.518	1723
528.586	-1667
528.655	2030
528.723	607
528.792	572
528.861	-862
528.929	-384
528.998	951
529.066	114
529.135	286
529.203	-208
529.272	-504
529.340	797
529.409	1643
529.477	-1173
529.545	-1787
529.614	2655
529.682	-1891
529.751	-66
529.819	2664
529.887	38
529.956	-214
530.024	868
530.092	-585
530.161	587
530.229	398
530.297	-290
530.365	1022
530.434	354
530.502	-987
530.570	895
530.638	-1104
530.707	524
530.775	1710
530.843	-436
530.911	-263
530.979	1038
531.047	292
531.115	1127
531.183	74
531.252	748
531.320	559
531.388	-574
531.456	908
531.524	-1289
531.592	1171
531.660	2382
531.728	-836
531.796	80
531.864	27
531.932	621
532.000	-343
532.067	674
532.135	1198
532.203	2160
532.271	431
532.339	4311
532.407	3239
532.475	3111
532.542	2530
532.610	833
532.678	88
532.746	2521
532.814	2218
532.881	837
532.949	716
533.017	1507
533.084	733
533.152	655
533.220	407
533.287	118
533.355	197
533.423	1252
533.490	-91
533.558	1454
533.625	1673
533.693	2044
533.761	2263
533.828	2746
533.896	1927
533.963	6409
534.031	8689
534.098	7517
534.166	4619
534.233	4068
534.300	6243
534.368	4962
534.435	3873
534.503	3818
534.570	2692
534.637	1812
534.705	1790
534.772	2910
534.840	1044
534.907	5126
534.974	6673
535.041	1100
535.109	345
535.176	-40
535.243	1853
535.310	1624
535.378	227
535.445	1919
535.512	1113
535.579	2257
535.646	1072
535.714	1820
535.781	3256
535.848	3400
535.915	4379
535.982	6674
536.049	6770
536.116	7210
536.183	4228
536.250	4633
536.317	2628
536.384	3395
536.451	3259
536.518	1767
536.585	593
536.652	3776
536.719	2187
536.786	-700
536.853	529
536.920	2269
536.987	681
537.053	809
537.120	2285
537.187	3168
537.254	221
537.321	177
537.388	1413
537.454	65
537.521	516
537.588	520
537.654	2474
537.721	1764
537.788	2148
537.855	776
537.921	1388
537.988	448
538.055	1722
538.121	-394
538.188	630
538.254	930
538.321	1329
538.388	1067
538.454	901
538.521	1111
538.587	72
538.654	1194
538.720	434
538.787	1195
538.853	729
538.920	585
538.986	397
539.053	258
539.119	375
539.185	1185
539.252	906
539.318	401
539.385	1748
539.451	919
539.517	2292
539.583	1907
539.650	924
539.716	1233
539.782	1421
539.849	572
539.915	1293
539.981	333
540.047	799
540.114	980
540.180	1719
540.246	-1202
540.312	597
540.378	614
540.444	2122
540.510	714
540.576	858
540.643	739
540.709	-178
540.775	595
540.841	415
540.907	1788
540.973	3023
541.039	2586
541.105	1287
541.171	884
541.237	304
541.303	2221
541.369	2038
541.435	757
541.500	1145
541.566	-148
541.632	266
541.698	990
541.764	1053
541.830	30
541.896	212
541.961	742
542.027	956
542.093	404
542.159	926
542.224	754
542.290	3364
542.356	1949
542.421	2230
542.487	4392
542.553	1423
542.618	1352
542.684	812
542.750	487
542.815	1890
542.881	404
542.947	648
543.012	1241
543.078	211
543.143	-156
543.209	1623
543.274	593
543.340	2048
543.405	1508
543.471	824
543.536	789
543.602	652
543.667	15
543.732	1656
543.798	-170
543.863	1662
543.928	1341
543.994	422
544.059	1493
544.124	460
544.190	395
544.255	1364
544.320	2003
544.386	41
544.451	2268
544.516	771
544.581	439
544.646	1730
544.712	3203
544.777	2266
544.842	316
544.907	925
544.972	1974
545.037	1454
545.102	1840
545.168	373
545.233	2549
545.298	3045
545.363	1796
545.428	1156
545.493	3600
545.558	241
545.623	1396
545.688	627
545.753	1272
545.818	740
545.883	2151
545.947	46
546.012	1869
546.077	816
546.142	1511
546.207	431
546.272	903
546.337	874
546.401	1629
546.466	966
546.531	1136
546.596	1933
546.661	878
546.725	2115
546.790	522
546.855	1405
546.919	-88
546.984	851
547.049	375
547.113	425
547.178	584
547.243	960
547.307	1779
547.372	1274
547.436	382
547.501	583
547.565	1200
547.630	1094
547.695	1116
547.759	485
547.823	815
547.888	1679
547.952	2113
548.017	2034
548.081	4861
548.146	2711
548.210	1784
548.274	523
548.339	774
548.403	1399
548.468	1057
548.532	425
548.596	1276
548.660	823
548.725	1463
548.789	534
548.853	1545
548.917	1128
548.982	645
549.046	1380
549.110	24
549.174	961
549.238	1182
549.303	343
549.367	2483
549.431	1061
549.495	1183
549.559	208
549.623	2129
549.687	1126
549.751	946
549.815	1351
549.879	1925
549.943	757
550.007	1592
550.071	1370
550.135	179
550.199	272
550.263	953
550.327	1475
550.391	2078
550.455	3505
550.519	1089
550.582	1444
550.646	865
550.710	1773
550.774	1493
550.838	907
550.901	2133
550.965	1679
551.029	1451
551.093	2769
551.156	1955
551.220	3042
551.284	2058
551.347	2557
551.411	2304
551.475	2509
551.538	2031
551.602	2340
551.666	2086
551.729	1424
551.793	2671
551.856	3728
551.920	7485
551.983	6116
552.047	2285
552.110	2730
552.174	2672
552.237	1686
552.301	1945
552.364	1368
552.428	1197
552.491	1100
552.554	2225
552.618	1131
552.681	2536
552.745	2066
552.808	2521
552.871	3343
552.934	3527
552.998	3092
553.061	4532
553.124	6141
553.187	8174
553.251	10344
553.314	14174
553.377	17201
553.440	34476
553.503	156733
553.567	356461
553.630	66453
553.693	11128
553.756	5892
553.819	3670
553.882	2339
553.945	1562
554.008	1710
554.071	1337
554.134	1171
554.197	995
554.260	1985
554.323	2460
554.386	717
554.449	762
554.512	2094
554.575	565
554.638	1330
554.701	338
554.764	1117
554.827	1191
554.889	543
554.952	193
555.015	207
555.078	134
555.141	1007
555.203	678
555.266	849
555.329	1545
555.391	886
555.454	551
555.517	939
555.580	362
555.642	332
555.705	364
555.768	684
555.830	1010
555.893	340
555.955	1343
556.018	744
556.080	-11
556.143	850
556.206	324
556.268	-65
556.330	913
556.393	-124
556.455	128
556.518	-540
556.580	572
556.643	1535
556.705	971
556.767	-96
556.830	553
556.892	-130
556.955	535
557.017	605
557.079	1162
557.142	-300
557.204	-377
557.266	1178
557.328	754
557.391	-480
557.453	-412
557.515	719
557.577	513
557.639	404
557.701	964
557.764	-496
557.826	-430
557.888	409
557.950	141
558.012	225
558.074	494
558.136	1574
558.198	6345
558.260	3581
558.322	-592
558.384	-158
558.446	1531
558.508	857
558.570	1369
558.632	1764
558.694	3529
558.756	4577
558.818	13639
558.880	44889
558.942	16716
559.003	7010
559.065	4272
559.127	941
559.189	847
559.251	435
559.312	2176
559.374	5365
559.436	22662
559.498	14613
559.559	1511
559.621	1069
559.683	1717
559.744	1797
559.806	7977
559.868	15681
559.929	3292
559.991	1297
560.052	1079
560.114	5430
560.176	3570
560.237	2416
560.299	5464
560.360	585
560.422	-606
560.483	-113
560.545	-302
560.606	-515
560.667	-608
560.729	-376
560.790	168
560.852	81
560.913	-1059
560.974	747
561.036	-243
561.097	-92
561.158	-137
561.220	-50
561.281	-206
561.342	-412
561.403	851
561.465	12
561.526	918
561.587	597
561.648	-125
561.709	-1315
561.771	617
561.832	267
561.893	-198
561.954	-49
562.015	304
562.076	-898
562.137	674
562.198	-21
562.259	456
562.320	-881
562.381	43
562.442	-167
562.503	289
562.564	603
562.625	1399
562.686	-75
562.747	-274
562.808	90
562.869	-469
562.930	176
562.991	-192
563.051	-41
563.112	195
563.173	-82
563.234	-474
563.294	530
563.355	-544
563.416	-330
563.477	336
563.537	-27
563.598	-523
563.659	35
563.720	-597
563.780	-789
563.841	-229
563.901	474
563.962	-83
564.023	178
564.083	-304
564.144	-5
564.204	-127
564.265	92
564.325	-207
564.386	830
564.446	372
564.507	-512
564.567	868
564.628	503
564.688	-139
564.749	-8
564.809	201
564.869	5
564.930	-522
564.990	1247
565.050	173
565.111	332
565.171	1003
565.231	25
565.292	643
565.352	-483
565.412	883
565.472	-632
565.532	-34
565.593	-504
565.653	71
565.713	89
565.773	519
565.833	-61
565.893	1483
565.953	611
566.013	1078
566.074	870
566.134	1069
566.194	32
566.254	1487
566.314	1968
566.374	753
566.434	1490
566.494	2523
566.554	2156
566.614	2524
566.673	1738
566.733	2259
566.793	2175
566.853	2250
566.913	2943
566.973	2878
567.033	2909
567.092	2618
567.152	2022
567.212	2517
567.272	2842
567.331	3946
567.391	3543
567.451	3107
567.511	3124
567.570	3920
567.630	2039
567.690	2752
567.749	4217
567.809	4502
567.868	4091
567.928	4971
567.988	5425
568.047	7388
568.107	9817
568.166	13761
568.226	18150
568.285	28324
568.345	28533
568.404	24340
568.464	20684
568.523	19081
568.582	19544
568.642	20611
568.701	23714
568.761	32588
568.820	47716
568.879	52236
568.939	43136
568.998	36249
569.057	28169
569.116	22882
569.176	18205
569.235	13437
569.294	11325
569.353	9346
569.413	8826
569.472	6895
569.531	6490
569.590	6002
569.649	4040
569.708	4173
569.767	3800
569.827	3763
569.886	2558
569.945	3068
570.004	2841
570.063	2819
570.122	1537
570.181	1773
570.240	1536
570.299	2190
570.358	883
570.417	1337
570.475	1660
570.534	1967
570.593	1605
570.652	910
570.711	1525
570.770	585
570.829	1702
570.887	1819
570.946	445
571.005	522
571.064	-66
571.122	568
571.181	537
571.240	-385
571.299	800
571.357	840
571.416	333
571.475	775
571.533	377
571.592	536
571.650	48
571.709	80
571.768	40
571.826	545
571.885	816
571.943	279
572.002	-176
572.060	303
572.119	102
572.177	347
572.236	-50
572.294	187
572.352	157
572.411	272
572.469	-55
572.528	-26
572.586	448
572.644	1064
572.703	-64
572.761	278
572.819	99
572.877	208
572.936	-531
572.994	540
573.052	-266
573.110	202
573.169	188
573.227	4
573.285	-457
573.343	382
573.401	-391
573.459	1176
573.517	-179
573.576	-112
573.634	112
573.692	-385
573.750	-400
573.808	-592
573.866	-354
573.924	286
573.982	-238
574.040	473
574.098	79
574.155	51
574.213	197
574.271	-304
574.329	246
574.387	-328
574.445	-818
574.503	451
574.560	-477
574.618	-483
574.676	-377
574.734	-102
574.792	-425
574.849	134
574.907	-596
574.965	-81
575.022	116
575.080	-641
575.138	-259
575.195	-173
575.253	-694
575.311	126
575.368	53
575.426	-494
575.483	724
575.541	688
575.598	13
575.656	-328
575.713	48
575.771	-324
575.828	-409
575.886	-692
575.943	-300
576.001	-292
576.058	134
576.115	-470
576.173	364
576.230	-193
576.287	-298
576.345	-432
576.402	-392
576.459	-578
576.517	-35
576.574	-594
576.631	-50
576.688	245
576.746	76
576.803	134
576.860	-281
576.917	277
576.974	218
577.031	-228
577.089	251
577.146	143
577.203	194
577.260	1470
577.317	608
577.374	995
577.431	142
577.488	578
577.545	1068
577.602	2865
577.659	3233
577.716	6445
577.773	10555
577.830	7349
577.886	4148
577.943	2721
578.000	1986
578.057	2427
578.114	5066
578.171	7482
578.227	11874
578.284	14226
578.341	10372
578.398	6936
578.454	5012
578.511	3276
578.568	2879
578.625	1574
578.681	984
578.738	1223
578.794	1943
578.851	1338
578.908	301
578.964	602
579.021	626
579.077	675
579.134	781
579.190	859
579.247	547
579.303	-30
579.360	467
579.416	863
579.473	1059
579.529	661
579.586	1562
579.642	2093
579.698	1458
579.755	3397
579.811	3457
579.867	3169
579.924	3920
579.980	6501
580.036	8917
580.093	12707
580.149	21624
580.205	30210
580.261	21664
580.317	15901
580.374	10801
580.430	7742
580.486	5940
580.542	5032
580.598	4066
580.619	3772
580.654	3259
580.692	2373
580.710	1928
580.765	2986
580.767	3018
580.823	2366
580.838	2187
580.879	1700
580.911	1660
580.935	1635
580.984	1881
580.991	1906
581.047	2572
581.057	2546
581.103	2484
581.130	3492
581.159	4530
581.203	5931
581.215	6281
581.270	6473
581.276	6309
581.326	4615
581.349	4319
581.382	3897
581.422	3375
581.438	3157
581.494	1804
581.494	1811
581.550	2295
581.567	2082
581.606	1562
581.640	1106
581.661	859
581.713	1422
581.717	1460
581.773	1591
581.786	1559
581.829	1438
581.859	1184
581.885	992
581.932	1187
581.940	1215
581.996	2065
582.004	2023
582.052	1745
582.077	1294
582.107	735
582.150	1528
582.163	1780
582.219	1403
582.223	1449
582.274	2050
582.296	1918
582.330	1642
582.368	1782
582.386	1965
582.441	2269
582.441	2265
582.497	3626
582.514	3863
582.552	5031
582.587	7955
582.608	9160
582.659	5648
582.663	5379
582.719	3059
582.732	3008
582.774	3051
582.805	2662
582.830	2491
582.877	3357
582.885	3484
582.941	3670
582.950	3723
582.996	4145
583.023	4584
583.052	5357
583.095	7732
583.107	8450
583.162	11900
583.168	12315
583.218	15692
583.240	15289
583.273	13656
583.313	11497
583.328	10779
583.384	8141
583.385	8088
583.439	6695
583.458	6573
583.494	6334
583.531	5421
583.549	5043
583.603	4150
583.605	4129
583.660	4558
583.676	4639
583.715	4669
583.748	4081
583.770	3792
583.820	3685
583.825	3660
583.881	3417
583.893	3355
583.936	3388
583.965	3702
583.991	3951
584.038	3395
584.046	3262
584.101	3162
584.110	3141
584.156	3328
584.183	3351
584.211	3328
584.255	3722
584.266	3821
584.321	3757
584.328	3689
584.376	3297
584.400	3495
584.431	3705
584.472	3764
584.486	3794
584.541	4257
584.545	4238
584.596	4019
584.617	3985
584.651	4020
584.689	4337
584.706	4476
584.761	4252
584.762	4251
584.816	4937
584.834	5113
584.871	5492
584.906	5438
584.926	5310
584.978	4740
584.980	4741
585.035	5578
585.051	5725
585.090	6285
585.123	6762
585.145	7202
585.195	7995
585.200	8348
585.254	14380
585.267	16230
585.309	25005
585.340	33254
585.364	34634
585.412	22987
585.419	20989
585.473	10036
585.484	8513
585.528	8053
585.556	8354
585.583	9373
585.628	10472
585.637	11121
585.692	17182
585.700	18328
585.747	23151
585.772	22651
585.801	17997
585.845	10980
585.856	10188
585.910	8981
585.917	8753
585.965	8133
585.989	7909
586.019	7767
586.061	8003
586.074	8226
586.128	8656
586.133	8714
586.183	9324
586.205	9471
586.237	9672
586.277	9718
586.292	9826
586.346	10255
586.349	10231
586.401	10385
586.421	10658
586.455	10879
586.493	11126
586.509	11473
586.564	12209
586.565	12198
586.618	12773
586.637	12931
586.672	13196
586.709	13156
586.727	13275
586.781	13746
586.781	13784
586.835	14256
586.853	14361
586.889	14981
586.925	15334
586.944	15577
586.996	16434
586.998	16516
587.052	17721
587.068	18050
587.106	18556
587.140	18782
587.161	19102
587.212	19684
587.215	19802
587.269	21618
587.284	21940
587.323	23017
587.356	24101
587.377	24855
587.427	25977
587.431	26187
587.485	28490
587.499	29047
587.539	30833
587.571	31839
587.593	32874
587.643	35605
587.648	35988
587.702	38465
587.715	39145
587.755	42362
587.786	44527
587.810	46487
587.858	50038
587.864	50791
587.917	57564
587.930	58898
587.971	64776
588.001	69297
588.025	73930
588.073	82542
588.079	84212
588.133	97323
588.145	100173
588.187	114369
588.217	123995
588.241	133087
588.288	151223
588.295	154927
588.348	182934
588.360	188741
588.402	217270
588.431	237315
588.456	259650
588.503	301937
588.510	310431
588.564	374922
588.575	388299
588.617	468128
588.646	523295
588.671	603800
588.718	761628
588.725	807236
588.778	1164032
588.789	1240172
588.832	1763106
588.861	2133465
588.886	2434226
588.932	3000049
588.939	3012815
588.993	2896332
589.004	2860352
589.047	2632743
589.075	2411111
589.100	2016597
589.147	1302157
589.154	1256031
589.207	911660
589.218	842206
589.261	771068
589.290	725370
589.314	758883
589.361	829456
589.368	870961
589.421	1213501
589.433	1288935
589.475	1873294
589.504	2298568
589.528	2518373
589.576	2868994
589.582	2838885
589.635	2387276
589.647	2268560
589.689	1534026
589.718	1033195
589.742	854897
589.790	519542
589.795	504820
589.849	359936
589.861	326290
589.902	271613
589.932	230947
589.955	213693
590.004	176306
590.009	174409
590.062	148078
590.075	141167
590.115	127991
590.146	117171
590.168	112242
590.218	100302
590.222	99814
590.275	89004
590.289	85793
590.328	80417
590.360	75842
590.381	74030
590.431	68767
590.435	68683
590.488	62717
590.503	60932
590.541	58345
590.574	55715
590.594	54772
590.645	51519
590.647	51596
590.700	48504
590.716	47336
590.753	45639
590.787	43745
590.806	42785
590.859	39633
590.859	39761
590.912	37872
590.930	37139
590.965	36200
591.001	35068
591.018	34888
591.071	33727
591.072	33577
591.124	32449
591.143	31846
591.177	31216
591.214	30206
591.230	29944
591.283	28908
591.285	28741
591.336	28174
591.356	27767
591.389	27462
591.427	26805
591.442	26552
591.495	25359
591.498	25154
591.547	24348
591.569	23877
591.600	23883
591.640	23550
591.653	23587
591.706	23443
591.711	23322
591.759	22284
591.782	21574
591.811	21160
591.853	20423
591.864	20569
591.917	20774
591.924	20723
591.969	20182
591.995	19692
592.022	19624
592.066	19293
592.075	19381
592.127	19423
592.137	19339
592.180	18751
592.208	18228
592.233	18369
592.279	18390
592.285	18392
592.338	17746
592.350	17514
592.390	17309
592.421	17030
592.443	17214
592.491	17381
592.495	17449
592.548	17327
592.562	17222
592.600	16812
592.633	16313
592.653	16037
592.704	15059
592.705	15146
592.775	15152
592.846	15269
592.916	14519
592.987	14473
593.058	14673
593.128	14002
593.199	13703
593.270	12633
593.341	12852
593.411	12902
593.482	13497
593.553	12918
593.623	12283
593.694	11569
593.764	12512
593.835	11892
593.906	12349
593.976	11874
594.047	11142
594.117	11751
594.188	11061
594.258	11137
594.329	11651
594.399	10738
594.470	10966
594.540	10566
594.611	11467
594.681	9818
594.751	11597
594.822	13225
594.892	12783
594.963	11942
595.033	11189
595.103	9789
595.174	9410
595.244	10487
595.314	10191
595.384	9584
595.455	9095
595.525	9391
595.595	9489
595.665	9955
595.736	9244
595.806	8752
595.876	8423
595.946	8898
596.016	9238
596.087	9478
596.157	8916
596.227	8819
596.297	9430
596.367	8735
596.437	9804
596.507	9430
596.577	9555
596.647	9289
596.717	10263
596.787	9437
596.857	9503
596.927	9845
596.997	11211
597.067	17373
597.137	34152
597.207	20059
597.277	10196
597.347	8970
597.417	8049
597.487	8997
597.557	8735
597.626	8640
597.696	9145
597.766	8792
597.836	9125
597.906	8284
597.975	8150
598.045	8237
598.115	8535
598.185	7638
598.254	9474
598.324	8241
598.394	8721
598.464	7623
598.533	8297
598.603	7825
598.672	7846
598.742	8605
598.812	8004
598.881	8471
598.951	8219
599.020	8040
599.090	8342
599.159	8306
599.229	8325
599.299	8594
599.368	8702
599.437	8588
599.507	8923
599.576	12825
599.646	26112
599.715	29983
599.785	10316
599.854	7407
599.924	7744
599.993	6320
600.062	7189
600.132	6671
600.201	7082
600.270	7923
600.340	7474
600.409	7256
600.478	7675
600.547	7429
600.617	7896
600.686	6396
600.755	6288
600.824	6903
600.894	6535
600.963	6566
601.032	5632
601.101	7180
601.170	5781
601.239	4905
601.308	6276
601.378	5784
601.447	6550
601.516	5775
601.585	6243
601.654	5992
601.723	7607
601.792	8835
601.861	18828
601.930	36159
601.999	13373
602.068	7354
602.137	5965
602.206	5950
602.275	6502
602.343	5648
602.412	6272
602.481	6035
602.550	6080
602.619	6356
602.688	6208
602.756	6012
602.825	6473
602.894	6388
602.963	5650
603.032	6866
603.100	5498
603.169	6249
603.238	5927
603.307	6193
603.375	6637
603.444	5839
603.513	5829
603.581	5731
603.650	6669
603.719	5804
603.787	6313
603.856	5670
603.924	5837
603.993	7048
604.061	6117
604.130	6413
604.198	6622
604.267	7345
604.335	7196
604.404	6551
604.472	6851
604.541	6162
604.609	6137
604.678	6568
604.746	6768
604.815	6674
604.883	7379
604.951	7109
605.020	6625
605.088	7367
605.156	7093
605.225	6972
605.293	6891
605.361	7586
605.429	6998
605.498	6896
605.566	7858
605.634	8073
605.702	7899
605.771	7695
605.839	8314
605.907	7904
605.975	7423
606.043	9407
606.111	10631
606.180	17848
606.248	45729
606.316	56318
606.384	12058
606.452	8328
606.520	7648
606.588	8685
606.656	7743
606.724	7788
606.792	8065
606.860	7448
606.928	6743
606.996	6914
607.064	6209
607.132	5836
607.200	6058
607.267	6408
607.335	5988
607.403	7340
607.471	6651
607.539	6876
607.607	7490
607.674	5768
607.742	6557
607.810	5588
607.878	6099
607.946	6190
608.013	6593
608.081	6424
608.149	7058
608.216	5991
608.284	6991
608.352	6300
608.419	5594
608.487	7216
608.555	5580
608.622	7206
608.690	7263
608.757	7566
608.825	7513
608.893	6919
608.960	6488
609.028	6187
609.095	6883
609.163	7398
609.230	6076
609.298	6403
609.365	6068
609.432	7356
609.500	6602
609.567	6866
609.635	8193
609.702	8301
609.769	8158
609.837	5307
609.904	6424
609.971	6490
610.039	8707
610.106	10139
610.173	16932
610.241	39959
610.308	25620
610.375	10565
610.442	6713
610.509	7485
610.577	8313
610.644	7005
610.711	7766
610.778	8617
610.845	11029
610.912	16621
610.980	39216
611.047	97037
611.114	44496
611.181	11012
611.248	8361
611.315	8655
611.382	8034
611.449	7979
611.516	8093
611.583	7156
611.650	7449
611.717	7779
611.784	7258
611.851	8130
611.918	9201
611.984	10600
612.051	19263
612.118	38849
612.185	97566
612.252	69145
612.319	14893
612.386	10826
612.452	8344
612.519	9123
612.586	7716
612.653	8609
612.719	8123
612.786	7118
612.853	8067
612.919	8009
612.986	7995
613.053	7245
613.120	7083
613.186	6261
613.253	8909
613.319	7062
613.386	7297
613.453	6847
613.519	8226
613.586	7079
613.652	9741
613.719	8797
613.785	11537
613.852	14401
613.918	20650
613.985	44287
614.051	117399
614.118	344732
614.184	330989
614.250	45359
614.317	17205
614.383	13109
614.449	10500
614.516	9521
614.582	10047
614.648	7673
614.715	7929
614.781	8722
614.847	8151
614.914	7719
614.980	8043
615.046	8883
615.112	8695
615.179	10148
615.245	11855
615.311	16003
615.377	28960
615.443	38579
615.509	24653
615.575	15505
615.642	13067
615.708	11461
615.774	13618
615.840	14573
615.906	21002
615.972	33557
616.038	69539
616.104	111014
616.170	161867
616.236	139860
616.302	36051
616.368	18299
616.434	12618
616.500	12275
616.565	11283
616.631	13176
616.697	11385
616.763	10661
616.829	15501
616.895	23753
616.961	24891
617.026	13638
617.092	8181
617.158	8057
617.224	6776
617.289	6733
617.355	6370
617.421	4984
617.487	7269
617.552	5673
617.618	4765
617.684	4420
617.749	6782
617.815	6105
617.880	5883
617.946	5273
618.012	5331
618.077	4935
618.143	6175
618.208	6133
618.274	5766
618.339	6091
618.405	4057
618.470	5938
618.536	4559
618.601	5089
618.667	5073
618.732	4843
618.798	5266
618.863	4211
618.928	4281
618.994	4680
619.059	5302
619.124	4314
619.190	6052
619.255	4227
619.320	4236
619.386	4104
619.451	3721
619.516	4917
619.581	4729
619.647	4613
619.712	4396
619.777	4801
619.842	4943
619.907	3869
619.972	4245
620.038	4715
620.103	4498
620.168	4283
620.233	5124
620.298	4997
620.363	4837
620.428	4805
620.493	5520
620.558	4592
620.623	5075
620.688	5076
620.753	5179
620.818	4509
620.883	4671
620.948	5286
621.013	5718
621.078	4577
621.143	3540
621.207	6149
621.272	3711
621.337	4490
621.402	4535
621.467	4793
621.532	4640
621.596	4307
621.661	5330
621.726	4358
621.791	3991
621.855	4312
621.920	4362
621.985	4214
622.049	5075
622.114	4245
622.179	5026
622.243	4507
622.308	4760
622.373	5492
622.437	5174
622.502	3521
622.566	4999
622.631	2178
622.695	5221
622.760	5263
622.824	4489
622.889	4417
622.953	4785
623.018	5187
623.082	5394
623.147	4809
623.211	5331
623.276	4825
623.340	4171
623.404	4716
623.469	5628
623.533	5144
623.597	4121
623.662	4743
623.726	4078
623.790	3845
623.854	3808
623.919	4432
623.983	4156
624.047	3513
624.111	5293
624.176	3751
624.240	4130
624.304	4813
624.368	4395
624.432	4259
624.496	4656
624.560	4917
624.625	4889
624.689	5254
624.753	4509
624.817	4150
624.881	4918
624.945	4762
625.009	4286
625.073	4644
625.137	3357
625.201	4705
625.265	4994
625.329	4671
625.393	4490
625.456	4760
625.520	4680
625.584	3884
625.648	4116
625.712	3689
625.776	5109
625.839	5456
625.903	4026
625.967	3293
626.031	5437
626.095	5349
626.158	4799
626.222	2936
626.286	3441
626.349	2710
626.413	3057
626.477	3841
626.540	3544
626.604	3114
626.668	4229
626.731	2707
626.795	3230
626.858	3341
626.922	3086
626.986	3913
627.049	2507
627.113	3568
627.176	4380
627.240	3299
627.303	3206
627.366	2841
627.430	4070
627.493	3072
627.557	2791
627.620	4002
627.684	3817
627.747	3416
627.810	1084
627.874	2893
627.937	2355
628.000	4764
628.064	3367
628.127	1226
628.190	3585
628.253	3205
628.317	2546
628.380	2766
628.443	2655
628.506	2299
628.569	2744
628.632	2965
628.696	3401
628.759	3224
628.822	2110
628.885	2121
628.948	3067
629.011	3205
629.074	2762
629.137	2606
629.200	1745
629.263	4697
629.326	2158
629.389	2949
629.452	2407
629.515	2264
629.578	2846
629.641	3089
629.704	2859
629.767	2572
629.830	3343
629.892	3066
629.955	2041
630.018	4273
630.081	2313
630.144	3013
630.207	1858
630.269	3299
630.332	2648
630.395	3236
630.458	2540
630.520	1708
630.583	3121
630.646	2232
630.708	2813
630.771	1687
630.834	3273
630.896	1789
630.959	2888
631.021	2327
631.084	2194
631.146	2625
631.209	2659
631.272	1914
631.334	2680
631.397	2073
631.459	2300
631.522	2881
631.584	2466
631.646	3163
631.709	2286
631.771	2707
631.834	3446
631.896	2741
631.958	1874
632.021	2355
632.083	1638
632.145	2531
632.208	2258
632.270	2753
632.332	1402
632.395	1885
632.457	3014
632.519	1726
632.581	3837
632.643	1437
632.706	2568
632.768	1297
632.830	2665
632.892	2232
632.954	1452
633.016	2938
633.078	2692
633.141	2346
633.203	1982
633.265	2166
633.327	2830
633.389	1970
633.451	3682
633.513	976
633.575	1968
633.637	1786
633.698	1436
633.760	2936
633.822	3472
633.884	2847
633.946	3405
634.008	5800
634.070	11257
634.132	28063
634.193	12755
634.255	4067
634.317	2980
634.379	3326
634.441	2673
634.502	2051
634.564	4267
634.626	3363
634.687	3737
634.749	2881
634.811	3009
634.873	1891
634.934	3149
634.996	2947
635.057	1531
635.119	1339
635.181	1699
635.242	3200
635.304	788
635.365	3613
635.427	1165
635.488	2211
635.550	2374
635.611	2595
635.673	-296
635.734	3516
635.796	2825
635.857	3172
635.918	1746
635.980	4027
636.041	1671
636.102	2423
636.164	2643
636.225	3179
636.286	655
636.348	3591
636.409	2769
636.470	1619
636.531	2277
636.593	2190
636.654	2976
636.715	2259
636.776	2250
636.838	2520
636.899	3508
636.960	1931
637.021	2126
637.082	1379
637.143	2931
637.204	965
637.265	1243
637.326	2433
637.387	2014
637.448	1054
637.509	2881
637.570	1845
637.631	2643
637.692	443
637.753	941
637.814	1731
637.875	1185
637.936	2432
637.997	2688
638.058	1897
638.119	2891
638.179	1593
638.240	1396
638.301	1866
638.362	1855
638.423	1000
638.483	2519
638.544	686
638.605	2485
638.666	1769
638.726	2534
638.787	2572
638.848	1243
638.908	2108
638.969	2850
639.030	1393
639.090	379
639.151	1241
639.211	2601
639.272	1784
639.332	3138
639.393	2173
639.453	1080
639.514	1362
639.574	2086
639.635	992
639.695	2307
639.756	1021
639.816	2246
639.877	1768
639.937	2512
639.997	1863
640.058	721
640.118	1298
640.178	2989
640.239	1263
640.299	1067
640.359	1489
640.420	1502
640.480	1376
640.540	1897
640.600	1462
640.661	3622
640.721	2809
640.781	8313
640.841	9363
640.901	4644
640.961	1853
641.021	2124
641.082	1464
641.142	1465
641.202	2568
641.262	-384
641.322	1930
641.382	340
641.442	1785
641.502	1025
641.562	1721
641.622	982
641.682	1227
641.742	2122
641.802	1354
641.861	1779
641.921	911
641.981	3071
642.041	1969
642.101	1014
642.161	478
642.221	1560
642.280	877
642.340	1748
642.400	185
642.460	2859
642.519	1423
642.579	1343
642.639	2010
642.698	-445
642.758	2970
642.818	1866
642.877	1014
642.937	2106
642.997	1681
643.056	1780
643.116	31
643.175	3913
643.235	1224
643.294	1732
643.354	2679
643.414	1934
643.473	2100
643.532	1916
643.592	2262
643.651	6061
643.711	10290
643.770	21073
643.830	50012
643.889	109599
643.948	24362
644.008	4163
644.067	1412
644.126	2217
644.186	1740
644.245	3443
644.304	-34
644.363	3803
644.423	852
644.482	2007
644.541	1845
644.600	-30
644.659	2489
644.719	2139
644.778	2805
644.837	4570
644.896	9493
644.955	20590
645.014	15499
645.073	18272
645.132	3864
645.191	2286
645.250	780
645.309	3436
645.368	2290
645.427	2020
645.486	1360
645.545	3990
645.604	1770
645.663	2480
645.722	1080
645.781	2168
645.840	1987
645.898	2035
645.957	4737
646.016	3305
646.075	8394
646.134	17396
646.192	45093
646.251	66634
646.310	8750
646.369	2602
646.427	3401
646.486	596
646.545	2009
646.603	2223
646.662	1623
646.721	2157
646.779	1473
646.838	211
646.896	2119
646.955	1705
647.014	3089
647.072	3565
647.131	10886
647.189	5498
647.248	814
647.306	1351
647.365	2416
647.423	-14
647.481	2515
647.540	313
647.598	1267
647.657	1284
647.715	2012
647.773	731
647.832	2012
647.890	343
647.948	840
648.007	2475
648.065	2239
648.123	3683
648.181	8853
648.240	22123
648.298	17813
648.356	2561
648.414	2308
648.472	1848
648.531	1832
648.589	592
648.647	415
648.705	731
648.763	1153
648.821	2022
648.879	558
648.937	1322
648.995	1662
649.053	1625
649.111	2489
649.169	4416
649.227	7438
649.285	14274
649.343	37165
649.401	22466
649.459	16053
649.516	29139
649.574	52461
649.632	147821
649.690	182638
649.748	46194
649.806	57522
649.863	88783
649.921	22852
649.979	8700
650.037	3770
650.094	1306
650.152	2654
650.210	1846
650.268	3519
650.325	4318
650.383	6344
650.440	2369
650.498	2088
650.556	1310
650.613	496
650.671	1383
650.728	1434
650.786	1619
650.843	1162
650.901	-255
650.958	730
651.016	600
651.073	480
651.131	148
651.188	501
651.246	1091
651.303	614
651.360	1309
651.418	379
651.475	1641
651.532	-414
651.590	1495
651.647	-9
651.704	927
651.762	589
651.819	1197
651.876	-10
651.933	1312
651.990	1671
652.048	-660
652.105	640
652.162	1716
652.219	710
652.276	1737
652.333	2348
652.390	1789
652.448	1932
652.505	3060
652.562	6217
652.619	12585
652.676	35739
652.733	33852
652.790	3838
652.847	1273
652.904	1825
652.961	-412
653.017	65
653.074	1055
653.131	704
653.188	-322
653.245	827
653.302	185
653.359	115
653.415	1590
653.472	187
653.529	440
653.586	-307
653.642	46
653.699	1436
653.756	-421
653.813	265
653.869	948
653.926	-56
653.983	-14
654.039	1006
654.096	833
654.152	1308
654.209	-249
654.266	493
654.322	-715
654.379	567
654.435	1446
654.492	191
654.548	958
654.605	92
654.661	1424
654.717	957
654.774	1264
654.830	945
654.887	638
654.943	1257
655.000	2709
655.056	1482
655.112	1255
655.168	588
655.225	866
655.281	469
655.337	230
655.394	-207
655.450	-282
655.506	751
655.562	174
655.618	1597
655.675	-416
655.731	625
655.787	-28
655.843	803
655.899	306
655.955	598
656.011	1041
656.067	943
656.123	1668
656.179	1364
656.235	2400
656.291	111
656.347	1205
656.403	-40
656.459	39
656.515	645
656.571	289
656.627	972
656.683	-84
656.739	1004
656.795	792
656.850	-4
656.906	496
656.962	1422
657.018	132
657.074	460
657.129	670
657.185	387
657.241	19
657.297	-68
657.352	1067
657.408	738
657.464	1132
657.519	94
657.575	-4
657.630	-121
657.686	1201
657.742	-797
657.797	-42
657.853	-740
657.908	974
657.964	146
658.019	-465
658.075	33
658.130	229
658.186	-281
658.241	669
658.297	-697
658.352	-481
658.407	496
658.463	490
658.518	925
658.573	561
658.629	-592
658.684	3
658.739	-26
658.795	277
658.850	152
658.905	-116
658.960	-582
659.016	-42
659.071	238
659.126	-124
659.181	469
659.236	2250
659.291	2750
659.346	3648
659.401	6233
659.457	15785
659.512	29225
659.567	7385
659.622	918
659.677	1076
659.732	233
659.787	694
659.842	569
659.897	513
659.952	-66
660.007	-100
660.061	62
660.116	-219
660.171	-902
660.226	-25
660.281	1307
660.336	23
660.391	678
660.445	-357
660.500	885
660.555	424
660.610	-512
660.664	578
660.719	4
660.774	79
660.828	98
660.883	-344
660.938	-81
660.992	-915
661.047	198
661.101	61
661.156	-263
661.211	-286
661.265	380
661.320	698
661.374	-71
661.429	802
661.483	953
661.538	-96
661.592	776
661.647	1033
661.701	2817
661.755	379
661.810	562
661.864	-1368
661.919	-457
661.973	220
662.027	319
662.081	-1061
662.136	-331
662.190	750
662.244	-29
662.299	333
662.353	-487
662.407	679
662.461	-430
662.515	454
662.569	-262
662.624	781
662.678	-510
662.732	-188
662.786	487
662.840	-143
662.894	-212
662.948	-316
663.002	82
663.056	-204
663.110	-237
663.164	-173
663.218	840
663.272	229
663.326	758
663.380	-336
663.434	-473
663.488	-583
663.542	-594
663.595	641
663.649	-362
663.703	1206
663.757	-444
663.811	-1356
663.864	-513
663.918	19
663.972	-1231
664.026	-864
664.079	-767
664.133	498
664.187	130
664.240	-299
664.294	-28
664.348	628
664.401	465
664.455	669
664.508	-680
664.562	173
664.615	53
664.669	282
664.722	-211
664.776	-497
664.829	-446
664.883	-127
664.936	-946
664.990	-841
665.043	306
665.097	-1030
665.150	660
665.203	-166
665.257	-121
665.310	264
665.363	-305
665.417	-391
665.470	-885
665.523	-383
665.576	-115
665.630	-356
665.683	-435
665.736	-645
665.789	265
665.842	-657
665.895	205
665.949	-31
666.002	-283
666.055	-291
666.108	582
666.161	-468
666.214	190
666.267	913
666.320	542
666.373	-27
666.426	-406
666.479	-75
666.532	-10
666.585	-821
666.638	442
666.691	255
666.744	291
666.796	-1360
666.849	-255
666.902	-45
666.955	-190
667.008	53
667.060	-243
667.113	-103
667.166	25
667.219	13
667.271	406
667.324	836
667.377	1550
667.430	3436
667.482	9773
667.535	5430
667.587	364
667.640	342
667.693	-492
667.745	-62
667.798	-226
667.850	-908
667.903	855
667.955	-281
668.008	-417
668.060	-677
668.113	-487
668.165	-333
668.218	-287
668.270	-334
668.322	-1161
668.375	-949
668.427	552
668.479	-514
668.532	-424
668.584	-371
668.636	-796
668.689	-1145
668.741	-585
668.793	-120
668.845	-1489
668.898	659
668.950	59
669.002	-423
669.054	-390
669.106	126
669.158	376
669.211	2163
669.263	3679
669.315	8021
669.367	12301
669.419	2914
669.471	2219
669.523	2899
669.575	4939
669.627	3176
669.679	1554
669.731	1062
669.783	1035
669.835	1366
669.886	1613
669.938	235
669.990	391
670.042	-469
670.094	-72
670.146	203
670.197	-312
670.249	228
670.301	-574
670.353	762
670.404	266
670.456	-14
670.508	655
670.560	1746
670.611	4149
670.663	6721
670.715	18384
670.766	28624
670.818	5970
670.869	1140
670.921	744
670.972	353
671.024	-572
671.075	-141
671.127	-652
671.178	-487
671.230	-460
671.281	199
671.333	-1096
671.384	-901
671.436	-302
671.487	-221
671.538	345
671.590	559
671.641	434
671.692	1069
671.744	2434
671.795	2313
671.846	1117
671.897	-482
671.949	-1318
672.000	-199
672.051	-329
672.102	1138
672.153	-779
672.204	-568
672.256	-600
672.307	162
672.358	-600
672.409	-1154
672.460	-714
672.511	-610
672.562	-414
672.613	-758
672.664	-119
672.715	364
672.766	-1448
672.817	-661
672.868	-8
672.919	-358
672.970	-741
673.021	-1003
673.071	-1090
673.122	-307
673.173	-796
673.224	-417
673.275	-625
673.326	-658
673.376	-471
673.427	-1016
673.478	-1189
673.528	-43
673.579	-849
673.630	-959
673.680	517
673.731	-679
673.782	-112
673.832	-909
673.883	-685
673.934	-1319
673.984	-1069
674.035	-391
674.085	-1173
674.136	-494
674.186	-441
674.237	-779
674.287	-1348
674.338	-488
674.388	-1395
674.438	-939
674.489	-635
674.539	-484
674.589	-210
674.640	-1077
674.690	-782
674.740	-1177
674.791	-1867
674.841	-1011
674.891	-424
674.942	-343
674.992	-2149
675.042	-822
675.092	-691
675.142	-495
675.193	-1353
675.243	-1402
675.293	-593
675.343	-1623
675.393	-1979
675.443	-516
675.493	-491
675.543	-630
675.593	-966
675.643	-730
675.693	-164
675.743	-543
675.793	-495
675.843	-538
675.893	-309
675.943	-914
675.993	-458
676.043	-205
676.093	-1137
676.142	-659
676.192	-881
676.242	-495
676.292	-1250
676.341	-1548
676.391	-1193
676.441	-1325
676.491	-774
676.540	-1402
676.590	-519
676.640	38
676.689	-367
676.739	-982
676.789	-797
676.838	-470
676.888	-1084
676.937	-299
676.987	-503
677.037	-498
677.086	-1535
677.136	-681
677.185	-722
677.235	-1312
677.284	-999
677.333	-789
677.383	-950
677.432	-314
677.482	-859
677.531	202
677.580	-1117
677.630	-794
677.679	-1113
677.728	-693
677.778	-1038
677.827	-808
677.876	-222
677.925	-1068
677.975	-347
678.024	-977
678.073	-692
678.122	-721
678.171	-1449
678.220	-387
678.269	-265
678.319	-900
678.368	-723
678.417	-1026
678.466	-33
678.515	-846
678.564	-953
678.613	-5
678.662	-1170
678.711	-1324
678.760	-848
678.809	-425
678.857	-789
678.906	-640
678.955	-1274
679.004	-359
679.053	-288
679.102	-306
679.151	-303
679.199	-1087
679.248	-813
679.297	-386
679.346	-377
679.394	-1134
679.443	-797
679.492	-386
679.540	-522
679.589	-800
679.638	-1138
679.686	-659
679.735	-577
679.784	-168
679.832	-1344
679.881	-722
679.929	-1224
679.978	-1339
680.026	-1130
680.075	-765
680.123	-1249
680.172	-1359
680.220	-1475
680.268	-420
680.317	-848
680.365	-848
680.414	-1683
680.462	-930
680.510	-494
680.559	-1338
680.607	-1307
680.655	-1040
680.703	-1355
680.752	-982
680.800	-786
680.848	-1383
680.896	-1726
680.945	-794
680.993	-1327
681.041	-726
681.089	-835
681.137	-868
681.185	-563
681.233	-1304
681.258	-1191
681.281	-1095
681.329	-1044
681.377	-1703
681.380	-1639
681.425	-667
681.473	-959
681.502	-890
681.521	-873
681.569	-524
681.617	-341
681.624	-461
681.665	-1279
681.713	62
681.745	-442
681.761	-707
681.809	-1064
681.857	-143
681.867	-359
681.904	-1134
681.952	-1123
681.989	-601
682.000	-464
682.048	-1591
682.096	-961
682.111	-823
682.143	-525
682.191	-724
682.233	-368
682.239	-333
682.286	-573
682.334	-735
682.354	-757
682.382	-804
682.430	-243
682.476	-362
682.477	-373
682.525	-546
682.572	-507
682.598	-548
682.620	-580
682.667	280
682.715	-7
682.720	-42
682.763	-531
682.810	-474
682.841	-411
682.857	-368
682.905	-448
682.952	556
682.963	385
683.000	-290
683.047	-674
683.085	98
683.095	310
683.142	-163
683.190	-585
683.206	-513
683.237	-428
683.284	-195
683.328	262
683.332	287
683.379	68
683.426	-192
683.449	-640
683.473	-1050
683.521	-264
683.568	1011
683.571	1004
683.615	707
683.662	-67
683.693	88
683.709	182
683.757	36
683.804	424
683.814	356
683.851	35
683.898	1052
683.936	600
683.945	487
683.992	-306
684.039	-61
684.057	68
684.086	260
684.133	135
684.179	148
684.180	142
684.227	172
684.274	206
684.300	580
684.321	875
684.368	709
684.415	49
684.422	139
684.462	622
684.509	428
684.543	831
684.556	956
684.603	1059
684.649	444
684.665	634
684.696	978
684.743	1179
684.786	169
684.790	91
684.837	784
684.883	871
684.908	1259
684.930	1541
684.977	392
685.023	408
685.029	465
685.070	950
685.117	854
685.150	718
685.164	671
685.210	630
685.257	1855
685.272	1822
685.303	1625
685.350	868
685.393	856
685.396	857
685.443	710
685.490	1616
685.514	1677
685.536	1730
685.583	1221
685.629	431
685.636	424
685.675	312
685.722	962
685.757	953
685.768	958
685.815	978
685.861	1215
685.878	1169
685.908	1110
685.954	1752
686.000	957
686.000	940
686.047	1764
686.093	843
686.121	1460
686.139	1895
686.185	1775
686.232	1779
686.242	1645
686.278	1172
686.324	1739
686.363	1362
686.370	1300
686.416	2213
686.463	2184
686.484	2570
686.509	3000
686.555	3103
686.601	2591
686.606	2657
686.647	2825
686.693	2470
686.727	1374
686.739	1078
686.785	2275
686.831	2050
686.848	2144
686.877	2135
686.923	1552
686.969	1994
686.969	1997
687.015	1519
687.061	1776
687.090	1911
687.107	1986
687.153	1990
687.199	2294
687.211	2105
687.245	1676
687.291	2220
687.332	2804
687.336	2846
687.382	2897
687.428	2162
687.453	2293
687.474	2366
687.520	2474
687.565	2032
687.574	2124
687.611	2831
687.657	2892
687.695	3008
687.702	3127
687.748	4501
687.794	6739
687.816	6817
687.839	5997
687.885	4761
687.931	3647
687.937	3485
687.976	3145
688.022	3137
688.058	2985
688.067	2944
688.113	2654
688.158	2420
688.179	2413
688.204	2628
688.249	2570
688.295	3160
688.300	3114
688.340	2512
688.386	2593
688.421	2512
688.431	2519
688.477	2269
688.522	2661
688.542	2584
688.567	2615
688.613	2895
688.658	2573
688.663	2686
688.703	3464
688.749	3181
688.784	3290
688.794	3311
688.839	3148
688.884	3235
688.905	3147
688.930	3195
688.975	3050
689.020	4032
689.026	4042
689.065	3692
689.110	3245
689.146	3015
689.155	3101
689.201	3247
689.246	3906
689.267	4188
689.291	4219
689.336	4279
689.381	3744
689.388	3713
689.426	3796
689.471	3826
689.509	4227
689.516	4312
689.561	4602
689.606	4768
689.630	4692
689.651	4492
689.696	4408
689.741	3981
689.750	4060
689.785	4766
689.830	4674
689.871	4912
689.875	4904
689.920	4960
689.965	4816
689.992	4559
690.010	4522
690.054	5095
690.099	5200
690.112	5395
690.144	6049
690.189	6525
690.233	6471
690.233	6479
690.278	6610
690.323	6855
690.354	6754
690.367	6898
690.412	7608
690.457	8319
690.474	8498
690.501	8907
690.546	9825
690.590	10696
690.595	10749
690.635	12026
690.680	14317
690.716	15180
690.724	15827
690.769	20353
690.813	24823
690.836	27124
690.857	32657
690.902	44715
690.946	58240
690.957	61543
690.991	86731
691.035	122666
691.077	157657
691.080	158221
691.124	153787
691.168	147568
691.198	144245
691.213	133846
691.257	104144
691.301	75614
691.318	64228
691.346	56581
691.390	44681
691.434	33469
691.439	32120
691.478	27975
691.522	23576
691.559	19777
691.567	19432
691.611	17274
691.655	14985
691.680	13793
691.699	13428
691.743	12359
691.787	11275
691.800	10879
691.831	10232
691.875	9617
691.919	8828
691.921	8794
691.964	8721
692.008	8357
692.041	8037
692.052	8005
692.096	8206
692.139	7982
692.162	7919
692.183	7946
692.227	7813
692.271	8161
692.282	8043
692.315	7750
692.359	8135
692.402	8030
692.403	8046
692.447	8174
692.490	8046
692.523	7781
692.534	7754
692.578	8057
692.622	7854
692.643	7974
692.666	8219
692.709	8515
692.753	8593
692.763	8676
692.797	9122
692.840	9649
692.884	9860
692.884	9883
692.928	10129
692.971	10668
693.004	10825
693.015	10898
693.059	11431
693.102	11774
693.124	11921
693.146	12536
693.189	14061
693.233	15112
693.245	15549
693.276	17352
693.320	19502
693.363	20887
693.365	20932
693.407	25484
693.450	30146
693.485	33621
693.493	35627
693.537	46060
693.580	56775
693.605	62898
693.624	74686
693.667	102908
693.710	132202
693.725	142640
693.753	191670
693.797	270441
693.840	350867
693.845	358990
693.883	353431
693.926	341846
693.966	332295
693.970	326236
694.013	258777
694.056	192427
694.086	146501
694.099	137963
694.142	110290
694.185	82916
694.206	69815
694.229	64274
694.272	53547
694.315	42881
694.326	39966
694.358	36138
694.401	31081
694.444	25969
694.446	25672
694.487	23910
694.530	21685
694.566	20056
694.573	19868
694.616	17915
694.659	16438
694.686	15346
694.702	15201
694.745	14650
694.787	14206
694.806	13901
694.830	13409
694.873	12625
694.916	11549
694.926	11370
694.959	11316
695.002	10819
695.044	10531
695.046	10496
695.087	10577
695.130	10425
695.166	10370
695.172	10365
695.215	9889
695.258	9765
695.286	9553
695.301	9452
695.343	9210
695.386	8770
695.406	8526
695.428	8450
695.471	8383
695.514	8256
695.526	8165
695.556	8228
695.599	8721
695.641	8795
695.646	8787
695.684	8497
695.726	8330
695.766	7876
695.769	7877
695.811	7881
695.854	7704
695.886	7437
695.896	7441
695.938	7541
695.981	7543
696.005	7598
696.023	7686
696.065	7805
696.108	7963
696.125	7990
696.150	8135
696.192	8356
696.235	8519
696.245	8560
696.277	8991
696.319	9442
696.361	9964
696.365	9980
696.404	10850
696.446	11739
696.485	12432
696.488	12412
696.530	11884
696.572	11250
696.604	10789
696.614	10696
696.656	10090
696.698	9555
696.724	9166
696.740	9058
696.783	8720
696.825	8367
696.844	8161
696.867	8140
696.909	8198
696.951	8114
696.964	8124
696.992	8240
697.034	8110
697.076	8124
697.083	8111
697.118	8465
697.160	8796
697.202	9126
697.203	9108
697.244	8353
697.286	7658
697.323	6925
697.327	6984
697.369	7315
697.411	7813
697.442	8040
697.453	7968
697.494	7580
697.536	7265
697.562	7026
697.578	7295
697.620	7945
697.661	8639
697.682	8897
697.703	8674
697.744	8306
697.786	7947
697.801	7759
697.828	7931
697.869	8201
697.911	8465
697.921	8502
697.952	8422
697.994	8305
698.035	8167
698.040	8127
698.077	7973
698.118	7746
698.160	7525
698.160	7499
698.201	7409
698.243	7275
698.279	7164
698.284	7254
698.325	7863
698.367	8470
698.399	8956
698.408	8893
698.449	8431
698.491	7984
698.518	7662
698.532	7748
698.573	7943
698.614	8136
698.638	8226
698.656	8178
698.697	7993
698.738	7837
698.757	7725
698.779	7941
698.820	8328
698.862	8707
698.877	8828
698.903	8887
698.944	8927
698.985	8977
698.996	8965
699.026	8815
699.067	8574
699.116	8263
699.235	7864
699.354	8795
699.474	8365
699.593	8348
699.713	8216
699.832	8400
699.951	8239
700.070	8662
700.190	8578
700.309	8582
700.428	7679
700.547	8025
700.667	7770
700.786	7768
700.905	7865
701.024	7810
701.143	6787
701.262	8387
701.381	7942
701.500	8233
701.619	7196
701.738	8582
701.857	8347
701.976	7969
702.095	8159
702.214	7552
702.333	7504
702.452	8207
702.571	7286
702.690	8108
702.809	7725
702.928	7763
703.047	7496
703.165	8651
703.284	7651
703.403	8349
703.522	7237
703.640	8830
703.759	8026
703.878	8104
703.997	7715
704.115	6428
704.234	7416
704.353	8348
704.471	7831
704.590	7329
704.708	7326
704.827	7571
704.946	6896
705.064	7906
705.183	7587
705.301	8208
705.420	8591
705.538	9849
705.656	12809
705.775	25418
705.893	91363
706.012	108221
706.130	12183
706.249	7825
706.367	7930
706.485	8071
706.604	7638
706.722	8120
706.840	8767
706.958	15887
707.077	10450
707.195	8393
707.313	7269
707.431	7622
707.549	6272
707.668	6844
707.786	6911
707.904	6734
708.022	6516
708.140	7298
708.258	6872
708.376	7609
708.494	6215
708.612	6756
708.730	5730
708.848	6452
708.966	6888
709.084	7632
709.202	6940
709.320	7472
709.438	6115
709.556	6937
709.674	6619
709.791	7198
709.909	7065
710.027	7154
710.145	6966
710.263	6225
710.380	6422
710.498	6666
710.616	6603
710.733	6945
710.851	6017
710.969	6147
711.086	5974
711.204	7302
711.322	6314
711.439	6731
711.557	6581
711.674	8216
711.792	8919
711.909	18678
712.027	24098
712.144	8211
712.262	6618
712.379	6331
712.497	6495
712.614	6427
712.732	6549
712.849	6718
712.966	6113
713.084	6592
713.201	5885
713.318	6667
713.436	6832
713.553	6516
713.670	6080
713.787	6717
713.905	5748
714.022	6525
714.139	5664
714.256	6508
714.373	6125
714.490	8251
714.608	11789
714.725	37384
714.842	33307
714.959	7549
715.076	5743
715.193	6753
715.310	6805
715.427	6241
715.544	6027
715.661	6029
715.778	5716
715.895	6070
716.011	5693
716.128	6237
716.245	6090
716.362	5723
716.479	5705
716.596	7133
716.713	6896
716.829	6598
716.946	6351
717.063	6735
717.180	5614
717.296	6597
717.413	5769
717.530	5818
717.646	6366
717.763	5910
717.880	5179
717.996	5174
718.113	5603
718.229	6088
718.346	4642
718.462	5021
718.579	5907
718.695	5605
718.812	6081
718.928	5682
719.045	6615
719.161	6491
719.277	5802
719.394	7707
719.510	8921
719.626	6137
719.743	5321
719.859	6172
719.975	6427
720.092	13568
720.208	21020
720.324	7561
720.440	5842
720.557	5116
720.673	6020
720.789	5519
720.905	6869
721.021	5198
721.137	5966
721.253	5719
721.369	4195
721.486	6095
721.602	5849
721.718	6176
721.834	5787
721.950	5216
722.066	5167
722.181	5819
722.297	5285
722.413	6873
722.529	5873
722.645	6719
722.761	6155
722.877	7396
722.993	5805
723.108	5802
723.224	5446
723.340	5703
723.456	6792
723.571	6086
723.687	5750
723.803	5418
723.918	5432
724.034	4849
724.150	5701
724.265	5793
724.381	4779
724.497	5577
724.612	5512
724.728	5244
724.843	5432
724.959	5320
725.074	4859
725.190	5854
725.305	5285
725.421	4819
725.536	4933
725.651	5479
725.767	5739
725.882	5434
725.997	4827
726.113	5820
726.228	5144
726.343	4984
726.459	4563
726.574	4933
726.689	5624
726.804	4803
726.920	5513
727.035	4482
727.150	5202
727.265	5421
727.380	6150
727.495	6830
727.610	6882
727.725	8512
727.841	18836
727.956	62660
728.071	33598
728.186	6822
728.301	5585
728.416	5575
728.531	5491
728.645	5335
728.760	6063
728.875	6281
728.990	6566
729.105	5463
729.220	5159
729.335	5414
729.449	5681
729.564	6050
729.679	4668
729.794	5012
729.908	4515
730.023	5890
730.138	4936
730.253	5736
730.367	4351
730.482	5230
730.596	5115
730.711	5530
730.826	6900
730.940	7071
731.055	4828
731.169	4722
731.284	4991
731.398	5926
731.513	4774
731.627	4476
731.742	4605
731.856	5226
731.970	4741
732.085	4917
732.199	5077
732.313	5289
732.428	7374
732.542	11910
732.656	9457
732.771	5295
732.885	5454
732.999	5120
733.113	4902
733.227	5735
733.342	5065
733.456	5258
733.570	4615
733.684	5240
733.798	4887
733.912	5376
734.026	4635
734.140	4843
734.254	4554
734.368	5322
734.482	5544
734.596	4866
734.710	5276
734.824	5144
734.938	5018
735.052	4601
735.166	4411
735.280	5745
735.393	4281
735.507	4571
735.621	4744
735.735	4977
735.849	5140
735.962	5728
736.076	4311
736.190	5919
736.303	4622
736.417	4457
736.531	4464
736.644	5680
736.758	4031
736.872	4999
736.985	5594
737.099	4762
737.212	4553
737.326	5588
737.439	5227
737.553	5681
737.666	4704
737.780	5041
737.893	5133
738.007	5406
738.120	4498
738.233	5608
738.347	5298
738.460	5282
738.573	5119
738.687	5071
738.800	6045
738.913	5808
739.026	6120
739.140	8578
739.253	10469
739.366	4959
739.479	5253
739.592	4519
739.705	5635
739.818	5682
739.932	5072
740.045	5036
740.158	4987
740.271	4494
740.384	5537
740.497	6034
740.610	6682
740.723	6885
740.836	6525
740.949	7294
741.062	5216
741.174	5435
741.287	5696
741.400	5805
741.513	7340
741.626	8277
741.739	6530
741.851	5859
741.964	5686
742.077	5314
742.189	5791
742.302	7131
742.415	6536
742.527	6057
742.640	4810
742.753	5852
742.865	5306
742.978	5891
743.090	4993
743.203	5024
743.316	5022
743.428	5058
743.541	5274
743.653	5254
743.766	4663
743.878	5827
743.990	4782
744.103	5985
744.215	5504
744.327	4613
744.440	5362
744.552	6332
744.664	5129
744.777	5473
744.889	4685
745.001	5458
745.113	4806
745.226	5312
745.338	5480
745.450	5973
745.562	3968
745.674	5690
745.786	5502
745.898	6471
746.010	6687
746.122	5186
746.234	6014
746.347	6255
746.459	5731
746.570	6248
746.682	6100
746.794	6419
746.906	4606
747.018	5422
747.130	6027
747.242	5489
747.354	5036
747.466	5961
747.577	5172
747.689	5775
747.801	5709
747.913	5789
748.024	6109
748.136	5528
748.248	5630
748.359	5715
748.471	5826
748.583	6624
748.694	9808
748.806	13060
748.918	4924
749.029	5684
749.141	6460
749.252	5782
749.364	5267
749.475	5946
749.587	5965
749.698	5985
749.809	5917
749.921	5762
750.032	5240
750.144	6217
750.255	4407
750.366	6445
750.478	6065
750.589	5709
750.700	5746
750.811	6242
750.923	5827
751.034	5476
751.145	6248
751.256	5994
751.367	5907
751.479	7248
751.590	6515
751.701	7244
751.812	6526
751.923	5618
752.034	5586
752.145	7298
752.256	6418
752.367	7345
752.478	6134
752.589	6966
752.700	6742
752.811	6811
752.922	5955
753.032	5294
753.143	7302
753.254	6271
753.365	6727
753.476	5694
753.586	6735
753.697	7187
753.808	6174
753.919	7198
754.029	7254
754.140	6753
754.251	6749
754.361	7771
754.472	6753
754.582	7188
754.693	7225
754.804	6891
754.914	7095
755.025	7322
755.135	6792
755.246	6973
755.356	6838
755.466	8630
755.577	7240
755.687	7880
755.798	8056
755.908	7992
756.018	7361
756.129	8404
756.239	7299
756.349	8395
756.460	8124
756.570	8901
756.680	7858
756.790	8265
756.900	8947
757.011	9269
757.121	8733
757.231	8474
757.341	9836
757.451	8739
757.561	8200
757.671	9402
757.781	8575
757.891	10196
758.001	9800
758.111	10318
758.221	10373
758.331	10170
758.441	10206
758.551	10568
758.661	10540
758.771	11008
758.880	10469
758.990	11062
759.100	11194
759.210	11629
759.320	11895
759.429	11963
759.539	12089
759.649	12855
759.758	12442
759.868	14048
759.978	12875
760.087	14458
760.197	13517
760.307	13728
760.416	14213
760.526	14937
760.635	15914
760.745	15416
760.854	15901
760.964	17041
761.073	16895
761.182	16590
761.292	17512
761.401	18532
761.511	17755
761.620	19646
761.729	20056
761.839	20551
761.948	20985
762.057	21318
762.166	22534
762.276	22757
762.385	24831
762.494	25236
762.603	26656
762.712	27707
762.822	28172
762.931	30770
763.040	31155
763.149	32943
763.258	34401
763.367	36687
763.476	38874
763.585	40871
763.694	43726
763.803	46305
763.912	49132
764.021	51672
764.130	55981
764.238	61776
764.347	65326
764.456	70264
764.565	78120
764.674	84470
764.783	93306
764.891	103972
765.000	119958
765.109	136760
765.217	157931
765.326	186308
765.435	221625
765.543	269849
765.652	337810
765.761	440910
765.869	587772
765.978	814386
766.086	1152752
766.195	1610869
766.303	1808014
766.412	1078516
766.520	1372537
766.629	1773516
766.737	1376713
766.846	974193
766.954	694531
767.062	518896
767.171	404099
767.279	305240
767.387	244233
767.496	205514
767.604	172146
767.712	150482
767.820	135242
767.928	120806
768.037	112177
768.145	104967
768.253	101186
768.361	98898
768.469	98059
768.577	102225
768.685	105995
768.793	114344
768.901	128439
769.009	152002
769.117	184854
769.225	240646
769.333	332684
769.441	494251
769.549	793479
769.657	1295981
769.765	1535374
769.873	1150663
769.981	1497055
770.088	1089389
770.196	681409
770.304	452700
770.412	325098
770.519	247205
770.627	195299
770.735	157625
770.842	130585
770.950	110863
771.058	96896
771.165	86257
771.273	76583
771.380	69587
771.488	61635
771.595	56505
771.703	50909
771.810	48545
771.918	44242
772.025	41607
772.133	37842
772.240	35904
772.348	34317
772.455	32689
772.562	30203
772.670	28981
772.777	28166
772.884	27204
772.991	26322
773.099	25189
773.206	22253
773.313	23102
773.420	21428
773.528	20172
773.635	19687
773.742	19765
773.849	19305
773.956	16976
774.063	17101
774.170	16682
774.277	17264
774.384	15848
774.491	15268
774.598	14812
774.705	14865
774.812	13945
774.919	13780
775.026	14044
775.133	12710
775.239	13351
775.346	12674
775.453	12297
775.560	11138
775.667	12494
775.773	10522
775.880	12393
775.987	10460
776.093	11639
776.200	9546
776.307	10397
776.413	9533
776.520	9337
776.627	9235
776.733	10625
776.840	9345
776.946	10958
777.053	8736
777.159	11335
777.266	9345
777.372	10427
777.478	10702
777.585	9337
777.691	7897
777.798	9021
777.904	10138
778.010	15040
778.117	9538
778.223	7209
778.329	6091
778.435	7605
778.542	7198
778.648	6623
778.754	5607
778.860	6423
778.966	6373
779.072	6372
779.178	6575
779.284	7561
779.391	7148
779.497	8736
779.603	13700
779.708	22439
779.815	55876
779.920	216832
780.026	289549
780.132	43257
780.238	11670
780.344	9217
780.450	7822
780.556	7079
780.661	5498
780.767	5371
780.873	5468
780.979	5722
781.085	4203
781.190	5151
781.296	5341
781.402	5029
781.507	3415
781.613	5048
781.719	3897
781.824	4801
781.930	4640
782.035	4251
782.141	3929
782.246	3712
782.352	3695
782.457	4145
782.563	3409
782.668	4010
782.773	2998
782.879	3277
782.984	3644
783.090	4345
783.195	4224
783.300	3638
783.405	3867
783.511	3793
783.616	4166
783.721	3662
783.826	3711
783.932	4531
784.037	4281
784.142	3746
784.247	3271
784.352	3350
784.457	3665
784.562	2910
784.667	3701
784.772	3990
784.877	2218
784.982	4093
785.087	2302
785.192	4320
785.297	3273
785.402	4087
785.507	2722
785.611	3464
785.716	3227
785.821	3381
785.926	2445
786.031	3755
786.135	2313
786.240	2417
786.345	1842
786.450	3179
786.554	2449
786.659	2115
786.763	1368
786.868	3217
786.973	3046
787.077	2389
787.182	2919
787.286	2796
787.391	1833
787.495	2600
787.600	2615
787.704	2749
787.809	1777
787.913	2709
788.017	2345
788.122	3545
788.226	2704
788.330	2140
788.435	1649
788.539	2094
788.643	2108
788.747	2454
788.852	1477
788.956	2047
789.060	2280
789.164	2204
789.268	1914
789.372	2501
789.476	1727
789.580	2252
789.684	2049
789.788	2613
789.892	1478
789.996	2688
790.100	2458
790.204	1868
790.308	2405
790.412	2668
790.516	5430
790.620	4361
790.724	2175
790.828	2198
790.931	1073
791.035	3995
791.139	3094
791.242	1057
791.346	1751
791.450	935
791.554	1178
791.657	1123
791.761	1996
791.864	3164
791.968	1829
792.072	2652
792.175	1483
792.279	1943
792.382	1690
792.486	2160
792.589	1162
792.693	1522
792.796	889
792.899	2386
793.003	2334
793.106	578
793.209	1379
793.313	3066
793.416	173
793.519	2760
793.623	2029
793.726	2429
793.829	1432
793.932	1756
794.035	1290
794.138	2688
794.242	3157
794.345	5692
794.448	10826
794.551	28112
794.654	111371
794.757	164681
794.860	23858
794.963	4056
795.066	2918
795.169	3780
795.272	1345
795.375	2323
795.477	1792
795.580	1440
795.683	1144
795.786	1743
795.889	742
795.991	2314
796.094	1455
796.197	-195
796.300	1804
796.402	986
796.505	964
796.608	432
796.710	1429
796.813	521
796.915	852
797.018	2189
797.120	683
797.223	-147
797.326	2318
797.428	618
797.530	678
797.633	1441
797.735	1445
797.838	601
797.940	1536
798.042	643
798.145	941
798.247	1898
798.349	-319
798.452	1475
798.554	587
798.656	155
798.758	1854
798.860	704
798.962	364
799.065	583
799.167	403
799.269	1846
799.371	1281
799.473	851
799.575	114
799.677	847
799.779	1962
799.881	-169
799.983	346
800.085	1217
800.187	636
800.289	-86
800.390	593
800.492	1318
800.594	849
800.696	634
800.798	852
800.899	1302
801.001	64
801.103	691
801.205	178
801.306	1069
801.408	-476
801.509	680
801.611	103
801.713	1286
801.814	355
801.916	1010
802.017	512
802.119	-541
802.220	454
802.322	-829
802.423	2116
802.525	-820
802.626	897
802.727	694
802.829	360
802.930	-925
803.031	1869
803.133	223
803.234	-949
803.335	961
803.436	-569
803.538	599
803.639	-552
803.740	1082
803.841	-143
803.942	192
804.043	912
804.144	279
804.245	71
804.346	682
804.447	-319
804.548	297
804.649	96
804.750	-14
804.851	-261
804.952	152
805.053	597
805.154	-700
805.255	584
805.355	663
805.456	-71
805.557	92
805.658	-705
805.758	880
805.859	682
805.960	765
806.061	371
806.161	692
806.262	561
806.362	208
806.463	142
806.564	844
806.664	-93
806.765	-348
806.865	973
806.966	671
807.066	-877
807.166	826
807.267	322
807.367	-331
807.468	309
807.568	210
807.668	1036
807.769	918
807.869	551
807.969	357
808.069	523
808.170	848
808.270	-266
808.370	496
808.470	77
808.570	-985
808.670	-33
808.770	579
808.870	-256
808.970	206
809.070	596
809.170	-590
809.271	718
809.370	627
809.470	636
809.570	554
809.670	-152
809.770	524
809.870	440
809.970	295
810.070	-466
810.169	605
810.269	-1630
810.369	1121
810.469	-902
810.568	145
810.668	-428
810.768	-283
810.867	-146
810.967	-542
811.066	-682
811.166	893
811.265	608
811.365	22
811.464	-955
811.564	165
811.663	99
811.763	-794
811.862	76
811.962	680
812.061	-51
812.160	-361
812.260	-263
812.359	1007
812.458	-790
812.557	157
812.657	-534
812.756	101
812.855	-366
812.954	91
813.053	444
813.153	392
813.252	-556
813.351	921
813.450	-673
813.549	286
813.648	-43
813.747	-521
813.846	296
813.945	41
814.044	58
814.143	87
814.242	216
814.341	189
814.439	30
814.538	936
814.637	312
814.736	316
814.835	944
814.933	217
815.032	514
815.131	185
815.229	314
815.328	254
815.427	888
815.525	1075
815.624	366
815.722	682
815.821	997
815.919	1536
816.018	427
816.116	2142
816.215	528
816.313	1199
816.412	1066
816.510	1115
816.609	2652
816.707	1456
816.805	1280
816.904	930
817.002	1117
817.100	2601
817.198	2643
817.296	2473
817.395	3198
817.493	4824
817.591	4512
817.689	7081
817.787	10227
817.885	16074
817.983	29519
818.081	61736
818.179	140848
818.277	321821
818.375	303247
818.473	110508
818.571	45889
818.669	28677
818.767	22146
818.865	21874
818.963	25518
819.061	36468
819.158	61918
819.256	125091
819.354	282654
819.452	555870
819.549	409688
819.647	152341
819.745	65756
819.842	38007
819.940	23752
820.038	17714
820.135	13397
820.233	10981
820.330	7131
820.428	6420
820.525	5718
820.623	5214
820.720	4129
820.818	3992
820.915	3523
821.012	4203
821.110	2208
821.207	2462
821.304	1015
821.402	2403
821.499	2231
821.596	2618
821.693	1810
821.791	1821
821.888	1297
821.985	2033
822.082	146
822.179	1570
822.276	639
822.373	1575
822.470	1056
822.567	721
822.664	872
822.761	1401
822.858	-334
822.955	578
823.052	514
823.149	374
823.246	-285
823.343	51
823.440	679
823.536	749
823.633	-466
823.730	641
823.827	298
823.923	778
824.020	1462
824.117	45
824.213	-560
824.310	1227
824.407	923
824.503	603
824.600	435
824.696	282
824.793	778
824.889	-731
824.986	958
825.082	34
825.179	278
825.275	-54
825.371	16
825.468	445
825.564	-550
825.660	364
825.757	60
825.853	892
825.949	-430
826.045	146
826.142	-524
826.238	-245
826.334	83
826.430	-769
826.526	173
826.622	-327
826.718	-237
826.814	-489
826.910	980
827.006	184
827.102	63
827.198	688
827.294	-302
827.390	-456
827.486	-457
827.582	-1297
827.678	-1209
827.774	-208
827.869	-874
827.965	540
828.061	-869
828.157	-84
828.252	737
828.348	-1219
828.444	1074
828.539	-995
828.635	-639
828.731	1098
828.826	-711
828.922	-272
829.017	-880
829.113	-11
829.208	-301
829.304	-630
829.399	327
829.495	-37
829.590	-494
829.685	-823
829.781	298
829.876	7
829.971	-198
830.066	-623
830.162	-770
830.257	-246
830.352	220
830.447	728
830.543	-119
830.638	-1902
830.733	-401
830.828	-428
830.923	33
831.018	-493
831.113	-1017
831.208	-1134
831.303	44
831.398	-164
831.493	-469
831.588	-432
831.683	-803
831.778	-1170
831.873	-322
831.967	81
832.062	-566
832.157	-1327
832.252	100
832.346	-178
832.441	-192
832.536	-84
832.631	-724
832.725	-960
832.820	-502
832.914	-741
833.009	-732
833.104	-238
833.198	-872
833.293	-787
833.387	-770
833.482	-437
833.576	-944
833.670	648
833.765	-1714
833.859	-563
833.954	305
834.048	-514
834.142	-311
834.237	-459
834.331	-556
834.425	-560
834.519	-1424
834.613	902
834.708	-985
834.802	-260
834.896	-1425
834.990	-571
835.084	77
835.178	-436
835.272	-716
835.366	-1419
835.460	-289
835.554	-783
835.648	-812
835.742	-864
835.836	-842
835.930	-1615
836.024	-864
836.117	-116
836.211	-893
836.305	-460
836.399	-743
836.493	-1431
836.586	-212
836.680	-1114
836.774	-1472
836.867	590
836.961	-1376
837.055	-1526
837.148	-832
837.242	-95
837.335	-542
837.429	-616
837.522	-1666
837.616	-941
837.709	-822
837.803	-1099
837.896	-288
837.989	-929
838.083	-799
838.176	-264
838.269	-1213
838.363	-1094
838.456	-842
838.549	-372
838.642	-585
838.735	-539
838.829	-402
838.922	-1350
839.015	-985
839.108	-1412
839.201	-217
839.294	-491
839.387	-725
839.480	-994
839.573	-1448
839.666	-809
839.759	-995
839.852	-1427
839.945	36
840.038	-267
840.131	-859
840.223	-1380
840.316	27
840.409	-533
840.502	-1259
840.594	895
840.687	-2362
840.780	-571
840.873	-599
840.965	-45
841.058	-401
841.150	-618
841.243	-1602
841.336	154
841.428	-222
841.521	-1351
841.613	-1638
841.706	-138
841.798	-1150
841.890	-505
841.983	-926
842.075	642
842.167	-1313
842.260	-684
842.352	-635
842.444	-450
842.537	-442
842.629	-262
842.721	-1354
842.813	-104
842.905	-1367
842.997	-79
843.090	-1003
843.182	239
843.274	-1092
843.366	-437
843.458	-1193
843.550	-49
843.642	-963
843.734	110
843.826	-1212
843.918	249
844.009	-837
844.101	-1064
844.193	-2423
844.285	-596
844.377	-324
844.469	97
844.560	-521
844.652	-475
844.744	35
844.835	-660
844.927	-130
845.019	3
845.110	-834
845.202	-1016
845.293	-1040
845.385	-1260
845.476	-595
845.568	1235
845.659	-1135
845.751	-205
845.842	-976
845.934	-742
846.025	-998
846.116	-246
846.208	-881
846.299	-1425
846.390	-307
846.482	30
846.573	-428
846.664	-393
846.755	-1557
846.846	-315
846.937	-2170
847.029	450
847.120	-603
847.211	-642
847.302	1258
847.393	-946
847.484	-32
847.575	-593
847.666	-994
847.757	-598
847.847	-784
847.938	-341
848.029	-1244
848.120	-772
848.211	-446
848.302	-539
848.392	-1106
848.483	-71
848.574	-210
848.664	-660
848.755	-572
848.846	-631
848.936	-1106
849.027	-705
849.118	-541
849.208	-896
849.299	-1245
849.389	109
849.480	215
849.570	-927
849.661	253
849.751	1258
849.841	-24
849.932	-355
850.022	-919
850.112	-438
850.203	-1016
850.293	-63
850.383	7
850.474	-891
850.564	-1546
850.654	-340
850.744	-916
850.834	-451
850.924	-303
851.014	-645
851.104	-497
851.194	-664
851.284	27
851.374	-158
851.464	-1414
851.554	-520
851.644	-29
851.734	-445
851.824	-632
851.914	-770
852.004	-694
852.094	-900
852.183	-772
852.273	-1454
852.363	-642
852.452	-867
852.542	-850
852.632	-527
852.721	-596
852.811	-1065
852.901	-88
852.990	-297
853.080	-849
853.169	-1113
853.259	-1037
853.348	-1399
853.438	-995
853.527	-107
853.617	-1242
853.706	-523
853.795	157
853.885	2109
853.974	3104
854.063	7914
854.152	12097
854.242	3672
854.331	-919
854.420	-1069
854.509	-63
854.598	-1157
854.687	-850
854.777	-499
854.866	-820
854.955	-745
855.044	-581
855.133	-1077
855.222	-1153
855.311	-1266
855.400	-581
855.488	-112
855.577	-1414
855.666	780
855.755	1509
855.844	3199
855.933	3892
856.021	1295
856.110	-319
856.199	-1370
856.288	-630
856.376	-1240
856.465	-1228
856.554	-16
856.642	-562
856.731	-658
856.819	-114
856.908	-1297
856.996	-1617
857.085	-1153
857.173	-1045
857.262	-1389
857.350	-369
857.438	-249
857.527	-691
857.615	-653
857.703	-662
857.792	-1093
857.880	-991
857.968	-1142
858.056	-1215
858.145	-866
858.233	-1306
858.321	-499
858.409	-755
858.497	-1516
858.585	-1401
858.673	-304
858.761	-1409
858.849	-1535
858.937	-1610
859.025	-713
859.113	-837
859.201	-428
859.289	-1549
859.377	-1562
859.465	-797
859.552	-388
859.640	-1640
859.728	-298
859.816	-1049
859.903	-1132
859.991	-2037
860.079	-435
860.166	-985
860.254	-692
860.342	-992
860.429	-1194
860.517	-1531
860.604	-383
860.692	-952
860.779	-1320
860.867	-681
860.954	-948
861.042	-829
861.129	-1268
861.216	-915
861.304	-1233
861.391	-240
861.478	-691
861.565	-707
861.653	-677
861.740	-1928
861.827	-1080
861.914	-978
862.001	-1116
862.089	-1406
862.176	-691
862.263	-1636
862.350	-1085
862.437	-768
862.524	-1263
862.611	-1053
862.698	-613
862.785	-979
862.871	-608
862.958	-1696
863.045	-1247
863.132	-1934
863.219	-1504
863.306	-2409
863.392	-660
863.479	-1293
863.566	-1161
863.652	-808
863.739	-1237
863.826	-872
863.912	-144
863.999	-1847
864.086	-745
864.172	-1207
864.259	-1161
864.345	-1198
864.432	-469
864.518	-1543
864.604	-1671
864.691	-1833
864.777	-629
864.863	-842
864.950	-652
865.036	-2491
865.122	-1208
865.209	-867
865.295	-1496
865.381	-1230
865.467	-892
865.553	-539
865.639	-1308
865.726	-972
865.812	16
865.898	817
865.984	1199
866.070	3072
866.156	4898
866.242	556
866.328	-622
866.414	-1381
866.499	-651
866.585	-817
866.671	-490
866.757	-876
866.843	-1291
866.928	-1069
867.014	-892
867.100	-1194
867.186	-1007
867.271	-959
867.357	-783
867.442	-1802
867.528	-1292
867.614	-1057
867.699	-1359
867.785	-1206
867.870	-859
867.956	-1339
868.041	-453
868.127	-1422
868.212	-458
868.297	-602
868.383	-459
868.468	-264
868.553	355
868.639	-1696
868.724	-1010
868.809	-1590
868.894	-570
868.979	-1328
869.065	-98
869.150	-1648
869.235	-591
869.320	-1490
869.405	-677
869.490	-1667
869.575	-839
869.660	-1419
869.745	-1220
869.830	-1471
869.915	-1935
870.000	-1130
870.085	-651
870.169	-1774
870.254	-1253
870.339	-1847
870.424	-2073
870.509	-1110
870.593	-1200
870.678	-1238
870.763	-1324
870.847	-861
870.932	-1264
871.016	-1133
871.101	-1465
871.186	-1249
871.270	-933
871.355	-1691
871.439	-629
871.523	-1259
871.608	-359
871.692	-679
871.777	-1010
871.861	-895
871.945	-1540
872.030	-1104
872.114	-1169
872.198	-1251
872.282	-1113
872.367	-1872
872.451	-1095
872.535	-2346
872.619	-780
872.703	-1086
872.787	-1524
872.871	-1364
872.955	-504
873.039	-1824
873.123	-1206
873.207	-1261
873.291	-72
873.375	-909
873.459	-622
873.543	-483
873.627	-797
873.711	-867
873.794	-1149
873.878	-1083
873.962	-1978
874.045	-580
874.129	-1149
874.137	-1197
874.213	-1674
874.245	-1530
874.296	-1298
874.352	-1206
874.380	-1164
874.460	-1284
874.464	-1290
874.547	-557
874.568	-722
874.631	-1201
874.676	-921
874.714	-684
874.784	-763
874.798	-779
874.881	-116
874.892	-140
874.965	-309
874.999	-725
875.048	-1297
875.107	-1232
875.131	-1210
875.215	-722
875.215	-722
875.298	-910
875.323	-1014
875.381	-1299
875.430	-819
875.465	-486
875.538	-765
875.548	-798
875.631	-1372
875.646	-1309
875.714	-1010
875.753	-1069
875.798	-1139
875.861	-1811
875.881	-2031
875.964	-1222
875.968	-1230
876.047	-1347
876.076	-1342
876.130	-1283
876.183	-740
876.213	-454
876.291	-207
876.296	-188
876.379	-1013
876.398	-840
876.462	-314
876.506	-876
876.545	-1384
876.613	-441
876.628	-226
876.711	-1070
876.721	-914
876.794	199
876.828	-83
876.877	-439
876.935	-598
876.960	-661
877.043	-552
877.043	-551
877.125	-241
877.150	-327
877.208	-447
877.258	-18
877.291	200
877.365	-313
877.374	-362
877.456	129
877.472	24
877.539	-288
877.579	-76
877.622	-98
877.687	-742
877.704	-798
877.787	-172
877.794	-181
877.869	-582
877.901	-344
877.952	46
878.008	-143
878.034	-223
878.115	-875
878.117	-884
878.199	-698
878.222	-592
878.282	-454
878.329	-469
878.364	-475
878.437	-577
878.447	-586
878.529	-1158
878.544	-1034
878.611	-319
878.651	-286
878.694	-375
878.758	-544
878.776	-591
878.858	-1055
878.865	-1036
878.941	-661
878.972	-815
879.023	-1203
879.078	-780
879.105	-502
879.185	-631
879.187	-632
879.269	-180
879.292	-332
879.351	-940
879.399	-889
879.433	-754
879.506	-553
879.516	-510
879.598	-178
879.613	-139
879.680	-180
879.720	-95
879.762	-15
879.827	-506
879.844	-661
879.926	-435
879.933	-524
880.007	-1101
880.040	-1085
880.089	-1056
880.147	-763
880.171	-637
880.253	-355
880.254	-359
880.335	-1127
880.360	-969
880.417	-522
880.467	-717
880.499	-826
880.574	-965
880.580	-988
880.662	-1537
880.680	-1519
880.744	-1287
880.787	-1204
880.825	-1095
880.893	-758
880.907	-686
880.989	-489
881.000	-407
881.070	55
881.106	-92
881.152	-495
881.213	-896
881.233	-927
881.315	-740
881.319	-731
881.396	-400
881.426	-425
881.478	-697
881.532	-759
881.559	-738
881.639	-808
881.641	-811
881.722	-627
881.745	-579
881.803	-259
881.852	-537
881.885	-760
881.958	-860
881.966	-901
882.047	-861
882.064	-931
882.129	-729
882.171	-508
882.210	-511
882.277	-568
882.291	-569
882.372	-741
882.383	-745
882.454	-237
882.489	-20
882.535	-208
882.596	-448
882.616	-481
882.697	-1297
882.702	-1267
882.778	-234
882.808	-101
882.859	-194
882.914	-68
882.940	-48
883.020	-583
883.021	-583
883.102	-746
883.127	-604
883.183	-618
883.233	-753
883.264	-490
883.339	263
883.345	243
883.426	-655
883.445	-702
883.507	-92
883.551	11
883.587	-239
883.657	-402
883.668	-376
883.749	-747
883.763	-679
883.830	-616
883.869	-832
883.910	-819
883.975	-580
883.991	-576
884.072	-454
884.081	-472
884.152	-258
884.187	-230
884.233	-392
884.292	-229
884.314	-115
884.394	-36
884.398	-42
884.475	-823
884.504	-927
884.555	-368
884.610	-261
884.636	-458
884.716	-661
884.716	-658
884.797	-340
884.821	-367
884.877	-292
884.927	-240
884.958	-483
885.033	-503
885.038	-465
885.118	-332
885.139	-283
885.199	-212
885.244	-112
885.279	-54
885.350	-145
885.359	-169
885.439	-16
885.456	-86
885.520	-299
885.561	-256
885.600	-104
885.667	-4
885.680	-114
885.760	-661
885.773	-762
885.840	-657
885.878	-580
885.920	-416
885.984	-348
886.000	-460
886.080	-784
886.089	-827
886.160	-607
886.195	-484
886.240	-405
886.300	-435
886.320	-530
886.400	-625
886.406	-639
886.480	179
886.511	510
886.560	294
886.616	-20
886.640	-50
886.720	-324
886.722	-330
886.800	-217
886.827	-100
886.879	-100
886.932	-471
886.959	-493
887.038	-161
887.039	-151
887.119	259
887.143	401
887.198	188
887.248	-35
887.278	66
887.354	319
887.358	312
887.437	-88
887.459	-107
887.517	-62
887.564	-162
887.596	-64
887.669	117
887.676	90
887.755	-204
887.774	-273
887.835	-290
887.880	-335
887.914	-273
887.985	-170
887.994	-208
888.073	-501
888.090	-586
888.153	-339
888.195	-119
888.232	-96
888.300	-29
888.311	-29
888.391	-178
888.405	-181
888.470	55
888.510	151
888.549	-48
888.615	-388
888.628	-275
888.708	466
888.720	564
888.787	184
888.825	11
888.866	174
888.930	384
888.945	318
889.024	-33
889.035	-82
889.103	-451
889.140	-642
889.182	-378
889.245	1
889.261	103
889.340	626
889.349	680
889.419	-81
889.454	-457
889.498	-364
889.559	-210
889.577	-147
889.656	120
889.664	150
889.735	800
889.768	1106
889.814	944
889.873	726
889.978	718
890.083	-89
890.187	162
890.292	82
890.397	-191
890.501	546
890.606	-403
890.710	600
890.815	137
890.919	-492
891.024	-224
891.128	347
891.233	-237
891.337	501
891.442	-19
891.546	69
891.650	260
891.755	-649
891.859	916
891.963	186
892.068	671
892.172	30
892.276	25
892.380	433
892.484	593
892.589	587
892.693	3
892.797	-413
892.901	760
893.005	420
893.109	-510
893.213	738
893.317	667
893.421	61
893.525	52
893.629	-30
893.733	-195
893.837	-541
893.941	-196
894.045	57
894.148	108
894.252	-19
894.356	-401
894.460	275
894.564	428
894.667	139
894.771	76
894.875	-45
894.978	-211
895.082	-405
895.186	442
895.289	574
895.393	462
895.496	95
895.600	-492
895.703	276
895.807	-55
895.910	2
896.014	67
896.117	-576
896.221	45
896.324	321
896.427	-78
896.531	12
896.634	-679
896.737	100
896.840	-276
896.944	-467
897.047	-320
897.150	138
897.253	731
897.356	-502
897.460	70
897.563	58
897.666	-588
897.769	-174
897.872	1
897.975	-129
898.078	-497
898.181	231
898.284	-488
898.387	318
898.490	-62
898.593	197
898.695	-115
898.798	-84
898.901	-31
899.004	963
899.107	-845
899.209	295
899.312	-797
899.415	421
899.518	273
899.620	-759
899.723	-33
899.826	386
899.928	183
900.031	-181
900.133	302
900.236	-216
900.338	-874
900.441	645
900.543	-46
900.646	330
900.748	-590
900.851	-18
900.953	68
901.055	515
901.158	-633
901.260	719
901.362	276
901.465	-55
901.567	-233
901.669	483
901.771	57
901.873	-713
901.976	43
902.078	172
902.180	597
902.282	-511
902.384	-399
902.486	466
902.588	-8
902.690	374
902.792	39
902.894	653
902.996	-356
903.098	141
903.200	321
903.302	424
903.404	184
903.505	354
903.607	204
903.709	605
903.811	-287
903.913	-152
904.014	-839
904.116	-797
904.218	-677
904.319	286
904.421	-57
904.523	595
904.624	-730
904.726	-704
904.827	92
904.929	-170
905.030	350
905.132	40
905.233	-663
905.335	173
905.436	-403
905.537	-135
905.639	640
905.740	-228
905.841	-491
905.943	-486
906.044	-838
906.145	-519
906.247	-795
906.348	-31
906.449	252
906.550	-150
906.651	-141
906.752	353
906.854	-1203
906.955	-308
907.056	66
907.157	-1175
907.258	-275
907.359	-471
907.460	-666
907.561	-492
907.662	-530
907.762	-443
907.863	-698
907.964	-28
908.065	-677
908.166	-715
908.267	-549
908.367	165
908.468	-642
908.569	696
908.670	-750
908.770	-398
908.871	39
908.971	-212
909.072	-832
909.173	574
909.273	250
909.374	91
909.474	-210
909.575	-334
909.675	-466
909.776	-134
909.876	-432
909.977	-734
910.077	187
910.177	-827
910.278	-509
910.378	-158
910.478	-76
910.579	-45
910.679	-306
910.779	-170
910.879	-298
910.980	89
911.080	-476
911.180	-505
911.280	-831
911.380	-436
911.480	-597
911.580	-474
911.680	-311
911.780	-277
911.880	-80
911.980	-453
912.080	157
912.180	671
912.280	-324
912.380	-440
912.480	-236
912.580	-586
912.679	-1000
912.779	319
912.879	-91
912.979	-311
913.078	-366
913.178	-270
913.278	-875
913.377	-408
913.477	-415
913.577	-423
913.676	919
913.776	-178
913.875	-86
913.975	217
914.074	-259
914.174	-321
914.273	-225
914.373	1026
914.472	-212
914.572	-32
914.671	-470
914.770	21
914.870	-1441
914.969	-594
915.068	-206
915.167	-972
915.267	-790
915.366	-288
915.465	99
915.564	-551
915.663	32
915.763	-309
915.862	-334
915.961	-1120
916.060	-672
916.159	-617
916.258	-882
916.357	-652
916.456	-863
916.555	-1304
916.654	-362
916.752	-100
916.851	-589
916.950	-166
917.049	-610
917.148	-611
917.247	0
917.345	-432
917.444	-421
917.543	-411
917.642	-160
917.740	124
917.839	-1037
917.937	255
918.036	-660
918.135	-241
918.233	-468
918.332	-914
918.430	-905
918.529	5
918.627	-1241
918.726	-721
918.824	-913
918.923	-600
919.021	-174
919.119	7
919.218	-1089
919.316	261
919.414	-811
919.512	-661
919.611	-543
919.709	-696
919.807	-979
919.905	-422
920.003	-849
920.102	-1252
920.200	-415
920.298	93
920.396	-526
920.494	-379
920.592	-987
920.690	478
920.788	-810
920.886	-1015
920.984	-987
921.082	-992
921.180	-144
921.277	-775
921.375	-1128
921.473	-128
921.571	-405
921.669	-261
921.766	-413
921.864	-518
921.962	-99
922.060	-86
922.157	-220
922.255	-568
922.352	-150
922.450	-139
922.548	-1655
922.645	-261
922.743	-819
922.840	-413
922.938	-1006
923.035	-63
923.133	-1092
923.230	-553
923.327	-974
923.425	-265
923.522	-621
923.619	-1039
923.717	-703
923.814	-696
923.911	-1142
924.008	224
924.106	-1081
924.203	-528
924.300	-1123
924.397	-916
924.494	241
924.591	-588
924.688	-524
924.786	-290
924.883	-621
924.979	-737
925.077	-918
925.173	-967
925.270	-210
925.367	-762
925.464	-198
925.561	-1120
925.658	-459
925.755	-364
925.852	-49
925.948	-150
926.045	-888
926.142	224
926.239	-884
926.335	-569
926.432	-662
926.529	-352
926.625	-500
926.722	-1010
926.818	-381
926.915	-498
927.011	-524
927.108	-1418
927.204	-2063
927.301	-145
927.397	-414
927.494	-1133
927.590	-982
927.687	-591
927.783	-946
927.879	-1345
927.976	-1088
928.072	-640
928.168	-1153
928.264	-836
928.361	-645
928.457	-316
928.553	-741
928.649	-535
928.745	-290
928.841	-517
928.937	168
929.033	-673
929.129	-855
929.225	-1030
929.321	-816
929.417	-556
929.513	-745
929.609	-425
929.705	-934
929.801	-424
929.897	-1522
929.993	-700
930.089	-490
930.184	-341
930.280	-1127
930.376	-667
930.471	-404
930.567	-232
930.663	-858
930.758	-615
930.854	-559
930.950	-959
931.045	148
931.141	-676
931.236	-319
931.332	-1107
931.427	-462
931.523	-1398
931.618	-1192
931.714	-796
931.809	-1325
931.905	452
932.000	-516
932.095	-1075
932.191	-155
932.286	-704
932.381	-574
932.476	-550
932.572	-912
932.667	-1582
932.762	-354
932.857	-408
932.952	-524
933.047	-524
933.142	-818
933.237	-958
933.332	-1011
933.427	-736
933.522	-1303
933.617	-610
933.712	-150
933.807	-733
933.902	-1046
933.997	-801
934.092	-1017
934.187	-763
934.282	-1002
934.376	-683
934.471	-672
934.566	-66
934.661	-605
934.755	-363
934.850	-1151
934.945	95
935.039	-611
935.134	-67
935.228	-461
935.323	-889
935.417	-1316
935.512	-1089
935.606	-582
935.701	-916
935.795	-1121
935.890	-935
935.984	-533
936.079	-430
936.173	-1011
936.267	-678
936.362	-1188
936.456	-653
936.550	-538
936.644	-705
936.738	-543
936.833	-448
936.927	182
937.021	-19
937.115	-1005
937.209	-1667
937.303	409
937.397	-1411
937.491	-1416
937.585	-1231
937.679	-1144
937.773	-965
937.867	-1775
937.961	-1036
938.055	-1230
938.149	88
938.243	-593
938.337	-156
938.430	-1539
938.524	-415
938.618	-1015
938.712	-206
938.805	-669
938.899	-653
938.993	-646
939.086	-701
939.180	-1172
939.274	-886
939.367	-13
939.461	-167
939.554	-662
939.648	-423
939.741	-266
939.835	-420
939.928	-1283
940.022	-1029
940.115	-750
940.208	-790
940.302	-1162
940.395	-463
940.488	-1258
940.582	231
940.675	-906
940.768	114
940.861	-1065
940.954	-391
941.048	-753
941.141	-87
941.234	-1298
941.327	-925
941.420	-393
941.513	-446
941.606	-673
941.699	-465
941.792	-1534
941.885	-545
941.978	-399
942.071	-1080
942.164	-1293
942.257	18
942.349	-738
942.442	-292
942.535	-1841
942.628	-720
942.721	-1086
942.813	-1113
942.906	-533
942.999	-40
943.091	-1350
943.184	-1393
943.277	-1094
943.369	-787
943.462	-597
943.554	-247
943.647	-909
943.739	-865
943.832	-739
943.924	-777
944.017	-187
944.109	-1207
944.201	-1039
944.294	-368
944.386	-719
944.478	-798
944.571	-332
944.663	-815
944.755	-769
944.847	-563
944.940	-246
945.032	-1749
945.124	-1686
945.216	261
945.308	-773
945.400	-624
945.492	-1149
945.584	-1224
945.676	-1397
945.768	-691
945.860	-567
945.952	-673
946.044	-1121
946.136	-1243
946.228	-1201
946.320	-1082
946.412	-281
946.503	-1172
946.595	-277
946.687	-783
946.779	-1144
946.870	-844
946.962	-1488
947.054	-1559
947.145	-584
947.237	-888
947.329	-1399
947.420	-727
947.512	-915
947.603	-240
947.695	-590
947.786	-1071
947.878	-398
947.969	-617
948.061	-341
948.152	-1209
948.243	-1077
948.335	-718
948.426	-623
948.517	-1340
948.609	-1106
948.700	-1167
948.791	-1381
948.882	-1042
948.973	-1132
949.065	-1036
949.156	-1453
949.247	-1569
949.338	-1453
949.429	-830
949.520	-1318
949.611	-1558
949.702	-250
949.793	-905
949.884	-1229
949.975	-960
950.066	-1867
950.157	-942
950.247	-1569
950.338	-934
950.429	-1075
950.520	-154
950.611	-551
950.701	-1187
950.792	-648
950.883	-763
950.973	-890
951.064	-1254
951.155	-1786
951.245	-1238
951.336	16
951.427	-1984
951.517	-812
951.608	-514
951.698	-863
951.788	-584
951.879	-1138
951.969	-1553
952.060	-2159
952.150	-450
952.240	-828
952.331	-1660
952.421	142
952.511	-2008
952.602	-670
952.692	-1581
952.782	-1685
952.872	-1569
952.962	-1512
953.052	-1151
953.143	-1044
953.233	-427
953.323	-205
953.413	-1691
953.503	-1213
953.593	-1057
953.683	-1122
953.773	-895
953.863	-685
953.953	-1365
954.042	-1266
954.132	-1703
954.222	-664
954.312	-1432
954.402	-865
954.492	-1123
954.581	-1063
954.671	-1372
954.761	-1344
954.850	446
954.940	-1660
955.030	-627
955.119	-1204
955.209	-1268
955.298	-1501
955.388	-1032
955.477	-969
955.567	-1347
955.656	-750
955.746	-351
955.835	-897
955.925	-690
956.014	-984
956.103	-1391
956.193	-840
956.282	-651
956.371	-635
956.461	-808
956.550	-1436
956.639	-274
956.728	-1812
956.817	-60
956.906	-1879
956.995	-308
957.085	-1845
957.174	-303
957.263	-341
957.352	-335
957.441	-1162
957.530	-1325
957.619	-1267
957.708	-1529
957.796	-1207
957.885	-829
957.974	-980
958.063	-329
958.152	-1695
958.241	-490
958.329	-1199
958.418	-981
958.507	-1370
958.596	406
958.684	-741
958.773	-447
958.861	-492
958.950	-595
959.039	-258
959.127	-815
959.216	-896
959.304	-933
959.393	-250
959.481	-631
959.570	-649
959.658	-1008
959.746	-1195
959.835	-407
959.923	-1212
960.011	-1277
960.100	71
960.188	-587
960.276	-1103
960.365	-1303
960.453	-1283
960.541	-1050
960.629	-593
960.717	-386
960.805	-881
960.893	-739
960.981	-880
961.069	-1506
961.158	-1110
961.245	-1040
961.333	-658
961.421	-846
961.509	-713
961.597	-869
961.685	-603
961.773	-1125
961.861	-1297
961.949	-1027
962.036	-1299
962.124	-1312
962.212	-1529
962.299	-645
962.387	-1287
962.475	-1446
962.562	-1359
962.650	-980
962.738	-440
962.825	-1531
962.913	-1383
963.000	-1378
963.088	-1146
963.175	-1745
963.263	-937
963.350	-1593
963.438	-1296
963.525	-1188
963.612	-670
963.700	-1651
963.787	-1529
963.874	-2013
963.962	-1341
964.049	-900
964.136	-2043
964.223	-2005
964.310	-1418
964.398	-962
964.485	-1953
964.572	-826
964.659	-1291
964.746	-1287
964.833	-1128
964.920	-1165
965.007	-1026
965.094	-929
965.181	-1530
965.268	-678
965.355	-1300
965.441	-890
965.528	-1986
965.615	-354
965.702	-1106
965.789	-1376
965.875	-539
965.962	-678
966.049	-2059
966.136	-261
966.222	-2011
966.309	-1700
966.395	-2069
966.482	-893
966.569	-1592
966.655	-2563
966.742	-1769
966.828	-1059
966.915	-1852
967.001	-656
967.087	-1542
967.174	-867
967.260	-410
967.347	-1223
967.433	-2107
967.519	-707
967.605	-2079
967.692	-1697
967.778	-850
967.864	-1413
967.950	-1344
968.036	-1545
968.123	-1516
968.209	-1440
968.295	-1591
968.381	-285
968.467	-855
968.553	-2051
968.639	-359
968.725	-1578
968.811	-1194
968.897	-1432
968.983	-1462
969.069	-1252
969.154	-1115
969.240	-286
969.326	-2511
969.412	-1996
969.497	-1207
969.583	-1161
969.669	-1492
969.755	-1539
969.840	-1658
969.926	-692
970.012	-1504
970.097	-1251
970.183	-2043
970.268	-928
970.354	-1478
970.439	-2337
970.525	-1209
970.610	-2264
970.696	-996
970.781	-1044
970.866	-2275
970.952	-779
971.037	-1586
971.122	-1607
971.208	-754
971.293	-1072
971.378	-2052
971.463	-1197
971.549	-691
971.634	-1247
971.719	-1884
971.804	-1217
971.889	-850
971.974	-1238
972.059	-2084
972.144	-1007
972.229	-1738
972.314	-1725
972.399	-1242
972.484	-2023
972.569	-1160
972.654	-1988
972.739	-552
972.824	-1154
972.908	-1569
972.993	-791
973.078	-1628
973.163	-1491
973.247	-1272
973.332	-2790
973.417	-210
973.501	-1490
973.586	-1326
973.671	-1525
973.755	-1802
973.840	-219
973.924	-1582
974.009	-1056
974.093	-2323
974.178	-84
974.262	-1294
974.346	-2082
974.431	-1684
974.515	-2067
974.600	-1090
974.684	-877
974.768	-1244
974.852	-938
974.937	-1855
975.021	-707
975.105	-1194
975.189	-1481
975.273	-1726
975.358	-1715
975.442	-2853
975.526	-950
975.610	-2589
975.694	-2002
975.778	-1002
975.862	-1123
975.946	-2893
976.030	-499
976.114	-1637
976.198	-1052
976.281	-1255
976.365	-1254
976.449	-1403
976.533	-1492
976.617	-1842
976.700	-819
976.784	-1931
976.868	-1474
976.951	-615
977.035	-427
977.119	-1730
977.202	-862
977.286	-1201
977.369	-1653
977.453	-1541
977.536	-1620
977.620	-2549
977.703	-1045
977.787	-1236
977.870	-544
977.953	-635
978.037	-2990
978.120	-831
978.203	-1590
978.287	-1398
978.370	-1506
978.453	-971
978.536	-851
978.620	-1044
978.703	-1491
978.786	-1293
978.869	-1631
978.952	-2189
979.035	-892
979.118	-1947
979.201	-2118
979.284	-1302
979.367	-1824
979.450	-821
979.533	-1943
979.616	-1515
979.699	-1872
979.782	-1179
979.865	-1663
979.948	-2372
980.030	-2222
980.113	-1153
980.196	-1430
980.279	-998
980.361	-1604
980.444	-2123
980.526	-873
980.609	-1949
980.692	-2220
980.774	-921
980.857	-2778
980.939	-865
981.022	-1698
981.104	-1949
981.187	-1544
981.269	-1680
981.352	-730
981.434	-1556
981.516	-2162
981.599	-403
981.681	-1159
981.763	-1495
981.846	-1204
981.928	-1575
982.010	-1185
982.092	-1643
982.174	-916
982.256	-1946
982.339	-1664
982.421	-848
982.503	-584
982.585	-2213
982.667	-2138
982.749	-1222
982.831	-1526
982.913	-2136
982.995	-1056
983.077	-2283
983.158	-946
983.240	-2263
983.322	-1239
983.404	-1460
983.486	-1220
983.568	-916
983.649	-1920
983.731	-979
983.813	-1729
983.894	-1354
983.976	-1996
984.058	-2082
984.139	-900
984.221	-2307
984.302	-1411
984.384	-1294
984.465	-1637
984.547	-1355
984.628	-1306
984.710	-669
984.791	-1613
984.872	-1796
984.954	-1721
985.035	-918
985.116	-1639
985.198	-1615
985.279	-1134
985.360	-2762
985.441	-2471
985.522	-1778
985.604	-2408
985.685	-3017
985.766	-794
985.847	-956
985.928	-1493
986.009	-2062
986.090	-1450
986.171	-1533
986.252	-1345
986.333	-1941
986.414	-1417
986.495	-1333
986.576	-1093
986.656	-1535
986.737	-1589
986.818	-1604
986.899	-2360
986.980	-1487
987.060	-859
987.141	-826
987.222	-1447
987.302	-1525
987.383	-1075
987.464	-1551
987.544	-1559
987.625	-1337
987.705	-1427
987.786	-869
987.866	-1511
987.947	-1441
988.027	-1792
988.108	-2944
988.188	-1273
988.268	-2437
988.349	-1509
988.429	-2031
988.509	-1425
988.589	-1726
988.670	-2454
988.750	-355
988.830	-1480
988.910	-1755
988.990	-1447
989.070	-1993
989.151	-1272
989.231	-2389
989.311	-1503
989.391	-2175
989.471	-1647
989.551	-2111
989.631	-2251
989.711	-779
989.791	-1670
989.870	-2962
989.950	-777
990.030	-1390
990.110	-1440
990.190	-1177
990.269	-1465
990.349	-1956
990.429	-1268
990.509	-1731
990.588	-2499
990.668	-1580
990.747	-2661
990.827	-2204
990.907	-1968
990.986	-1669
991.066	-1677
991.145	-1930
991.225	-1453
991.304	-1955
991.383	-943
991.463	-1303
991.542	-1614
991.622	-2070
991.701	-2117
991.780	-2261
991.859	-1483
991.939	-1627
992.018	-1186
992.097	-1753
992.176	-1110
992.256	-1863
992.335	-2248
992.414	-1523
992.493	-2533
992.572	-1868
992.651	-1339
992.730	-2183
992.809	-632
992.888	-1953
992.967	-2519
993.046	-1721
993.125	-2274
993.203	-1561
993.282	-1736
993.361	-1622
993.440	-1039
993.519	-1966
993.597	-1512
993.676	-1711
993.755	-280
993.834	-2225
993.912	-1910
993.991	-1552
994.069	-2340
994.148	-2738
994.226	-2325
994.305	-1975
994.384	-2037
994.462	-1211
994.540	-2277
994.619	-2883
994.697	-1561
994.776	-2110
994.854	-1362
994.932	-2845
995.011	-2126
995.089	-1757
995.167	-1679
995.245	-1247
995.324	-2499
995.402	-1799
995.480	-1567
995.558	-1724
995.636	-2718
995.714	-1791
995.792	-1340
995.870	-3317
995.948	-1568
996.026	-1450
996.104	-2614
996.182	-1157
996.260	-2013
996.338	-2185
996.416	-2511
996.494	-2070
996.572	-1060
996.649	-1749
996.727	-2279
996.805	-2220
996.883	-2697
996.960	-2212
997.038	-1359
997.116	-1453
997.193	-2789
997.271	-1476
997.348	-2070
997.426	-2023
997.504	-2611
997.581	-1190
997.658	-1716
997.736	-2891
997.813	-2172
997.891	-1488
997.968	-3352
998.046	-1906
998.123	-2199
998.200	-1236
998.277	-2468
998.355	-703
998.432	-2966
998.509	-2519
998.586	-1609
998.663	-1986
998.741	-1888
998.818	-1547
998.895	-1930
998.972	-984
999.049	-2306
999.126	-3287
999.203	-2366
999.280	-1815
999.357	-2556
999.434	-1827
999.511	-1959
999.587	-2031
999.664	-1728
999.741	-1613
999.818	-1822
999.895	-2021
999.971	-1747
1000.048	-2453
1000.125	-1113
1000.202	-2980
1000.278	-1681
1000.355	-1865
1000.431	-1502
1000.508	-3393
1000.584	-1743
1000.661	-2543
1000.738	-2104
1000.814	-1682
1000.890	-2379
1000.967	-2860
1001.043	-2188
1001.120	-2628
1001.196	-1823
1001.272	-3118
1001.349	-1740
1001.425	-1593
1001.501	-1970
1001.577	-2390
1001.654	-1561
1001.730	-2262
1001.806	-2511
1001.882	-2690
1001.958	-1821
1002.034	-2441
1002.110	-1567
1002.186	-3011
1002.262	-2455
1002.338	-2642
1002.414	-1300
1002.490	-1978
1002.566	-2231
1002.642	-2697
1002.718	-1169
1002.794	-2542
1002.870	-1722
1002.945	-2271
1003.021	-1939
1003.097	-2153
1003.173	-2381
1003.248	-2723
1003.324	-1661
1003.400	-2239
1003.475	-2768
1003.551	-1800
1003.626	-1924
1003.702	-1685
1003.777	-2256
1003.853	-2059
1003.928	-2329
1004.004	-2292
1004.079	-1794
1004.155	-2394
1004.230	-2646
1004.305	-1442
1004.381	-2406
1004.456	-2194
1004.531	-2308
1004.607	-2903
1004.682	-1976
1004.757	-2492
1004.832	-1999
1004.907	-2917
1004.982	-2461
1005.057	-2355
1005.133	-2108
1005.208	-2976
1005.283	-2672
1005.358	-1658
1005.433	-2653
1005.508	-2216
1005.583	-2251
1005.657	-2519
1005.732	-1514
1005.807	-3366
1005.882	-2421
1005.957	-2427
1006.032	-2031
1006.106	-2385
1006.181	-2833
1006.256	-2172
1006.331	-3113
1006.405	-2197
1006.480	-1979
1006.554	-2784
1006.629	-1580
1006.704	-1855
1006.778	-2606
1006.853	-1460
1006.927	-1986
1007.002	-2507
1007.076	-2026
1007.150	-2143
1007.225	-1960
1007.299	-2793
1007.373	-3021
1007.448	-2228
1007.522	-1567
1007.596	-2046
1007.671	-1984
1007.745	-2433
1007.819	-2221
1007.893	-3134
1007.967	-2167
1008.041	-2445
1008.115	-1554
1008.190	-2118
1008.264	-2282
1008.338	-2715
1008.412	-2725
1008.486	-2479
1008.560	-2194
1008.633	-2840
1008.707	-2379
1008.781	-2428
1008.855	-2736
1008.929	-2492
1009.003	-2467
1009.076	-2505
1009.150	-1973
1009.224	-2128
1009.298	-1731
1009.371	-2637
1009.445	-1982
1009.519	-2329
1009.592	-3105
1009.666	-2777
1009.739	-1789
1009.813	-3594
1009.886	-1478
1009.960	-3650
1010.033	-2408
1010.107	-2322
1010.180	-3120
1010.253	-1428
1010.327	-1933
1010.400	-2863
1010.473	-3011
1010.547	-1828
1010.620	-2538
1010.693	-1838
1010.766	-2266
1010.840	-1812
1010.913	-2561
1010.986	-2635
1011.059	-2589
1011.132	-3107
1011.205	-2483
1011.278	-2378
1011.351	-2559
1011.424	-1352
1011.497	-2788
1011.570	-3750
1011.643	-2693
1011.716	-2151
1011.789	-2711
1011.862	-2563
1011.934	-1954
1012.007	-2530
1012.080	-2306
1012.153	-2182
1012.225	-622
1012.298	-2928
1012.371	-2617
1012.443	-2355
1012.516	-2556
1012.588	-2814
1012.661	-1980
1012.733	-3291
1012.806	-2305
1012.879	-1756
1012.951	-1895
1013.023	-2634
1013.096	-1431
1013.168	-2998
1013.241	-2380
1013.313	-1988
1013.385	-2092
1013.458	-2871
1013.530	-1730
1013.602	-2440
1013.674	-1394
1013.746	-2457
1013.819	-2641
1013.891	-2829
1013.963	-2702
1014.035	-2234
1014.107	-1857
1014.179	-2754
1014.251	-2252
1014.323	-1470
1014.395	-2608
1014.467	-2491
1014.539	-2527
1014.611	-2654
1014.683	-2146
1014.754	-2668
1014.826	-3419
1014.898	-2706
1014.970	-3279
1015.042	-1668
1015.113	-1935
1015.185	-2433
1015.257	-3304
1015.328	-1636
1015.400	-2732
1015.471	-2416
1015.543	-3022
1015.615	-1874
1015.686	-3097
1015.757	-2267
1015.829	-2105
1015.901	-3186
1015.972	-1639
1016.043	-2428
1016.115	-2070
1016.186	-2285
1016.257	-2102
1016.328	-2076
1016.400	-2052
1016.471	-2561
1016.542	-2830
1016.613	-1752
1016.685	-2746
1016.756	-3011
1016.827	-1527
1016.898	-3336
1016.969	-1616
1017.040	-2959
1017.111	-2497
1017.182	-2453
1017.253	-2584
1017.324	-2854
1017.395	-2672
1017.466	-2464
1017.537	-1969
1017.608	-2530
1017.678	-2111
1017.749	-2543
1017.820	-1889
1017.891	-2889
1017.961	-2336
1018.032	-3026
1018.103	-1943
1018.173	-3213
1018.244	-2384
1018.315	-2732
1018.385	-2030
1018.456	-2301
1018.526	-2818
1018.597	-2393
1018.667	-2152
1018.738	-2668
1018.808	-1834
1018.878	-3560
1018.949	-3048
1019.019	-2529
1019.089	-1398
1019.160	-2279
1019.230	-2226
1019.300	-1317
1019.371	-2806
1019.441	-1659
1019.511	-1102
1019.581	-2346
1019.651	-2133
1019.721	-1768
1019.791	-2665
1019.861	-2424
1019.931	-1692
1020.001	-2346
1020.071	-2555
1020.141	-2616
1020.211	-2306
1020.281	-2027
1020.351	-2648
1020.421	-1973
1020.491	-1835
1020.560	-2624
1020.630	-2311
1020.700	-3090
1020.770	-3208
1020.839	-3130
1020.909	-2022
1020.979	-2506
1021.048	-2236
1021.118	-2965
1021.187	-2745
1021.257	-2533
1021.326	-1956
1021.396	-2644
1021.465	-2771
1021.535	-2780
1021.604	-2590
1021.674	-1789
1021.743	-2269
1021.812	-2669
1021.882	-2469
1021.951	-2508
1022.020	-2557
1022.089	-2283
1022.159	-2749
1022.228	-1836
1022.297	-2355
1022.366	-2192
1022.435	-2757
1022.504	-2269
1022.573	-2897
1022.642	-2210
1022.711	-2150
1022.781	-2078
1022.849	-2396
1022.918	-3356
1022.987	-1689
1023.056	-2455
1023.125	-3199
1023.194	-3037
1023.263	-2230
1023.331	-2056
1023.400	-2759
1023.469	-2380
1023.538	-1815
1023.606	-2559
1023.675	-2164
1023.744	-2774
1023.812	-2211
1023.881	-2944
1023.949	-1712
1024.018	-2611
1024.086	-2224
1024.155	-2076
1024.223	-3286
1024.292	-2936
1024.360	-2531
1024.429	-2909
1024.497	-2956
1024.565	-2442
1024.634	-2274
1024.702	-2717
1024.770	-2724
1024.838	-3226
1024.907	-2143
1024.975	-2945
1025.043	-2172
1025.111	-2971
1025.179	-2021
1025.247	-2972
1025.315	-3463
1025.383	-2031
1025.451	-2177
1025.519	-3081
1025.587	-2345
1025.655	-1785
1025.723	-2700
1025.791	-2519
1025.859	-2144
1025.927	-2162
1025.995	-2547
1026.062	-2166
1026.130	-2918
1026.198	-3048
1026.266	-2181
1026.333	-1899
1026.401	-2141
1026.469	-2788
1026.536	-2199
1026.604	-2361
1026.671	-2495
1026.739	-2693
1026.806	-2445
1026.874	-2531
1026.941	-2548
1027.009	-2553
1027.076	-2477
1027.144	-2173
1027.211	-2964
1027.278	-2807
1027.345	-2546
1027.413	-2387
1027.480	-2725
1027.547	-2695
1027.614	-2873
1027.682	-2374
1027.749	-2614
1027.816	-2318
1027.883	-2428
1027.950	-3062
1028.017	-2109
1028.084	-2447
1028.151	-3038
1028.218	-2699
1028.285	-2473
1028.352	-2075
1028.419	-2142
1028.486	-1779
1028.553	-2591
1028.619	-2622
1028.686	-2346
1028.753	-2481
1028.820	-2654
1028.886	-3404
1028.953	-2237
1029.020	-2160
1029.086	-3239
1029.153	-2920
1029.220	-2768
1029.286	-2900
1029.353	-2611
1029.419	-3271
1029.486	-2802
1029.552	-2424
1029.619	-2281
1029.685	-1965
1029.751	-2067
1029.818	-2056
1029.884	-2844
1029.951	-2191
1030.017	-3567
1030.083	-2467
1030.149	-2592
1030.216	-2377
1030.282	-2189
1030.348	-3175
1030.414	-2539
1030.480	-3321
1030.546	-3014
1030.612	-2314
1030.678	-2923
1030.744	-3636
1030.810	-2372
1030.876	-2600
1030.942	-2265
1031.008	-2618
1031.074	-2749
1031.140	-2900
1031.206	-2340
1031.272	-3096
1031.337	-1950
1031.403	-2167
1031.469	-2590
1031.534	-2738
1031.600	-2022
1031.666	-3067
1031.731	-3175
1031.797	-2062
1031.863	-2691
1031.928	-2985
1031.994	-2886
1032.059	-3118
1032.125	-2475
1032.190	-2095
1032.256	-2553
1032.321	-3080
1032.386	-3118
1032.452	-2409
1032.517	-2580
1032.582	-2218
1032.647	-3287
1032.713	-2178
1032.778	-2817
1032.843	-2790
1032.908	-2345
1032.974	-2689
1033.039	-2994
1033.104	-3258
1033.169	-2558
1033.234	-2667
1033.299	-2345
1033.364	-2335
1033.429	-2149
1033.494	-2182
1033.559	-3107
1033.624	-2504
1033.688	-2316
1033.753	-2528
1033.818	-2932
1033.883	-2477
1033.948	-2737
1034.013	-2659
1034.077	-1773
1034.142	-2229
1034.207	-3164
1034.271	-1984
1034.336	-3526
1034.400	-2727
1034.465	-2741
1034.530	-2202
1034.594	-2354
1034.658	-2724
1034.723	-2810
1034.787	-1570
1034.852	-2295
1034.916	-3480
1034.981	-2933
1035.045	-2822
1035.109	-2649
1035.173	-2732
1035.238	-2903
1035.302	-2118
1035.366	-2146
1035.430	-2810
1035.495	-2857
1035.559	-2247
1035.623	-2098
1035.687	-2460
1035.751	-2274
1035.815	-2374
1035.879	-3038
1035.943	-3297
1036.007	-3376
1036.071	-2492
1036.135	-2733
1036.198	-2747
1036.262	-3100
1036.326	-2695
1036.390	-2384
1036.454	-2240
1036.517	-2514
1036.581	-2508
1036.645	-3426
1036.709	-3244
1036.772	-2753
1036.836	-2404
1036.900	-2414
1036.963	-3004
1037.026	-2605
1037.090	-3062
1037.154	-2906
1037.217	-2979
1037.280	-2821
1037.344	-3326
1037.407	-3337
1037.471	-2829
1037.534	-2501
1037.597	-2268
1037.661	-2139
1037.724	-3117
1037.787	-2938
1037.850	-3049
1037.913	-2476
1037.977	-2289
1038.040	-2367
1038.103	-3661
1038.166	-3364
1038.229	-1991
1038.292	-2999
1038.355	-2816
1038.418	-2748
1038.481	-2845
1038.544	-2931
1038.607	-2663
1038.670	-2682
1038.732	-2917
1038.795	-2993
1038.858	-1839
1038.921	-3214
1038.984	-3014
1039.046	-2599
1039.109	-2507
1039.172	-2923
1039.234	-2575
1039.297	-1966
1039.360	-2834
1039.422	-2279
1039.485	-3062
1039.547	-2978
1039.610	-2807
1039.672	-2337
1039.734	-3859
1039.797	-2508
1039.859	-3055
1039.922	-2560
1039.984	-2966
1040.046	-2780
1040.109	-2021
1040.171	-1631
1040.233	-2540
1040.295	-3092
1040.358	-3256
1040.420	-2517
1040.482	-3136
1040.544	-3414
1040.606	-2469
1040.668	-2360
1040.730	-2680
1040.792	-2941
1040.854	-3921
1040.916	-2799
1040.978	-3311
1041.040	-2246
1041.102	-2774
1041.164	-2528
1041.225	-3313
1041.287	-3080
1041.349	-2825
1041.411	-2592
1041.472	-2680
1041.534	-2734
1041.596	-2683
1041.657	-3468
1041.719	-3206
1041.781	-2294
1041.842	-2909
1041.904	-2583
1041.965	-2873
1042.027	-3245
1042.088	-2947
1042.150	-2995
1042.211	-2160
1042.272	-2586
1042.334	-2241
1042.395	-3302
1042.456	-2992
1042.518	-2668
1042.579	-2484
1042.640	-2729
1042.701	-2282
1042.763	-2342
1042.824	-2711
1042.885	-2966
1042.946	-2362
1043.007	-3151
1043.068	-2651
1043.129	-2442
1043.190	-2292
1043.251	-1866
1043.312	-2802
1043.373	-1945
1043.434	-2595
1043.495	-2643
1043.556	-2738
1043.616	-2898
1043.677	-3685
1043.738	-1929
1043.799	-2681
1043.859	-3102
1043.920	-2861
1043.981	-2408
1044.041	-2627
1044.102	-2731
1044.162	-3083
1044.223	-2633
1044.284	-2893
1044.344	-2231
1044.405	-3576
1044.465	-2769
1044.525	-2834
1044.586	-2322
1044.646	-3187
1044.707	-1772
1044.767	-2498
1044.827	-2742
1044.887	-2988
1044.948	-2766
1045.008	-2619
1045.068	-2934
1045.128	-2162
1045.188	-2710
1045.249	-1835
1045.309	-2564
1045.369	-2528
1045.429	-2243
1045.489	-2698
1045.549	-2549
1045.609	-2817
1045.669	-2735
1045.729	-2418
1045.789	-2255
1045.848	-2650
1045.908	-2639
1045.968	-1969
1046.028	-2267
1046.088	-2137
1046.147	-2540
1046.207	-2741
1046.267	-1973
1046.326	-2604
1046.386	-1849
1046.446	-1821
1046.505	-2066
1046.565	-1514
1046.624	-1965
1046.684	-1599
1046.743	-2023
1046.803	-2987
1046.862	-1504
1046.922	0
