'Start Wavelength	183.907
'End Wavelength	1046.922
'Gate Delay	5.000
'Gate Width (ms)	1.050
'Laser Output Level	0.000
'X Position	0.000
'Y Position	0.000
'Z Position	0.000
'Grid Point Number	1.000
'Shot Number	100.000
183.907	1041.000
183.977	-759.000
184.047	-484
184.116	-102
184.186	226
184.256	-161
184.325	-762
184.395	72
184.465	635
184.534	611
184.604	-499
184.674	412
184.743	-383
184.813	1061
184.883	-333
184.952	-339
185.022	106
185.092	154
185.161	-382
185.231	535
185.301	-58
185.370	822
185.440	-1246
185.509	159
185.579	238
185.649	985
185.718	48
185.788	689
185.857	-891
185.927	338
185.996	185
186.066	439
186.136	194
186.205	309
186.275	-73
186.344	854
186.414	-138
186.483	-104
186.553	810
186.622	2151
186.692	576
186.761	-439
186.831	547
186.900	450
186.970	156
187.039	203
187.109	787
187.178	943
187.248	-450
187.317	603
187.387	-177
187.456	192
187.526	397
187.595	1104
187.664	619
187.734	198
187.803	481
187.873	924
187.942	404
188.012	957
188.081	399
188.150	915
188.220	1285
188.289	1157
188.358	397
188.428	532
188.497	-1136
188.567	954
188.636	74
188.705	615
188.775	288
188.844	-316
188.913	333
188.983	636
189.052	507
189.121	269
189.191	688
189.260	1575
189.329	1766
189.399	1013
189.468	965
189.537	732
189.606	836
189.676	1389
189.745	985
189.814	1038
189.883	127
189.953	799
190.022	2286
190.091	7777
190.161	11035
190.230	3425
190.299	881
190.368	528
190.437	693
190.507	762
190.576	342
190.645	1038
190.714	-79
190.783	894
190.853	1082
190.922	833
190.991	-201
191.060	1374
191.129	156
191.198	786
191.268	168
191.337	158
191.406	515
191.475	460
191.544	173
191.613	384
191.682	-117
191.752	679
191.821	359
191.890	485
191.959	847
192.028	711
192.097	351
192.166	1197
192.235	-224
192.304	908
192.373	361
192.442	854
192.511	64
192.580	1112
192.650	450
192.719	1143
192.788	483
192.857	546
192.926	498
192.995	1428
193.064	2692
193.133	3079
193.202	3808
193.271	3522
193.340	2104
193.409	2410
193.478	1851
193.547	3864
193.615	5917
193.684	5670
193.753	2164
193.822	2307
193.891	1065
193.960	2018
194.029	799
194.098	1585
194.167	887
194.236	1497
194.305	662
194.374	1446
194.443	924
194.512	373
194.580	1455
194.649	1241
194.718	325
194.787	1142
194.856	666
194.925	1604
194.994	90
195.062	956
195.131	584
195.200	1177
195.269	789
195.338	1772
195.407	1252
195.475	608
195.544	1035
195.613	624
195.682	350
195.751	668
195.819	514
195.888	1017
195.957	816
196.026	1157
196.094	1190
196.163	927
196.232	821
196.301	661
196.369	106
196.438	525
196.507	647
196.576	976
196.644	1039
196.713	1701
196.782	260
196.850	1570
196.919	918
196.988	1185
197.056	1134
197.125	1554
197.194	1313
197.262	1201
197.331	207
197.400	1261
197.468	723
197.537	1769
197.606	1802
197.674	4265
197.743	10661
197.812	4009
197.880	10072
197.949	7132
198.017	9315
198.086	6902
198.155	1955
198.223	3942
198.292	12533
198.360	6783
198.429	2760
198.497	2987
198.566	6431
198.635	12312
198.703	3677
198.772	4865
198.840	16066
198.909	17448
198.977	4241
199.046	4562
199.114	2844
199.183	3210
199.251	1857
199.320	1769
199.388	1214
199.457	1431
199.525	1155
199.594	1440
199.662	1578
199.731	1339
199.799	1366
199.867	1988
199.936	1159
200.004	1576
200.073	1919
200.141	976
200.210	1529
200.278	1176
200.346	1245
200.415	1689
200.483	1725
200.552	2136
200.620	1427
200.688	1253
200.757	1734
200.825	1615
200.893	793
200.962	1670
201.030	329
201.098	1400
201.167	1442
201.235	1296
201.303	1493
201.372	1326
201.440	1243
201.508	1272
201.577	1232
201.645	2273
201.713	1242
201.781	1483
201.850	1402
201.918	2088
201.986	872
202.055	1791
202.123	1103
202.191	1398
202.259	1311
202.327	1666
202.396	865
202.464	904
202.532	753
202.600	1987
202.669	1315
202.737	1201
202.805	924
202.873	1966
202.941	1528
203.009	1433
203.078	1645
203.146	1982
203.214	953
203.282	1053
203.350	2220
203.418	808
203.487	1682
203.555	1571
203.623	1498
203.691	846
203.759	507
203.827	2003
203.895	1644
203.963	1813
204.031	1752
204.099	1654
204.168	1516
204.236	2898
204.304	1806
204.372	2983
204.440	1978
204.508	2477
204.576	1698
204.644	1762
204.712	1917
204.780	2584
204.848	1137
204.916	1519
204.984	2190
205.052	2055
205.120	1337
205.188	2926
205.256	1587
205.324	2713
205.392	1457
205.460	3328
205.528	2774
205.596	3244
205.664	1664
205.732	3652
205.799	12191
205.867	23169
205.935	5557
206.003	4307
206.071	2976
206.139	3388
206.207	1837
206.275	1626
206.343	1928
206.411	2434
206.478	2561
206.546	3160
206.614	1877
206.682	1882
206.750	1215
206.818	4024
206.885	3180
206.953	1207
207.021	3164
207.089	1659
207.157	1621
207.225	3216
207.292	2734
207.360	2659
207.428	1952
207.496	2334
207.563	2472
207.631	1883
207.699	1409
207.767	2440
207.834	2275
207.902	2267
207.970	2102
208.038	1986
208.105	1946
208.173	3105
208.241	4328
208.309	3853
208.376	2983
208.444	5838
208.512	4675
208.579	2051
208.647	3135
208.715	3756
208.782	2220
208.850	2382
208.918	2417
208.985	2240
209.053	2092
209.120	2013
209.188	1554
209.256	2720
209.323	867
209.391	2814
209.459	2983
209.526	2721
209.594	2098
209.661	3371
209.729	2203
209.796	2201
209.864	2485
209.932	2594
209.999	3151
210.067	3614
210.134	1818
210.202	2779
210.269	3222
210.337	4587
210.404	3610
210.472	3070
210.539	2879
210.607	2270
210.674	2923
210.742	4046
210.809	2907
210.877	3164
210.944	2824
211.012	2144
211.079	4105
211.146	3392
211.214	4065
211.281	5803
211.349	4599
211.416	2975
211.484	3127
211.551	3215
211.618	3581
211.686	4184
211.753	3075
211.821	3563
211.888	3486
211.955	3590
212.023	3585
212.090	4336
212.157	4508
212.225	5119
212.292	11798
212.359	27993
212.427	89563
212.494	38035
212.561	12168
212.629	7512
212.696	5038
212.763	5566
212.831	3756
212.898	5432
212.965	3563
213.032	4076
213.100	3157
213.167	4071
213.234	4235
213.301	3706
213.369	3721
213.436	4005
213.503	3799
213.570	4316
213.638	4071
213.705	2668
213.772	2997
213.839	3659
213.906	3667
213.973	4253
214.041	2690
214.108	3781
214.175	3250
214.242	2852
214.309	3815
214.376	3232
214.444	2750
214.511	4212
214.578	3308
214.645	3444
214.712	3232
214.779	3657
214.846	3325
214.913	5306
214.980	4066
215.048	4779
215.115	4003
215.182	4075
215.249	3552
215.316	3484
215.383	4078
215.450	3940
215.517	2770
215.584	3428
215.651	2392
215.718	3330
215.785	2253
215.852	1456
215.919	2517
215.986	2525
216.053	2157
216.120	2764
216.187	2701
216.254	3207
216.321	2752
216.388	2734
216.455	2836
216.522	3740
216.589	3652
216.656	4473
216.722	4384
216.789	5207
216.856	5224
216.923	5250
216.990	4655
217.057	4606
217.124	3825
217.191	4190
217.258	5642
217.324	7630
217.391	8798
217.458	7150
217.525	4716
217.592	5071
217.659	3693
217.725	5538
217.792	3021
217.859	4427
217.926	3444
217.993	3090
218.059	2481
218.126	2967
218.193	1641
218.260	2545
218.327	1838
218.393	2420
218.460	1819
218.527	2022
218.594	1864
218.660	2837
218.727	2727
218.794	2645
218.860	2303
218.927	2128
218.994	1121
219.061	2757
219.127	1874
219.194	2940
219.261	2759
219.327	2956
219.394	2405
219.461	1595
219.527	2133
219.594	2801
219.661	1278
219.727	2158
219.794	3506
219.860	3543
219.927	2887
219.994	3262
220.060	4005
220.127	4274
220.193	4708
220.260	4879
220.326	7127
220.393	11951
220.460	14145
220.526	10200
220.593	7173
220.659	8463
220.726	8485
220.792	31264
220.859	23236
220.925	20868
220.992	27894
221.058	37280
221.125	47160
221.191	34563
221.258	12702
221.324	8323
221.391	6130
221.457	5212
221.524	5345
221.590	9437
221.657	46103
221.723	32304
221.789	25888
221.856	23089
221.922	8989
221.989	5505
222.055	5011
222.121	3756
222.188	3996
222.254	3179
222.321	3320
222.387	2597
222.453	2265
222.520	3326
222.586	1793
222.652	3175
222.719	2363
222.785	2363
222.851	1480
222.918	2378
222.984	1453
223.050	2205
223.116	1596
223.183	2319
223.249	2186
223.315	1568
223.382	1750
223.448	2139
223.514	1315
223.580	1803
223.647	1074
223.713	1272
223.779	1427
223.845	1543
223.911	1755
223.978	1224
224.044	1417
224.110	1614
224.176	1670
224.242	2010
224.309	1090
224.375	2969
224.441	1117
224.507	1419
224.573	471
224.639	2334
224.705	1094
224.772	2398
224.838	900
224.904	2607
224.970	1394
225.036	1281
225.102	1070
225.168	3147
225.234	1177
225.300	1401
225.366	1694
225.432	2533
225.499	1589
225.565	2499
225.631	2615
225.697	2873
225.763	3469
225.829	4115
225.895	3212
225.961	4345
226.027	5405
226.093	4219
226.159	6362
226.225	11489
226.291	25583
226.357	42975
226.423	20201
226.489	10199
226.554	7816
226.620	7695
226.686	7487
226.752	11533
226.818	23460
226.884	58722
226.950	53183
227.016	20125
227.082	11109
227.148	7448
227.214	5807
227.279	3906
227.345	3428
227.411	3486
227.477	3431
227.543	5957
227.609	4756
227.674	3642
227.740	2669
227.806	3883
227.872	2901
227.938	3148
228.003	2138
228.069	2126
228.135	2011
228.201	2959
228.267	1456
228.332	2035
228.398	975
228.464	2197
228.530	1494
228.595	1783
228.661	699
228.727	2035
228.792	3263
228.858	2155
228.924	1668
228.990	5219
229.055	1947
229.121	3825
229.187	1129
229.252	2229
229.318	568
229.384	1949
229.449	1236
229.515	79
229.581	46
229.646	2861
229.712	1513
229.777	1522
229.843	1161
229.909	2113
229.974	1994
230.040	3554
230.105	2881
230.171	3301
230.236	6699
230.302	12378
230.368	5868
230.433	4500
230.499	2821
230.564	2925
230.630	2461
230.695	2742
230.761	2132
230.826	622
230.892	2276
230.957	1465
231.023	2018
231.088	1957
231.154	1687
231.219	2280
231.284	1781
231.350	2590
231.415	1941
231.481	1679
231.546	1541
231.612	1753
231.677	692
231.742	1391
231.808	2244
231.873	305
231.939	1008
232.004	3373
232.069	2146
232.135	3197
232.200	2412
232.265	2445
232.331	1167
232.396	1331
232.461	1381
232.527	1601
232.592	1187
232.657	1900
232.723	967
232.788	1417
232.853	870
232.918	822
232.984	466
233.049	916
233.114	1132
233.179	2482
233.245	2568
233.310	2809
233.375	406
233.440	2191
233.506	1478
233.571	1955
233.636	882
233.701	1607
233.766	1743
233.832	1945
233.897	1383
233.962	1330
234.027	1793
234.092	1435
234.157	1107
234.222	1794
234.288	1973
234.353	5641
234.418	4048
234.483	2642
234.548	2001
234.613	2132
234.678	2357
234.743	2191
234.808	5795
234.873	3759
234.938	3300
235.004	2495
235.069	2136
235.134	1571
235.199	2091
235.264	1777
235.329	697
235.394	2143
235.459	2739
235.524	2366
235.589	2264
235.654	3015
235.719	1203
235.784	3710
235.849	1469
235.913	4691
235.978	3463
236.043	4572
236.108	3178
236.173	2794
236.238	2702
236.303	3198
236.368	2964
236.433	5022
236.498	5406
236.563	7919
236.627	18473
236.692	79949
236.757	69077
236.822	23700
236.887	14231
236.952	14253
237.017	9434
237.081	10320
237.146	12068
237.211	33088
237.276	81937
237.341	143870
237.405	57282
237.470	22387
237.535	12844
237.600	9517
237.664	6201
237.729	5818
237.794	7187
237.859	15896
237.923	8055
237.988	5179
238.053	4534
238.118	5691
238.182	11459
238.247	11897
238.312	4371
238.376	3862
238.441	2161
238.506	4525
238.570	1174
238.635	3902
238.700	2282
238.764	1834
238.829	3837
238.893	4488
238.958	3295
239.023	2519
239.087	2169
239.152	3206
239.216	1553
239.281	2625
239.346	2052
239.410	1682
239.475	1647
239.539	9560
239.604	6851
239.668	3363
239.733	1579
239.797	3723
239.862	7741
239.926	7448
239.991	3065
240.055	2975
240.120	1072
240.184	1848
240.249	730
240.313	1166
240.378	1598
240.442	4130
240.507	7314
240.571	2123
240.635	2651
240.700	3494
240.764	1263
240.829	1771
240.893	573
240.957	1976
241.022	3816
241.086	6084
241.151	2644
241.215	200
241.279	2511
241.344	1669
241.408	2145
241.472	1188
241.537	2997
241.601	2273
241.665	1238
241.730	1902
241.794	2839
241.858	2024
241.922	2577
241.987	3141
242.051	1852
242.115	1214
242.179	2605
242.244	2066
242.308	3358
242.372	2795
242.436	1978
242.501	2549
242.565	1849
242.629	2762
242.693	3086
242.757	1811
242.822	2422
242.886	3715
242.950	3271
243.014	2442
243.078	2395
243.142	3881
243.206	2533
243.271	3890
243.335	5594
243.399	12866
243.463	61231
243.527	183063
243.591	54061
243.655	16306
243.719	9057
243.783	8868
243.847	13379
243.911	17461
243.975	6533
244.040	4104
244.104	4898
244.168	2812
244.232	2925
244.296	6793
244.360	13469
244.424	4758
244.488	3025
244.552	4038
244.615	1904
244.679	3255
244.743	1796
244.807	993
244.871	1074
244.935	2425
244.999	852
245.063	1537
245.127	3097
245.191	10217
245.255	9020
245.319	2996
245.383	500
245.446	3293
245.510	1132
245.574	1443
245.638	1632
245.702	447
245.766	2228
245.829	3361
245.893	1101
245.957	2327
246.021	2847
246.085	2410
246.149	1047
246.212	3531
246.276	3622
246.340	2163
246.404	1886
246.467	3381
246.531	541
246.595	4443
246.659	2920
246.722	989
246.786	2144
246.850	1935
246.913	1251
246.977	1079
247.041	1626
247.104	2271
247.168	2178
247.232	2687
247.295	5303
247.359	2871
247.423	1257
247.486	2863
247.550	2627
247.614	2236
247.677	1787
247.741	2364
247.804	1624
247.868	5243
247.932	2273
247.995	5987
248.059	2780
248.122	1584
248.186	3724
248.249	3641
248.313	13839
248.376	12759
248.440	5628
248.503	2590
248.567	3614
248.630	3013
248.694	3745
248.757	6101
248.821	15227
248.884	9264
248.948	6211
249.011	9209
249.075	14901
249.138	12479
249.202	5639
249.265	5168
249.328	7584
249.392	5121
249.455	5674
249.519	5219
249.582	5628
249.645	6733
249.709	6220
249.772	6519
249.835	5578
249.899	6479
249.962	6396
250.025	5979
250.089	8382
250.152	9945
250.215	7359
250.279	7499
250.342	8765
250.405	10348
250.468	9492
250.532	14212
250.595	30911
250.658	163411
250.721	299448
250.785	75892
250.848	34115
250.911	22551
250.974	18934
251.038	16595
251.101	17988
251.164	15841
251.227	16506
251.290	20801
251.354	44532
251.417	235741
251.480	240132
251.543	141709
251.606	468971
251.669	342279
251.732	99725
251.795	61405
251.859	76538
251.922	274353
251.985	147238
252.048	43953
252.111	28661
252.174	21673
252.237	24555
252.300	40645
252.363	98465
252.426	325376
252.489	113708
252.552	39253
252.615	26350
252.678	25479
252.741	36444
252.804	109607
252.867	354056
252.930	127695
252.993	39957
253.056	26907
253.119	20115
253.182	19988
253.245	43190
253.308	28310
253.371	12478
253.434	10081
253.497	9773
253.559	10223
253.622	7443
253.685	7706
253.748	6723
253.811	5827
253.874	7660
253.937	6566
254.000	5281
254.062	6065
254.125	6748
254.188	6047
254.251	4584
254.314	4391
254.376	4793
254.439	5477
254.502	4723
254.565	4397
254.628	6968
254.690	3715
254.753	2569
254.816	3097
254.878	2582
254.941	5187
255.004	4593
255.067	3273
255.129	2859
255.192	2832
255.255	1811
255.317	2665
255.380	2569
255.443	2277
255.505	1677
255.568	1832
255.631	1416
255.693	2559
255.756	1441
255.819	2965
255.881	2121
255.944	1816
256.006	1706
256.069	1730
256.132	2033
256.194	2767
256.257	4806
256.319	4480
256.382	3439
256.444	4915
256.507	3479
256.569	4239
256.632	3981
256.694	7756
256.757	30930
256.819	112744
256.882	45369
256.944	14885
257.007	8652
257.069	6688
257.132	5690
257.194	5895
257.257	4087
257.319	4315
257.381	7354
257.444	23913
257.506	133372
257.569	136627
257.631	37051
257.693	17639
257.756	11165
257.818	8127
257.880	5246
257.943	4086
258.005	2825
258.067	2905
258.130	2486
258.192	3319
258.254	2738
258.317	2627
258.379	2265
258.441	2591
258.503	3598
258.566	5747
258.628	7838
258.690	2481
258.753	3542
258.815	3252
258.877	2358
258.939	2371
259.001	2603
259.064	2477
259.126	2201
259.188	2606
259.250	1830
259.312	3263
259.375	4873
259.437	3137
259.499	2133
259.561	2442
259.623	1686
259.685	1333
259.747	2331
259.809	5873
259.872	10484
259.934	20660
259.996	14574
260.058	4111
260.120	1674
260.182	2116
260.244	2160
260.306	915
260.368	1910
260.430	1309
260.492	1311
260.554	3417
260.616	3280
260.678	4956
260.740	8204
260.802	2117
260.864	2173
260.926	655
260.988	1966
261.050	2094
261.112	1576
261.174	9171
261.236	8426
261.298	2107
261.359	4218
261.421	6619
261.483	1505
261.545	2714
261.607	352
261.669	3169
261.731	1881
261.793	4075
261.854	-41
261.916	2447
261.978	310
262.040	2185
262.102	1180
262.164	2771
262.225	2304
262.287	2029
262.349	674
262.411	2197
262.472	1924
262.534	2581
262.596	4797
262.658	3413
262.719	1470
262.781	3525
262.843	4867
262.904	4708
262.966	4770
263.028	11142
263.090	62540
263.151	196585
263.213	53915
263.275	15636
263.336	9312
263.398	6852
263.459	3824
263.521	3615
263.583	2900
263.644	1967
263.706	1876
263.767	1789
263.829	1888
263.891	1033
263.952	973
264.014	1179
264.075	454
264.137	1622
264.198	2251
264.260	968
264.321	638
264.383	2127
264.444	1783
264.506	625
264.567	1800
264.629	2908
264.690	-758
264.752	931
264.813	893
264.875	2379
264.936	2051
264.998	1693
265.059	1508
265.120	3357
265.182	6438
265.243	44659
265.305	48673
265.366	11459
265.427	5172
265.489	5015
265.550	1491
265.611	2346
265.673	1313
265.734	1262
265.795	2034
265.857	2147
265.918	3212
265.979	12805
266.040	83660
266.102	73727
266.163	15706
266.224	8059
266.286	5605
266.347	3256
266.408	2244
266.469	1870
266.530	1668
266.592	1315
266.653	945
266.714	1943
266.775	1076
266.836	1462
266.898	427
266.959	2596
267.020	439
267.081	2683
267.142	1225
267.203	1154
267.264	-173
267.326	2085
267.387	322
267.448	483
267.509	796
267.570	1193
267.631	-165
267.692	114
267.753	1112
267.814	613
267.875	731
267.936	1261
267.997	1342
268.058	2415
268.119	804
268.180	603
268.241	-379
268.302	1982
268.363	-278
268.424	1354
268.485	276
268.546	195
268.607	-141
268.668	524
268.729	-449
268.790	462
268.851	358
268.912	1183
268.972	919
269.033	618
269.094	410
269.155	1078
269.216	-12
269.277	745
269.338	474
269.398	850
269.459	-68
269.520	1231
269.581	453
269.642	462
269.702	-90
269.763	1193
269.824	1061
269.885	333
269.945	1042
270.006	1664
270.067	-311
270.128	579
270.188	-593
270.249	-36
270.310	84
270.370	838
270.431	472
270.492	109
270.553	393
270.613	1353
270.674	1131
270.734	330
270.795	708
270.856	723
270.916	-386
270.977	674
271.038	740
271.098	436
271.159	244
271.219	527
271.280	420
271.340	1937
271.401	-553
271.462	1737
271.522	1648
271.583	1045
271.643	686
271.704	571
271.764	399
271.825	979
271.885	6642
271.946	12495
272.006	2297
272.066	3661
272.127	7180
272.187	3068
272.248	1715
272.308	1284
272.369	3336
272.429	2352
272.489	1089
272.550	875
272.610	837
272.671	1177
272.731	1975
272.791	1217
272.852	402
272.912	966
272.972	348
273.033	1033
273.093	543
273.153	775
273.214	912
273.274	222
273.334	1159
273.394	3499
273.455	464
273.515	701
273.575	1705
273.635	1236
273.696	3057
273.756	4701
273.816	1280
273.876	1837
273.936	3886
273.997	8276
274.057	837
274.117	564
274.177	534
274.237	5173
274.297	5362
274.358	4485
274.418	1974
274.478	3051
274.538	626
274.598	785
274.658	6027
274.718	7507
274.778	1791
274.838	1108
274.898	2977
274.958	11260
275.018	5855
275.078	3544
275.138	883
275.198	608
275.258	494
275.318	1622
275.378	771
275.438	988
275.498	1309
275.558	5306
275.618	9247
275.678	2595
275.738	948
275.798	1315
275.858	650
275.918	485
275.978	391
276.038	607
276.098	-1
276.157	73
276.217	1235
276.277	567
276.337	504
276.397	887
276.457	514
276.517	149
276.576	129
276.636	325
276.696	-364
276.756	1962
276.815	794
276.875	303
276.935	-22
276.995	624
277.055	-635
277.114	424
277.174	518
277.234	1061
277.293	821
277.353	483
277.413	267
277.472	564
277.532	283
277.592	342
277.651	790
277.711	1452
277.771	68
277.830	1757
277.890	851
277.950	1049
278.009	4306
278.069	2017
278.128	1544
278.188	1301
278.248	717
278.307	1894
278.367	1581
278.426	700
278.486	569
278.545	390
278.605	588
278.664	433
278.724	471
278.783	2739
278.843	5093
278.902	1489
278.962	623
279.021	2299
279.081	2475
279.140	1871
279.199	1174
279.259	3475
279.318	2798
279.378	4238
279.437	7034
279.496	24497
279.556	119083
279.615	93010
279.675	17437
279.734	9447
279.793	9148
279.853	11817
279.912	4553
279.971	3320
280.031	2494
280.090	4849
280.149	7347
280.208	10720
280.268	62585
280.327	65474
280.386	11165
280.445	5920
280.505	3208
280.564	2484
280.623	1332
280.682	1938
280.742	1798
280.801	1417
280.860	868
280.919	774
280.978	949
281.037	136
281.097	153
281.156	924
281.215	471
281.274	802
281.333	1814
281.392	2360
281.451	1054
281.510	542
281.569	991
281.628	4235
281.688	3604
281.747	1461
281.806	-149
281.865	1545
281.924	-553
281.983	712
282.042	55
282.101	637
282.160	715
282.219	492
282.278	-421
282.337	864
282.396	416
282.454	183
282.513	52
282.572	1167
282.631	401
282.690	-149
282.749	-273
282.808	492
282.867	316
282.926	501
282.985	23
283.043	540
283.102	507
283.161	313
283.220	1017
283.279	1527
283.338	11
283.396	68
283.455	574
283.514	967
283.573	939
283.631	595
283.690	581
283.749	854
283.808	1043
283.866	1403
283.925	-185
283.984	609
284.043	939
284.101	739
284.160	-896
284.219	1334
284.277	398
284.336	646
284.395	1927
284.453	1678
284.512	724
284.570	928
284.629	689
284.688	1311
284.746	532
284.805	1476
284.863	1110
284.922	1141
284.981	2231
285.039	3141
285.098	5633
285.156	17072
285.215	87732
285.273	95726
285.332	31917
285.390	12888
285.449	6946
285.507	5389
285.566	4062
285.624	3668
285.683	1974
285.741	1388
285.799	2507
285.858	1103
285.916	1128
285.975	2235
286.033	1783
286.091	1921
286.150	838
286.208	2439
286.267	908
286.325	2323
286.383	1637
286.442	1737
286.500	1458
286.558	1675
286.616	1140
286.675	2580
286.733	1487
286.791	1738
286.850	2835
286.908	2612
286.966	1416
287.024	2996
287.083	2378
287.141	2545
287.199	2965
287.257	3090
287.315	3137
287.374	3691
287.432	4274
287.490	4446
287.548	3566
287.606	5407
287.664	4733
287.723	6437
287.781	6564
287.839	8686
287.897	10634
287.955	18672
288.013	37759
288.071	95754
288.129	340160
288.187	974779
288.245	480855
288.303	145817
288.361	78707
288.419	52601
288.477	37010
288.535	28416
288.593	19635
288.651	14262
288.709	9945
288.767	8557
288.825	6554
288.883	6443
288.941	5104
288.999	3751
289.057	4308
289.115	3447
289.173	3416
289.231	3086
289.289	3398
289.346	3348
289.404	3475
289.462	3724
289.520	3178
289.578	3053
289.636	2547
289.694	2590
289.751	2118
289.809	2969
289.867	1721
289.925	3308
289.983	2132
290.040	2524
290.098	1807
290.156	2416
290.214	2294
290.271	1589
290.329	1550
290.387	1173
290.444	1232
290.502	1464
290.560	596
290.617	1318
290.675	680
290.733	668
290.790	1063
290.848	2310
290.906	182
290.963	850
291.021	594
291.078	836
291.136	-342
291.194	1732
291.251	1074
291.309	777
291.366	-272
291.424	828
291.481	457
291.539	692
291.596	343
291.654	763
291.711	284
291.769	1192
291.826	-410
291.884	776
291.941	-363
291.999	266
292.056	78
292.114	940
292.171	273
292.228	951
292.286	327
292.343	360
292.401	369
292.458	1198
292.515	-27
292.573	1223
292.630	-375
292.687	466
292.745	485
292.802	1096
292.859	1214
292.917	1918
292.974	819
293.031	931
293.089	-32
293.146	430
293.203	858
293.260	788
293.318	733
293.375	1217
293.432	-678
293.489	1155
293.546	318
293.604	1039
293.661	1731
293.718	5885
293.775	2404
293.832	1116
293.889	1036
293.947	945
294.004	517
294.061	49
294.118	-735
294.175	1475
294.232	136
294.289	609
294.346	325
294.403	2029
294.460	478
294.517	898
294.574	186
294.631	819
294.688	119
294.745	1196
294.802	4116
294.859	3811
294.916	1181
294.973	1215
295.030	-350
295.087	733
295.144	314
295.201	831
295.258	282
295.315	933
295.372	1339
295.429	3976
295.486	1448
295.542	402
295.599	181
295.656	1357
295.713	1078
295.770	3583
295.827	1446
295.883	1139
295.940	-138
295.997	440
296.054	300
296.111	226
296.167	44
296.224	591
296.281	-388
296.338	156
296.394	-2
296.451	441
296.508	580
296.564	2697
296.621	2567
296.678	7016
296.734	11054
296.791	4023
296.848	1386
296.904	1481
296.961	1443
297.018	5454
297.074	5382
297.131	2201
297.187	1184
297.244	1550
297.301	4590
297.357	11196
297.414	3677
297.470	1619
297.527	-135
297.583	1500
297.640	734
297.696	283
297.753	137
297.809	903
297.866	-445
297.922	786
297.979	126
298.035	804
298.092	1021
298.148	2179
298.204	2275
298.261	896
298.317	1746
298.374	8128
298.430	5503
298.486	2172
298.543	992
298.599	2842
298.656	6136
298.712	15361
298.768	64804
298.824	68579
298.881	20408
298.937	8106
298.993	5626
299.050	4109
299.106	3295
299.162	2319
299.218	1784
299.275	1723
299.331	1970
299.387	4047
299.443	8094
299.500	11829
299.556	7290
299.612	3255
299.668	2086
299.724	4918
299.780	6417
299.837	2665
299.893	1893
299.949	5075
300.005	7019
300.061	7057
300.117	13186
300.173	7324
300.229	1966
300.285	2405
300.341	1836
300.397	565
300.453	1134
300.510	356
300.566	340
300.622	4157
300.678	10932
300.734	17097
300.790	8138
300.845	6775
300.901	6618
300.957	9092
301.013	4177
301.069	1845
301.125	1568
301.181	928
301.237	593
301.293	-60
301.349	-62
301.405	525
301.461	288
301.516	959
301.572	-145
301.628	451
301.684	-306
301.740	1092
301.796	1608
301.851	1461
301.907	1581
301.963	3799
302.019	8898
302.074	28585
302.130	32182
302.186	13714
302.242	5175
302.297	3749
302.353	1039
302.409	2809
302.464	2665
302.520	2138
302.576	4191
302.631	5432
302.687	2845
302.743	1881
302.798	343
302.854	619
302.910	706
302.965	1203
303.021	1700
303.076	1275
303.132	1214
303.187	1627
303.243	2070
303.299	1378
303.354	782
303.410	1780
303.465	663
303.521	171
303.576	-176
303.632	1740
303.687	1931
303.743	5363
303.798	5961
303.853	2611
303.909	1054
303.964	966
304.020	1176
304.075	2342
304.130	800
304.186	1866
304.241	2794
304.297	2493
304.352	1254
304.358	1422
304.407	2786
304.449	940
304.463	318
304.518	659
304.539	792
304.573	998
304.629	1137
304.630	1144
304.684	1493
304.720	3940
304.739	5179
304.794	8856
304.811	7733
304.850	5039
304.902	2522
304.905	2368
304.960	3572
304.992	5741
305.015	7191
305.071	6949
305.083	6110
305.126	3175
305.173	1918
305.181	1720
305.236	1596
305.264	1867
305.292	2106
305.347	1730
305.354	1880
305.402	3097
305.445	5166
305.457	5676
305.512	8341
305.535	6992
305.567	5214
305.622	4937
305.626	5099
305.678	8476
305.716	16772
305.733	19739
305.788	15610
305.807	13162
305.843	9190
305.897	8713
305.898	8696
305.953	10484
305.988	8007
306.008	6651
306.063	3985
306.078	3657
306.118	2791
306.168	2184
306.173	2139
306.228	2130
306.259	1887
306.283	1782
306.338	3135
306.349	3351
306.393	4344
306.440	7533
306.448	7998
306.503	7515
306.530	6402
306.558	5700
306.613	8234
306.620	8396
306.668	8610
306.711	6996
306.723	6516
306.778	5523
306.801	4658
306.833	3703
306.888	2621
306.892	2635
306.943	2992
306.982	2618
306.997	2440
307.052	3233
307.072	2975
307.107	2620
307.162	2558
307.163	2568
307.217	3549
307.253	3623
307.272	3599
307.327	2989
307.343	3283
307.381	4182
307.434	4026
307.436	4019
307.491	4574
307.524	5270
307.546	5640
307.600	6282
307.614	6069
307.655	5384
307.704	5399
307.710	5457
307.765	6290
307.795	7018
307.819	7724
307.874	9719
307.885	10188
307.929	13168
307.975	18506
307.984	20360
308.038	37445
308.065	52110
308.093	96290
308.148	210621
308.156	239382
308.202	385175
308.246	495558
308.257	491655
308.312	259295
308.336	166707
308.366	106202
308.421	50627
308.426	47962
308.475	33866
308.517	27057
308.530	25227
308.585	21087
308.607	19486
308.639	17644
308.694	15236
308.697	15175
308.748	13528
308.787	13814
308.803	14040
308.857	13669
308.877	13904
308.912	15245
308.967	19003
308.967	19096
309.021	28168
309.058	37875
309.076	50664
309.130	100488
309.148	123365
309.185	278266
309.238	558580
309.239	559920
309.293	641046
309.328	565333
309.348	485542
309.402	211825
309.418	149339
309.457	92130
309.508	51237
309.511	49350
309.566	35023
309.598	28863
309.620	26019
309.674	20682
309.688	19628
309.729	16628
309.778	13477
309.783	13120
309.837	10489
309.868	9569
309.892	9006
309.946	8346
309.959	8465
310.001	8589
310.049	7798
310.055	7558
310.109	6242
310.139	5342
310.163	4807
310.218	4123
310.229	3953
310.272	3843
310.319	4089
310.326	3979
310.381	3350
310.409	3002
310.435	3064
310.489	2927
310.499	2985
310.543	3115
310.589	3052
310.598	2970
310.652	2894
310.679	2594
310.706	2398
310.760	2390
310.769	2380
310.814	2270
310.859	2088
310.868	2120
310.923	2337
310.948	2524
310.977	2426
311.031	2239
311.038	2217
311.085	2276
311.128	2038
311.139	2075
311.193	2826
311.218	2932
311.247	2704
311.301	2539
311.308	2509
311.356	1968
311.398	1488
311.410	1597
311.464	2119
311.488	2369
311.518	2457
311.572	2572
311.578	2578
311.626	2389
311.668	2255
311.680	2302
311.734	2545
311.758	2610
311.788	2364
311.842	1974
311.847	1928
311.896	2207
311.937	2513
311.950	2369
312.004	1698
312.027	1415
312.058	1561
312.112	1824
312.117	1852
312.165	2069
312.207	2258
312.297	1767
312.386	1986
312.476	2714
312.566	1972
312.656	2259
312.745	1270
312.835	2810
312.925	2483
313.015	3002
313.104	3150
313.194	2099
313.284	2221
313.374	2685
313.463	1840
313.553	1918
313.643	2372
313.732	1813
313.822	2015
313.912	2583
314.001	2030
314.091	2575
314.180	1881
314.270	3108
314.360	2867
314.449	2061
314.539	2020
314.628	2332
314.718	2233
314.808	2311
314.897	2343
314.987	3009
315.076	3065
315.166	2473
315.255	2842
315.345	3052
315.434	3118
315.524	4030
315.613	5614
315.703	11140
315.792	35236
315.881	155832
315.971	48224
316.060	8617
316.150	4337
316.239	3409
316.328	2589
316.418	2711
316.507	2363
316.597	2864
316.686	2361
316.775	2628
316.865	2974
316.954	3263
317.043	3013
317.133	3037
317.222	2646
317.311	2838
317.400	2740
317.490	6491
317.579	6951
317.668	11153
317.757	21109
317.847	72931
317.936	280431
318.025	74328
318.114	42920
318.203	17432
318.293	4693
318.382	3069
318.471	3091
318.560	2658
318.649	2959
318.738	2028
318.828	1743
318.917	2083
319.006	1540
319.095	1632
319.184	3062
319.273	2840
319.362	1538
319.451	1592
319.540	1678
319.629	1286
319.718	2205
319.807	1885
319.896	2059
319.985	3720
320.074	2028
320.163	1458
320.252	1790
320.341	1994
320.430	896
320.519	1954
320.608	1759
320.697	2144
320.786	1750
320.875	2483
320.964	2161
321.053	2856
321.142	2548
321.230	3045
321.319	2785
321.408	2895
321.497	2777
321.586	2689
321.675	1704
321.764	2418
321.852	1720
321.941	2332
322.030	2030
322.119	1898
322.207	3047
322.296	3373
322.385	3177
322.474	3227
322.562	4638
322.651	2783
322.740	2447
322.829	3925
322.917	2170
323.006	2127
323.095	2288
323.183	2193
323.272	2332
323.361	3552
323.449	4865
323.538	1671
323.626	3640
323.715	2906
323.804	1762
323.892	3439
323.981	2695
324.069	2177
324.158	3032
324.246	2650
324.335	1986
324.424	1445
324.512	1730
324.601	3477
324.689	8841
324.778	14326
324.866	3170
324.954	2411
325.043	1536
325.131	682
325.220	3050
325.308	1791
325.397	1993
325.485	1258
325.574	679
325.662	1472
325.750	516
325.839	2158
325.927	1614
326.015	1646
326.104	1394
326.192	2150
326.280	1038
326.369	2256
326.457	1173
326.545	1634
326.634	1417
326.722	1783
326.810	1276
326.898	2255
326.987	1357
327.075	1289
327.163	2296
327.251	1976
327.340	6554
327.428	8483
327.516	1909
327.604	986
327.692	1411
327.781	1608
327.869	1971
327.957	1427
328.045	1771
328.133	1767
328.221	1137
328.309	1597
328.397	2066
328.485	2289
328.574	2314
328.662	2985
328.750	1623
328.838	1441
328.926	1253
329.014	2402
329.102	1178
329.190	2918
329.278	1856
329.366	1956
329.454	1622
329.542	2037
329.630	1333
329.718	2510
329.806	2538
329.893	4185
329.981	5806
330.069	16647
330.157	67033
330.245	171299
330.333	81592
330.421	13549
330.509	4774
330.597	4510
330.684	3095
330.772	2646
330.860	1509
330.948	1590
331.036	1960
331.123	1668
331.211	885
331.299	1733
331.387	1191
331.475	2190
331.562	1628
331.650	953
331.738	1030
331.825	1755
331.913	1375
332.001	1088
332.089	623
332.176	1580
332.264	2716
332.352	1985
332.439	1170
332.527	1777
332.614	1231
332.702	1529
332.790	1374
332.877	1326
332.965	2121
333.052	1830
333.140	1120
333.228	2146
333.315	1272
333.403	1698
333.490	1288
333.578	1265
333.665	2051
333.753	1764
333.840	1235
333.928	1613
334.015	2117
334.103	2866
334.190	4121
334.278	2693
334.365	3335
334.452	3242
334.540	2017
334.627	2104
334.715	2230
334.802	4050
334.889	8881
334.977	10249
335.064	4503
335.151	2440
335.239	1715
335.326	2215
335.413	2663
335.501	2072
335.588	1764
335.675	1925
335.762	2199
335.850	2799
335.937	4580
336.024	8378
336.111	13355
336.199	9089
336.286	3624
336.373	2950
336.460	1519
336.547	1940
336.635	1175
336.722	1658
336.809	744
336.896	1378
336.983	1900
337.070	3096
337.157	3821
337.245	3483
337.332	2112
337.419	1104
337.506	1804
337.593	1441
337.680	1588
337.767	2192
337.854	1130
337.941	1650
338.028	2391
338.115	2162
338.202	1273
338.289	1638
338.376	2981
338.463	1407
338.550	1496
338.637	1626
338.724	1095
338.811	1712
338.898	1273
338.984	1275
339.071	1024
339.158	1672
339.245	1687
339.332	1394
339.419	1002
339.506	1276
339.593	-453
339.679	1621
339.766	638
339.853	245
339.940	852
340.027	973
340.113	1190
340.200	898
340.287	-64
340.374	723
340.460	1733
340.547	1282
340.634	215
340.720	2171
340.807	752
340.894	1153
340.980	571
341.067	-22
341.154	807
341.240	1273
341.327	359
341.414	942
341.500	268
341.587	1120
341.674	1625
341.760	1771
341.847	432
341.933	914
342.020	658
342.106	1547
342.193	992
342.279	1298
342.366	1104
342.452	933
342.539	361
342.625	1921
342.712	2491
342.798	1247
342.885	113
342.971	687
343.058	309
343.144	691
343.230	596
343.317	558
343.403	232
343.490	1300
343.576	728
343.662	1322
343.749	143
343.835	942
343.921	1644
344.008	10974
344.094	18595
344.180	3795
344.267	1208
344.353	3744
344.439	2584
344.525	1376
344.612	1187
344.698	1049
344.784	363
344.870	957
344.957	639
345.043	1737
345.129	362
345.215	368
345.301	474
345.387	779
345.474	463
345.560	-5
345.646	366
345.732	1157
345.818	899
345.904	1466
345.990	828
346.076	1040
346.162	501
346.249	1026
346.335	1720
346.421	4595
346.507	4910
346.593	4914
346.679	610
346.765	1029
346.851	1495
346.937	1299
347.023	1430
347.108	950
347.194	320
347.280	774
347.366	798
347.452	3246
347.538	5952
347.624	5801
347.710	1759
347.796	1093
347.882	916
347.967	1096
348.053	1404
348.139	2089
348.225	295
348.311	383
348.397	1093
348.482	1969
348.568	338
348.654	84
348.740	2672
348.825	1392
348.911	2452
348.997	3620
349.083	5636
349.168	977
349.254	443
349.340	409
349.425	805
349.511	1126
349.597	880
349.682	836
349.768	3242
349.854	2322
349.939	1154
350.025	1016
350.110	886
350.196	896
350.282	315
350.367	1013
350.453	460
350.538	714
350.624	74
350.709	1783
350.795	481
350.880	1183
350.966	1883
351.051	868
351.137	952
351.222	994
351.308	1797
351.393	2408
351.479	1086
351.564	608
351.649	669
351.735	1297
351.820	919
351.906	883
351.991	1173
352.076	1251
352.162	2218
352.247	1298
352.332	939
352.418	768
352.503	710
352.588	3394
352.673	1852
352.759	2126
352.844	681
352.929	1314
353.014	620
353.100	1632
353.185	1898
353.270	1375
353.355	1779
353.441	1186
353.526	864
353.611	1538
353.696	922
353.781	1803
353.866	305
353.952	2161
354.037	518
354.122	2670
354.207	1421
354.292	1245
354.377	1669
354.462	692
354.547	707
354.632	1349
354.717	1702
354.802	1317
354.887	1341
354.972	1406
355.057	879
355.142	-158
355.227	1046
355.312	891
355.397	846
355.482	1842
355.567	1423
355.652	2410
355.737	1726
355.822	3720
355.907	1572
355.991	2136
356.076	289
356.161	1270
356.246	762
356.331	1328
356.416	1625
356.501	8371
356.585	5635
356.670	753
356.755	3291
356.840	1663
356.924	7347
357.009	21776
357.094	6829
357.179	1099
357.263	619
357.348	1581
357.433	1079
357.517	1199
357.602	755
357.687	1014
357.771	1927
357.856	2721
357.941	2316
358.025	9177
358.110	33053
358.195	12430
358.279	1262
358.364	1678
358.448	2670
358.533	5487
358.617	3849
358.702	4735
358.787	2251
358.871	1384
358.956	1005
359.040	749
359.125	704
359.209	1237
359.294	1171
359.378	2965
359.462	453
359.547	774
359.631	425
359.716	541
359.800	53
359.885	1699
359.969	171
360.053	903
360.138	-102
360.222	1000
360.306	109
360.391	1460
360.475	1368
360.559	2780
360.644	2055
360.728	1968
360.812	5407
360.896	10799
360.981	2561
361.065	1113
361.149	1533
361.233	938
361.318	15
361.402	898
361.486	1113
361.570	805
361.654	706
361.739	1663
361.823	8319
361.907	11923
361.991	1706
362.075	1532
362.159	1233
362.243	3065
362.327	5113
362.411	10258
362.495	3664
362.580	1787
362.664	1270
362.748	1401
362.832	2728
362.916	4381
363.000	18301
363.084	31228
363.168	19033
363.252	4416
363.336	2866
363.420	2387
363.503	2269
363.587	1567
363.671	1279
363.755	582
363.839	1542
363.923	1156
364.007	1483
364.091	2316
364.175	2762
364.258	10368
364.342	18846
364.426	40561
364.510	19143
364.594	6390
364.677	4154
364.761	9666
364.845	6561
364.929	1323
365.013	559
365.096	1568
365.180	425
365.264	1557
365.347	3832
365.431	1222
365.515	861
365.598	-318
365.682	1566
365.766	-412
365.849	-454
365.933	669
366.017	1979
366.100	-30
366.184	243
366.267	1684
366.351	-60
366.435	263
366.518	184
366.602	380
366.685	266
366.769	266
366.852	852
366.936	936
367.019	367
367.103	-721
367.186	881
367.270	436
367.353	-397
367.436	1373
367.520	483
367.603	794
367.687	-705
367.770	584
367.853	1388
367.937	3273
368.020	3325
368.104	806
368.187	1141
368.270	1057
368.353	1411
368.437	1035
368.520	2044
368.603	1179
368.687	1505
368.770	3295
368.853	472
368.936	1072
369.020	1016
369.103	200
369.186	351
369.269	473
369.352	1262
369.436	780
369.519	1135
369.602	-390
369.685	1915
369.768	-393
369.851	804
369.934	527
370.018	555
370.101	549
370.184	2202
370.267	963
370.350	1714
370.433	2607
370.516	14405
370.599	47314
370.682	20442
370.765	5788
370.848	3814
370.931	5567
371.014	2738
371.097	-628
371.180	1035
371.263	1624
371.346	-1117
371.429	1441
371.511	544
371.594	691
371.677	749
371.760	1555
371.843	1771
371.926	13590
372.009	27478
372.091	8465
372.174	2250
372.257	5750
372.340	1445
372.423	1379
372.505	2188
372.588	870
372.671	2853
372.754	3734
372.836	2199
372.919	1905
373.002	2289
373.085	667
373.167	1752
373.250	2479
373.332	6419
373.415	17987
373.498	33399
373.580	22120
373.663	79047
373.746	79842
373.828	11670
373.911	4079
373.993	1967
374.076	1947
374.159	2055
374.241	1728
374.324	4885
374.406	4290
374.489	8025
374.571	18371
374.654	5496
374.736	3993
374.819	10242
374.901	19685
374.983	18708
375.066	3729
375.148	1813
375.231	1456
375.313	2629
375.395	1344
375.478	477
375.560	1430
375.643	1535
375.725	4509
375.807	14198
375.890	10736
375.972	1725
376.054	1726
376.136	2125
376.219	1238
376.301	4536
376.383	8565
376.465	3451
376.548	2043
376.630	2272
376.712	7496
376.794	2534
376.877	1594
376.959	673
377.041	1177
377.123	729
377.205	802
377.287	-308
377.369	760
377.452	314
377.534	787
377.616	985
377.698	342
377.780	297
377.862	955
377.944	1372
378.026	656
378.108	875
378.190	1123
378.272	948
378.354	584
378.436	448
378.518	482
378.600	1202
378.682	1543
378.764	2196
378.846	1894
378.928	576
379.010	94
379.091	1102
379.173	1138
379.255	-419
379.337	572
379.419	1048
379.501	4891
379.583	1767
379.664	1137
379.746	-187
379.828	3800
379.910	2009
379.991	3400
380.073	1341
380.155	1346
380.237	298
380.318	579
380.400	253
380.482	980
380.564	1425
380.645	995
380.727	1304
380.809	2011
380.890	325
380.972	599
381.053	560
381.135	1435
381.217	875
381.298	2855
381.380	540
381.461	2052
381.543	7957
381.624	7770
381.706	1317
381.787	1504
381.869	2018
381.951	6706
382.032	20143
382.113	12017
382.195	1180
382.276	2797
382.358	1715
382.439	7059
382.521	10357
382.602	15885
382.684	6049
382.765	7632
382.846	4614
382.928	5935
383.009	2609
383.090	3086
383.172	7606
383.253	10594
383.334	5481
383.416	10671
383.497	5426
383.578	2150
383.659	2015
383.741	8026
383.822	18384
383.903	7630
383.984	4721
384.066	11277
384.147	5633
384.228	2700
384.309	1947
384.390	1811
384.471	1593
384.553	1664
384.634	1486
384.715	2129
384.796	540
384.877	1437
384.958	3666
385.039	2494
385.120	1636
385.201	2228
385.282	1563
385.363	2252
385.444	2561
385.525	4771
385.606	10345
385.687	7390
385.768	2106
385.849	1976
385.930	12488
386.011	19340
386.092	5123
386.173	3127
386.254	4328
386.335	3878
386.416	1776
386.496	2905
386.577	3481
386.658	1642
386.739	504
386.820	2057
386.901	1728
386.981	2929
387.062	2188
387.143	1977
387.224	3796
387.304	4137
387.385	2980
387.466	532
387.547	2800
387.627	1800
387.708	3265
387.789	6975
387.869	6892
387.950	3582
388.031	1747
388.111	934
388.192	2784
388.273	3476
388.353	1818
388.434	2453
388.514	1914
388.595	8633
388.676	7747
388.756	3818
388.837	3698
388.917	2358
388.998	372
389.078	2396
389.159	2082
389.239	733
389.320	3152
389.400	777
389.480	3328
389.561	3912
389.641	3057
389.722	2264
389.802	1333
389.883	3271
389.963	5591
390.043	3362
390.124	889
390.204	4182
390.284	5441
390.365	7376
390.445	41927
390.525	204823
390.605	168650
390.686	21222
390.766	5873
390.846	4481
390.927	2047
391.007	2212
391.087	3353
391.167	2608
391.247	1982
391.328	3191
391.408	4683
391.488	3865
391.568	1558
391.648	2723
391.728	4404
391.808	5076
391.888	3361
391.969	5120
392.049	5002
392.129	6330
392.209	5746
392.289	9363
392.369	7689
392.449	7546
392.529	7055
392.609	10154
392.689	10616
392.769	13798
392.849	15793
392.929	20234
393.009	27977
393.089	41411
393.169	90542
393.248	381618
393.328	1485970
393.408	1439625
393.488	313460
393.568	77739
393.648	36857
393.728	23051
393.807	17139
393.887	16996
393.967	14597
394.047	15948
394.127	18332
394.206	36285
394.286	161335
394.366	700700
394.446	667921
394.525	126482
394.605	29318
394.685	16589
394.764	13480
394.844	12045
394.924	10149
395.003	9002
395.083	8014
395.163	8644
395.242	7133
395.322	8054
395.402	6681
395.481	10996
395.561	9443
395.640	14802
395.720	20287
395.799	19044
395.879	24463
395.958	50589
396.038	233644
396.117	920395
396.197	894669
396.276	196688
396.356	51597
396.435	30573
396.515	27417
396.594	35184
396.673	82553
396.753	423367
396.832	1299250
396.912	759554
396.991	118148
397.070	36277
397.150	17892
397.229	14854
397.308	14282
397.388	19680
397.467	11914
397.546	8360
397.625	4538
397.705	7021
397.784	3913
397.863	4859
397.942	3549
398.022	3441
398.101	3393
398.180	4563
398.259	2676
398.338	2818
398.417	2015
398.497	1845
398.576	2765
398.655	1164
398.734	2316
398.813	1568
398.892	1749
398.971	3341
399.050	1270
399.129	1285
399.208	1259
399.287	1971
399.366	1169
399.445	1360
399.524	270
399.603	-186
399.682	817
399.761	2049
399.840	2901
399.919	3173
399.998	592
400.077	28
400.156	331
400.235	2520
400.313	188
400.392	272
400.471	2016
400.550	3182
400.629	184
400.708	1218
400.786	207
400.865	713
400.944	-353
401.023	2422
401.102	-7
401.180	904
401.259	414
401.338	326
401.416	1348
401.495	562
401.574	616
401.652	-91
401.731	1414
401.810	224
401.888	7
401.967	-129
402.046	477
402.124	1138
402.203	-379
402.281	1365
402.360	-413
402.438	1703
402.517	-876
402.596	362
402.674	-172
402.753	308
402.831	891
402.910	1426
402.988	743
403.066	4820
403.145	2427
403.223	2587
403.302	3531
403.380	3314
403.459	2253
403.537	1291
403.615	887
403.694	-978
403.772	1224
403.850	614
403.929	51
404.007	-239
404.085	1004
404.164	183
404.242	474
404.320	3496
404.398	7024
404.477	6857
404.555	10880
404.633	9241
404.711	4718
404.789	3152
404.868	356
404.946	-223
405.024	-144
405.102	128
405.180	-963
405.258	-113
405.336	1292
405.415	-84
405.493	598
405.571	1122
405.649	48
405.727	-1198
405.805	929
405.883	1215
405.961	728
406.039	35
406.117	-494
406.195	830
406.273	881
406.351	6860
406.429	4260
406.507	77
406.585	44
406.663	258
406.740	291
406.818	-149
406.896	-41
406.974	1694
407.052	-519
407.130	4476
407.208	5102
407.285	2329
407.363	-121
407.441	1323
407.519	1362
407.596	5554
407.674	37985
407.752	159967
407.830	104060
407.907	10989
407.985	1891
408.063	953
408.141	287
408.218	1733
408.296	-161
408.373	223
408.451	-203
408.529	832
408.606	-100
408.684	730
408.762	769
408.839	788
408.917	957
408.994	-147
409.072	-300
409.149	852
409.227	1414
409.304	1924
409.382	2339
409.459	2140
409.537	2807
409.614	2375
409.692	1901
409.769	1284
409.846	3125
409.924	5355
410.001	881
410.079	1095
410.156	2409
410.233	2042
410.311	3816
410.388	982
410.465	1024
410.543	243
410.620	990
410.697	223
410.775	-17
410.852	-996
410.929	1320
411.006	1645
411.083	756
411.161	-27
411.238	1002
411.315	381
411.392	-128
411.469	146
411.547	7
411.624	-565
411.701	456
411.778	487
411.855	105
411.932	-1078
412.009	244
412.086	-232
412.163	129
412.240	534
412.317	255
412.394	-140
412.471	-907
412.548	45
412.625	118
412.702	411
412.779	573
412.856	938
412.933	-46
413.010	1462
413.087	1862
413.164	1433
413.241	1139
413.318	-402
413.395	543
413.471	-835
413.548	353
413.625	651
413.702	-1458
413.779	276
413.855	142
413.932	133
414.009	-1180
414.086	-606
414.162	198
414.239	651
414.316	1007
414.393	2977
414.469	-447
414.546	-89
414.623	-100
414.699	-684
414.776	-89
414.853	-260
414.929	676
415.006	-723
415.082	-209
415.159	601
415.236	390
415.312	785
415.389	-252
415.465	-976
415.542	-408
415.618	-416
415.695	447
415.771	-669
415.848	-200
415.924	202
416.000	-688
416.077	1368
416.153	-319
416.230	-315
416.306	52
416.383	-296
416.459	-113
416.535	-445
416.612	-611
416.688	313
416.764	-230
416.841	-554
416.917	-64
416.993	209
417.069	398
417.146	721
417.222	1340
417.298	11
417.374	-1016
417.451	326
417.527	-521
417.603	-568
417.679	-266
417.755	-173
417.831	-1054
417.908	-224
417.984	-841
418.060	-1652
418.136	-51
418.212	-18
418.288	18
418.364	281
418.440	-1138
418.516	334
418.592	-350
418.668	198
418.744	-311
418.820	496
418.896	70
418.972	-1104
419.048	-248
419.124	931
419.200	-1525
419.276	327
419.352	-695
419.428	-61
419.504	-1071
419.579	-267
419.655	-375
419.731	343
419.807	44
419.883	-92
419.959	61
420.034	267
420.110	-325
420.186	351
420.262	1202
420.337	-673
420.413	-362
420.489	-439
420.565	357
420.640	-434
420.716	225
420.792	-894
420.867	536
420.943	-426
421.019	623
421.094	-371
421.170	405
421.245	457
421.321	1723
421.397	3213
421.472	28254
421.548	87690
421.623	41621
421.699	4922
421.774	2098
421.850	1603
421.925	1978
422.001	1929
422.076	2884
422.152	3738
422.227	3775
422.302	7031
422.378	10483
422.453	21154
422.529	67919
422.604	289492
422.679	542388
422.755	251088
422.830	56946
422.905	20215
422.981	10131
423.056	6675
423.131	5522
423.207	2746
423.282	2115
423.357	3203
423.432	1595
423.508	2057
423.583	301
423.658	1488
423.733	732
423.808	489
423.883	953
423.959	252
424.034	570
424.109	1252
424.184	503
424.259	346
424.334	273
424.409	-6
424.484	-649
424.559	-128
424.634	-254
424.709	278
424.784	958
424.859	904
424.934	-151
425.009	-158
425.084	1130
425.159	-1305
425.234	101
425.309	-478
425.384	466
425.459	-359
425.534	-264
425.609	-357
425.683	-1052
425.758	-66
425.833	-430
425.908	667
425.983	-584
426.058	2364
426.132	-380
426.207	-170
426.282	-99
426.357	-1232
426.431	-451
426.506	-237
426.581	-748
426.655	-207
426.730	-77
426.805	-175
426.879	414
426.954	-109
427.029	-554
427.103	2041
427.178	3867
427.253	926
427.327	224
427.402	-553
427.476	-348
427.551	14
427.625	69
427.700	183
427.774	-776
427.849	-251
427.923	-680
427.998	-419
428.072	-962
428.147	2739
428.221	17949
428.296	62093
428.370	30471
428.444	2574
428.519	72
428.593	527
428.667	410
428.742	444
428.816	4863
428.890	33767
428.965	50948
429.039	9799
429.113	11
429.188	-429
429.262	-731
429.336	-122
429.410	547
429.485	-133
429.559	584
429.633	186
429.707	164
429.781	3216
429.855	27519
429.930	41170
430.004	8917
430.078	4164
430.152	22742
430.226	113519
430.300	105931
430.374	13759
430.448	2469
430.522	1384
430.596	2645
430.670	8747
430.744	44791
430.818	47674
430.892	6137
430.966	440
431.040	27
431.114	-861
431.188	-1193
431.262	-242
431.336	-862
431.410	459
431.484	-942
431.557	799
431.631	-960
431.705	1414
431.779	14227
431.853	59901
431.927	37586
432.000	3864
432.074	353
432.148	-116
432.222	-1063
432.295	589
432.369	-44
432.443	-502
432.516	2205
432.590	4244
432.664	1018
432.737	-1069
432.811	-888
432.885	-128
432.958	-936
433.032	-1035
433.106	-189
433.179	-200
433.253	-692
433.326	-989
433.400	-829
433.473	-308
433.547	-1385
433.620	-764
433.694	-1019
433.767	79
433.841	-1024
433.914	-1259
433.988	-755
434.061	-386
434.134	-1371
434.208	-1195
434.281	-199
434.355	-1155
434.428	-495
434.501	-813
434.575	-792
434.648	-340
434.721	-1222
434.795	-1437
434.868	-788
434.941	-865
435.014	-1270
435.088	-581
435.161	-889
435.234	-388
435.307	-1084
435.381	-853
435.454	469
435.527	1197
435.600	765
435.673	973
435.746	-459
435.819	-11
435.892	-516
435.966	-537
436.039	-769
436.112	-663
436.185	-784
436.258	-988
436.331	-1498
436.404	-710
436.477	-1477
436.550	-1162
436.623	-884
436.696	-392
436.769	-829
436.842	-897
436.915	-412
436.987	-895
437.060	-1334
437.133	-94
437.206	-763
437.279	-587
437.352	-1023
437.425	-547
437.498	-466
437.570	-883
437.643	-997
437.716	-796
437.789	-1462
437.861	-682
437.934	-1058
438.007	-635
438.080	-904
438.152	-267
438.225	-67
438.298	3464
438.370	9448
438.443	3202
438.516	-331
438.588	-757
438.661	-620
438.734	-177
438.806	-1079
438.879	-138
438.951	-600
439.024	-697
439.096	-702
439.169	-371
439.241	-309
439.314	-763
439.386	-748
439.459	-38
439.531	-713
439.604	-782
439.676	-1
439.749	-202
439.821	-1065
439.893	-623
439.966	-766
440.038	-484
440.110	-642
440.183	-1176
440.255	-1593
440.327	-141
440.400	-61
440.472	3135
440.544	1136
440.617	143
440.689	347
440.761	-580
440.833	-609
440.905	-418
440.978	-1214
441.050	-14
441.122	-355
441.194	-127
441.266	-928
441.338	-1202
441.411	-224
441.483	695
441.555	259
441.627	98
441.699	-996
441.771	-519
441.843	56
441.915	-238
441.987	-640
442.059	-691
442.131	-22
442.203	513
442.275	-43
442.347	1367
442.419	4287
442.491	24394
442.563	56597
442.635	21254
442.706	3132
442.778	960
442.850	-1
442.922	-188
442.994	90
443.066	-116
443.137	36
443.209	433
443.281	2210
443.353	7089
443.425	34213
443.496	121051
443.568	108326
443.640	37690
443.711	6171
443.783	2044
443.855	655
443.926	550
443.998	597
444.070	-276
444.141	-255
444.213	-404
444.285	-189
444.356	-402
444.428	-174
444.499	145
444.571	-675
444.642	-292
444.714	293
444.785	-188
444.857	-103
444.928	-606
445.000	-31
445.071	828
445.143	640
445.214	2160
445.285	4619
445.357	16339
445.428	88446
445.500	200130
445.571	110968
445.642	49726
445.714	13600
445.785	4230
445.856	1244
445.928	808
445.999	245
446.070	-181
446.141	-808
446.213	743
446.284	-933
446.355	262
446.426	-344
446.497	-840
446.569	-886
446.640	-724
446.711	-579
446.782	-798
446.853	202
446.924	170
446.995	-989
447.066	-1358
447.138	-584
447.209	-5
447.280	-1751
447.351	-763
447.422	-1645
447.493	-771
447.564	-760
447.635	-1334
447.706	-1209
447.777	-491
447.847	-1317
447.918	-547
447.989	-874
448.060	-554
448.131	-1155
448.202	-911
448.273	-412
448.344	-189
448.414	-805
448.485	456
448.556	-612
448.627	-411
448.698	237
448.768	-717
448.839	-1058
448.910	-306
448.981	-567
449.051	505
449.122	-980
449.193	-508
449.263	-1217
449.334	-556
449.405	-362
449.475	1047
449.546	174
449.616	892
449.687	871
449.758	688
449.828	25
449.899	-577
449.969	123
450.040	-79
450.110	-98
450.181	687
450.251	-236
450.322	278
450.392	-216
450.463	-186
450.533	-619
450.604	-136
450.674	-645
450.744	740
450.815	-565
450.885	57
450.955	-529
451.026	-709
451.096	-723
451.166	267
451.237	-157
451.307	181
451.377	306
451.447	-1187
451.518	-762
451.588	-385
451.658	-28
451.728	229
451.799	232
451.869	67
451.939	-750
452.009	-577
452.079	-1096
452.149	-145
452.219	-28
452.289	-166
452.360	-1244
452.430	-75
452.500	-436
452.570	-247
452.640	1559
452.710	3763
452.780	3565
452.850	1939
452.920	1072
452.990	291
453.060	440
453.129	-406
453.199	-1370
453.269	664
453.339	583
453.409	508
453.479	52
453.549	1048
453.619	950
453.688	132
453.758	-14
453.828	77
453.898	-934
453.968	-288
454.037	-863
454.087	-775
454.107	-769
454.168	-742
454.177	-773
454.247	-313
454.249	-291
454.316	-607
454.330	-481
454.386	-77
454.411	-203
454.456	-540
454.492	-396
454.525	-322
454.574	432
454.595	704
454.655	387
454.665	317
454.734	54
454.736	91
454.804	338
454.817	316
454.873	107
454.898	222
454.943	308
454.979	137
455.013	-74
455.060	204
455.082	343
455.141	278
455.152	474
455.221	2929
455.222	3080
455.291	12632
455.303	16058
455.360	26214
455.384	35748
455.430	42371
455.465	29919
455.499	20978
455.546	8041
455.569	3005
455.627	1470
455.638	1209
455.707	468
455.708	497
455.777	625
455.789	751
455.846	1069
455.869	842
455.916	276
455.950	302
455.985	389
456.031	571
456.054	591
456.112	409
456.124	346
456.193	486
456.193	461
456.262	692
456.274	861
456.332	1459
456.355	1346
456.401	970
456.436	993
456.470	1009
456.516	539
456.540	303
456.597	744
456.609	811
456.678	1106
456.678	1084
456.747	813
456.759	703
456.817	573
456.840	907
456.886	1038
456.920	924
456.955	1007
457.001	1621
457.024	1756
457.082	1097
457.093	1014
457.162	1534
457.163	1555
457.232	1166
457.243	1239
457.301	1537
457.324	1288
457.370	860
457.405	1558
457.439	2163
457.485	2114
457.508	2093
457.566	2494
457.577	2704
457.646	4088
457.647	4132
457.715	7458
457.727	8115
457.784	13667
457.808	17394
457.853	21371
457.889	23789
457.922	20915
457.969	14675
457.991	16510
458.050	22560
458.060	23905
458.129	37481
458.130	37951
458.198	31837
458.211	29223
458.267	16518
458.292	11042
458.336	8526
458.372	8123
458.405	12068
458.453	18338
458.474	23532
458.533	41002
458.543	42452
458.611	58434
458.614	59037
458.680	32590
458.694	25392
458.749	13694
458.775	9457
458.818	6496
458.855	5075
458.887	4453
458.936	4097
458.955	3816
459.016	3365
459.024	3405
459.093	3630
459.097	3625
459.162	2767
459.177	2835
459.230	3302
459.257	3336
459.299	3539
459.338	3724
459.368	3770
459.418	4248
459.437	4249
459.499	3656
459.505	3604
459.574	3110
459.579	3170
459.643	3772
459.659	3625
459.711	3284
459.740	3525
459.780	3582
459.820	3503
459.849	3723
459.900	3964
459.917	4007
459.981	3938
459.986	3884
460.054	4031
460.061	4040
460.123	4402
460.141	4436
460.191	5032
460.222	5612
460.260	5863
460.302	5965
460.328	6281
460.382	6953
460.397	7326
460.462	9431
460.465	9974
460.534	22331
460.543	24048
460.602	85474
460.623	108117
460.671	172093
460.703	224142
460.739	193587
460.783	144959
460.808	113840
460.864	20070
460.876	15546
460.944	6000
460.945	5911
461.013	5455
461.024	5485
461.081	5252
461.104	5012
461.150	5006
461.184	5151
461.218	5232
461.264	5360
461.286	5335
461.345	5185
461.355	5227
461.423	5526
461.425	5528
461.491	5025
461.505	5051
461.559	5179
461.585	5042
461.628	5277
461.665	5670
461.696	5636
461.745	5621
461.764	5528
461.825	5032
461.832	4959
461.901	4593
461.905	4560
461.969	4705
461.985	4725
462.037	5276
462.065	5569
462.105	5227
462.145	4805
462.173	5152
462.225	6332
462.241	6386
462.305	6003
462.310	5996
462.378	5888
462.385	5896
462.446	6289
462.465	6365
462.514	6477
462.545	6535
462.582	6410
462.625	6527
462.650	6444
462.705	5806
462.718	5955
462.785	6914
462.786	6902
462.854	5951
462.865	5809
462.922	6122
462.945	6238
462.990	6110
463.025	6092
463.058	6298
463.104	6348
463.126	6188
463.184	5851
463.194	5908
463.262	6052
463.264	6066
463.330	6271
463.344	6250
463.398	6587
463.424	6705
463.466	5879
463.504	5464
463.533	5856
463.583	5953
463.601	5753
463.663	5348
463.669	5345
463.737	5206
463.743	5179
463.805	6271
463.823	6679
463.873	7829
463.903	8326
463.940	7773
463.982	7240
464.008	7127
464.062	6682
464.076	6567
464.142	6389
464.144	6416
464.211	6745
464.221	6804
464.279	6959
464.301	6936
464.347	7265
464.381	7670
464.414	7316
464.461	6700
464.482	7115
464.540	8058
464.550	8025
464.617	7749
464.620	7738
464.685	10767
464.699	11314
464.753	13981
464.779	15497
464.820	18498
464.859	21168
464.888	19348
464.938	15970
464.956	15939
465.018	15608
465.023	15593
465.091	15296
465.098	15221
465.158	15187
465.177	15189
465.226	15757
465.257	16132
465.293	16361
465.336	16353
465.361	16298
465.416	16304
465.428	16469
465.495	17197
465.496	17226
465.563	16980
465.575	16957
465.631	18587
465.654	19255
465.698	19221
465.734	19055
465.765	19681
465.813	20569
465.833	20560
465.893	20359
465.900	20477
465.968	21269
465.972	21275
466.035	22735
466.052	23107
466.102	23574
466.131	23719
466.170	23992
466.210	24259
466.237	25468
466.290	27709
466.304	27970
466.369	28832
466.372	28985
466.439	31956
466.449	32299
466.506	33136
466.528	33386
466.573	34375
466.607	34985
466.641	35687
466.687	36538
466.708	37492
466.766	39804
466.775	39885
466.842	39917
466.845	39836
466.909	40377
466.925	40396
466.977	39704
467.004	39225
467.044	39523
467.083	39649
467.111	41096
467.163	43588
467.178	44428
467.242	47451
467.245	47205
467.312	40065
467.321	39034
467.379	36881
467.400	35984
467.446	35201
467.480	34500
467.559	32491
467.638	29978
467.717	29070
467.796	28143
467.875	28137
467.955	26160
468.034	26016
468.113	25749
468.192	27338
468.271	26021
468.350	27993
468.429	30080
468.508	30459
468.588	25196
468.667	21954
468.746	19731
468.825	18573
468.904	18410
468.983	19248
469.062	18131
469.141	19861
469.220	17392
469.299	18248
469.378	20379
469.456	25910
469.535	22423
469.614	21267
469.693	19887
469.772	19941
469.851	19799
469.930	18644
470.009	18474
470.088	19154
470.166	18927
470.245	19156
470.324	17768
470.403	17482
470.482	17907
470.560	18069
470.639	15761
470.718	17765
470.797	15725
470.875	16015
470.954	15377
471.033	16815
471.111	13769
471.190	15946
471.269	13046
471.347	15424
471.426	15564
471.505	17112
471.583	20179
471.662	21093
471.740	16722
471.819	16973
471.898	15528
471.976	17648
472.055	15853
472.133	19317
472.212	21636
472.290	17551
472.369	14850
472.447	14818
472.526	13637
472.604	15898
472.683	14563
472.761	15524
472.839	12963
472.918	14497
472.996	13558
473.075	13483
473.153	13353
473.231	12724
473.310	13952
473.388	14295
473.466	14765
473.545	15268
473.623	17372
473.701	16328
473.780	14753
473.858	14035
473.936	15683
474.014	15310
474.093	16318
474.171	18988
474.249	16869
474.327	13404
474.405	13984
474.484	14881
474.562	13542
474.640	14810
474.718	17373
474.796	21456
474.874	20951
474.952	19286
475.030	19856
475.108	21614
475.187	28752
475.265	27208
475.343	24576
475.421	21739
475.499	17392
475.577	16637
475.655	14864
475.733	15015
475.811	14678
475.889	14331
475.966	13242
476.044	13456
476.122	11717
476.200	13782
476.278	11785
476.356	10540
476.434	10999
476.512	11432
476.590	11224
476.667	12397
476.745	9089
476.823	11397
476.901	9599
476.979	10492
477.056	10021
477.134	11395
477.212	11041
477.290	10601
477.367	9076
477.445	10189
477.523	9070
477.601	9669
477.678	9686
477.756	10484
477.834	9441
477.911	9766
477.989	9626
478.066	10067
478.144	8886
478.222	10229
478.299	11765
478.377	14404
478.454	12218
478.532	8695
478.609	9285
478.687	9579
478.764	8835
478.842	9884
478.919	8260
478.997	9372
479.074	7662
479.152	9328
479.229	9126
479.307	8829
479.384	7982
479.461	9548
479.539	7705
479.616	9202
479.694	7587
479.771	8144
479.848	7859
479.926	7585
480.003	8693
480.080	8768
480.157	7834
480.235	7648
480.312	7658
480.389	8039
480.467	7769
480.544	8965
480.621	7830
480.698	8515
480.775	8575
480.853	7768
480.930	7989
481.007	10053
481.084	14157
481.161	25028
481.238	14983
481.315	8558
481.392	8244
481.470	7465
481.547	6552
481.624	7958
481.701	7984
481.778	7889
481.855	8260
481.932	8227
482.009	8083
482.086	8733
482.163	9384
482.240	11019
482.317	11900
482.393	11038
482.470	7599
482.547	7940
482.624	7299
482.701	7858
482.778	7162
482.855	7451
482.932	8245
483.009	8443
483.085	12181
483.162	18312
483.239	16273
483.316	9488
483.393	10932
483.469	9289
483.546	8395
483.623	8531
483.699	7711
483.776	8299
483.853	9082
483.930	9460
484.006	11772
484.083	18042
484.160	40881
484.236	78282
484.313	56924
484.389	42925
484.466	37151
484.543	35894
484.619	36434
484.696	37641
484.772	34501
484.849	33903
484.925	33131
485.002	32517
485.078	30669
485.155	31928
485.231	30434
485.308	29777
485.384	30085
485.461	31414
485.537	30222
485.614	30843
485.690	29354
485.766	28702
485.843	27704
485.919	29874
485.995	27611
486.072	27720
486.148	27060
486.224	27222
486.301	26976
486.377	26606
486.453	27244
486.530	30759
486.606	42757
486.682	46860
486.758	38657
486.835	37425
486.911	35482
486.987	35124
487.063	34402
487.139	41370
487.215	45020
487.292	37458
487.368	33355
487.444	35740
487.520	42298
487.596	53022
487.672	72850
487.748	163430
487.824	243065
487.900	98591
487.976	43399
488.052	33274
488.128	31285
488.204	27095
488.280	26616
488.356	27352
488.432	26069
488.508	27452
488.584	24277
488.660	23499
488.736	23974
488.812	24018
488.888	27937
488.964	29910
489.039	29816
489.115	35256
489.191	30433
489.267	25221
489.343	22533
489.418	22346
489.494	23358
489.570	20419
489.646	22470
489.722	20641
489.797	21793
489.873	21970
489.949	24821
490.024	25365
490.100	20549
490.176	21030
490.251	19146
490.327	21112
490.403	17805
490.478	20929
490.554	16465
490.629	20094
490.705	16701
490.781	19297
490.856	17010
490.932	19627
491.007	17928
491.083	19393
491.158	16912
491.234	19928
491.309	18683
491.385	18503
491.460	16875
491.536	19126
491.611	17277
491.686	17344
491.762	17904
491.837	19271
491.913	22714
491.988	22895
492.063	27942
492.139	16145
492.214	16350
492.289	15365
492.365	13487
492.440	15512
492.515	12371
492.590	15102
492.666	12426
492.741	15983
492.816	14120
492.891	14446
492.967	16849
493.042	15207
493.117	20570
493.192	23955
493.267	44207
493.342	166875
493.418	231235
493.493	35654
493.568	13725
493.643	13903
493.718	12800
493.793	12331
493.868	13916
493.943	11361
494.018	12773
494.093	12092
494.168	12237
494.243	12725
494.318	10853
494.393	12696
494.468	10939
494.543	12142
494.618	10869
494.693	11705
494.768	10633
494.842	12900
494.917	11001
494.992	12853
495.067	11493
495.142	11259
495.217	12517
495.292	11326
495.366	12471
495.441	12684
495.516	13564
495.591	15281
495.665	21717
495.740	34282
495.815	22349
495.890	14850
495.964	12128
496.039	18463
496.114	19377
496.188	31017
496.263	26908
496.338	16302
496.412	17036
496.487	19365
496.561	18483
496.636	21998
496.710	22492
496.785	24500
496.860	24281
496.934	25263
497.009	25883
497.083	28923
497.158	29633
497.232	33152
497.307	37248
497.381	42928
497.455	46239
497.530	50955
497.604	54083
497.679	59030
497.753	72908
497.827	92361
497.902	105538
497.976	105957
498.050	103358
498.125	116135
498.199	126418
498.273	136128
498.348	136866
498.422	122105
498.496	104344
498.570	90111
498.645	77470
498.719	68204
498.793	60645
498.867	52905
498.941	47728
499.016	47057
499.090	52654
499.164	40853
499.238	31414
499.312	29277
499.386	27674
499.460	26176
499.534	21687
499.609	22117
499.683	19766
499.757	19089
499.831	20172
499.905	28280
499.979	23316
500.053	15665
500.127	15843
500.201	14167
500.275	13504
500.349	14176
500.422	12737
500.496	13889
500.570	15421
500.644	18718
500.718	20572
500.792	13259
500.866	12112
500.940	11391
501.013	10456
501.087	9622
501.161	10207
501.235	8695
501.309	11969
501.382	16496
501.456	15948
501.530	8394
501.603	9166
501.677	9403
501.751	6378
501.825	9503
501.898	8210
501.972	10549
502.046	8361
502.119	7075
502.193	8340
502.266	10313
502.340	7368
502.413	8138
502.487	9893
502.561	6937
502.634	6834
502.708	8924
502.781	6489
502.855	6595
502.928	5572
503.002	6043
503.075	5374
503.149	6175
503.222	5915
503.295	6291
503.369	6431
503.442	6343
503.516	9254
503.589	12161
503.662	9687
503.736	9295
503.809	12510
503.882	13004
503.956	17648
504.029	29358
504.102	69757
504.175	104707
504.249	42155
504.322	18631
504.395	12235
504.468	9337
504.542	5917
504.615	6508
504.688	6610
504.761	4461
504.834	6623
504.907	6919
504.980	6595
505.053	6418
505.127	3782
505.200	8610
505.273	5167
505.346	5619
505.419	3748
505.492	6249
505.565	5652
505.638	8726
505.711	5796
505.784	6003
505.857	3632
505.930	6110
506.003	2899
506.076	6576
506.149	3947
506.221	2667
506.294	4558
506.367	4406
506.440	7722
506.513	6249
506.586	4487
506.659	4627
506.731	4176
506.804	4533
506.877	4098
506.950	5235
507.022	4333
507.095	3408
507.168	4328
507.241	5206
507.313	3126
507.386	3759
507.459	4803
507.531	4180
507.604	3589
507.677	5594
507.749	3030
507.822	7496
507.894	15419
507.967	24319
508.040	14262
508.112	13027
508.185	10626
508.257	8823
508.330	11204
508.402	9852
508.475	9026
508.547	8935
508.620	8743
508.692	9078
508.765	9642
508.837	8537
508.909	8491
508.982	7417
509.054	9074
509.127	8130
509.199	6695
509.271	6699
509.344	7971
509.416	9103
509.488	6936
509.560	8895
509.633	7245
509.705	7846
509.777	7892
509.849	9021
509.922	7188
509.994	8840
510.066	9070
510.138	11179
510.210	27198
510.283	22728
510.355	17318
510.427	15664
510.499	13796
510.571	14281
510.643	11754
510.715	14951
510.787	10833
510.859	13673
510.931	11350
511.003	13024
511.076	11990
511.148	11424
511.219	10485
511.291	12378
511.363	12032
511.435	12006
511.507	9803
511.579	12066
511.651	11126
511.723	9539
511.795	10007
511.867	9604
511.939	10094
512.010	9718
512.082	9701
512.154	9859
512.226	10577
512.298	18931
512.369	24733
512.441	20631
512.513	15874
512.585	14071
512.656	13632
512.728	13404
512.800	13514
512.871	13798
512.943	13241
513.015	11421
513.086	12226
513.158	13206
513.230	11187
513.301	11720
513.373	13594
513.444	11958
513.516	10780
513.588	12251
513.659	11814
513.731	12145
513.802	8556
513.874	14326
513.945	13081
514.016	10732
514.088	10602
514.159	11728
514.231	13462
514.302	22962
514.374	18950
514.445	15770
514.516	17192
514.588	14527
514.659	14947
514.730	17919
514.802	22627
514.873	36388
514.944	41203
515.016	29277
515.087	21897
515.158	22749
515.229	28917
515.301	47341
515.372	71976
515.443	47474
515.514	29649
515.585	21188
515.656	19213
515.728	15927
515.799	12645
515.870	12836
515.941	12345
516.012	12968
516.083	18039
516.154	16831
516.225	14810
516.296	15217
516.367	12609
516.438	11529
516.509	11527
516.580	13436
516.651	17458
516.722	35770
516.793	22417
516.864	12658
516.935	12104
517.006	13247
517.077	12337
517.148	18174
517.219	38770
517.289	54068
517.360	16644
517.431	11629
517.502	9487
517.573	11423
517.643	10720
517.714	13784
517.785	13809
517.856	12110
517.926	12843
517.997	13273
518.068	12291
518.138	14897
518.209	14600
518.280	31951
518.350	92048
518.421	38424
518.492	17383
518.562	18478
518.633	21232
518.703	28066
518.774	56082
518.845	131273
518.915	122045
518.986	39489
519.056	21510
519.127	20493
519.197	18844
519.268	17689
519.338	12583
519.408	10936
519.479	10496
519.549	9340
519.620	9522
519.690	9042
519.760	8102
519.831	7488
519.901	7814
519.971	8422
520.042	7311
520.112	7432
520.182	8949
520.253	9481
520.323	7263
520.393	7551
520.463	11450
520.534	6245
520.604	10816
520.674	9168
520.744	6564
520.814	8467
520.885	9509
520.955	7354
521.025	11034
521.095	8429
521.165	8379
521.235	6774
521.305	5203
521.375	7368
521.445	6811
521.515	6820
521.585	7756
521.655	5242
521.725	7688
521.795	9572
521.865	5544
521.935	9300
522.005	6134
522.075	6532
522.145	7818
522.215	7288
522.285	5954
522.355	6933
522.424	7914
522.494	8006
522.564	7700
522.634	9684
522.704	14548
522.774	8732
522.843	6879
522.913	7303
522.983	6956
523.053	5987
523.122	6377
523.192	5283
523.262	9025
523.331	8882
523.401	6199
523.471	4998
523.540	5875
523.610	4804
523.680	5639
523.749	6938
523.819	7875
523.888	7549
523.958	5565
524.027	5712
524.097	5212
524.166	5338
524.236	4387
524.305	6918
524.375	4712
524.444	3919
524.514	6523
524.583	4446
524.653	4547
524.722	6785
524.791	4241
524.861	6981
524.930	5137
524.999	5279
525.069	5446
525.138	5617
525.207	4170
525.277	5785
525.346	5652
525.415	6256
525.484	7064
525.554	7467
525.623	10218
525.692	15215
525.761	11900
525.830	15280
525.900	19503
525.969	27550
526.038	46606
526.107	96194
526.176	291043
526.245	229592
526.314	67676
526.383	143624
526.452	195581
526.522	346518
526.591	314040
526.660	51016
526.729	35062
526.797	40115
526.867	52380
526.935	165388
527.004	686222
527.073	399647
527.142	39461
527.211	16779
527.280	11888
527.349	8982
527.418	6219
527.487	8110
527.555	4689
527.624	4901
527.693	3576
527.762	5502
527.831	3447
527.899	5031
527.968	3404
528.037	3268
528.106	4859
528.174	5867
528.243	4401
528.312	5681
528.380	4493
528.449	3602
528.518	4472
528.586	2711
528.655	3144
528.723	3449
528.792	2476
528.861	2345
528.929	1391
528.998	4162
529.066	2810
529.135	3076
529.203	2013
529.272	1751
529.340	3377
529.409	4541
529.477	1327
529.545	2685
529.614	4631
529.682	1203
529.751	2648
529.819	5618
529.887	2653
529.956	2091
530.024	3164
530.092	2056
530.161	3049
530.229	3403
530.297	2806
530.365	3437
530.434	3263
530.502	3392
530.570	3070
530.638	2007
530.707	3152
530.775	3667
530.843	2110
530.911	3512
530.979	2525
531.047	3124
531.115	3067
531.183	3122
531.252	2910
531.320	2779
531.388	1841
531.456	4097
531.524	515
531.592	3227
531.660	4305
531.728	1245
531.796	1701
531.864	3898
531.932	2165
532.000	2550
532.067	2726
532.135	3236
532.203	3661
532.271	2379
532.339	4524
532.407	7198
532.475	5047
532.542	4226
532.610	3716
532.678	3091
532.746	10267
532.814	18766
532.881	6046
532.949	4419
533.017	3631
533.084	3566
533.152	3071
533.220	2914
533.287	2477
533.355	3499
533.423	2843
533.490	3165
533.558	3019
533.625	3741
533.693	4686
533.761	4089
533.828	4031
533.896	3481
533.963	5503
534.031	6390
534.098	6655
534.166	4954
534.233	4492
534.300	6882
534.368	5298
534.435	5536
534.503	6020
534.570	8966
534.637	7823
534.705	11841
534.772	12998
534.840	25504
534.907	131790
534.974	157724
535.041	16805
535.109	7680
535.176	4224
535.243	4454
535.310	4117
535.378	3557
535.445	4269
535.512	3745
535.579	4079
535.646	3961
535.714	4963
535.781	7839
535.848	6083
535.915	7664
535.982	4693
536.049	4794
536.116	6356
536.183	4275
536.250	4431
536.317	4611
536.384	4690
536.451	4998
536.518	4726
536.585	3002
536.652	6145
536.719	5991
536.786	2562
536.853	4597
536.920	4884
536.987	6656
537.053	3845
537.120	12152
537.187	9719
537.254	4226
537.321	4291
537.388	5033
537.454	3193
537.521	4741
537.588	3713
537.654	7754
537.721	7978
537.788	7945
537.855	4790
537.921	6667
537.988	4206
538.055	6576
538.121	3282
538.188	4873
538.254	4813
538.321	6572
538.388	5602
538.454	5208
538.521	5297
538.587	4208
538.654	4238
538.720	4975
538.787	3784
538.853	4350
538.920	3614
538.986	4146
539.053	4109
539.119	4645
539.185	4782
539.252	4890
539.318	4661
539.385	7359
539.451	7376
539.517	6838
539.583	7142
539.650	7015
539.716	9638
539.782	5852
539.849	5438
539.915	5783
539.981	4942
540.047	6126
540.114	3721
540.180	6934
540.246	4367
540.312	5262
540.378	6156
540.444	7104
540.510	5606
540.576	11261
540.643	5079
540.709	4369
540.775	5185
540.841	4597
540.907	6145
540.973	8529
541.039	6740
541.105	7679
541.171	5447
541.237	5264
541.303	6320
541.369	8127
541.435	5715
541.500	6830
541.566	4037
541.632	5510
541.698	4070
541.764	5581
541.830	4481
541.896	3845
541.961	5825
542.027	4919
542.093	5008
542.159	6475
542.224	5005
542.290	9066
542.356	7169
542.421	8366
542.487	6860
542.553	5940
542.618	5525
542.684	4674
542.750	4660
542.815	5088
542.881	4828
542.947	9036
543.012	7345
543.078	5007
543.143	3669
543.209	6070
543.274	4102
543.340	5725
543.405	6649
543.471	7456
543.536	5746
543.602	5300
543.667	4025
543.732	6764
543.798	4251
543.863	6929
543.928	4163
543.994	5259
544.059	4430
544.124	5392
544.190	4545
544.255	6073
544.320	4857
544.386	5020
544.451	5788
544.516	5783
544.581	5934
544.646	9471
544.712	11264
544.777	7006
544.842	5378
544.907	5438
544.972	4868
545.037	6763
545.102	7136
545.168	5672
545.233	6484
545.298	7054
545.363	6866
545.428	7652
545.493	8056
545.558	8059
545.623	6755
545.688	6703
545.753	6656
545.818	6343
545.883	7272
545.947	6458
546.012	6429
546.077	6307
546.142	8114
546.207	7158
546.272	7318
546.337	8230
546.401	8265
546.466	9697
546.531	7563
546.596	9290
546.661	8714
546.725	9474
546.790	8177
546.855	9460
546.919	9037
546.984	10211
547.049	11558
547.113	12147
547.178	11628
547.243	15288
547.307	16048
547.372	16620
547.436	17089
547.501	17287
547.565	19239
547.630	18533
547.695	17326
547.759	18536
547.823	17808
547.888	18447
547.952	19240
548.017	21715
548.081	28760
548.146	22121
548.210	19660
548.274	21142
548.339	19636
548.403	20160
548.468	16483
548.532	18034
548.596	19182
548.660	18298
548.725	19502
548.789	20518
548.853	20780
548.917	19545
548.982	18898
549.046	18352
549.110	15808
549.174	16597
549.238	18174
549.303	20913
549.367	22141
549.431	20665
549.495	18630
549.559	18747
549.623	21356
549.687	24162
549.751	22466
549.815	27856
549.879	27126
549.943	25052
550.007	27113
550.071	26373
550.135	24379
550.199	22592
550.263	22775
550.327	22467
550.391	25415
550.455	28406
550.519	25628
550.582	28125
550.646	30261
550.710	31891
550.774	31571
550.838	31525
550.901	32940
550.965	36322
551.029	38788
551.093	43174
551.156	49110
551.220	61624
551.284	72909
551.347	50588
551.411	37212
551.475	34891
551.538	35020
551.602	31323
551.666	28261
551.729	26574
551.793	26282
551.856	26417
551.920	25996
551.983	25904
552.047	24004
552.110	26173
552.174	27571
552.237	26532
552.301	23070
552.364	22607
552.428	21876
552.491	22682
552.554	23681
552.618	23362
552.681	23976
552.745	22606
552.808	24077
552.871	25898
552.934	25021
552.998	24087
553.061	23445
553.124	24040
553.187	23542
553.251	25216
553.314	24541
553.377	26670
553.440	33722
553.503	68159
553.567	90498
553.630	29860
553.693	23614
553.756	23738
553.819	22173
553.882	21230
553.945	22403
554.008	23004
554.071	21767
554.134	22551
554.197	20420
554.260	20332
554.323	21354
554.386	20920
554.449	20410
554.512	22563
554.575	19852
554.638	20491
554.701	19596
554.764	20302
554.827	18923
554.889	18612
554.952	15423
555.015	16706
555.078	16782
555.141	18360
555.203	16104
555.266	18434
555.329	17222
555.391	16801
555.454	15900
555.517	16726
555.580	15111
555.642	15075
555.705	14350
555.768	16558
555.830	14373
555.893	13811
555.955	13215
556.018	13445
556.080	13872
556.143	13832
556.206	13147
556.268	12432
556.330	12894
556.393	12437
556.455	12241
556.518	12525
556.580	10867
556.643	12168
556.705	11083
556.767	9649
556.830	10893
556.892	11402
556.955	10547
557.017	10887
557.079	9601
557.142	10789
557.204	9963
557.266	13387
557.328	9726
557.391	9078
557.453	8390
557.515	10153
557.577	9981
557.639	9988
557.701	10349
557.764	10584
557.826	11866
557.888	14687
557.950	14645
558.012	17961
558.074	25473
558.136	70466
558.198	175650
558.260	52109
558.322	19793
558.384	22712
558.446	26738
558.508	34098
558.570	42395
558.632	53820
558.694	69316
558.756	120999
558.818	425762
558.880	1022015
558.942	266592
559.003	198138
559.065	86443
559.127	38671
559.189	38103
559.251	42914
559.312	64514
559.374	175929
559.436	614497
559.498	256019
559.559	43886
559.621	37026
559.683	42802
559.744	72100
559.806	266350
559.868	374205
559.929	57830
559.991	34498
560.052	55829
560.114	170606
560.176	95701
560.237	94819
560.299	146418
560.360	26102
560.422	9963
560.483	8733
560.545	6236
560.606	6473
560.667	4344
560.729	5184
560.790	5310
560.852	4817
560.913	4618
560.974	5355
561.036	4192
561.097	5092
561.158	4135
561.220	6087
561.281	3591
561.342	4696
561.403	5293
561.465	4874
561.526	5968
561.587	7344
561.648	4199
561.709	4329
561.771	3975
561.832	3233
561.893	4183
561.954	3548
562.015	3530
562.076	4486
562.137	4104
562.198	3973
562.259	3847
562.320	4559
562.381	3006
562.442	4460
562.503	4035
562.564	4645
562.625	3334
562.686	3987
562.747	2765
562.808	4291
562.869	3311
562.930	4139
562.991	2580
563.051	3491
563.112	4056
563.173	4230
563.234	3345
563.294	4655
563.355	3134
563.416	5141
563.477	3473
563.537	3819
563.598	3970
563.659	4779
563.720	3910
563.780	3651
563.841	3307
563.901	5329
563.962	3119
564.023	4580
564.083	4495
564.144	4473
564.204	4219
564.265	3984
564.325	4326
564.386	5980
564.446	4998
564.507	4968
564.567	5351
564.628	5101
564.688	4617
564.749	4482
564.809	5107
564.869	5671
564.930	5062
564.990	6452
565.050	5356
565.111	6147
565.171	5529
565.231	7677
565.292	7117
565.352	6669
565.412	7221
565.472	7290
565.532	7632
565.593	8139
565.653	8426
565.713	8743
565.773	7893
565.833	8468
565.893	10712
565.953	10571
566.013	10136
566.074	11485
566.134	11805
566.194	12802
566.254	13399
566.314	14823
566.374	15466
566.434	16347
566.494	17722
566.554	19971
566.614	20445
566.673	21710
566.733	23475
566.793	25165
566.853	27610
566.913	28860
566.973	29151
567.033	28895
567.092	26423
567.152	28354
567.212	28670
567.272	30956
567.331	33639
567.391	36903
567.451	38579
567.511	40436
567.570	37597
567.630	35130
567.690	33991
567.749	35696
567.809	41052
567.868	46545
567.928	55923
567.988	68408
568.047	84323
568.107	108688
568.166	152125
568.226	243097
568.285	339485
568.345	301529
568.404	243636
568.464	212001
568.523	194552
568.582	196461
568.642	214496
568.701	265971
568.761	381290
568.820	578835
568.879	580395
568.939	432087
568.998	327160
569.057	254075
569.116	198411
569.176	161718
569.235	130662
569.294	109570
569.353	91609
569.413	80475
569.472	67868
569.531	59140
569.590	52606
569.649	47646
569.708	41434
569.767	38410
569.827	33614
569.886	31373
569.945	27458
570.004	27435
570.063	24532
570.122	23901
570.181	21107
570.240	20465
570.299	17942
570.358	16810
570.417	16023
570.475	16344
570.534	15038
570.593	14995
570.652	13898
570.711	12861
570.770	12879
570.829	16307
570.887	13252
570.946	13046
571.005	10249
571.064	10154
571.122	9985
571.181	9179
571.240	8423
571.299	8675
571.357	7950
571.416	8177
571.475	8081
571.533	7793
571.592	7208
571.650	7909
571.709	6869
571.768	7850
571.826	7847
571.885	7598
571.943	5641
572.002	5801
572.060	6141
572.119	6347
572.177	5386
572.236	6291
572.294	5175
572.352	6372
572.411	5310
572.469	5504
572.528	4930
572.586	5290
572.644	5146
572.703	4964
572.761	4115
572.819	4839
572.877	3618
572.936	4780
572.994	4421
573.052	4068
573.110	4621
573.169	4995
573.227	4534
573.285	4960
573.343	5132
573.401	3806
573.459	4664
573.517	4780
573.576	3621
573.634	5082
573.692	4548
573.750	4777
573.808	3361
573.866	5134
573.924	3587
573.982	4088
574.040	4350
574.098	5085
574.155	3921
574.213	4207
574.271	4643
574.329	5092
574.387	3580
574.445	4024
574.503	3593
574.560	4505
574.618	3822
574.676	3526
574.734	4149
574.792	4898
574.849	3138
574.907	3756
574.965	2263
575.022	3278
575.080	2002
575.138	3980
575.195	3537
575.253	4233
575.311	3371
575.368	3950
575.426	3460
575.483	4577
575.541	4497
575.598	4321
575.656	3240
575.713	3831
575.771	3794
575.828	3713
575.886	3789
575.943	4407
576.001	2389
576.058	2904
576.115	2547
576.173	4363
576.230	1964
576.287	4120
576.345	4257
576.402	4237
576.459	3786
576.517	4051
576.574	3718
576.631	3439
576.688	3298
576.746	3190
576.803	3044
576.860	3783
576.917	3606
576.974	3396
577.031	3458
577.089	3825
577.146	3095
577.203	4593
577.260	5085
577.317	3931
577.374	2977
577.431	3882
577.488	3357
577.545	3701
577.602	4809
577.659	4509
577.716	4481
577.773	5296
577.830	3106
577.886	4823
577.943	3982
578.000	4884
578.057	3884
578.114	4747
578.171	4567
578.227	5218
578.284	4942
578.341	5047
578.398	4100
578.454	4483
578.511	3061
578.568	4158
578.625	3011
578.681	4745
578.738	4525
578.794	4488
578.851	2784
578.908	4064
578.964	3773
579.021	4213
579.077	3850
579.134	4722
579.190	3493
579.247	4650
579.303	4250
579.360	4163
579.416	5098
579.473	4386
579.529	3598
579.586	5342
579.642	4645
579.698	4665
579.755	4487
579.811	5526
579.867	4565
579.924	5566
579.980	4994
580.036	6203
580.093	6060
580.149	7245
580.205	7490
580.261	6975
580.317	5457
580.374	5873
580.430	6763
580.486	6864
580.542	3675
580.598	5400
580.619	5413
580.654	5442
580.692	5045
580.710	4853
580.765	5274
580.767	5292
580.823	5435
580.838	5026
580.879	3951
580.911	4356
580.935	4668
580.984	4499
580.991	4479
581.047	5634
581.057	5472
581.103	4753
581.130	5171
581.159	5611
581.203	5324
581.215	5258
581.270	5926
581.276	5847
581.326	5118
581.349	5568
581.382	6229
581.422	4755
581.438	4133
581.494	4873
581.494	4862
581.550	4206
581.567	4676
581.606	5594
581.640	5191
581.661	4960
581.713	5811
581.717	5884
581.773	4509
581.786	4658
581.829	5137
581.859	5064
581.885	5014
581.932	5620
581.940	5737
581.996	6339
582.004	6318
582.052	6083
582.077	5865
582.107	5717
582.150	6691
582.163	6947
582.219	5631
582.223	5734
582.274	7143
582.296	6544
582.330	5583
582.368	5975
582.386	6181
582.441	6512
582.441	6513
582.497	7101
582.514	7090
582.552	7312
582.587	7691
582.608	7805
582.659	6792
582.663	6730
582.719	6645
582.732	6567
582.774	6213
582.805	6320
582.830	6502
582.877	7240
582.885	7326
582.941	7400
582.950	7298
582.996	6843
583.023	6876
583.052	7091
583.095	7746
583.107	7872
583.162	9031
583.168	8996
583.218	8504
583.240	8406
583.273	8443
583.313	8153
583.328	8005
583.384	7812
583.385	7818
583.439	7931
583.458	8051
583.494	8161
583.531	8523
583.549	8923
583.603	8559
583.605	8529
583.660	8495
583.676	8631
583.715	9025
583.748	8889
583.770	8878
583.820	9428
583.825	9490
583.881	8829
583.893	8969
583.936	9305
583.965	9138
583.991	8921
584.038	9050
584.046	9100
584.101	10097
584.110	10108
584.156	10073
584.183	9480
584.211	8888
584.255	10268
584.266	10687
584.321	10224
584.328	10324
584.376	10646
584.400	10690
584.431	10716
584.472	10700
584.486	10791
584.541	11085
584.545	11123
584.596	11647
584.617	11656
584.651	11752
584.689	12177
584.706	12281
584.761	12281
584.762	12288
584.816	13045
584.834	13208
584.871	13407
584.906	13563
584.926	13738
584.978	13572
584.980	13563
585.035	15004
585.051	15141
585.090	15358
585.123	16152
585.145	16787
585.195	17781
585.200	17892
585.254	19921
585.267	20783
585.309	23799
585.340	26028
585.364	27422
585.412	26804
585.419	26712
585.473	29227
585.484	29822
585.528	33374
585.556	38718
585.583	46751
585.628	68788
585.637	75478
585.692	145522
585.700	158067
585.747	212964
585.772	176234
585.801	113478
585.845	52244
585.856	42378
585.910	30418
585.917	29361
585.965	25942
585.989	24678
586.019	23769
586.061	23502
586.074	23414
586.128	24034
586.133	23957
586.183	23407
586.205	23771
586.237	24107
586.277	24541
586.292	24781
586.346	25947
586.349	25961
586.401	25946
586.421	26426
586.455	27176
586.493	27622
586.509	27914
586.564	28530
586.565	28582
586.618	30820
586.637	31540
586.672	32674
586.709	33634
586.727	34027
586.781	35798
586.781	35789
586.835	35096
586.853	35451
586.889	36621
586.925	37373
586.944	37799
586.996	40100
586.998	40146
587.052	41561
587.068	41995
587.106	42800
587.140	43924
587.161	44999
587.212	48333
587.215	48450
587.269	49775
587.284	50607
587.323	53481
587.356	55380
587.377	56285
587.427	59426
587.431	59741
587.485	64549
587.499	65651
587.539	67534
587.571	69778
587.593	72190
587.643	77946
587.648	78457
587.702	84827
587.715	86612
587.755	92436
587.786	96261
587.810	99152
587.858	107941
587.864	109070
587.917	120749
587.930	123447
587.971	133505
588.001	142240
588.025	149468
588.073	164703
588.079	166876
588.133	189358
588.145	194839
588.187	215941
588.217	232542
588.241	247833
588.288	281581
588.295	286394
588.348	331517
588.360	342723
588.402	389775
588.431	424940
588.456	458096
588.503	529270
588.510	541031
588.564	649182
588.575	675061
588.617	794384
588.646	888643
588.671	993250
588.718	1217700
588.725	1261845
588.778	1648876
588.789	1735615
588.832	2174136
588.861	2461172
588.886	2659717
588.932	2891214
588.939	2881646
588.993	2752335
589.004	2763268
589.047	2718846
589.075	2570534
589.100	2316816
589.147	1780217
589.154	1725406
589.207	1367399
589.218	1306504
589.261	1202717
589.290	1156879
589.314	1176387
589.361	1255159
589.368	1287702
589.421	1613414
589.433	1693577
589.475	2147416
589.504	2448575
589.528	2583305
589.576	2709478
589.582	2674142
589.635	2414629
589.647	2320195
589.689	1774789
589.718	1384856
589.742	1171457
589.790	805786
589.795	780428
589.849	581980
589.861	540228
589.902	452689
589.932	394316
589.955	363156
590.004	304676
590.009	300035
590.062	255229
590.075	245142
590.115	221543
590.146	203984
590.168	193789
590.218	173226
590.222	171694
590.275	153798
590.289	149333
590.328	138800
590.360	130767
590.381	126304
590.431	115964
590.435	115310
590.488	105646
590.503	103195
590.541	98318
590.574	93966
590.594	91392
590.645	85454
590.647	85226
590.700	79588
590.716	78086
590.753	74771
590.787	71769
590.806	70214
590.859	66057
590.859	65997
590.912	62984
590.930	62105
590.965	60279
591.001	58335
591.018	57289
591.071	54446
591.072	54418
591.124	51884
591.143	51082
591.177	50145
591.214	49038
591.230	48319
591.283	46109
591.285	46009
591.336	44283
591.356	43714
591.389	43075
591.427	42136
591.442	41587
591.495	39566
591.498	39412
591.547	38847
591.569	38626
591.600	37624
591.640	36166
591.653	35849
591.706	34645
591.711	34503
591.759	34141
591.782	33953
591.811	33326
591.853	32331
591.864	32169
591.917	31406
591.924	31288
591.969	30820
591.995	30522
592.022	30251
592.066	29764
592.075	29537
592.127	28179
592.137	27896
592.180	27361
592.208	27089
592.233	27064
592.279	26888
592.285	26850
592.338	26526
592.350	26437
592.390	25948
592.421	25575
592.443	25887
592.491	26527
592.495	26431
592.548	24897
592.562	24464
592.600	24018
592.633	23624
592.653	23369
592.704	22570
592.705	22696
592.775	22591
592.846	23087
592.916	22455
592.987	21929
593.058	22383
593.128	20545
593.199	21158
593.270	20041
593.341	20700
593.411	19798
593.482	20548
593.553	19990
593.623	19763
593.694	19140
593.764	19321
593.835	18665
593.906	19033
593.976	17598
594.047	17293
594.117	19256
594.188	18356
594.258	18518
594.329	18029
594.399	16953
594.470	18677
594.540	18037
594.611	17784
594.681	17819
594.751	19181
594.822	19815
594.892	20473
594.963	18927
595.033	18917
595.103	17999
595.174	18715
595.244	17693
595.314	17709
595.384	17429
595.455	17693
595.525	17536
595.595	18154
595.665	18438
595.736	18116
595.806	18188
595.876	17733
595.946	18094
596.016	18161
596.087	16913
596.157	17557
596.227	17857
596.297	17496
596.367	19026
596.437	19368
596.507	19067
596.577	20102
596.647	19891
596.717	20490
596.787	19861
596.857	21056
596.927	20015
596.997	20370
597.067	21270
597.137	21777
597.207	20948
597.277	21258
597.347	19913
597.417	19723
597.487	20027
597.557	20345
597.626	20001
597.696	20369
597.766	20059
597.836	19611
597.906	18430
597.975	19309
598.045	17832
598.115	19486
598.185	19058
598.254	21649
598.324	22310
598.394	22677
598.464	22964
598.533	22473
598.603	21459
598.672	20462
598.742	20275
598.812	21238
598.881	20427
598.951	21175
599.020	20368
599.090	22640
599.159	21665
599.229	21124
599.299	20017
599.368	20762
599.437	21864
599.507	18914
599.576	18878
599.646	19282
599.715	18612
599.785	18609
599.854	17399
599.924	17671
599.993	17698
600.062	18151
600.132	17507
600.201	18934
600.270	21163
600.340	22781
600.409	21840
600.478	22070
600.547	22253
600.617	20369
600.686	16261
600.755	15480
600.824	14420
600.894	15395
600.963	14891
601.032	14891
601.101	14209
601.170	14656
601.239	13647
601.308	12841
601.378	13824
601.447	13885
601.516	12180
601.585	13948
601.654	12171
601.723	13280
601.792	13419
601.861	14258
601.930	14857
601.999	15107
602.068	13745
602.137	15121
602.206	14120
602.275	14655
602.343	14516
602.412	14764
602.481	14102
602.550	15209
602.619	15925
602.688	15631
602.756	14829
602.825	14886
602.894	15225
602.963	15480
603.032	15720
603.100	15304
603.169	16405
603.238	16050
603.307	16504
603.375	16745
603.444	16634
603.513	17964
603.581	16554
603.650	16652
603.719	16254
603.787	16508
603.856	18190
603.924	18424
603.993	19108
604.061	19919
604.130	19836
604.198	20173
604.267	21399
604.335	21285
604.404	20909
604.472	22563
604.541	22475
604.609	22391
604.678	22910
604.746	22456
604.815	23275
604.883	22760
604.951	23509
605.020	24040
605.088	23254
605.156	24320
605.225	25815
605.293	24432
605.361	25039
605.429	25616
605.498	25865
605.566	25939
605.634	28313
605.702	28137
605.771	29139
605.839	29471
605.907	28367
605.975	27396
606.043	27679
606.111	27478
606.180	26468
606.248	27763
606.316	27795
606.384	25804
606.452	27020
606.520	27535
606.588	28115
606.656	28555
606.724	27536
606.792	27728
606.860	23504
606.928	22803
606.996	21054
607.064	20700
607.132	20868
607.200	22008
607.267	23005
607.335	22982
607.403	23801
607.471	22427
607.539	22419
607.607	23391
607.674	19723
607.742	20516
607.810	18956
607.878	19338
607.946	20150
608.013	20510
608.081	21724
608.149	22127
608.216	22256
608.284	23893
608.352	22264
608.419	21729
608.487	23101
608.555	21264
608.622	23362
608.690	24652
608.757	24724
608.825	27638
608.893	26110
608.960	24714
609.028	22834
609.095	24514
609.163	23883
609.230	21261
609.298	19666
609.365	20193
609.432	21739
609.500	24048
609.567	26887
609.635	31165
609.702	33555
609.769	31959
609.837	24838
609.904	22507
609.971	22937
610.039	29442
610.106	38448
610.173	79725
610.241	197637
610.308	110800
610.375	31931
610.442	25156
610.509	22677
610.577	22820
610.644	23566
610.711	23771
610.778	23213
610.845	24674
610.912	26959
610.980	27656
611.047	28989
611.114	27358
611.181	26018
611.248	25378
611.315	27866
611.382	27760
611.449	28449
611.516	29554
611.583	28408
611.650	30762
611.717	30528
611.784	31400
611.851	33453
611.918	38589
611.984	49446
612.051	80535
612.118	181729
612.185	484816
612.252	305128
612.319	63658
612.386	43113
612.452	37393
612.519	34854
612.586	33009
612.653	34149
612.719	34563
612.786	32137
612.853	30534
612.919	29298
612.986	31256
613.053	27443
613.120	26993
613.186	24693
613.253	27114
613.319	26022
613.386	26753
613.453	26557
613.519	26382
613.586	26103
613.652	27596
613.719	25670
613.785	27373
613.852	27042
613.918	26859
613.985	29685
614.051	35272
614.118	50821
614.184	49037
614.250	27671
614.317	28245
614.383	26958
614.449	28373
614.516	26916
614.582	27555
614.648	27948
614.715	27723
614.781	26208
614.847	27712
614.914	26376
614.980	25518
615.046	26759
615.112	28095
615.179	30789
615.245	34806
615.311	46265
615.377	78375
615.443	86587
615.509	52828
615.575	41697
615.642	37360
615.708	37704
615.774	41430
615.840	48148
615.906	62702
615.972	103810
616.038	210941
616.104	347252
616.170	678261
616.236	569214
616.302	118008
616.368	69330
616.434	48494
616.500	41782
616.565	46371
616.631	55042
616.697	45235
616.763	46137
616.829	69734
616.895	125114
616.961	122457
617.026	52391
617.092	33587
617.158	29757
617.224	28443
617.289	25011
617.355	23998
617.421	21955
617.487	23101
617.552	20851
617.618	20403
617.684	20378
617.749	24000
617.815	21040
617.880	19466
617.946	20021
618.012	19915
618.077	20873
618.143	20535
618.208	20033
618.274	21176
618.339	21470
618.405	16470
618.470	17660
618.536	17119
618.601	16293
618.667	16072
618.732	15057
618.798	15347
618.863	14395
618.928	14086
618.994	15112
619.059	16162
619.124	14634
619.190	14985
619.255	12958
619.320	14964
619.386	13912
619.451	13639
619.516	13318
619.581	14470
619.647	14695
619.712	14707
619.777	14130
619.842	13667
619.907	13721
619.972	13139
620.038	13626
620.103	13256
620.168	12469
620.233	14040
620.298	13488
620.363	14103
620.428	14950
620.493	14375
620.558	14309
620.623	14837
620.688	15115
620.753	15410
620.818	14900
620.883	15883
620.948	15381
621.013	15088
621.078	15185
621.143	13557
621.207	16879
621.272	14824
621.337	14149
621.402	14017
621.467	13852
621.532	13815
621.596	14379
621.661	14260
621.726	13519
621.791	13812
621.855	12839
621.920	13347
621.985	12869
622.049	14795
622.114	13285
622.179	13665
622.243	14368
622.308	15078
622.373	15878
622.437	15242
622.502	13745
622.566	13694
622.631	12386
622.695	15661
622.760	13433
622.824	14780
622.889	14605
622.953	14080
623.018	15285
623.082	16330
623.147	15187
623.211	14849
623.276	15332
623.340	14694
623.404	13234
623.469	14258
623.533	14505
623.597	14436
623.662	13422
623.726	11985
623.790	11968
623.854	10684
623.919	12216
623.983	11740
624.047	11699
624.111	12480
624.176	12612
624.240	13504
624.304	13421
624.368	12079
624.432	13088
624.496	13183
624.560	14106
624.625	13388
624.689	14627
624.753	13727
624.817	12680
624.881	11792
624.945	11370
625.009	11242
625.073	12309
625.137	11668
625.201	12719
625.265	13852
625.329	12164
625.393	11804
625.456	12560
625.520	12772
625.584	12857
625.648	13367
625.712	13926
625.776	14155
625.839	13153
625.903	9448
625.967	9396
626.031	12816
626.095	13255
626.158	12565
626.222	8451
626.286	8889
626.349	7706
626.413	7174
626.477	8578
626.540	8142
626.604	6970
626.668	8987
626.731	6867
626.795	7329
626.858	7371
626.922	7616
626.986	7526
627.049	6253
627.113	8733
627.176	9038
627.240	7321
627.303	7604
627.366	7586
627.430	7503
627.493	8110
627.557	6761
627.620	7662
627.684	7938
627.747	7676
627.810	5417
627.874	6472
627.937	6200
628.000	7375
628.064	7135
628.127	4528
628.190	6531
628.253	6467
628.317	4921
628.380	5846
628.443	5370
628.506	4168
628.569	5010
628.632	3837
628.696	5123
628.759	3613
628.822	4190
628.885	4895
628.948	4981
629.011	4308
629.074	4172
629.137	3980
629.200	3237
629.263	4965
629.326	3928
629.389	3985
629.452	4235
629.515	3103
629.578	4080
629.641	4421
629.704	3775
629.767	3706
629.830	4545
629.892	3858
629.955	3312
630.018	4514
630.081	3355
630.144	4236
630.207	3073
630.269	4777
630.332	3472
630.395	3589
630.458	3309
630.520	3000
630.583	4935
630.646	4410
630.708	3808
630.771	2991
630.834	4694
630.896	3744
630.959	3831
631.021	2613
631.084	3544
631.146	3465
631.209	3882
631.272	3228
631.334	4364
631.397	4588
631.459	3077
631.522	5173
631.584	4867
631.646	4777
631.709	5278
631.771	5263
631.834	6434
631.896	5041
631.958	3902
632.021	4452
632.083	3772
632.145	5141
632.208	3606
632.270	4487
632.332	4274
632.395	2814
632.457	4168
632.519	2495
632.581	5685
632.643	3103
632.706	4399
632.768	2923
632.830	4451
632.892	3132
632.954	3509
633.016	4251
633.078	3409
633.141	3277
633.203	3951
633.265	3778
633.327	4227
633.389	2305
633.451	4949
633.513	2506
633.575	4656
633.637	2800
633.698	4413
633.760	4543
633.822	4299
633.884	4110
633.946	4887
634.008	4604
634.070	5572
634.132	6553
634.193	6606
634.255	6846
634.317	7524
634.379	7765
634.441	6931
634.502	7131
634.564	10262
634.626	15166
634.687	19646
634.749	8969
634.811	6621
634.873	3702
634.934	4401
634.996	4534
635.057	4679
635.119	3278
635.181	4619
635.242	4418
635.304	2720
635.365	6556
635.427	3782
635.488	3675
635.550	3850
635.611	4799
635.673	2721
635.734	5192
635.796	4907
635.857	5902
635.918	4925
635.980	7502
636.041	5851
636.102	8506
636.164	8293
636.225	7941
636.286	4870
636.348	5720
636.409	5511
636.470	3954
636.531	4507
636.593	3620
636.654	4600
636.715	4090
636.776	3996
636.838	3444
636.899	4800
636.960	4808
637.021	6470
637.082	9243
637.143	8864
637.204	3534
637.265	3599
637.326	3816
637.387	3287
637.448	1500
637.509	4007
637.570	2259
637.631	3854
637.692	1948
637.753	2070
637.814	2895
637.875	3143
637.936	2508
637.997	2808
638.058	2962
638.119	3038
638.179	2127
638.240	2700
638.301	1985
638.362	2288
638.423	2322
638.483	3316
638.544	1153
638.605	3004
638.666	1657
638.726	3029
638.787	3542
638.848	2203
638.908	2501
638.969	2234
639.030	1820
639.090	1747
639.151	2352
639.211	2439
639.272	3137
639.332	2525
639.393	2590
639.453	1630
639.514	2468
639.574	2902
639.635	2020
639.695	3011
639.756	979
639.816	2225
639.877	2406
639.937	3382
639.997	2582
640.058	1382
640.118	1415
640.178	3222
640.239	2379
640.299	2220
640.359	1722
640.420	3234
640.480	3231
640.540	2855
640.600	3159
640.661	3275
640.721	2396
640.781	7201
640.841	6312
640.901	4170
640.961	3641
641.021	2927
641.082	2268
641.142	2343
641.202	3482
641.262	1545
641.322	2510
641.382	1628
641.442	2568
641.502	2514
641.562	3334
641.622	2375
641.682	2669
641.742	3499
641.802	2752
641.861	2869
641.921	1912
641.981	3600
642.041	2376
642.101	1998
642.161	1444
642.221	1988
642.280	2445
642.340	2207
642.400	985
642.460	2412
642.519	1792
642.579	2155
642.639	2220
642.698	642
642.758	4710
642.818	2186
642.877	1471
642.937	1067
642.997	2328
643.056	2919
643.116	1236
643.175	4500
643.235	2292
643.294	2516
643.354	4158
643.414	5302
643.473	5799
643.532	6664
643.592	11582
643.651	22587
643.711	40116
643.770	83945
643.830	205548
643.889	463642
643.948	108085
644.008	16178
644.067	8130
644.126	5758
644.186	4312
644.245	5357
644.304	1849
644.363	5098
644.423	2134
644.482	2868
644.541	3406
644.600	2022
644.659	4957
644.719	5084
644.778	8468
644.837	15968
644.896	34711
644.955	83380
645.014	26609
645.073	6045
645.132	3788
645.191	3992
645.250	2121
645.309	5230
645.368	3909
645.427	5521
645.486	7003
645.545	16035
645.604	4730
645.663	4462
645.722	3034
645.781	5211
645.840	5455
645.898	7446
645.957	12868
646.016	17776
646.075	35793
646.134	72887
646.192	197848
646.251	310638
646.310	43274
646.369	9748
646.427	7663
646.486	4219
646.545	3757
646.603	4424
646.662	3092
646.721	3194
646.779	2394
646.838	2166
646.896	4664
646.955	5817
647.014	8992
647.072	17331
647.131	51118
647.189	24962
647.248	3062
647.306	3731
647.365	2790
647.423	393
647.481	3733
647.540	1311
647.598	2226
647.657	1922
647.715	2622
647.773	1373
647.832	2974
647.890	1153
647.948	1564
648.007	2855
648.065	1245
648.123	1538
648.181	3479
648.240	4049
648.298	1801
648.356	3747
648.414	3222
648.472	3512
648.531	3286
648.589	3215
648.647	2825
648.705	3135
648.763	2385
648.821	3125
648.879	2502
648.937	3795
648.995	3656
649.053	4603
649.111	8589
649.169	14117
649.227	25220
649.285	53493
649.343	160313
649.401	79494
649.459	9295
649.516	7078
649.574	5554
649.632	14098
649.690	15302
649.748	6623
649.806	6846
649.863	14145
649.921	33944
649.979	23075
650.037	3971
650.094	1656
650.152	1900
650.210	1296
650.268	2690
650.325	2811
650.383	3671
650.440	953
650.498	1320
650.556	1874
650.613	1015
650.671	1376
650.728	599
650.786	1545
650.843	1711
650.901	637
650.958	1551
651.016	1817
651.073	1031
651.131	781
651.188	346
651.246	1515
651.303	-469
651.360	1056
651.418	688
651.475	979
651.532	303
651.590	1445
651.647	-172
651.704	765
651.762	-348
651.819	1391
651.876	-603
651.933	994
651.990	800
652.048	-32
652.105	-230
652.162	842
652.219	75
652.276	1296
652.333	281
652.390	-480
652.448	534
652.505	1142
652.562	1001
652.619	864
652.676	1124
652.733	2708
652.790	406
652.847	-445
652.904	650
652.961	-32
653.017	-528
653.074	1273
653.131	727
653.188	262
653.245	740
653.302	689
653.359	-453
653.415	1004
653.472	600
653.529	1512
653.586	508
653.642	143
653.699	731
653.756	671
653.813	-164
653.869	1330
653.926	897
653.983	201
654.039	1105
654.096	381
654.152	993
654.209	-262
654.266	1000
654.322	-359
654.379	866
654.435	994
654.492	284
654.548	1238
654.605	238
654.661	2426
654.717	896
654.774	1685
654.830	1308
654.887	953
654.943	854
655.000	3289
655.056	2036
655.112	1057
655.168	379
655.225	1303
655.281	2116
655.337	1904
655.394	1277
655.450	2447
655.506	2098
655.562	2106
655.618	3657
655.675	3334
655.731	3690
655.787	2952
655.843	5565
655.899	5240
655.955	7499
656.011	8475
656.067	8522
656.123	11791
656.179	13504
656.235	15270
656.291	13038
656.347	14449
656.403	9003
656.459	8963
656.515	7054
656.571	6427
656.627	4935
656.683	3671
656.739	3881
656.795	3099
656.850	2737
656.906	2814
656.962	2117
657.018	2523
657.074	1330
657.129	2322
657.185	1500
657.241	4020
657.297	2101
657.352	1008
657.408	-408
657.464	1098
657.519	190
657.575	171
657.630	264
657.686	649
657.742	308
657.797	220
657.853	5
657.908	2499
657.964	-165
658.019	222
658.075	355
658.130	761
658.186	-1335
658.241	1112
658.297	-669
658.352	-85
658.407	714
658.463	-386
658.518	28
658.573	-116
658.629	-5
658.684	-111
658.739	759
658.795	165
658.850	593
658.905	65
658.960	-108
659.016	-316
659.071	165
659.126	291
659.181	-850
659.236	1049
659.291	541
659.346	362
659.401	824
659.457	1347
659.512	687
659.567	1386
659.622	-139
659.677	257
659.732	-916
659.787	-112
659.842	-134
659.897	-471
659.952	284
660.007	-72
660.061	-663
660.116	58
660.171	-148
660.226	245
660.281	937
660.336	-909
660.391	-145
660.445	-28
660.500	-837
660.555	172
660.610	-888
660.664	1102
660.719	-562
660.774	302
660.828	199
660.883	388
660.938	-433
660.992	-803
661.047	78
661.101	-57
661.156	267
661.211	-190
661.265	-313
661.320	-748
661.374	-313
661.429	88
661.483	14
661.538	-401
661.592	-551
661.647	1019
661.701	1365
661.755	619
661.810	-607
661.864	-235
661.919	-411
661.973	-166
662.027	-298
662.081	-110
662.136	-544
662.190	556
662.244	-297
662.299	82
662.353	65
662.407	-534
662.461	275
662.515	227
662.569	-1040
662.624	505
662.678	-499
662.732	-44
662.786	258
662.840	347
662.894	-99
662.948	452
663.002	-657
663.056	326
663.110	-855
663.164	-49
663.218	-120
663.272	-443
663.326	-277
663.380	-54
663.434	-6
663.488	22
663.542	490
663.595	-385
663.649	-398
663.703	654
663.757	-167
663.811	4
663.864	-521
663.918	162
663.972	-1102
664.026	-42
664.079	-34
664.133	560
664.187	1033
664.240	673
664.294	148
664.348	534
664.401	-171
664.455	874
664.508	-29
664.562	802
664.615	150
664.669	1061
664.722	1167
664.776	-209
664.829	-337
664.883	184
664.936	-379
664.990	480
665.043	628
665.097	-501
665.150	379
665.203	57
665.257	-389
665.310	92
665.363	300
665.417	1185
665.470	-179
665.523	381
665.576	-55
665.630	-144
665.683	236
665.736	279
665.789	-35
665.842	-856
665.895	-2
665.949	-335
666.002	407
666.055	287
666.108	-425
666.161	-487
666.214	45
666.267	-186
666.320	410
666.373	481
666.426	-485
666.479	-629
666.532	-900
666.585	160
666.638	-478
666.691	-255
666.744	-209
666.796	-683
666.849	-910
666.902	302
666.955	-46
667.008	-904
667.060	-490
667.113	-328
667.166	448
667.219	-535
667.271	-53
667.324	-402
667.377	-351
667.430	-753
667.482	14
667.535	174
667.587	-22
667.640	51
667.693	-1302
667.745	565
667.798	318
667.850	-77
667.903	-44
667.955	-513
668.008	-508
668.060	-251
668.113	-264
668.165	-26
668.218	-613
668.270	70
668.322	-829
668.375	-19
668.427	-1488
668.479	-1006
668.532	-965
668.584	-370
668.636	-915
668.689	65
668.741	-744
668.793	-297
668.845	-429
668.898	17
668.950	-290
669.002	-431
669.054	-738
669.106	-305
669.158	-318
669.211	17
669.263	-404
669.315	524
669.367	705
669.419	232
669.471	1614
669.523	2062
669.575	2635
669.627	1901
669.679	573
669.731	1312
669.783	766
669.835	1378
669.886	701
669.938	264
669.990	-115
670.042	-171
670.094	202
670.146	122
670.197	-230
670.249	569
670.301	-602
670.353	631
670.404	482
670.456	914
670.508	1385
670.560	1750
670.611	4537
670.663	7599
670.715	21180
670.766	37523
670.818	10984
670.869	1371
670.921	912
670.972	633
671.024	-366
671.075	-296
671.127	-296
671.178	-106
671.230	-71
671.281	107
671.333	-360
671.384	179
671.436	-853
671.487	1215
671.538	1490
671.590	2398
671.641	4763
671.692	10782
671.744	22202
671.795	16692
671.846	5119
671.897	2332
671.949	866
672.000	1101
672.051	500
672.102	675
672.153	-360
672.204	106
672.256	-72
672.307	288
672.358	-118
672.409	-541
672.460	-507
672.511	-554
672.562	-1339
672.613	-1073
672.664	-664
672.715	-265
672.766	-201
672.817	24
672.868	-343
672.919	3
672.970	-374
673.021	-524
673.071	-855
673.122	64
673.173	-47
673.224	-57
673.275	-108
673.326	-30
673.376	-178
673.427	-960
673.478	-467
673.528	503
673.579	-774
673.630	-250
673.680	-799
673.731	-584
673.782	-595
673.832	-780
673.883	-333
673.934	-586
673.984	-931
674.035	-940
674.085	-189
674.136	283
674.186	-389
674.237	-976
674.287	-988
674.338	-676
674.388	-349
674.438	-955
674.489	-330
674.539	-490
674.589	-1336
674.640	-243
674.690	-239
674.740	-787
674.791	-413
674.841	-292
674.891	-1052
674.942	-393
674.992	-628
675.042	-957
675.092	-852
675.142	-1161
675.193	-362
675.243	-484
675.293	-594
675.343	-837
675.393	-1184
675.443	-77
675.493	-886
675.543	-1269
675.593	-693
675.643	-829
675.693	-52
675.743	-463
675.793	-736
675.843	-177
675.893	-365
675.943	35
675.993	-558
676.043	-588
676.093	-1651
676.142	-103
676.192	-876
676.242	117
676.292	-872
676.341	-1190
676.391	-882
676.441	-797
676.491	-1083
676.540	-391
676.590	-638
676.640	-1193
676.689	-1259
676.739	-1325
676.789	-148
676.838	-554
676.888	-912
676.937	-1317
676.987	-1315
677.037	-359
677.086	-1238
677.136	-413
677.185	-2159
677.235	-861
677.284	-383
677.333	-1106
677.383	-1886
677.432	-356
677.482	-1184
677.531	-451
677.580	-1152
677.630	-743
677.679	-874
677.728	-1034
677.778	-455
677.827	-1067
677.876	-634
677.925	-815
677.975	-874
678.024	-1065
678.073	-1786
678.122	-661
678.171	-360
678.220	-1072
678.269	-789
678.319	-523
678.368	-807
678.417	-761
678.466	-730
678.515	-111
678.564	-981
678.613	-1165
678.662	-1547
678.711	-83
678.760	-1480
678.809	-904
678.857	-1363
678.906	-1109
678.955	-1717
679.004	-470
679.053	-252
679.102	-181
679.151	-800
679.199	-1657
679.248	-330
679.297	-1056
679.346	-1781
679.394	-1217
679.443	-624
679.492	-722
679.540	-1102
679.589	-1260
679.638	-963
679.686	-447
679.735	-1203
679.784	-622
679.832	-1518
679.881	-741
679.929	-733
679.978	-371
680.026	-1692
680.075	-345
680.123	-1328
680.172	-1820
680.220	-1409
680.268	-861
680.317	-886
680.365	-1378
680.414	-1467
680.462	-1593
680.510	-957
680.559	-925
680.607	-1572
680.655	-840
680.703	-1222
680.752	25
680.800	-1010
680.848	-1957
680.896	-388
680.945	-464
680.993	-1852
681.041	-1247
681.089	-1530
681.137	-394
681.185	-894
681.233	-1060
681.258	-1427
681.281	-1784
681.329	-810
681.377	-1284
681.380	-1273
681.425	-1239
681.473	-982
681.502	-1142
681.521	-1271
681.569	-1205
681.617	-1122
681.624	-1077
681.665	-870
681.713	-583
681.745	-674
681.761	-729
681.809	-715
681.857	-841
681.867	-778
681.904	-568
681.952	-824
681.989	-1149
682.000	-1263
682.048	-1574
682.096	-1040
682.111	-924
682.143	-717
682.191	-592
682.233	-161
682.239	-102
682.286	-86
682.334	-1076
682.354	-1222
682.382	-1440
682.430	-663
682.476	-525
682.477	-531
682.525	-1070
682.572	-818
682.598	-499
682.620	-250
682.667	-427
682.715	-41
682.720	-128
682.763	-1002
682.810	-822
682.841	-656
682.857	-590
682.905	-903
682.952	-17
682.963	-156
683.000	-640
683.047	-565
683.085	49
683.095	191
683.142	-605
683.190	-1060
683.206	-888
683.237	-560
683.284	-278
683.328	-183
683.332	-184
683.379	-30
683.426	-63
683.449	-15
683.473	20
683.521	-234
683.568	-52
683.571	-63
683.615	-285
683.662	-74
683.693	-265
683.709	-376
683.757	-657
683.804	374
683.814	352
683.851	222
683.898	135
683.936	128
683.945	122
683.992	431
684.039	-39
684.057	-171
684.086	-440
684.133	-210
684.179	62
684.180	67
684.227	400
684.274	714
684.300	468
684.321	200
684.368	105
684.415	-479
684.422	-493
684.462	-411
684.509	-469
684.543	811
684.556	1239
684.603	509
684.649	-138
684.665	-85
684.696	-9
684.743	820
684.786	684
684.790	667
684.837	706
684.883	485
684.908	638
684.930	751
684.977	-138
685.023	594
685.029	595
685.070	592
685.117	475
685.150	383
685.164	372
685.210	218
685.257	1065
685.272	1118
685.303	1180
685.350	957
685.393	1185
685.396	1188
685.443	-401
685.490	685
685.514	542
685.536	499
685.583	574
685.629	525
685.636	546
685.675	682
685.722	788
685.757	1063
685.768	1099
685.815	685
685.861	1147
685.878	977
685.908	766
685.954	856
686.000	436
686.000	425
686.047	337
686.093	347
686.121	231
686.139	213
686.185	177
686.232	1407
686.242	1363
686.278	1127
686.324	727
686.363	1019
686.370	1073
686.416	1076
686.463	939
686.484	1014
686.509	1110
686.555	600
686.601	855
686.606	878
686.647	1127
686.693	1598
686.727	1186
686.739	997
686.785	1724
686.831	1538
686.848	1420
686.877	1222
686.923	1084
686.969	1380
686.969	1381
687.015	1010
687.061	906
687.090	1107
687.107	1253
687.153	1865
687.199	1096
687.211	1068
687.245	996
687.291	1096
687.332	1618
687.336	1671
687.382	1863
687.428	1759
687.453	1408
687.474	1141
687.520	1555
687.565	1629
687.574	1654
687.611	1743
687.657	2240
687.695	2465
687.702	2608
687.748	2916
687.794	4873
687.816	4888
687.839	4283
687.885	3449
687.931	2745
687.937	2619
687.976	2025
688.022	2206
688.058	1967
688.067	2002
688.113	1546
688.158	1839
688.179	1863
688.204	1815
688.249	1725
688.295	1952
688.300	1928
688.340	1869
688.386	1949
688.421	1948
688.431	1935
688.477	2190
688.522	2183
688.542	2043
688.567	1977
688.613	2448
688.658	2303
688.663	2348
688.703	2478
688.749	2333
688.784	2368
688.794	2426
688.839	1541
688.884	2791
688.905	2580
688.930	2179
688.975	2153
689.020	1829
689.026	1842
689.065	2330
689.110	2055
689.146	2470
689.155	2518
689.201	2429
689.246	2817
689.267	2475
689.291	2137
689.336	2538
689.381	2200
689.388	2232
689.426	2570
689.471	2692
689.509	2600
689.516	2546
689.561	2637
689.606	2438
689.630	2351
689.651	2349
689.696	1961
689.741	2343
689.750	2413
689.785	2704
689.830	2441
689.871	2138
689.875	2110
689.920	2305
689.965	2494
689.992	2229
690.010	2038
690.054	2464
690.099	2068
690.112	2138
690.144	2450
690.189	2006
690.233	2509
690.233	2518
690.278	2540
690.323	2932
690.354	2952
690.367	2923
690.412	2880
690.457	2718
690.474	2757
690.501	2869
690.546	3186
690.590	3421
690.595	3361
690.635	2785
690.680	3107
690.716	2680
690.724	2641
690.769	3098
690.813	3784
690.836	3656
690.857	3705
690.902	4143
690.946	5067
690.957	5159
690.991	5820
691.035	6754
691.077	8118
691.080	8149
691.124	7926
691.168	7281
691.198	7022
691.213	6692
691.257	6138
691.301	4695
691.318	4420
691.346	4349
691.390	4188
691.434	3401
691.439	3389
691.478	3627
691.522	4028
691.559	3641
691.567	3578
691.611	3601
691.655	3794
691.680	3671
691.699	3577
691.743	3814
691.787	3655
691.800	3515
691.831	3314
691.875	3596
691.919	3793
691.921	3774
691.964	3493
692.008	3888
692.041	3546
692.052	3399
692.096	3609
692.139	3472
692.162	3426
692.183	3462
692.227	3090
692.271	3328
692.282	3375
692.315	3787
692.359	4054
692.402	4170
692.403	4180
692.447	4219
692.490	4121
692.523	4225
692.534	4242
692.578	3819
692.622	3787
692.643	3583
692.666	3604
692.709	4065
692.753	4109
692.763	4218
692.797	4310
692.840	4058
692.884	3595
692.884	3605
692.928	3966
692.971	3621
693.004	3629
693.015	3643
693.059	3963
693.102	3941
693.124	3948
693.146	3970
693.189	3828
693.233	3916
693.245	3896
693.276	4088
693.320	4399
693.363	4448
693.365	4449
693.407	4647
693.450	4726
693.485	5013
693.493	5129
693.537	5024
693.580	5229
693.605	5463
693.624	5982
693.667	6865
693.710	8173
693.725	8509
693.753	9985
693.797	12539
693.840	15129
693.845	15333
693.883	14694
693.926	14042
693.966	13708
693.970	13559
694.013	11541
694.056	9581
694.086	8102
694.099	7860
694.142	7231
694.185	6670
694.206	6321
694.229	6142
694.272	5738
694.315	5265
694.326	5188
694.358	5462
694.401	5803
694.444	5873
694.446	5869
694.487	5661
694.530	5413
694.566	5145
694.573	5173
694.616	5404
694.659	5642
694.686	5542
694.702	5455
694.745	5429
694.787	5309
694.806	5279
694.830	5380
694.873	5625
694.916	5861
694.926	5876
694.959	5748
695.002	5464
695.044	5379
695.046	5353
695.087	5214
695.130	5188
695.166	5083
695.172	5145
695.215	5359
695.258	5832
695.286	6061
695.301	6029
695.343	5690
695.386	5730
695.406	5481
695.428	5369
695.471	5537
695.514	5612
695.526	5554
695.556	5537
695.599	5912
695.641	5927
695.646	5922
695.684	5650
695.726	5322
695.766	4918
695.769	4940
695.811	5156
695.854	5499
695.886	5630
695.896	5598
695.938	5237
695.981	5000
696.005	4830
696.023	5026
696.065	5555
696.108	6098
696.125	6218
696.150	6040
696.192	5903
696.235	5863
696.245	5729
696.277	5630
696.319	5854
696.361	6060
696.365	6047
696.404	5899
696.446	5616
696.485	5576
696.488	5636
696.530	6042
696.572	6481
696.604	6830
696.614	6807
696.656	6673
696.698	6325
696.724	6193
696.740	6237
696.783	6182
696.825	6331
696.844	6303
696.867	6258
696.909	6177
696.951	6094
696.964	6057
696.992	6257
697.034	6370
697.076	6709
697.083	6721
697.118	6725
697.160	6620
697.202	6743
697.203	6723
697.244	6737
697.286	6599
697.323	6595
697.327	6636
697.369	6741
697.411	6947
697.442	6917
697.453	6911
697.494	6976
697.536	6867
697.562	6919
697.578	6992
697.620	7029
697.661	7033
697.682	7031
697.703	7051
697.744	6969
697.786	7068
697.801	7006
697.828	7097
697.869	7286
697.911	7514
697.921	7536
697.952	7520
697.994	7471
698.035	7456
698.040	7435
698.077	7335
698.118	7074
698.160	6889
698.160	6866
698.201	7182
698.243	7510
698.279	7831
698.284	7847
698.325	7720
698.367	7582
698.399	7484
698.408	7505
698.449	7442
698.491	7397
698.518	7357
698.532	7405
698.573	7473
698.614	7534
698.638	7564
698.656	7657
698.697	7773
698.738	7929
698.757	7965
698.779	7882
698.820	7693
698.862	7504
698.877	7417
698.903	7730
698.944	8169
698.985	8627
698.996	8726
699.026	8386
699.067	7886
699.116	7267
699.235	7337
699.354	7271
699.474	7171
699.593	7729
699.713	8331
699.832	8230
699.951	8606
700.070	7995
700.190	8573
700.309	8783
700.428	8831
700.547	7858
700.667	8517
700.786	8477
700.905	7849
701.024	6825
701.143	7272
701.262	7977
701.381	7676
701.500	7715
701.619	7609
701.738	7381
701.857	7771
701.976	7720
702.095	7067
702.214	6712
702.333	6539
702.452	7335
702.571	7748
702.690	7260
702.809	6876
702.928	7021
703.047	6955
703.165	7199
703.284	6685
703.403	6668
703.522	7074
703.640	7184
703.759	7864
703.878	7862
703.997	7464
704.115	8475
704.234	8925
704.353	5957
704.471	7181
704.590	5265
704.708	7269
704.827	6591
704.946	6848
705.064	5810
705.183	6915
705.301	6277
705.420	7070
705.538	6429
705.656	7624
705.775	6403
705.893	9745
706.012	9881
706.130	6514
706.249	7245
706.367	6921
706.485	6578
706.604	5825
706.722	6467
706.840	7886
706.958	13745
707.077	8565
707.195	6538
707.313	6593
707.431	5440
707.549	6124
707.668	4825
707.786	5665
707.904	6181
708.022	5295
708.140	5906
708.258	5874
708.376	6493
708.494	6223
708.612	5597
708.730	5886
708.848	6062
708.966	6453
709.084	5974
709.202	7039
709.320	6036
709.438	5805
709.556	5464
709.674	5957
709.791	5006
709.909	5349
710.027	5697
710.145	6009
710.263	6598
710.380	6232
710.498	5973
710.616	5717
710.733	4941
710.851	5646
710.969	5454
711.086	5132
711.204	6149
711.322	5142
711.439	4767
711.557	4245
711.674	5416
711.792	5482
711.909	6045
712.027	5860
712.144	6031
712.262	5610
712.379	4789
712.497	5324
712.614	5180
712.732	5088
712.849	5817
712.966	5454
713.084	5566
713.201	5480
713.318	5505
713.436	5698
713.553	5675
713.670	6184
713.787	5227
713.905	6051
714.022	5475
714.139	5463
714.256	7566
714.373	10514
714.490	17990
714.608	49111
714.725	213559
714.842	190076
714.959	13609
715.076	7854
715.193	7446
715.310	6720
715.427	6455
715.544	8011
715.661	10680
715.778	7228
715.895	5463
716.011	5741
716.128	5671
716.245	6030
716.362	5531
716.479	5345
716.596	6565
716.713	5685
716.829	5863
716.946	5234
717.063	5583
717.180	5486
717.296	5267
717.413	5389
717.530	5486
717.646	5040
717.763	5632
717.880	5066
717.996	5067
718.113	5040
718.229	3926
718.346	5064
718.462	4598
718.579	6066
718.695	4871
718.812	4916
718.928	3890
719.045	5097
719.161	4759
719.277	4975
719.394	5292
719.510	5202
719.626	4896
719.743	6148
719.859	7969
719.975	14879
720.092	55018
720.208	109438
720.324	12631
720.440	5407
720.557	5501
720.673	5885
720.789	5092
720.905	5752
721.021	4290
721.137	4991
721.253	4623
721.369	4525
721.486	4604
721.602	4103
721.718	4413
721.834	4970
721.950	4251
722.066	4370
722.181	4177
722.297	5291
722.413	4787
722.529	4808
722.645	4724
722.761	5348
722.877	4592
722.993	4668
723.108	5015
723.224	4949
723.340	3757
723.456	5070
723.571	5001
723.687	4288
723.803	4353
723.918	5530
724.034	3975
724.150	4087
724.265	3492
724.381	4871
724.497	4606
724.612	4742
724.728	4309
724.843	3667
724.959	4701
725.074	5054
725.190	4613
725.305	4810
725.421	4836
725.536	4975
725.651	4961
725.767	4972
725.882	4887
725.997	4378
726.113	4424
726.228	4326
726.343	3929
726.459	3164
726.574	5001
726.689	3887
726.804	4364
726.920	4371
727.035	4317
727.150	4413
727.265	3922
727.380	4912
727.495	4337
727.610	4884
727.725	4380
727.841	4506
727.956	6604
728.071	5839
728.186	3803
728.301	4261
728.416	3680
728.531	4084
728.645	4168
728.760	6134
728.875	7281
728.990	7673
729.105	4939
729.220	5301
729.335	5386
729.449	4889
729.564	3646
729.679	3770
729.794	3761
729.908	4754
730.023	4226
730.138	3965
730.253	3556
730.367	3922
730.482	3612
730.596	4666
730.711	4357
730.826	5602
730.940	6023
731.055	4104
731.169	3449
731.284	3667
731.398	3635
731.513	4332
731.627	4195
731.742	4859
731.856	3485
731.970	5163
732.085	4747
732.199	6373
732.313	8998
732.428	22791
732.542	57392
732.656	29831
732.771	8104
732.885	5711
732.999	4799
733.113	5227
733.227	4189
733.342	4661
733.456	3299
733.570	4414
733.684	3641
733.798	4327
733.912	3829
734.026	3566
734.140	3460
734.254	4233
734.368	3935
734.482	4481
734.596	3178
734.710	4407
734.824	3601
734.938	4231
735.052	3109
735.166	4416
735.280	4293
735.393	3984
735.507	3882
735.621	3972
735.735	3610
735.849	4231
735.962	4332
736.076	4484
736.190	4100
736.303	3879
736.417	4151
736.531	4176
736.644	3415
736.758	3937
736.872	3757
736.985	3934
737.099	4127
737.212	4089
737.326	4490
737.439	4142
737.553	2906
737.666	4458
737.780	3456
737.893	3982
738.007	4042
738.120	4000
738.233	3820
738.347	4760
738.460	4698
738.573	4825
738.687	3849
738.800	3942
738.913	3185
739.026	3577
739.140	3588
739.253	4091
739.366	2975
739.479	3558
739.592	3082
739.705	4315
739.818	3798
739.932	3146
740.045	3737
740.158	3415
740.271	3220
740.384	5171
740.497	5486
740.610	6379
740.723	5258
740.836	6813
740.949	5350
741.062	5064
741.174	4539
741.287	4541
741.400	4350
741.513	6439
741.626	6730
741.739	5763
741.851	5090
741.964	5023
742.077	6201
742.189	9215
742.302	20424
742.415	16641
742.527	6446
742.640	5134
742.753	4352
742.865	3491
742.978	3133
743.090	4262
743.203	3483
743.316	3870
743.428	3615
743.541	3527
743.653	2884
743.766	4170
743.878	3900
743.990	6779
744.103	16967
744.215	33712
744.327	10897
744.440	5240
744.552	3500
744.664	3132
744.777	3077
744.889	2359
745.001	3853
745.113	2789
745.226	2909
745.338	3726
745.450	3647
745.562	2715
745.674	3062
745.786	2638
745.898	3069
746.010	2985
746.122	2966
746.234	3748
746.347	3325
746.459	5098
746.570	6837
746.682	18447
746.794	48988
746.906	24132
747.018	5076
747.130	4152
747.242	3777
747.354	3434
747.466	3503
747.577	3695
747.689	3494
747.801	3688
747.913	2776
748.024	2865
748.136	2344
748.248	2442
748.359	2328
748.471	2956
748.583	3002
748.694	2636
748.806	2952
748.918	2695
749.029	2293
749.141	2383
749.252	3444
749.364	3214
749.475	2077
749.587	2179
749.698	2177
749.809	3221
749.921	1799
750.032	1955
750.144	2242
750.255	2200
750.366	2115
750.478	2390
750.589	2366
750.700	1831
750.811	3121
750.923	3573
751.034	1466
751.145	3549
751.256	1962
751.367	2440
751.479	2945
751.590	2490
751.701	2733
751.812	2818
751.923	2596
752.034	2832
752.145	1867
752.256	3023
752.367	2046
752.478	2217
752.589	1771
752.700	2582
752.811	1540
752.922	2799
753.032	2170
753.143	2723
753.254	1785
753.365	2522
753.476	1745
753.586	1967
753.697	1943
753.808	2959
753.919	1694
754.029	2037
754.140	1805
754.251	1870
754.361	2506
754.472	2678
754.582	1865
754.693	2474
754.804	1984
754.914	2813
755.025	1686
755.135	2969
755.246	2611
755.356	1231
755.466	2312
755.577	2684
755.687	2484
755.798	1477
755.908	2062
756.018	1939
756.129	1905
756.239	2165
756.349	2515
756.460	2675
756.570	2606
756.680	1681
756.790	1651
756.900	2052
757.011	1665
757.121	2615
757.231	1902
757.341	2129
757.451	1274
757.561	1078
757.671	2368
757.781	1166
757.891	2417
758.001	2630
758.111	2639
758.221	2214
758.331	2258
758.441	1874
758.551	2132
758.661	2222
758.771	2376
758.880	2445
758.990	2243
759.100	2569
759.210	1950
759.320	2049
759.429	1336
759.539	2293
759.649	1558
759.758	2569
759.868	1911
759.978	2617
760.087	2661
760.197	2033
760.307	2173
760.416	2417
760.526	1919
760.635	2720
760.745	2562
760.854	3324
760.964	1936
761.073	3107
761.182	2836
761.292	2752
761.401	2195
761.511	1858
761.620	2179
761.729	2677
761.839	2627
761.948	2876
762.057	2667
762.166	2854
762.276	1620
762.385	3200
762.494	2720
762.603	2743
762.712	1566
762.822	1831
762.931	2792
763.040	1780
763.149	2833
763.258	2702
763.367	3782
763.476	3278
763.585	2502
763.694	3103
763.803	2482
763.912	3433
764.021	2921
764.130	2593
764.238	3157
764.347	3196
764.456	3764
764.565	3072
764.674	2998
764.783	3166
764.891	2802
765.000	4466
765.109	3970
765.217	5128
765.326	6905
765.435	7087
765.543	7878
765.652	9659
765.761	12156
765.869	19100
765.978	29104
766.086	52152
766.195	106164
766.303	282448
766.412	691978
766.520	526816
766.629	156810
766.737	59746
766.846	34127
766.954	22864
767.062	17302
767.171	12821
767.279	9870
767.387	7927
767.496	6694
767.604	6497
767.712	5347
767.820	5740
767.928	5394
768.037	4957
768.145	4547
768.253	5291
768.361	4075
768.469	4627
768.577	3914
768.685	5195
768.793	5060
768.901	4411
769.009	5848
769.117	6413
769.225	8467
769.333	12425
769.441	20368
769.549	41033
769.657	97456
769.765	319580
769.873	550761
769.981	186638
770.088	45838
770.196	22885
770.304	15531
770.412	10773
770.519	8197
770.627	6934
770.735	5098
770.842	4759
770.950	4371
771.058	3919
771.165	3691
771.273	4058
771.380	4267
771.488	3766
771.595	3056
771.703	2716
771.810	2935
771.918	3205
772.025	3117
772.133	2421
772.240	1860
772.348	2411
772.455	3706
772.562	2545
772.670	2625
772.777	2656
772.884	2738
772.991	2372
773.099	2619
773.206	1377
773.313	2741
773.420	1950
773.528	1248
773.635	2106
773.742	2560
773.849	3036
773.956	1624
774.063	1440
774.170	1123
774.277	2470
774.384	1925
774.491	1199
774.598	2157
774.705	1453
774.812	995
774.919	2486
775.026	1552
775.133	1587
775.239	1755
775.346	1610
775.453	1335
775.560	2292
775.667	1421
775.773	1706
775.880	2189
775.987	1780
776.093	1792
776.200	2531
776.307	1434
776.413	2897
776.520	1529
776.627	2591
776.733	4397
776.840	5103
776.946	12911
777.053	36287
777.159	94334
777.266	56884
777.372	75903
777.478	65397
777.585	30399
777.691	7549
777.798	3922
777.904	3984
778.010	1957
778.117	2320
778.223	1283
778.329	1510
778.435	1736
778.542	2109
778.648	820
778.754	1650
778.860	686
778.966	2008
779.072	1820
779.178	1127
779.284	1744
779.391	1547
779.497	955
779.603	2820
779.708	520
779.815	3376
779.920	6017
780.026	8491
780.132	1683
780.238	1050
780.344	888
780.450	1389
780.556	109
780.661	1414
780.767	850
780.873	1365
780.979	1064
781.085	1113
781.190	1691
781.296	583
781.402	60
781.507	1496
781.613	1380
781.719	904
781.824	1514
781.930	1715
782.035	1041
782.141	942
782.246	1025
782.352	1058
782.457	1437
782.563	1794
782.668	521
782.773	1289
782.879	-279
782.984	1357
783.090	1693
783.195	1699
783.300	1544
783.405	672
783.511	1462
783.616	1664
783.721	1517
783.826	1682
783.932	1589
784.037	1621
784.142	864
784.247	858
784.352	905
784.457	1253
784.562	1192
784.667	1742
784.772	1069
784.877	2000
784.982	1609
785.087	1343
785.192	765
785.297	761
785.402	874
785.507	1097
785.611	849
785.716	1854
785.821	519
785.926	1645
786.031	1001
786.135	873
786.240	859
786.345	135
786.450	592
786.554	928
786.659	-20
786.763	104
786.868	1540
786.973	1222
787.077	360
787.182	589
787.286	647
787.391	1003
787.495	835
787.600	793
787.704	341
787.809	1219
787.913	208
788.017	871
788.122	928
788.226	481
788.330	851
788.435	921
788.539	284
788.643	1121
788.747	541
788.852	952
788.956	315
789.060	1165
789.164	516
789.268	757
789.372	1644
789.476	316
789.580	615
789.684	430
789.788	324
789.892	633
789.996	1970
790.100	1297
790.204	1003
790.308	1385
790.412	633
790.516	614
790.620	158
790.724	1596
790.828	273
790.931	905
791.035	2486
791.139	783
791.242	266
791.346	2521
791.450	724
791.554	935
791.657	151
791.761	2655
791.864	1622
791.968	1665
792.072	1072
792.175	1297
792.279	1344
792.382	1674
792.486	926
792.589	840
792.693	2066
792.796	338
792.899	1835
793.003	998
793.106	-553
793.209	924
793.313	2146
793.416	415
793.519	1983
793.623	1178
793.726	647
793.829	560
793.932	490
794.035	100
794.138	2329
794.242	1601
794.345	661
794.448	1292
794.551	887
794.654	5565
794.757	6279
794.860	2429
794.963	1022
795.066	3357
795.169	3049
795.272	1139
795.375	437
795.477	972
795.580	308
795.683	-513
795.786	293
795.889	-699
795.991	1740
796.094	914
796.197	-1396
796.300	1204
796.402	-37
796.505	202
796.608	141
796.710	946
796.813	246
796.915	-83
797.018	895
797.120	1141
797.223	-645
797.326	1149
797.428	308
797.530	-28
797.633	410
797.735	980
797.838	-365
797.940	891
798.042	-43
798.145	216
798.247	635
798.349	-732
798.452	801
798.554	-515
798.656	-949
798.758	1023
798.860	-285
798.962	-644
799.065	-1142
799.167	-427
799.269	1379
799.371	1414
799.473	442
799.575	1
799.677	-183
799.779	1390
799.881	-825
799.983	537
800.085	-17
800.187	592
800.289	-707
800.390	-156
800.492	120
800.594	772
800.696	87
800.798	531
800.899	453
801.001	149
801.103	-274
801.205	-248
801.306	-121
801.408	-1041
801.509	751
801.611	841
801.713	-101
801.814	-759
801.916	-139
802.017	-305
802.119	-228
802.220	557
802.322	-1235
802.423	1628
802.525	-1304
802.626	392
802.727	-212
802.829	452
802.930	-1459
803.031	1294
803.133	-251
803.234	-563
803.335	-709
803.436	-118
803.538	-554
803.639	-1160
803.740	-33
803.841	-585
803.942	392
804.043	1213
804.144	-764
804.245	435
804.346	-399
804.447	-455
804.548	-1166
804.649	1055
804.750	-545
804.851	-292
804.952	92
805.053	427
805.154	-1145
805.255	541
805.355	199
805.456	-453
805.557	-231
805.658	-6
805.758	213
805.859	14
805.960	-283
806.061	-440
806.161	-840
806.262	589
806.362	-27
806.463	-752
806.564	-458
806.664	76
806.765	-785
806.865	27
806.966	140
807.066	105
807.166	369
807.267	-175
807.367	-959
807.468	1228
807.568	-428
807.668	867
807.769	114
807.869	42
807.969	2
808.069	-276
808.170	-607
808.270	-602
808.370	-328
808.470	745
808.570	-1345
808.670	-429
808.770	255
808.870	-474
808.970	219
809.070	-186
809.170	-356
809.271	721
809.370	-312
809.470	1386
809.570	80
809.670	-626
809.770	5
809.870	803
809.970	-326
810.070	-575
810.169	461
810.269	137
810.369	1029
810.469	221
810.568	-368
810.668	-117
810.768	-923
810.867	756
810.967	-780
811.066	106
811.166	-512
811.265	128
811.365	-366
811.464	361
811.564	170
811.663	203
811.763	-1183
811.862	987
811.962	375
812.061	-368
812.160	-292
812.260	-649
812.359	224
812.458	256
812.557	318
812.657	107
812.756	255
812.855	595
812.954	-6
813.053	683
813.153	97
813.252	-710
813.351	208
813.450	353
813.549	-100
813.648	216
813.747	286
813.846	744
813.945	-48
814.044	886
814.143	588
814.242	750
814.341	97
814.439	1497
814.538	964
814.637	861
814.736	97
814.835	1490
814.933	445
815.032	1240
815.131	565
815.229	663
815.328	1314
815.427	551
815.525	2001
815.624	1549
815.722	938
815.821	2153
815.919	1347
816.018	2017
816.116	2274
816.215	2349
816.313	2810
816.412	2661
816.510	3021
816.609	4254
816.707	3358
816.805	3599
816.904	3704
817.002	5401
817.100	6556
817.198	6636
817.296	7843
817.395	9413
817.493	11612
817.591	12563
817.689	19558
817.787	24380
817.885	39399
817.983	69793
818.081	139342
818.179	304874
818.277	643543
818.375	512385
818.473	213801
818.571	105884
818.669	69678
818.767	65395
818.865	58071
818.963	60535
819.061	82790
819.158	133772
819.256	255575
819.354	534067
819.452	903356
819.549	588730
819.647	261360
819.745	134241
819.842	84171
819.940	57737
820.038	43122
820.135	31906
820.233	26008
820.330	19066
820.428	15300
820.525	14934
820.623	12361
820.720	10374
820.818	9421
820.915	9747
821.012	11927
821.110	10118
821.207	8801
821.304	7522
821.402	10266
821.499	18394
821.596	33496
821.693	21618
821.791	6475
821.888	4870
821.985	5127
822.082	5720
822.179	9597
822.276	14668
822.373	8397
822.470	3657
822.567	2380
822.664	1509
822.761	2153
822.858	1727
822.955	3017
823.052	2685
823.149	1489
823.246	1802
823.343	1712
823.440	1224
823.536	1508
823.633	1176
823.730	1050
823.827	1661
823.923	1857
824.020	3399
824.117	5981
824.213	12386
824.310	6833
824.407	1182
824.503	1233
824.600	1367
824.696	416
824.793	1995
824.889	146
824.986	968
825.082	12
825.179	897
825.275	224
825.371	758
825.468	1225
825.564	-186
825.660	502
825.757	-189
825.853	702
825.949	-756
826.045	9
826.142	198
826.238	274
826.334	-308
826.430	-962
826.526	706
826.622	-519
826.718	-321
826.814	-428
826.910	359
827.006	-749
827.102	-907
827.198	75
827.294	-360
827.390	298
827.486	185
827.582	-1512
827.678	-1045
827.774	426
827.869	-305
827.965	726
828.061	-1095
828.157	-818
828.252	233
828.348	-1470
828.444	452
828.539	-1158
828.635	-745
828.731	1229
828.826	-950
828.922	-408
829.017	-329
829.113	-700
829.208	-450
829.304	-902
829.399	784
829.495	-913
829.590	269
829.685	-528
829.781	-588
829.876	-939
829.971	144
830.066	-749
830.162	-500
830.257	-543
830.352	-262
830.447	561
830.543	203
830.638	-1737
830.733	370
830.828	-637
830.923	-355
831.018	-999
831.113	-741
831.208	-1694
831.303	-1461
831.398	-1209
831.493	-23
831.588	257
831.683	-894
831.778	264
831.873	-886
831.967	-1144
832.062	-913
832.157	-725
832.252	-62
832.346	-871
832.441	-428
832.536	-1127
832.631	-779
832.725	-943
832.820	-768
832.914	-1196
833.009	-1009
833.104	-575
833.198	233
833.293	-1203
833.387	-143
833.482	-1270
833.576	-1118
833.670	-140
833.765	-406
833.859	-1445
833.954	-404
834.048	-906
834.142	-668
834.237	-1149
834.331	-663
834.425	-762
834.519	-968
834.613	-145
834.708	-577
834.802	-461
834.896	-1284
834.990	-1155
835.084	-655
835.178	-295
835.272	-878
835.366	-370
835.460	-271
835.554	-527
835.648	-252
835.742	-1437
835.836	-839
835.930	-2197
836.024	-337
836.117	-652
836.211	-1076
836.305	-921
836.399	-208
836.493	-2302
836.586	402
836.680	-614
836.774	-942
836.867	41
836.961	-828
837.055	-1374
837.148	-713
837.242	-727
837.335	-808
837.429	-955
837.522	-815
837.616	-625
837.709	-519
837.803	-1942
837.896	-489
837.989	-1585
838.083	-865
838.176	-1021
838.269	-1260
838.363	-924
838.456	-1179
838.549	-48
838.642	-1004
838.735	-182
838.829	-189
838.922	-1683
839.015	-657
839.108	-1376
839.201	3
839.294	-939
839.387	-627
839.480	-1098
839.573	-653
839.666	-1151
839.759	-769
839.852	-1177
839.945	-267
840.038	-1218
840.131	-696
840.223	-308
840.316	-214
840.409	-711
840.502	-1065
840.594	180
840.687	-1869
840.780	-947
840.873	-1086
840.965	-945
841.058	-680
841.150	-751
841.243	-1319
841.336	-472
841.428	-1252
841.521	-1327
841.613	-2137
841.706	-728
841.798	-1310
841.890	-616
841.983	-1307
842.075	-417
842.167	-810
842.260	-1029
842.352	83
842.444	-795
842.537	-456
842.629	-680
842.721	-353
842.813	-1318
842.905	-1169
842.997	-1006
843.090	-1834
843.182	-213
843.274	-439
843.366	-592
843.458	-1116
843.550	16
843.642	-830
843.734	-720
843.826	-1150
843.918	-923
844.009	582
844.101	-57
844.193	555
844.285	958
844.377	6197
844.469	12499
844.560	22558
844.652	22185
844.744	6383
844.835	834
844.927	-48
845.019	-259
845.110	307
845.202	-578
845.293	-800
845.385	-1400
845.476	-416
845.568	-631
845.659	-409
845.751	-428
845.842	-501
845.934	-1525
846.025	-607
846.116	-1025
846.208	-569
846.299	-1584
846.390	-11
846.482	-1418
846.573	-643
846.664	-832
846.755	-1289
846.846	-336
846.937	-1716
847.029	-1636
847.120	-1172
847.211	-1822
847.302	266
847.393	-1451
847.484	-1011
847.575	-779
847.666	-1306
847.757	-744
847.847	-1123
847.938	40
848.029	-1230
848.120	-1194
848.211	-1339
848.302	-1065
848.392	-1265
848.483	-457
848.574	-968
848.664	-1707
848.755	-384
848.846	-1073
848.936	-1663
849.027	-369
849.118	-1005
849.208	-1590
849.299	-689
849.389	1189
849.480	3512
849.570	8591
849.661	19178
849.751	29401
849.841	9621
849.932	298
850.022	-141
850.112	255
850.203	-872
850.293	-779
850.383	-920
850.474	-1790
850.564	-878
850.654	-396
850.744	-708
850.834	-1403
850.924	-447
851.014	-1653
851.104	-1195
851.194	-1761
851.284	-649
851.374	-1802
851.464	-189
851.554	-1110
851.644	-564
851.734	-1075
851.824	-1197
851.914	-1746
852.004	-83
852.094	-1752
852.183	-1483
852.273	-1590
852.363	-1244
852.452	-1436
852.542	-776
852.632	-2002
852.721	-1369
852.811	-1255
852.901	-882
852.990	-797
853.080	287
853.169	-446
853.259	363
853.348	-409
853.438	515
853.527	1297
853.617	2655
853.706	7430
853.795	15602
853.885	38174
853.974	72149
854.063	135763
854.152	199002
854.242	67285
854.331	10585
854.420	3595
854.509	1739
854.598	1502
854.687	1044
854.777	43
854.866	61
854.955	-18
855.044	291
855.133	-698
855.222	-39
855.311	-776
855.400	274
855.488	-660
855.577	-147
855.666	-499
855.755	-466
855.844	-767
855.933	-920
856.021	-1255
856.110	-359
856.199	-824
856.288	23
856.376	-809
856.465	-433
856.554	97
856.642	208
856.731	1170
856.819	978
856.908	-1210
856.996	-879
857.085	-1787
857.173	-1380
857.262	-1087
857.350	-1445
857.438	-2001
857.527	-588
857.615	-975
857.703	-807
857.792	-1020
857.880	-1240
857.968	-1783
858.056	-813
858.145	-656
858.233	-1299
858.321	-1602
858.409	36
858.497	-1034
858.585	-1080
858.673	-1075
858.761	-1340
858.849	-1716
858.937	-1234
859.025	-303
859.113	223
859.201	158
859.289	3325
859.377	2199
859.465	810
859.552	-1118
859.640	-1289
859.728	-306
859.816	-562
859.903	-998
859.991	-1532
860.079	-1050
860.166	-689
860.254	-1299
860.342	-881
860.429	-1539
860.517	-1023
860.604	-1049
860.692	43
860.779	-816
860.867	-1176
860.954	-1423
861.042	-1060
861.129	-1328
861.216	-713
861.304	-384
861.391	-1321
861.478	-1299
861.565	-583
861.653	-604
861.740	-785
861.827	-1081
861.914	-781
862.001	-1122
862.089	-1042
862.176	-1061
862.263	-1202
862.350	-322
862.437	-179
862.524	-700
862.611	1413
862.698	3441
862.785	7304
862.871	9174
862.958	3695
863.045	174
863.132	-257
863.219	-876
863.306	-1148
863.392	-254
863.479	-88
863.566	-779
863.652	-639
863.739	-1460
863.826	-1062
863.912	-715
863.999	-1158
864.086	-1276
864.172	-797
864.259	-510
864.345	-1021
864.432	-862
864.518	-380
864.604	-724
864.691	-585
864.777	-677
864.863	-117
864.950	-276
865.036	16
865.122	47
865.209	871
865.295	693
865.381	1181
865.467	2309
865.553	4334
865.639	4224
865.726	7026
865.812	16414
865.898	33655
865.984	48590
866.070	95517
866.156	94040
866.242	22062
866.328	4243
866.414	1327
866.499	825
866.585	1046
866.671	305
866.757	138
866.843	-559
866.928	-286
867.014	-428
867.100	-244
867.186	365
867.271	105
867.357	-488
867.442	368
867.528	1321
867.614	2846
867.699	7980
867.785	11084
867.870	20286
867.956	27674
868.041	14125
868.127	9929
868.212	14526
868.297	13906
868.383	5639
868.468	6056
868.553	5854
868.639	1876
868.724	-467
868.809	174
868.894	-136
868.979	132
869.065	-685
869.150	-454
869.235	-1506
869.320	-416
869.405	-390
869.490	-1265
869.575	-964
869.660	214
869.745	-678
869.830	-1135
869.915	-1059
870.000	1204
870.085	1518
870.169	4312
870.254	4530
870.339	575
870.424	-1234
870.509	276
870.593	-1213
870.678	35
870.763	-464
870.847	2350
870.932	1689
871.016	4863
871.101	5298
871.186	1666
871.270	-950
871.355	-686
871.439	-484
871.523	791
871.608	1397
871.692	2286
871.777	4737
871.861	1827
871.945	-283
872.030	450
872.114	-1296
872.198	-668
872.282	-760
872.367	-1181
872.451	-1008
872.535	-1354
872.619	-912
872.703	226
872.787	-168
872.871	-18
872.955	-1202
873.039	-820
873.123	-1093
873.207	-45
873.291	-1470
873.375	-954
873.459	-1319
873.543	-779
873.627	-508
873.711	-1193
873.794	-151
873.878	-1060
873.962	-1059
874.045	-90
874.129	-984
874.137	-937
874.213	-467
874.245	-812
874.296	-1370
874.352	-1131
874.380	-1019
874.460	-89
874.464	-52
874.547	96
874.568	-109
874.631	-738
874.676	-388
874.714	-99
874.784	-485
874.798	-557
874.881	-455
874.892	-523
874.965	-1009
874.999	-931
875.048	-778
875.107	-1031
875.131	-1166
875.215	-398
875.215	-398
875.298	-610
875.323	-533
875.381	-455
875.430	-675
875.465	-753
875.538	-599
875.548	-596
875.631	-939
875.646	-997
875.714	-1152
875.753	-855
875.798	-547
875.861	-562
875.881	-595
875.964	-904
875.968	-901
876.047	-680
876.076	-628
876.130	-611
876.183	-984
876.213	-1165
876.291	-587
876.296	-550
876.379	-1260
876.398	-1086
876.462	-519
876.506	-420
876.545	-268
876.613	-643
876.628	-744
876.711	-574
876.721	-535
876.794	-231
876.828	-429
876.877	-717
876.935	-390
876.960	-214
877.043	206
877.043	204
877.125	-104
877.150	70
877.208	523
877.258	391
877.291	282
877.365	248
877.374	248
877.456	298
877.472	337
877.539	448
877.579	664
877.622	881
877.687	308
877.704	152
877.787	-181
877.794	-221
877.869	-536
877.901	-272
877.952	135
878.008	96
878.034	23
878.115	-156
878.117	-157
878.199	-712
878.222	-682
878.282	-325
878.329	-289
878.364	-428
878.437	-318
878.447	-307
878.529	-576
878.544	-691
878.611	-1099
878.651	-651
878.694	-94
878.758	-92
878.776	-114
878.858	-452
878.865	-463
878.941	-606
878.972	-470
879.023	-258
879.078	-790
879.105	-952
879.185	-98
879.187	-86
879.269	-306
879.292	-436
879.351	-407
879.399	-455
879.433	-724
879.506	-462
879.516	-365
879.598	29
879.613	41
879.680	-178
879.720	-282
879.762	-352
879.827	-295
879.844	-265
879.926	-711
879.933	-722
880.007	-657
880.040	-565
880.089	-771
880.147	-987
880.171	-853
880.253	-392
880.254	-394
880.335	-569
880.360	-602
880.417	-459
880.467	-52
880.499	85
880.574	51
880.580	70
880.662	-60
880.680	-53
880.744	-179
880.787	86
880.825	249
880.893	-448
880.907	-517
880.989	-155
881.000	-166
881.070	-458
881.106	-473
881.152	-146
881.213	-248
881.233	-423
881.315	-245
881.319	-269
881.396	-714
881.426	-838
881.478	-845
881.532	-647
881.559	-560
881.639	-601
881.641	-590
881.722	234
881.745	347
881.803	386
881.852	63
881.885	7
881.958	279
881.966	219
882.047	-172
882.064	-296
882.129	128
882.171	323
882.210	104
882.277	-49
882.291	-23
882.372	-439
882.383	-438
882.454	-56
882.489	-26
882.535	-246
882.596	-158
882.616	-143
882.697	-661
882.702	-637
882.778	609
882.808	635
882.859	-11
882.914	-132
882.940	95
883.020	434
883.021	433
883.102	-247
883.127	-367
883.183	185
883.233	451
883.264	374
883.339	113
883.345	113
883.426	309
883.445	305
883.507	3
883.551	-122
883.587	74
883.657	22
883.668	-48
883.749	84
883.763	66
883.830	29
883.869	-112
883.910	-164
883.975	-292
883.991	-344
884.072	-149
884.081	-188
884.152	-376
884.187	-264
884.233	95
884.292	241
884.314	160
884.394	-28
884.398	-36
884.475	220
884.504	193
884.555	58
884.610	148
884.636	205
884.716	234
884.716	239
884.797	131
884.821	156
884.877	193
884.927	58
884.958	23
885.033	306
885.038	329
885.118	158
885.139	199
885.199	-27
885.244	-215
885.279	8
885.350	272
885.359	300
885.439	487
885.456	589
885.520	478
885.561	174
885.600	108
885.667	428
885.680	544
885.760	681
885.773	731
885.840	207
885.878	-120
885.920	-72
885.984	-45
886.000	58
886.080	495
886.089	570
886.160	486
886.195	268
886.240	35
886.300	-109
886.320	-26
886.400	261
886.406	274
886.480	93
886.511	-31
886.560	-43
886.616	68
886.640	199
886.720	367
886.722	370
886.800	136
886.827	28
886.879	381
886.932	623
886.959	751
887.038	1163
887.039	1161
887.119	185
887.143	-77
887.198	272
887.248	445
887.278	169
887.354	-489
887.358	-433
887.437	664
887.459	962
887.517	856
887.564	741
887.596	682
887.669	275
887.676	295
887.755	721
887.774	795
887.835	916
887.880	1040
887.914	652
887.985	-333
887.994	-240
888.073	680
888.090	861
888.153	342
888.195	14
888.232	495
888.300	1264
888.311	1149
888.391	344
888.405	180
888.470	233
888.510	288
888.549	469
888.615	749
888.628	792
888.708	1019
888.720	1038
888.787	886
888.825	811
888.866	705
888.930	483
888.945	387
889.024	-86
889.035	-160
889.103	770
889.140	1277
889.182	1043
889.245	677
889.261	739
889.340	999
889.349	1024
889.419	787
889.454	659
889.498	465
889.559	180
889.577	235
889.656	482
889.664	503
889.735	1053
889.768	1313
889.814	1042
889.873	671
889.978	582
890.083	384
890.187	1409
890.292	954
890.397	228
890.501	665
890.606	646
890.710	1597
890.815	1009
890.919	1450
891.024	1358
891.128	2319
891.233	1822
891.337	554
891.442	247
891.546	644
891.650	695
891.755	1345
891.859	1380
891.963	633
892.068	1435
892.172	529
892.276	1093
892.380	1049
892.484	1901
892.589	1608
892.693	2705
892.797	878
892.901	1299
893.005	467
893.109	705
893.213	502
893.317	608
893.421	516
893.525	1201
893.629	424
893.733	549
893.837	218
893.941	794
894.045	840
894.148	157
894.252	720
894.356	1437
894.460	1305
894.564	833
894.667	442
894.771	1045
894.875	111
894.978	577
895.082	-75
895.186	1234
895.289	1030
895.393	1216
895.496	675
895.600	176
895.703	-347
895.807	628
895.910	-56
896.014	610
896.117	695
896.221	235
896.324	363
896.427	1082
896.531	402
896.634	1026
896.737	1272
896.840	1092
896.944	285
897.047	135
897.150	450
897.253	672
897.356	338
897.460	564
897.563	797
897.666	716
897.769	973
897.872	563
897.975	1
898.078	26
898.181	-122
898.284	580
898.387	239
898.490	728
898.593	397
898.695	404
898.798	807
898.901	976
899.004	478
899.107	-79
899.209	361
899.312	696
899.415	-66
899.518	806
899.620	-79
899.723	333
899.826	801
899.928	187
900.031	389
900.133	1243
900.236	463
900.338	32
900.441	761
900.543	356
900.646	425
900.748	997
900.851	717
900.953	230
901.055	663
901.158	1094
901.260	566
901.362	785
901.465	867
901.567	333
901.669	655
901.771	220
901.873	423
901.976	844
902.078	647
902.180	919
902.282	230
902.384	37
902.486	226
902.588	1196
902.690	972
902.792	2050
902.894	1845
902.996	1301
903.098	787
903.200	936
903.302	1090
903.404	556
903.505	116
903.607	639
903.709	1231
903.811	276
903.913	-170
904.014	-20
904.116	144
904.218	1042
904.319	941
904.421	2845
904.523	5182
904.624	2713
904.726	745
904.827	2147
904.929	3361
905.030	1733
905.132	965
905.233	1374
905.335	587
905.436	878
905.537	1073
905.639	1054
905.740	916
905.841	1112
905.943	2993
906.044	3751
906.145	2709
906.247	1602
906.348	1918
906.449	1173
906.550	27
906.651	984
906.752	562
906.854	943
906.955	642
907.056	408
907.157	312
907.258	825
907.359	414
907.460	904
907.561	270
907.662	850
907.762	661
907.863	-54
907.964	388
908.065	514
908.166	693
908.267	152
908.367	-49
908.468	360
908.569	277
908.670	693
908.770	31
908.871	123
908.971	-163
909.072	1045
909.173	576
909.273	823
909.374	-349
909.474	38
909.575	398
909.675	-97
909.776	103
909.876	943
909.977	839
910.077	1721
910.177	62
910.278	628
910.378	411
910.478	493
910.579	-181
910.679	66
910.779	809
910.879	233
910.980	541
911.080	639
911.180	-48
911.280	901
911.380	-525
911.480	785
911.580	456
911.680	373
911.780	567
911.880	1083
911.980	231
912.080	698
912.180	98
912.280	521
912.380	247
912.480	740
912.580	1078
912.679	492
912.779	125
912.879	148
912.979	226
913.078	679
913.178	341
913.278	313
913.377	7
913.477	87
913.577	564
913.676	46
913.776	7
913.875	317
913.975	268
914.074	302
914.174	280
914.273	406
914.373	1551
914.472	159
914.572	-721
914.671	583
914.770	369
914.870	476
914.969	609
915.068	1465
915.167	750
915.267	327
915.366	169
915.465	1066
915.564	232
915.663	387
915.763	381
915.862	1232
915.961	124
916.060	-492
916.159	560
916.258	-114
916.357	867
916.456	501
916.555	-89
916.654	944
916.752	503
916.851	361
916.950	562
917.049	222
917.148	758
917.247	1359
917.345	332
917.444	281
917.543	-70
917.642	953
917.740	65
917.839	953
917.937	899
918.036	1055
918.135	583
918.233	616
918.332	472
918.430	-87
918.529	-263
918.627	928
918.726	29
918.824	1188
918.923	478
919.021	609
919.119	202
919.218	-492
919.316	369
919.414	1404
919.512	68
919.611	760
919.709	87
919.807	848
919.905	296
920.003	566
920.102	252
920.200	927
920.298	546
920.396	460
920.494	-361
920.592	-395
920.690	391
920.788	869
920.886	-152
920.984	1042
921.082	-330
921.180	1673
921.277	580
921.375	-227
921.473	16
921.571	427
921.669	768
921.766	-312
921.864	691
921.962	685
922.060	820
922.157	828
922.255	518
922.352	432
922.450	418
922.548	449
922.645	82
922.743	240
922.840	857
922.938	1463
923.035	841
923.133	838
923.230	997
923.327	1346
923.425	926
923.522	1458
923.619	699
923.717	110
923.814	315
923.911	961
924.008	834
924.106	692
924.203	690
924.300	940
924.397	1269
924.494	381
924.591	1110
924.688	742
924.786	466
924.883	775
924.979	388
925.077	1184
925.173	1005
925.270	440
925.367	560
925.464	1816
925.561	1070
925.658	1148
925.755	1597
925.852	2647
925.948	2641
926.045	4889
926.142	5862
926.239	7602
926.335	6399
926.432	5901
926.529	7707
926.625	8346
926.722	5438
926.818	3662
926.915	1369
927.011	1862
927.108	1186
927.204	923
927.301	424
927.397	-55
927.494	240
927.590	728
927.687	36
927.783	649
927.879	637
927.976	-560
928.072	831
928.168	469
928.264	823
928.361	342
928.457	500
928.553	610
928.649	573
928.745	520
928.841	617
928.937	1136
929.033	445
929.129	603
929.225	-54
929.321	747
929.417	74
929.513	906
929.609	757
929.705	887
929.801	461
929.897	-280
929.993	581
930.089	263
930.184	818
930.280	-653
930.376	305
930.471	484
930.567	93
930.663	1612
930.758	-155
930.854	301
930.950	285
931.045	1672
931.141	513
931.236	665
931.332	570
931.427	333
931.523	341
931.618	865
931.714	-560
931.809	170
931.905	437
932.000	564
932.095	-22
932.191	911
932.286	-188
932.381	299
932.476	-454
932.572	367
932.667	-124
932.762	362
932.857	149
932.952	895
933.047	-669
933.142	-212
933.237	-724
933.332	397
933.427	-282
933.522	1089
933.617	522
933.712	1054
933.807	693
933.902	184
933.997	306
934.092	303
934.187	-346
934.282	451
934.376	-394
934.471	302
934.566	609
934.661	574
934.755	15
934.850	471
934.945	264
935.039	274
935.134	967
935.228	48
935.323	83
935.417	775
935.512	-156
935.606	204
935.701	-21
935.795	279
935.890	-108
935.984	123
936.079	-382
936.173	347
936.267	-514
936.362	-92
936.456	293
936.550	165
936.644	-562
936.738	-203
936.833	477
936.927	-9
937.021	562
937.115	602
937.209	-762
937.303	827
937.397	-111
937.491	193
937.585	768
937.679	146
937.773	-256
937.867	934
937.961	114
938.055	701
938.149	677
938.243	374
938.337	433
938.430	2195
938.524	4454
938.618	9390
938.712	8116
938.805	2581
938.899	1332
938.993	2602
939.086	4107
939.180	12250
939.274	15415
939.367	5646
939.461	2011
939.554	566
939.648	309
939.741	-100
939.835	109
939.928	581
940.022	416
940.115	406
940.208	423
940.302	-483
940.395	42
940.488	587
940.582	124
940.675	232
940.768	35
940.861	-214
940.954	372
941.048	-485
941.141	838
941.234	2069
941.327	3311
941.420	4850
941.513	2381
941.606	274
941.699	91
941.792	252
941.885	171
941.978	451
942.071	-150
942.164	-418
942.257	266
942.349	-408
942.442	208
942.535	209
942.628	-691
942.721	915
942.813	-1806
942.906	109
942.999	294
943.091	195
943.184	-862
943.277	-332
943.369	558
943.462	-519
943.554	190
943.647	-82
943.739	-43
943.832	-306
943.924	-453
944.017	1119
944.109	-398
944.201	-54
944.294	-159
944.386	-967
944.478	-378
944.571	-16
944.663	439
944.755	-110
944.847	-603
944.940	-351
945.032	-833
945.124	584
945.216	107
945.308	155
945.400	659
945.492	266
945.584	-172
945.676	767
945.768	48
945.860	483
945.952	597
946.044	1729
946.136	994
946.228	166
946.320	-666
946.412	-126
946.503	-16
946.595	1222
946.687	-320
946.779	-381
946.870	-1091
946.962	-609
947.054	-181
947.145	114
947.237	154
947.329	621
947.420	-139
947.512	-94
947.603	-227
947.695	-735
947.786	-584
947.878	-68
947.969	-810
948.061	-524
948.152	-1459
948.243	-752
948.335	-957
948.426	-1311
948.517	-434
948.609	-409
948.700	-892
948.791	-336
948.882	397
948.973	-750
949.065	-1508
949.156	-450
949.247	-1007
949.338	-145
949.429	-1097
949.520	-99
949.611	-1772
949.702	655
949.793	242
949.884	424
949.975	-327
950.066	-971
950.157	-1149
950.247	-805
950.338	-1297
950.429	-541
950.520	-570
950.611	-143
950.701	-869
950.792	661
950.883	-656
950.973	-237
951.064	-742
951.155	-920
951.245	-439
951.336	-850
951.427	-739
951.517	161
951.608	-747
951.698	-557
951.788	-863
951.879	-803
951.969	-1072
952.060	-356
952.150	-605
952.240	-121
952.331	-2028
952.421	99
952.511	-1119
952.602	-921
952.692	-62
952.782	100
952.872	-849
952.962	-977
953.052	-481
953.143	-1307
953.233	-564
953.323	-333
953.413	-1243
953.503	-169
953.593	-835
953.683	-675
953.773	-910
953.863	-1293
953.953	-1427
954.042	-686
954.132	-1502
954.222	-46
954.312	-376
954.402	-1815
954.492	-1048
954.581	-594
954.671	-1377
954.761	-1140
954.850	26
954.940	-1156
955.030	-1255
955.119	-603
955.209	-1167
955.298	-1439
955.388	-944
955.477	-1042
955.567	-990
955.656	685
955.746	99
955.835	-335
955.925	-324
956.014	-303
956.103	-629
956.193	-984
956.282	-1028
956.371	78
956.461	-1248
956.550	-775
956.639	-506
956.728	-1051
956.817	-840
956.906	-1074
956.995	-257
957.085	-922
957.174	-937
957.263	-645
957.352	-1005
957.441	-1598
957.530	-1135
957.619	-666
957.708	-1387
957.796	-858
957.885	-1909
957.974	-1281
958.063	-752
958.152	-1253
958.241	-897
958.329	-716
958.418	-736
958.507	-1536
958.596	-32
958.684	-1146
958.773	-371
958.861	-953
958.950	-662
959.039	-315
959.127	-1683
959.216	-563
959.304	-1611
959.393	-714
959.481	-818
959.570	-256
959.658	-1055
959.746	-16
959.835	-1743
959.923	-1205
960.011	-2068
960.100	-339
960.188	-1084
960.276	-923
960.365	-1785
960.453	-624
960.541	-1826
960.629	-1089
960.717	-1551
960.805	-1354
960.893	-898
960.981	-1011
961.069	-874
961.158	-1198
961.245	-1242
961.333	-1438
961.421	-1519
961.509	-642
961.597	-1043
961.685	-1921
961.773	-1505
961.861	-1533
961.949	-1342
962.036	-1195
962.124	-1223
962.212	-1442
962.299	-1838
962.387	-1161
962.475	-979
962.562	-2123
962.650	-1657
962.738	-947
962.825	-1589
962.913	-1281
963.000	-1450
963.088	-1451
963.175	-1135
963.263	-1513
963.350	-1557
963.438	-1559
963.525	-1871
963.612	-767
963.700	-1473
963.787	-1083
963.874	-1587
963.962	-1501
964.049	-946
964.136	-701
964.223	-2427
964.310	-1753
964.398	-1797
964.485	-1728
964.572	-1332
964.659	-1127
964.746	-2300
964.833	-1775
964.920	-1427
965.007	-1029
965.094	-898
965.181	-1548
965.268	-1814
965.355	-1709
965.441	-1366
965.528	-2059
965.615	-560
965.702	-1237
965.789	-2388
965.875	-1289
965.962	-1517
966.049	-1967
966.136	-1816
966.222	-1482
966.309	-1766
966.395	-2218
966.482	-1843
966.569	-1729
966.655	-1910
966.742	-1938
966.828	-1362
966.915	-1560
967.001	-2175
967.087	-1230
967.174	-2163
967.260	-1640
967.347	-2112
967.433	-1838
967.519	-1347
967.605	-1682
967.692	-2525
967.778	-1730
967.864	-1674
967.950	-1034
968.036	-2317
968.123	-1240
968.209	-1479
968.295	-2111
968.381	-745
968.467	-1310
968.553	-2220
968.639	-1230
968.725	-1787
968.811	-1049
968.897	-1635
968.983	-1543
969.069	-2397
969.154	-816
969.240	-1028
969.326	-1690
969.412	-2549
969.497	-1987
969.583	-2443
969.669	-780
969.755	-1118
969.840	-1140
969.926	-1455
970.012	-1233
970.097	-1047
970.183	-983
970.268	-1561
970.354	-1844
970.439	-2401
970.525	-1242
970.610	-2649
970.696	-1408
970.781	-2043
970.866	-2037
970.952	-1226
971.037	-2164
971.122	-1675
971.208	-1644
971.293	-1763
971.378	-2142
971.463	-1111
971.549	-1338
971.634	-1307
971.719	-956
971.804	-2011
971.889	-1268
971.974	-1631
972.059	-2133
972.144	-2156
972.229	-2054
972.314	-1746
972.399	-1620
972.484	-1733
972.569	-1722
972.654	-1829
972.739	-1405
972.824	-2638
972.908	-1534
972.993	-1226
973.078	-2571
973.163	-1501
973.247	-636
973.332	-2767
973.417	-754
973.501	-1587
973.586	-2946
973.671	-1847
973.755	-720
973.840	-2083
973.924	-1199
974.009	-858
974.093	-2388
974.178	-909
974.262	-2433
974.346	-2303
974.431	-1693
974.515	-1527
974.600	-1623
974.684	-1422
974.768	-1832
974.852	-1157
974.937	-2472
975.021	-1379
975.105	-1367
975.189	-1060
975.273	-1342
975.358	-2099
975.442	-1486
975.526	-933
975.610	-3034
975.694	-2521
975.778	-961
975.862	-2002
975.946	-3176
976.030	-1098
976.114	-2308
976.198	-1843
976.281	-1583
976.365	-2404
976.449	-1463
976.533	-2021
976.617	-2022
976.700	-1664
976.784	-1585
976.868	-1777
976.951	-1719
977.035	-2618
977.119	-2106
977.202	-1468
977.286	-1713
977.369	-1403
977.453	-1320
977.536	-2605
977.620	-2619
977.703	-1680
977.787	-2004
977.870	-1899
977.953	-1025
978.037	-3601
978.120	-1802
978.203	-2574
978.287	-1343
978.370	-2078
978.453	-1517
978.536	-2299
978.620	-1065
978.703	-2119
978.786	-1718
978.869	-2343
978.952	-2900
979.035	-969
979.118	-2554
979.201	-3119
979.284	-1933
979.367	-2692
979.450	-1261
979.533	-1402
979.616	-2026
979.699	-2214
979.782	-1336
979.865	-1927
979.948	-1318
980.030	-2867
980.113	-1799
980.196	-3020
980.279	-1260
980.361	-1982
980.444	-2096
980.526	-1182
980.609	-2154
980.692	-2208
980.774	-1070
980.857	-3293
980.939	-784
981.022	-2075
981.104	-2063
981.187	-2530
981.269	-1421
981.352	-2163
981.434	-2093
981.516	-1967
981.599	-1575
981.681	-1459
981.763	-1435
981.846	-2119
981.928	-1723
982.010	-2208
982.092	-2154
982.174	-1807
982.256	-1197
982.339	-2362
982.421	-1657
982.503	-1382
982.585	-2931
982.667	-2351
982.749	-2623
982.831	-1883
982.913	-2525
982.995	-958
983.077	-2337
983.158	-978
983.240	-2122
983.322	-1742
983.404	-1325
983.486	-3646
983.568	-1497
983.649	-1610
983.731	-1627
983.813	-2097
983.894	-2072
983.976	-2110
984.058	-2362
984.139	-958
984.221	-2515
984.302	-1935
984.384	-1674
984.465	-1958
984.547	-1768
984.628	-2422
984.710	-1821
984.791	-2165
984.872	-1661
984.954	-2839
985.035	-1553
985.116	-2893
985.198	-2052
985.279	-1040
985.360	-2058
985.441	-2233
985.522	-2036
985.604	-3018
985.685	-3897
985.766	-1605
985.847	-1152
985.928	-2798
986.009	-2124
986.090	-1141
986.171	-1349
986.252	-1871
986.333	-1566
986.414	-2332
986.495	-1568
986.576	-2059
986.656	-2024
986.737	-1460
986.818	-1845
986.899	-2398
986.980	-2658
987.060	-1355
987.141	-2388
987.222	-1903
987.302	-1967
987.383	-2072
987.464	-2369
987.544	-823
987.625	-1655
987.705	-1589
987.786	-2072
987.866	-1943
987.947	-1734
988.027	-2455
988.108	-1868
988.188	-1227
988.268	-2028
988.349	-1795
988.429	-1591
988.509	-2594
988.589	-2253
988.670	-3236
988.750	-781
988.830	-3186
988.910	-2255
988.990	-2375
989.070	-2189
989.151	-2212
989.231	-2141
989.311	-1948
989.391	-2500
989.471	-2310
989.551	-2608
989.631	-2482
989.711	-1462
989.791	-2697
989.870	-2164
989.950	-1319
990.030	-2196
990.110	-2629
990.190	-2889
990.269	-1700
990.349	-2339
990.429	-1749
990.509	-1626
990.588	-2261
990.668	-1556
990.747	-2058
990.827	-2976
990.907	-1793
990.986	-2495
991.066	-2485
991.145	-1519
991.225	-1867
991.304	-2857
991.383	-2142
991.463	-2079
991.542	-2387
991.622	-2279
991.701	-3025
991.780	-3064
991.859	-1701
991.939	-1739
992.018	-1830
992.097	-1685
992.176	-2550
992.256	-2673
992.335	-3208
992.414	-1720
992.493	-2280
992.572	-2070
992.651	-1417
992.730	-2832
992.809	-2407
992.888	-2237
992.967	-2514
993.046	-1727
993.125	-3385
993.203	-2809
993.282	-1728
993.361	-1642
993.440	-2182
993.519	-2982
993.597	-2320
993.676	-1947
993.755	-1554
993.834	-1973
993.912	-3203
993.991	-1198
994.069	-2347
994.148	-2135
994.226	-2641
994.305	-2203
994.384	-2845
994.462	-1805
994.540	-2935
994.619	-1987
994.697	-1726
994.776	-2071
994.854	-1980
994.932	-2934
995.011	-2117
995.089	-2142
995.167	-2701
995.245	-2001
995.324	-3200
995.402	-2120
995.480	-2880
995.558	-2576
995.636	-3440
995.714	-2213
995.792	-1776
995.870	-2833
995.948	-2703
996.026	-2129
996.104	-2890
996.182	-1161
996.260	-2672
996.338	-1851
996.416	-2825
996.494	-2657
996.572	-1939
996.649	-2559
996.727	-3412
996.805	-2111
996.883	-2723
996.960	-3157
997.038	-2784
997.116	-2172
997.193	-3127
997.271	-1937
997.348	-3454
997.426	-1086
997.504	-3798
997.581	-2150
997.658	-1926
997.736	-2634
997.813	-2961
997.891	-1491
997.968	-2581
998.046	-2476
998.123	-2838
998.200	-2436
998.277	-3074
998.355	-2657
998.432	-2595
998.509	-2501
998.586	-2820
998.663	-2306
998.741	-2709
998.818	-2000
998.895	-2768
998.972	-2266
999.049	-2480
999.126	-2832
999.203	-1801
999.280	-1955
999.357	-3178
999.434	-1997
999.511	-2725
999.587	-2032
999.664	-2505
999.741	-1624
999.818	-2917
999.895	-2058
999.971	-2506
1000.048	-2170
1000.125	-2317
1000.202	-2638
1000.278	-2991
1000.355	-1882
1000.431	-3232
1000.508	-2819
1000.584	-2802
1000.661	-2050
1000.738	-3128
1000.814	-2827
1000.890	-2875
1000.967	-2650
1001.043	-2236
1001.120	-3309
1001.196	-2584
1001.272	-2575
1001.349	-2582
1001.425	-2080
1001.501	-2759
1001.577	-2870
1001.654	-2286
1001.730	-2684
1001.806	-2295
1001.882	-3199
1001.958	-2965
1002.034	-2068
1002.110	-1992
1002.186	-2321
1002.262	-2612
1002.338	-2781
1002.414	-2247
1002.490	-1954
1002.566	-2563
1002.642	-3207
1002.718	-1923
1002.794	-2787
1002.870	-2630
1002.945	-3112
1003.021	-2459
1003.097	-2829
1003.173	-2498
1003.248	-2449
1003.324	-1668
1003.400	-2540
1003.475	-2713
1003.551	-2152
1003.626	-2567
1003.702	-2214
1003.777	-2205
1003.853	-3521
1003.928	-4026
1004.004	-1946
1004.079	-2176
1004.155	-2103
1004.230	-2020
1004.305	-1333
1004.381	-2989
1004.456	-2499
1004.531	-2457
1004.607	-2592
1004.682	-2458
1004.757	-2492
1004.832	-3308
1004.907	-2753
1004.982	-3025
1005.057	-1807
1005.133	-2840
1005.208	-2345
1005.283	-3039
1005.358	-1904
1005.433	-2973
1005.508	-2003
1005.583	-3814
1005.657	-2876
1005.732	-1817
1005.807	-3014
1005.882	-2942
1005.957	-2196
1006.032	-2192
1006.106	-2684
1006.181	-2838
1006.256	-2190
1006.331	-3025
1006.405	-2570
1006.480	-2996
1006.554	-2746
1006.629	-2223
1006.704	-2754
1006.778	-2455
1006.853	-2587
1006.927	-2928
1007.002	-2323
1007.076	-2064
1007.150	-2929
1007.225	-3068
1007.299	-2466
1007.373	-3586
1007.448	-1483
1007.522	-1650
1007.596	-2518
1007.671	-2668
1007.745	-3175
1007.819	-3110
1007.893	-2903
1007.967	-3265
1008.041	-2529
1008.115	-1954
1008.190	-3560
1008.264	-2815
1008.338	-3389
1008.412	-2833
1008.486	-2195
1008.560	-2834
1008.633	-2949
1008.707	-2499
1008.781	-1264
1008.855	-2763
1008.929	-3001
1009.003	-3611
1009.076	-2308
1009.150	-2756
1009.224	-2061
1009.298	-2775
1009.371	-3700
1009.445	-1574
1009.519	-3034
1009.592	-3300
1009.666	-2464
1009.739	-2215
1009.813	-2324
1009.886	-1516
1009.960	-2778
1010.033	-2727
1010.107	-2995
1010.180	-2657
1010.253	-2263
1010.327	-2814
1010.400	-2201
1010.473	-1574
1010.547	-685
1010.620	-2859
1010.693	-2014
1010.766	-1909
1010.840	-803
1010.913	-1255
1010.986	-1669
1011.059	-1551
1011.132	-1472
1011.205	-328
1011.278	-1413
1011.351	-1611
1011.424	-1673
1011.497	-1718
1011.570	-1976
1011.643	-2759
1011.716	-1802
1011.789	-2641
1011.862	-2771
1011.934	-3251
1012.007	-3365
1012.080	-1875
1012.153	-2600
1012.225	-1842
1012.298	-2951
1012.371	-3028
1012.443	-1985
1012.516	-2453
1012.588	-2265
1012.661	-2324
1012.733	-3308
1012.806	-1931
1012.879	-2121
1012.951	-3055
1013.023	-2796
1013.096	-3103
1013.168	-2898
1013.241	-2636
1013.313	-2837
1013.385	-3465
1013.458	-2197
1013.530	-2383
1013.602	-2885
1013.674	-1776
1013.746	-3450
1013.819	-3367
1013.891	-1761
1013.963	-3618
1014.035	-2516
1014.107	-2238
1014.179	-2260
1014.251	-3103
1014.323	-2424
1014.395	-2530
1014.467	-2322
1014.539	-2771
1014.611	-3168
1014.683	-2392
1014.754	-2760
1014.826	-3702
1014.898	-1933
1014.970	-3549
1015.042	-1806
1015.113	-2338
1015.185	-3169
1015.257	-3255
1015.328	-2682
1015.400	-3386
1015.471	-2546
1015.543	-3770
1015.615	-2326
1015.686	-2561
1015.757	-2657
1015.829	-1955
1015.901	-1933
1015.972	-3024
1016.043	-3140
1016.115	-3629
1016.186	-2541
1016.257	-3262
1016.328	-2316
1016.400	-1316
1016.471	-3098
1016.542	-3377
1016.613	-2853
1016.685	-2073
1016.756	-2261
1016.827	-2921
1016.898	-2541
1016.969	-3415
1017.040	-2272
1017.111	-3182
1017.182	-3111
1017.253	-2565
1017.324	-3256
1017.395	-2971
1017.466	-2589
1017.537	-3101
1017.608	-1818
1017.678	-2512
1017.749	-2356
1017.820	-2850
1017.891	-3130
1017.961	-4195
1018.032	-2489
1018.103	-2837
1018.173	-3054
1018.244	-3117
1018.315	-2941
1018.385	-2368
1018.456	-3375
1018.526	-2930
1018.597	-2228
1018.667	-2159
1018.738	-3075
1018.808	-2435
1018.878	-2663
1018.949	-2664
1019.019	-2423
1019.089	-2911
1019.160	-1834
1019.230	-3035
1019.300	-2004
1019.371	-3738
1019.441	-3233
1019.511	-3167
1019.581	-3272
1019.651	-2809
1019.721	-3594
1019.791	-2472
1019.861	-2615
1019.931	-2576
1020.001	-2807
1020.071	-2845
1020.141	-2417
1020.211	-3292
1020.281	-2310
1020.351	-3005
1020.421	-2527
1020.491	-3175
1020.560	-2945
1020.630	-2792
1020.700	-1999
1020.770	-3536
1020.839	-2158
1020.909	-3090
1020.979	-2891
1021.048	-3447
1021.118	-2381
1021.187	-3090
1021.257	-3092
1021.326	-1738
1021.396	-2797
1021.465	-1946
1021.535	-2478
1021.604	-2916
1021.674	-2558
1021.743	-2691
1021.812	-2622
1021.882	-3806
1021.951	-3264
1022.020	-2371
1022.089	-2625
1022.159	-3299
1022.228	-2269
1022.297	-2663
1022.366	-3199
1022.435	-2815
1022.504	-2396
1022.573	-3229
1022.642	-2932
1022.711	-3375
1022.781	-2838
1022.849	-2701
1022.918	-2672
1022.987	-2910
1023.056	-3305
1023.125	-3511
1023.194	-1721
1023.263	-3487
1023.331	-2265
1023.400	-3364
1023.469	-2618
1023.538	-2217
1023.606	-3194
1023.675	-3077
1023.744	-2677
1023.812	-3372
1023.881	-2479
1023.949	-3578
1024.018	-2668
1024.086	-2950
1024.155	-3000
1024.223	-2807
1024.292	-2706
1024.360	-2959
1024.429	-2288
1024.497	-3302
1024.565	-3403
1024.634	-2817
1024.702	-2534
1024.770	-3284
1024.838	-2419
1024.907	-2157
1024.975	-3506
1025.043	-2416
1025.111	-3157
1025.179	-2555
1025.247	-3115
1025.315	-2850
1025.383	-3065
1025.451	-2799
1025.519	-3927
1025.587	-2795
1025.655	-2533
1025.723	-3221
1025.791	-3183
1025.859	-3717
1025.927	-1954
1025.995	-2780
1026.062	-2405
1026.130	-2793
1026.198	-2783
1026.266	-2811
1026.333	-3005
1026.401	-3285
1026.469	-1913
1026.536	-3283
1026.604	-2823
1026.671	-4075
1026.739	-2226
1026.806	-2823
1026.874	-2611
1026.941	-3128
1027.009	-2912
1027.076	-2648
1027.144	-2537
1027.211	-3908
1027.278	-1999
1027.345	-3740
1027.413	-2416
1027.480	-3045
1027.547	-2673
1027.614	-3553
1027.682	-2954
1027.749	-2944
1027.816	-2565
1027.883	-2386
1027.950	-1699
1028.017	-3524
1028.084	-2339
1028.151	-3452
1028.218	-3568
1028.285	-2814
1028.352	-2785
1028.419	-2954
1028.486	-2820
1028.553	-2859
1028.619	-3174
1028.686	-3376
1028.753	-3416
1028.820	-2731
1028.886	-3189
1028.953	-3114
1029.020	-2900
1029.086	-3433
1029.153	-2848
1029.220	-2873
1029.286	-2133
1029.353	-3020
1029.419	-2684
1029.486	-3599
1029.552	-3320
1029.619	-3999
1029.685	-3175
1029.751	-4067
1029.818	-1860
1029.884	-3832
1029.951	-2761
1030.017	-3704
1030.083	-3203
1030.149	-3396
1030.216	-2976
1030.282	-2839
1030.348	-1982
1030.414	-3218
1030.480	-2684
1030.546	-3216
1030.612	-2117
1030.678	-3765
1030.744	-2911
1030.810	-3680
1030.876	-3326
1030.942	-3796
1031.008	-2385
1031.074	-2305
1031.140	-3521
1031.206	-1923
1031.272	-3208
1031.337	-1835
1031.403	-2561
1031.469	-3092
1031.534	-2954
1031.600	-2791
1031.666	-2227
1031.731	-3642
1031.797	-2673
1031.863	-3104
1031.928	-2548
1031.994	-3030
1032.059	-2666
1032.125	-2961
1032.190	-2936
1032.256	-2723
1032.321	-2968
1032.386	-3047
1032.452	-2240
1032.517	-3191
1032.582	-3378
1032.647	-3232
1032.713	-2692
1032.778	-2866
1032.843	-2735
1032.908	-3102
1032.974	-2544
1033.039	-2538
1033.104	-2598
1033.169	-2870
1033.234	-2203
1033.299	-2383
1033.364	-3153
1033.429	-3393
1033.494	-2427
1033.559	-3347
1033.624	-3395
1033.688	-2505
1033.753	-3906
1033.818	-3449
1033.883	-1888
1033.948	-3027
1034.013	-2432
1034.077	-3292
1034.142	-2116
1034.207	-2522
1034.271	-1978
1034.336	-1812
1034.400	-2089
1034.465	-3201
1034.530	-2791
1034.594	-2618
1034.658	-2702
1034.723	-3241
1034.787	-2730
1034.852	-2950
1034.916	-2583
1034.981	-3566
1035.045	-2769
1035.109	-3696
1035.173	-1918
1035.238	-3308
1035.302	-1790
1035.366	-2453
1035.430	-2432
1035.495	-3794
1035.559	-2590
1035.623	-3882
1035.687	-2527
1035.751	-2214
1035.815	-3212
1035.879	-2385
1035.943	-2184
1036.007	-3405
1036.071	-2842
1036.135	-3612
1036.198	-2871
1036.262	-3738
1036.326	-2977
1036.390	-3254
1036.454	-3030
1036.517	-3031
1036.581	-3147
1036.645	-3017
1036.709	-2771
1036.772	-2827
1036.836	-2829
1036.900	-3438
1036.963	-2752
1037.026	-2716
1037.090	-2834
1037.154	-2968
1037.217	-2083
1037.280	-3230
1037.344	-2267
1037.407	-3503
1037.471	-3214
1037.534	-2858
1037.597	-2321
1037.661	-3056
1037.724	-3474
1037.787	-2915
1037.850	-2527
1037.913	-3640
1037.977	-2704
1038.040	-2537
1038.103	-2079
1038.166	-2666
1038.229	-2655
1038.292	-3303
1038.355	-2582
1038.418	-3337
1038.481	-1669
1038.544	-3942
1038.607	-3012
1038.670	-3434
1038.732	-3128
1038.795	-3692
1038.858	-3063
1038.921	-2965
1038.984	-2453
1039.046	-2852
1039.109	-3449
1039.172	-2588
1039.234	-3454
1039.297	-3668
1039.360	-2504
1039.422	-3052
1039.485	-3344
1039.547	-3110
1039.610	-3097
1039.672	-3508
1039.734	-2683
1039.797	-2992
1039.859	-3171
1039.922	-2780
1039.984	-3314
1040.046	-3371
1040.109	-3371
1040.171	-2880
1040.233	-3130
1040.295	-3091
1040.358	-2932
1040.420	-2429
1040.482	-3409
1040.544	-3945
1040.606	-2757
1040.668	-2953
1040.730	-3151
1040.792	-2912
1040.854	-2413
1040.916	-2870
1040.978	-3420
1041.040	-2778
1041.102	-2962
1041.164	-3113
1041.225	-3096
1041.287	-3041
1041.349	-3429
1041.411	-3376
1041.472	-2998
1041.534	-3484
1041.596	-2956
1041.657	-2568
1041.719	-3275
1041.781	-3271
1041.842	-3073
1041.904	-3637
1041.965	-2719
1042.027	-3562
1042.088	-2893
1042.150	-2725
1042.211	-2367
1042.272	-2409
1042.334	-2355
1042.395	-2713
1042.456	-2583
1042.518	-3361
1042.579	-2405
1042.640	-3101
1042.701	-2705
1042.763	-3222
1042.824	-2970
1042.885	-3095
1042.946	-3013
1043.007	-2040
1043.068	-2944
1043.129	-3079
1043.190	-3084
1043.251	-2632
1043.312	-3659
1043.373	-3161
1043.434	-3123
1043.495	-3530
1043.556	-2332
1043.616	-3474
1043.677	-2443
1043.738	-2898
1043.799	-2909
1043.859	-2294
1043.920	-2493
1043.981	-3224
1044.041	-2975
1044.102	-3685
1044.162	-2710
1044.223	-3506
1044.284	-2584
1044.344	-3414
1044.405	-2928
1044.465	-3480
1044.525	-2583
1044.586	-3798
1044.646	-2801
1044.707	-2697
1044.767	-2578
1044.827	-3039
1044.887	-1836
1044.948	-3241
1045.008	-3268
1045.068	-2302
1045.128	-2470
1045.188	-2627
1045.249	-2008
1045.309	-2661
1045.369	-2372
1045.429	-3374
1045.489	-1981
1045.549	-3653
1045.609	-2014
1045.669	-2968
1045.729	-2223
1045.789	-3130
1045.848	-3068
1045.908	-2490
1045.968	-1670
1046.028	-3042
1046.088	-2195
1046.147	-2320
1046.207	-2910
1046.267	-2441
1046.326	-2274
1046.386	-2252
1046.446	-1784
1046.505	-2225
1046.565	-2497
1046.624	-2373
1046.684	-1554
1046.743	-2344
1046.803	-161
1046.862	-1447
1046.922	0
