'Start Wavelength	183.907
'End Wavelength	1046.922
'Gate Delay	5.000
'Gate Width (ms)	1.050
'Laser Output Level	0.000
'X Position	0.000
'Y Position	0.000
'Z Position	0.000
'Grid Point Number	1.000
'Shot Number	100.000
183.907	87.000
183.977	-9.000
184.047	175
184.116	891
184.186	-292
184.256	545
184.325	168
184.395	353
184.465	657
184.534	-113
184.604	-46
184.674	-549
184.743	-79
184.813	29
184.883	14
184.952	801
185.022	590
185.092	43
185.161	-172
185.231	356
185.301	332
185.370	846
185.440	44
185.509	84
185.579	637
185.649	328
185.718	1036
185.788	-274
185.857	-400
185.927	259
185.996	-231
186.066	471
186.136	418
186.205	544
186.275	359
186.344	-73
186.414	128
186.483	566
186.553	1042
186.622	1645
186.692	648
186.761	1168
186.831	368
186.900	4
186.970	643
187.039	672
187.109	650
187.178	650
187.248	277
187.317	727
187.387	47
187.456	657
187.526	92
187.595	495
187.664	254
187.734	917
187.803	777
187.873	233
187.942	425
188.012	611
188.081	444
188.150	719
188.220	885
188.289	1562
188.358	848
188.428	548
188.497	468
188.567	964
188.636	605
188.705	751
188.775	936
188.844	155
188.913	1370
188.983	692
189.052	340
189.121	234
189.191	498
189.260	1937
189.329	747
189.399	631
189.468	1463
189.537	660
189.606	40
189.676	1094
189.745	1597
189.814	1132
189.883	-172
189.953	1151
190.022	1517
190.091	2382
190.161	2654
190.230	1451
190.299	127
190.368	416
190.437	324
190.507	1376
190.576	414
190.645	580
190.714	941
190.783	1137
190.853	892
190.922	2343
190.991	1107
191.060	1809
191.129	1306
191.198	1243
191.268	-428
191.337	-22
191.406	1687
191.475	634
191.544	418
191.613	738
191.682	482
191.752	636
191.821	602
191.890	568
191.959	78
192.028	709
192.097	509
192.166	568
192.235	172
192.304	1181
192.373	443
192.442	350
192.511	801
192.580	867
192.650	114
192.719	312
192.788	792
192.857	584
192.926	625
192.995	904
193.064	1021
193.133	1211
193.202	545
193.271	1070
193.340	453
193.409	962
193.478	711
193.547	1141
193.615	336
193.684	232
193.753	1042
193.822	1146
193.891	404
193.960	396
194.029	543
194.098	626
194.167	-313
194.236	745
194.305	532
194.374	368
194.443	350
194.512	672
194.580	-128
194.649	516
194.718	-138
194.787	613
194.856	-45
194.925	1293
194.994	246
195.062	478
195.131	709
195.200	711
195.269	786
195.338	952
195.407	771
195.475	1274
195.544	654
195.613	412
195.682	42
195.751	878
195.819	-219
195.888	371
195.957	1358
196.026	500
196.094	807
196.163	1288
196.232	701
196.301	501
196.369	302
196.438	753
196.507	1494
196.576	933
196.644	753
196.713	993
196.782	1005
196.850	727
196.919	919
196.988	1056
197.056	303
197.125	1299
197.194	1007
197.262	848
197.331	1018
197.400	299
197.468	871
197.537	1293
197.606	1011
197.674	2248
197.743	2576
197.812	888
197.880	2609
197.949	1768
198.017	2678
198.086	1111
198.155	391
198.223	1219
198.292	2893
198.360	1672
198.429	1025
198.497	755
198.566	1577
198.635	2852
198.703	924
198.772	947
198.840	3244
198.909	2386
198.977	792
199.046	1123
199.114	1609
199.183	855
199.251	958
199.320	343
199.388	646
199.457	744
199.525	245
199.594	536
199.662	282
199.731	1309
199.799	389
199.867	1165
199.936	583
200.004	1372
200.073	398
200.141	541
200.210	210
200.278	316
200.346	585
200.415	1520
200.483	1470
200.552	1441
200.620	1006
200.688	1327
200.757	386
200.825	464
200.893	928
200.962	304
201.030	763
201.098	756
201.167	1101
201.235	264
201.303	548
201.372	659
201.440	659
201.508	1149
201.577	1360
201.645	1004
201.713	627
201.781	112
201.850	1057
201.918	848
201.986	593
202.055	1066
202.123	1335
202.191	457
202.259	664
202.327	782
202.396	1220
202.464	304
202.532	856
202.600	2408
202.669	1100
202.737	715
202.805	705
202.873	1048
202.941	660
203.009	235
203.078	262
203.146	1259
203.214	1081
203.282	522
203.350	984
203.418	1419
203.487	1234
203.555	353
203.623	910
203.691	854
203.759	757
203.827	603
203.895	1858
203.963	2016
204.031	901
204.099	1702
204.168	1743
204.236	1971
204.304	1136
204.372	1360
204.440	1486
204.508	274
204.576	543
204.644	945
204.712	247
204.780	996
204.848	1658
204.916	520
204.984	1199
205.052	1865
205.120	1278
205.188	770
205.256	539
205.324	1237
205.392	185
205.460	1711
205.528	777
205.596	1490
205.664	914
205.732	1004
205.799	3677
205.867	5011
205.935	1276
206.003	1466
206.071	1522
206.139	1571
206.207	1836
206.275	1781
206.343	2294
206.411	1745
206.478	640
206.546	1053
206.614	2083
206.682	1885
206.750	621
206.818	2005
206.885	1842
206.953	1226
207.021	1349
207.089	713
207.157	350
207.225	1301
207.292	176
207.360	483
207.428	889
207.496	501
207.563	902
207.631	653
207.699	703
207.767	1367
207.834	822
207.902	1211
207.970	1000
208.038	1247
208.105	651
208.173	1381
208.241	1427
208.309	1100
208.376	1028
208.444	2387
208.512	1337
208.579	727
208.647	1855
208.715	2152
208.782	1356
208.850	1499
208.918	1297
208.985	829
209.053	1442
209.120	512
209.188	565
209.256	579
209.323	932
209.391	890
209.459	2226
209.526	705
209.594	827
209.661	1057
209.729	1463
209.796	1077
209.864	1206
209.932	546
209.999	1582
210.067	1053
210.134	979
210.202	1611
210.269	1764
210.337	4108
210.404	1826
210.472	1251
210.539	1628
210.607	1101
210.674	281
210.742	1405
210.809	1355
210.877	1295
210.944	1550
211.012	1423
211.079	2514
211.146	1001
211.214	1717
211.281	3702
211.349	2432
211.416	2167
211.484	1226
211.551	507
211.618	2214
211.686	1995
211.753	1574
211.821	3021
211.888	2042
211.955	1879
212.023	1769
212.090	1315
212.157	2177
212.225	2445
212.292	3147
212.359	7430
212.427	15540
212.494	5998
212.561	2700
212.629	2741
212.696	2653
212.763	2100
212.831	524
212.898	1810
212.965	1351
213.032	1165
213.100	828
213.167	1089
213.234	1604
213.301	1457
213.369	1442
213.436	691
213.503	1109
213.570	1153
213.638	619
213.705	436
213.772	1409
213.839	1291
213.906	1340
213.973	2515
214.041	1229
214.108	1625
214.175	2006
214.242	2376
214.309	2120
214.376	3447
214.444	1266
214.511	2619
214.578	2131
214.645	1740
214.712	1668
214.779	1201
214.846	1016
214.913	1981
214.980	2253
215.048	3299
215.115	3335
215.182	1983
215.249	1861
215.316	1248
215.383	1495
215.450	1988
215.517	2171
215.584	2267
215.651	1370
215.718	1645
215.785	1646
215.852	2595
215.919	3731
215.986	2539
216.053	2185
216.120	998
216.187	1662
216.254	2720
216.321	1799
216.388	1049
216.455	971
216.522	1801
216.589	1621
216.656	2910
216.722	2141
216.789	2215
216.856	487
216.923	1459
216.990	1130
217.057	1530
217.124	1563
217.191	1254
217.258	1480
217.324	1455
217.391	1965
217.458	1863
217.525	1221
217.592	1691
217.659	896
217.725	2119
217.792	1900
217.859	1775
217.926	870
217.993	2006
218.059	1237
218.126	1467
218.193	1243
218.260	1580
218.327	784
218.393	2040
218.460	1446
218.527	1393
218.594	1139
218.660	2366
218.727	2333
218.794	1562
218.860	1728
218.927	1945
218.994	1537
219.061	1150
219.127	1340
219.194	2682
219.261	1432
219.327	1871
219.394	1390
219.461	1208
219.527	1133
219.594	2117
219.661	1710
219.727	1345
219.794	2044
219.860	1961
219.927	2463
219.994	3507
220.060	6422
220.127	5982
220.193	3017
220.260	2189
220.326	2487
220.393	2624
220.460	1460
220.526	2032
220.593	1992
220.659	2595
220.726	1779
220.792	6745
220.859	3771
220.925	3344
220.992	3821
221.058	6731
221.125	8065
221.191	6724
221.258	2716
221.324	2019
221.391	1765
221.457	1191
221.524	2736
221.590	3857
221.657	9691
221.723	5673
221.789	6452
221.856	5351
221.922	3614
221.989	3125
222.055	2121
222.121	4007
222.188	5542
222.254	3527
222.321	2941
222.387	1883
222.453	2441
222.520	5246
222.586	2936
222.652	4051
222.719	5602
222.785	2488
222.851	2466
222.918	2967
222.984	5432
223.050	9562
223.116	4341
223.183	3535
223.249	2020
223.315	1756
223.382	3244
223.448	1801
223.514	817
223.580	1967
223.647	1064
223.713	1648
223.779	2167
223.845	4811
223.911	3891
223.978	1073
224.044	1584
224.110	1200
224.176	1671
224.242	1812
224.309	1810
224.375	2079
224.441	2513
224.507	2162
224.573	1229
224.639	1841
224.705	1479
224.772	1575
224.838	1254
224.904	1529
224.970	2428
225.036	1631
225.102	796
225.168	2081
225.234	1393
225.300	2033
225.366	1856
225.432	1854
225.499	1710
225.565	1853
225.631	2343
225.697	1820
225.763	1791
225.829	2364
225.895	3640
225.961	3544
226.027	3779
226.093	4896
226.159	5284
226.225	3866
226.291	4746
226.357	7932
226.423	6792
226.489	4131
226.554	3010
226.620	3179
226.686	4117
226.752	8949
226.818	7058
226.884	11721
226.950	8098
227.016	3589
227.082	3388
227.148	3310
227.214	5413
227.279	10555
227.345	9497
227.411	5351
227.477	6516
227.543	15488
227.609	14549
227.674	13041
227.740	5533
227.806	4420
227.872	3713
227.938	5679
228.003	11571
228.069	4201
228.135	1613
228.201	2885
228.267	2198
228.332	1764
228.398	1384
228.464	1627
228.530	1288
228.595	1428
228.661	1109
228.727	2437
228.792	2964
228.858	1414
228.924	1962
228.990	3679
229.055	1699
229.121	2599
229.187	2384
229.252	2217
229.318	2515
229.384	5606
229.449	3534
229.515	1374
229.581	1125
229.646	2116
229.712	1518
229.777	3779
229.843	3818
229.909	3887
229.974	9261
230.040	5168
230.105	2871
230.171	2819
230.236	8837
230.302	10741
230.368	3798
230.433	2915
230.499	4972
230.564	12697
230.630	4402
230.695	2508
230.761	2567
230.826	2064
230.892	4220
230.957	2071
231.023	2600
231.088	1766
231.154	1643
231.219	2300
231.284	1817
231.350	2329
231.415	2693
231.481	2370
231.546	2309
231.612	2310
231.677	1032
231.742	448
231.808	2570
231.873	1278
231.939	110
232.004	2887
232.069	1560
232.135	1966
232.200	1569
232.265	1788
232.331	1451
232.396	1720
232.461	1019
232.527	2230
232.592	1151
232.657	2190
232.723	2350
232.788	2380
232.853	1862
232.918	1759
232.984	1347
233.049	1641
233.114	2293
233.179	2425
233.245	4013
233.310	3062
233.375	2003
233.440	2911
233.506	1863
233.571	2216
233.636	1357
233.701	2194
233.766	1898
233.832	2243
233.897	1484
233.962	1227
234.027	2756
234.092	2243
234.157	3301
234.222	4091
234.288	4225
234.353	6407
234.418	3874
234.483	3651
234.548	2331
234.613	3036
234.678	2783
234.743	2897
234.808	5305
234.873	2616
234.938	2598
235.004	3047
235.069	2913
235.134	2089
235.199	2033
235.264	2096
235.329	1123
235.394	3833
235.459	2944
235.524	2973
235.589	2725
235.654	2013
235.719	1755
235.784	2056
235.849	1928
235.913	3390
235.978	2441
236.043	3314
236.108	2133
236.173	2686
236.238	2080
236.303	1857
236.368	1884
236.433	2768
236.498	3032
236.563	2773
236.627	3893
236.692	11891
236.757	8237
236.822	4358
236.887	3617
236.952	3632
237.017	2007
237.081	3597
237.146	4051
237.211	6365
237.276	13464
237.341	19817
237.405	7756
237.470	4998
237.535	4106
237.600	2607
237.664	2773
237.729	2440
237.794	4217
237.859	3710
237.923	2988
237.988	2721
238.053	4238
238.118	4013
238.182	9181
238.247	8031
238.312	3727
238.376	4053
238.441	5434
238.506	6396
238.570	1606
238.635	3212
238.700	2064
238.764	2016
238.829	4154
238.893	4218
238.958	2976
239.023	3011
239.087	1946
239.152	3306
239.216	1951
239.281	2017
239.346	2351
239.410	1996
239.475	3155
239.539	9359
239.604	5299
239.668	4803
239.733	3377
239.797	10418
239.862	25070
239.926	16177
239.991	6368
240.055	4338
240.120	4199
240.184	3454
240.249	1941
240.313	2316
240.378	3119
240.442	7027
240.507	9755
240.571	5480
240.635	5351
240.700	4837
240.764	2882
240.829	2925
240.893	2485
240.957	3296
241.022	5664
241.086	7486
241.151	5397
241.215	3273
241.279	4504
241.344	3730
241.408	3675
241.472	3720
241.537	3857
241.601	3680
241.665	3246
241.730	3967
241.794	6428
241.858	7182
241.922	3546
241.987	3649
242.051	2535
242.115	7446
242.179	6385
242.244	3834
242.308	3359
242.372	5690
242.436	9928
242.501	3823
242.565	2376
242.629	2709
242.693	3689
242.757	3359
242.822	6161
242.886	4222
242.950	3500
243.014	2601
243.078	3503
243.142	3318
243.206	3581
243.271	5584
243.335	6310
243.399	8317
243.463	23412
243.527	46600
243.591	12707
243.655	5837
243.719	4462
243.783	4541
243.847	6771
243.911	7824
243.975	6461
244.040	5581
244.104	10011
244.168	4809
244.232	3339
244.296	5841
244.360	7292
244.424	2838
244.488	3170
244.552	3606
244.615	2787
244.679	3563
244.743	2401
244.807	2048
244.871	2197
244.935	2752
244.999	3011
245.063	4757
245.127	3037
245.191	5084
245.255	4921
245.319	3556
245.383	2409
245.446	3490
245.510	1556
245.574	3338
245.638	2811
245.702	1656
245.766	5282
245.829	3853
245.893	2912
245.957	3132
246.021	3772
246.085	2989
246.149	3848
246.212	8321
246.276	9215
246.340	4659
246.404	2966
246.467	5062
246.531	5958
246.595	4613
246.659	3953
246.722	2997
246.786	4422
246.850	5259
246.913	3931
246.977	3417
247.041	2578
247.104	3556
247.168	3143
247.232	6052
247.295	10957
247.359	5142
247.423	3302
247.486	4823
247.550	3371
247.614	3011
247.677	4399
247.741	3519
247.804	3032
247.868	3895
247.932	5106
247.995	11217
248.059	3694
248.122	2647
248.186	3188
248.249	4450
248.313	18571
248.376	15739
248.440	9190
248.503	3641
248.567	4955
248.630	4416
248.694	5346
248.757	9045
248.821	17113
248.884	9458
248.948	10016
249.011	13461
249.075	22635
249.138	17062
249.202	6664
249.265	5070
249.328	6370
249.392	5687
249.455	5888
249.519	4189
249.582	4034
249.645	6686
249.709	5019
249.772	4903
249.835	4719
249.899	6410
249.962	5881
250.025	4398
250.089	9318
250.152	9848
250.215	5920
250.279	4650
250.342	4936
250.405	6014
250.468	7606
250.532	7002
250.595	10744
250.658	49809
250.721	64007
250.785	19361
250.848	11215
250.911	7653
250.974	7838
251.038	9014
251.101	14203
251.164	8529
251.227	8374
251.290	8441
251.354	15857
251.417	66627
251.480	51703
251.543	42617
251.606	115887
251.669	71420
251.732	31405
251.795	25612
251.859	30179
251.922	74176
251.985	35315
252.048	24739
252.111	14800
252.174	9211
252.237	14183
252.300	24386
252.363	38614
252.426	83675
252.489	34789
252.552	34123
252.615	19065
252.678	13574
252.741	23133
252.804	45583
252.867	87675
252.930	41472
252.993	35269
253.056	18541
253.119	28047
253.182	16679
253.245	16198
253.308	10869
253.371	7594
253.434	16192
253.497	18065
253.559	20958
253.622	15655
253.685	8728
253.748	6118
253.811	5888
253.874	7736
253.937	5983
254.000	5287
254.062	9629
254.125	13873
254.188	29064
254.251	14940
254.314	6681
254.376	7301
254.439	7566
254.502	6086
254.565	9058
254.628	11968
254.690	5704
254.753	4344
254.816	4472
254.878	4529
254.941	9658
255.004	8256
255.067	4975
255.129	4285
255.192	3599
255.255	3065
255.317	4475
255.380	3602
255.443	3951
255.505	4449
255.568	7677
255.631	10068
255.693	7734
255.756	5128
255.819	5844
255.881	4430
255.944	4815
256.006	3597
256.069	4260
256.132	3581
256.194	4812
256.257	7284
256.319	5534
256.382	6967
256.444	7018
256.507	6258
256.569	4855
256.632	4893
256.694	4804
256.757	9048
256.819	17238
256.882	9237
256.944	6655
257.007	6046
257.069	9845
257.132	12722
257.194	6210
257.257	7131
257.319	6237
257.381	5802
257.444	7942
257.506	23401
257.569	20733
257.631	17779
257.693	9211
257.756	5670
257.818	4482
257.880	5645
257.943	4880
258.005	3940
258.067	11540
258.130	9314
258.192	6479
258.254	5932
258.317	6715
258.379	5897
258.441	7838
258.503	7446
258.566	8644
258.628	10529
258.690	3881
258.753	4505
258.815	6089
258.877	4595
258.939	5239
259.001	7234
259.064	8002
259.126	5786
259.188	5263
259.250	5147
259.312	8592
259.375	24805
259.437	10153
259.499	6247
259.561	5329
259.623	11191
259.685	16227
259.747	7371
259.809	10648
259.872	14080
259.934	28781
259.996	48430
260.058	19323
260.120	7216
260.182	5998
260.244	5037
260.306	5462
260.368	5826
260.430	7691
260.492	33322
260.554	38509
260.616	13114
260.678	12636
260.740	12675
260.802	5238
260.864	5120
260.926	4742
260.988	6793
261.050	11734
261.112	47811
261.174	60297
261.236	18714
261.298	9136
261.359	9465
261.421	11313
261.483	6358
261.545	6204
261.607	4367
261.669	5228
261.731	6143
261.793	9056
261.854	4699
261.916	7243
261.978	23184
262.040	19888
262.102	7305
262.164	6112
262.225	5707
262.287	5665
262.349	5942
262.411	6076
262.472	4860
262.534	6110
262.596	7849
262.658	5845
262.719	4529
262.781	6505
262.843	7827
262.904	7081
262.966	5297
263.028	8368
263.090	32380
263.151	82855
263.213	43064
263.275	34792
263.336	11585
263.398	8789
263.459	6393
263.521	6966
263.583	7484
263.644	6622
263.706	5939
263.767	5233
263.829	5716
263.891	6606
263.952	5824
264.014	7517
264.075	31384
264.137	58380
264.198	18021
264.260	10432
264.321	10907
264.383	30029
264.444	69974
264.506	23866
264.567	15951
264.629	43296
264.690	71563
264.752	22957
264.813	12036
264.875	11403
264.936	18718
264.998	14757
265.059	8372
265.120	6103
265.182	5253
265.243	10321
265.305	9952
265.366	6503
265.427	6421
265.489	9552
265.550	5777
265.611	8048
265.673	11396
265.734	15454
265.795	6021
265.857	4759
265.918	3973
265.979	6102
266.040	15530
266.102	13270
266.163	12229
266.224	19374
266.286	7384
266.347	4745
266.408	4806
266.469	5195
266.530	4243
266.592	3961
266.653	5212
266.714	5496
266.775	4035
266.836	5170
266.898	7025
266.959	27589
267.020	13779
267.081	5733
267.142	5448
267.203	6343
267.264	3384
267.326	5857
267.387	5252
267.448	5449
267.509	4438
267.570	4722
267.631	4679
267.692	3444
267.753	4317
267.814	4037
267.875	6485
267.936	10381
267.997	28628
268.058	13889
268.119	5821
268.180	5382
268.241	4232
268.302	4866
268.363	3904
268.424	4598
268.485	9560
268.546	7224
268.607	4360
268.668	4083
268.729	3916
268.790	5081
268.851	10942
268.912	20574
268.972	10145
269.033	7210
269.094	4818
269.155	6096
269.216	4870
269.277	4906
269.338	4026
269.398	4226
269.459	2473
269.520	4694
269.581	4828
269.642	4877
269.702	4951
269.763	5254
269.824	4211
269.885	4790
269.945	5059
270.006	4507
270.067	3673
270.128	4841
270.188	3668
270.249	5616
270.310	3953
270.370	4338
270.431	4601
270.492	2891
270.553	3581
270.613	6018
270.674	7255
270.734	5110
270.795	3950
270.856	5180
270.916	4243
270.977	4730
271.038	4996
271.098	4352
271.159	4897
271.219	5081
271.280	4190
271.340	4908
271.401	4154
271.462	5904
271.522	6078
271.583	6007
271.643	7295
271.704	6108
271.764	7176
271.825	7144
271.885	18444
271.946	22709
272.006	8283
272.066	15347
272.127	21155
272.187	13443
272.248	8550
272.308	7836
272.369	16041
272.429	10055
272.489	17988
272.550	21403
272.610	11089
272.671	8255
272.731	17878
272.791	18092
272.852	7579
272.912	6635
272.972	6042
273.033	6818
273.093	11070
273.153	21589
273.214	15683
273.274	13979
273.334	49972
273.394	35443
273.455	12965
273.515	24384
273.575	40348
273.635	16069
273.696	14835
273.756	19371
273.816	9385
273.876	7832
273.936	15697
273.997	36997
274.057	13542
274.117	9013
274.177	13449
274.237	54731
274.297	31975
274.358	14007
274.418	16044
274.478	14511
274.538	9860
274.598	8209
274.658	14060
274.718	14084
274.778	7387
274.838	6720
274.898	19300
274.958	26632
275.018	22084
275.078	13293
275.138	7989
275.198	8727
275.258	6883
275.318	7394
275.378	6257
275.438	6054
275.498	6317
275.558	10807
275.618	16733
275.678	12700
275.738	23280
275.798	40068
275.858	33164
275.918	9893
275.978	7324
276.038	7136
276.098	7237
276.157	9916
276.217	10039
276.277	7855
276.337	6201
276.397	5329
276.457	8258
276.517	10207
276.576	6059
276.636	5523
276.696	5245
276.756	7537
276.815	6700
276.875	6488
276.935	5132
276.995	6009
277.055	5382
277.114	6133
277.174	6419
277.234	8717
277.293	5989
277.353	6164
277.413	5283
277.472	5040
277.532	5040
277.592	6210
277.651	10744
277.711	15534
277.771	8116
277.830	18634
277.890	13539
277.950	15609
278.009	34675
278.069	13812
278.128	13620
278.188	15525
278.248	11290
278.307	19469
278.367	11381
278.426	7987
278.486	8641
278.545	6417
278.605	6741
278.664	6337
278.724	6515
278.783	11893
278.843	19953
278.902	8147
278.962	5629
279.021	7750
279.081	8907
279.140	8406
279.199	6458
279.259	6611
279.318	6614
279.378	8745
279.437	15824
279.496	51774
279.556	123703
279.615	73153
279.675	21563
279.734	15741
279.793	23515
279.853	41124
279.912	16471
279.971	10764
280.031	10561
280.090	21786
280.149	32777
280.208	32328
280.268	130281
280.327	83295
280.386	23731
280.445	18577
280.505	20893
280.564	27590
280.623	24763
280.682	15149
280.742	13210
280.801	9708
280.860	9745
280.919	17193
280.978	15680
281.037	17548
281.097	11797
281.156	8649
281.215	8079
281.274	10749
281.333	20200
281.392	11811
281.451	7582
281.510	7347
281.569	7942
281.628	7790
281.688	8688
281.747	13148
281.806	19131
281.865	10347
281.924	7831
281.983	7520
282.042	8263
282.101	7137
282.160	7763
282.219	6779
282.278	5763
282.337	8325
282.396	7175
282.454	6923
282.513	9082
282.572	13980
282.631	8944
282.690	7618
282.749	8248
282.808	16505
282.867	15954
282.926	9444
282.985	8404
283.043	7270
283.102	7036
283.161	10367
283.220	30114
283.279	26607
283.338	11237
283.396	8230
283.455	7816
283.514	8632
283.573	10047
283.631	10390
283.690	10297
283.749	8268
283.808	8088
283.866	8061
283.925	7278
283.984	10096
284.043	10097
284.101	9959
284.160	15959
284.219	39944
284.277	16860
284.336	10090
284.395	14675
284.453	11851
284.512	8399
284.570	10049
284.629	9475
284.688	8780
284.746	7652
284.805	9123
284.863	10188
284.922	10984
284.981	11762
285.039	13941
285.098	27413
285.156	63194
285.215	149311
285.273	122414
285.332	49199
285.390	30823
285.449	22482
285.507	16119
285.566	14084
285.624	13501
285.683	12460
285.741	9287
285.799	10088
285.858	11790
285.916	9581
285.975	9085
286.033	9588
286.091	9886
286.150	10241
286.208	16618
286.267	23938
286.325	12181
286.383	10090
286.442	9098
286.500	8613
286.558	8723
286.616	8252
286.675	8712
286.733	7387
286.791	8986
286.850	12496
286.908	15937
286.966	10220
287.024	8935
287.083	9286
287.141	8038
287.199	7373
287.257	7919
287.315	8299
287.374	8075
287.432	11091
287.490	9976
287.548	10291
287.606	10542
287.664	11889
287.723	22880
287.781	37291
287.839	15593
287.897	12291
287.955	13547
288.013	18901
288.071	35144
288.129	118177
288.187	249908
288.245	107131
288.303	42355
288.361	32000
288.419	51444
288.477	35511
288.535	19623
288.593	16948
288.651	16250
288.709	12297
288.767	12239
288.825	11327
288.883	17877
288.941	17746
288.999	11791
289.057	12904
289.115	22272
289.173	18124
289.231	13426
289.289	11999
289.346	12015
289.404	11757
289.462	11061
289.520	10464
289.578	9618
289.636	10555
289.694	9711
289.751	9673
289.809	10713
289.867	10045
289.925	11633
289.983	11125
290.040	10959
290.098	9802
290.156	9482
290.214	11020
290.271	9958
290.329	11876
290.387	10760
290.444	9666
290.502	10572
290.560	18458
290.617	20027
290.675	13890
290.733	10754
290.790	11322
290.848	12093
290.906	12299
290.963	12125
291.021	14388
291.078	14396
291.136	17181
291.194	52050
291.251	74393
291.309	28074
291.366	15328
291.424	13705
291.481	13538
291.539	13202
291.596	11153
291.654	10954
291.711	9967
291.769	9654
291.826	9301
291.884	9695
291.941	8879
291.999	10052
292.056	9696
292.114	9175
292.171	9428
292.228	11271
292.286	13064
292.343	15995
292.401	16041
292.458	13854
292.515	12234
292.573	12525
292.630	11075
292.687	11838
292.745	14351
292.802	31670
292.859	71303
292.917	36420
292.974	17772
293.031	13315
293.089	14892
293.146	15060
293.203	12384
293.260	13679
293.318	23758
293.375	50260
293.432	27385
293.489	15983
293.546	12954
293.604	16879
293.661	24237
293.718	53388
293.775	50668
293.832	24376
293.889	18852
293.947	17470
294.004	15495
294.061	16617
294.118	25324
294.175	66643
294.232	111327
294.289	49328
294.346	25809
294.403	18920
294.460	17310
294.517	19029
294.574	18659
294.631	17346
294.688	19705
294.745	32449
294.802	91941
294.859	129194
294.916	56319
294.973	28690
295.030	20236
295.087	18579
295.144	17599
295.201	16846
295.258	15014
295.315	15017
295.372	21561
295.429	29282
295.486	26121
295.542	33818
295.599	96769
295.656	142427
295.713	90907
295.770	47296
295.827	27154
295.883	25136
295.940	26123
295.997	35622
296.054	29186
296.111	21839
296.167	19121
296.224	17519
296.281	17451
296.338	17302
296.394	17470
296.451	20960
296.508	43006
296.564	85028
296.621	73000
296.678	58030
296.734	81623
296.791	49299
296.848	33888
296.904	27500
296.961	29882
297.018	45129
297.074	55980
297.131	31287
297.187	21932
297.244	21506
297.301	35327
297.357	45134
297.414	26784
297.470	25433
297.527	24849
297.583	19869
297.640	19266
297.696	18749
297.753	18455
297.809	17336
297.866	15513
297.922	15734
297.979	14208
298.035	15221
298.092	16655
298.148	26649
298.204	25208
298.261	21775
298.317	43657
298.374	65543
298.430	36306
298.486	23804
298.543	21003
298.599	22194
298.656	20041
298.712	24358
298.768	43268
298.824	35045
298.881	21442
298.937	17830
298.993	19967
299.050	23736
299.106	24489
299.162	19267
299.218	17311
299.275	15736
299.331	15872
299.387	21305
299.443	38078
299.500	51946
299.556	37561
299.612	25389
299.668	23380
299.724	38373
299.780	39557
299.837	24626
299.893	23616
299.949	39559
300.005	47051
300.061	52274
300.117	78625
300.173	41592
300.229	24073
300.285	25016
300.341	22228
300.397	19292
300.453	16902
300.510	17405
300.566	20038
300.622	26720
300.678	58169
300.734	63778
300.790	41337
300.845	39321
300.901	40989
300.957	47852
301.013	29509
301.069	21466
301.125	17822
301.181	18554
301.237	17748
301.293	17560
301.349	16141
301.405	16099
301.461	17052
301.516	20311
301.572	19735
301.628	20775
301.684	24929
301.740	38381
301.796	31157
301.851	22052
301.907	23835
301.963	26548
302.019	35864
302.074	72288
302.130	67088
302.186	39239
302.242	26239
302.297	23025
302.353	22823
302.409	26197
302.464	26327
302.520	26560
302.576	34066
302.631	32715
302.687	23593
302.743	19650
302.798	18615
302.854	19327
302.910	21491
302.965	31990
303.021	34165
303.076	24743
303.132	22407
303.187	20741
303.243	17711
303.299	18971
303.354	18407
303.410	19811
303.465	19144
303.521	18059
303.576	17135
303.632	18742
303.687	22059
303.743	33859
303.798	30110
303.853	22998
303.909	21086
303.964	18318
304.020	19157
304.075	19522
304.130	19204
304.186	21049
304.241	23453
304.297	24438
304.352	22350
304.358	22349
304.407	22350
304.449	21742
304.463	21555
304.518	22753
304.539	22418
304.573	21909
304.629	25733
304.630	25914
304.684	34483
304.720	37121
304.739	38441
304.794	39829
304.811	36968
304.850	30174
304.902	25349
304.905	25047
304.960	21533
304.992	20591
305.015	19906
305.071	19839
305.083	19747
305.126	19424
305.173	18534
305.181	18394
305.236	18443
305.264	18386
305.292	18345
305.347	20278
305.354	20270
305.402	20172
305.445	18930
305.457	18587
305.512	19189
305.535	19430
305.567	19853
305.622	25131
305.626	25803
305.678	36916
305.716	44588
305.733	47713
305.788	53177
305.807	52672
305.843	51025
305.897	43496
305.898	43367
305.953	41666
305.988	38206
306.008	36013
306.063	27915
306.078	26179
306.118	21922
306.168	18419
306.173	18097
306.228	17650
306.259	17985
306.283	18389
306.338	19933
306.349	20040
306.393	20089
306.440	19697
306.448	19806
306.503	25790
306.530	32867
306.558	44250
306.613	103580
306.620	107259
306.668	116267
306.711	75742
306.723	64885
306.778	35843
306.801	29927
306.833	24100
306.888	20441
306.892	20388
306.943	20058
306.982	20051
306.997	20235
307.052	22356
307.072	25516
307.107	33120
307.162	50794
307.163	51178
307.217	83874
307.253	96325
307.272	98991
307.327	95113
307.343	84684
307.381	59880
307.434	43914
307.436	43816
307.491	73948
307.524	94722
307.546	99840
307.600	62046
307.614	53975
307.655	35484
307.704	27313
307.710	27156
307.765	34134
307.795	47425
307.819	60623
307.874	105428
307.885	103323
307.929	73989
307.975	40863
307.984	36856
308.038	25972
308.065	24818
308.093	27088
308.148	39672
308.156	44111
308.202	69261
308.246	78132
308.257	76792
308.312	43338
308.336	32814
308.366	25652
308.421	20241
308.426	20139
308.475	18981
308.517	17503
308.530	17217
308.585	17059
308.607	17483
308.639	19520
308.694	26789
308.697	27856
308.748	60309
308.787	98027
308.803	103815
308.857	80708
308.877	69319
308.912	52716
308.967	40562
308.967	40484
309.021	32489
309.058	27236
309.076	26022
309.130	27689
309.148	29826
309.185	45018
309.238	81382
309.239	81666
309.293	104306
309.328	92075
309.348	78144
309.402	41242
309.418	33023
309.457	24101
309.508	17910
309.511	17642
309.566	17520
309.598	18135
309.620	20253
309.674	27812
309.688	30233
309.729	31485
309.778	25851
309.783	25122
309.837	18588
309.868	15659
309.892	15675
309.946	17910
309.959	19012
310.001	25343
310.049	34917
310.055	34883
310.109	30142
310.139	25569
310.163	22742
310.218	19293
310.229	18868
310.272	19297
310.319	20990
310.326	21545
310.381	28322
310.409	30170
310.435	29409
310.489	28709
310.499	28785
310.543	31594
310.589	34944
310.598	35087
310.652	37767
310.679	37196
310.706	32119
310.760	21477
310.769	20005
310.814	15863
310.859	13126
310.868	13074
310.923	14101
310.948	15099
310.977	16907
311.031	20684
311.038	21289
311.085	21116
311.128	20041
311.139	19659
311.193	18529
311.218	18238
311.247	16891
311.301	14032
311.308	13836
311.356	16139
311.398	19044
311.410	18605
311.464	16109
311.488	14883
311.518	13596
311.572	11717
311.578	11629
311.626	13466
311.668	15474
311.680	17646
311.734	28455
311.758	33489
311.788	33295
311.842	31868
311.847	31904
311.896	35281
311.937	39287
311.950	38771
312.004	37182
312.027	36366
312.058	28277
312.112	14617
312.117	13392
312.165	14681
312.207	16048
312.297	30696
312.386	27036
312.476	15775
312.566	17120
312.656	12570
312.745	14279
312.835	18706
312.925	19856
313.015	19887
313.104	30930
313.194	13837
313.284	13334
313.374	12191
313.463	12019
313.553	13202
313.643	11939
313.732	11362
313.822	12807
313.912	16334
314.001	16145
314.091	23729
314.180	37235
314.270	20522
314.360	29217
314.449	19788
314.539	15287
314.628	14683
314.718	21587
314.808	32829
314.897	15639
314.987	13423
315.076	14001
315.166	22000
315.255	32112
315.345	20160
315.434	31869
315.524	25663
315.613	26195
315.703	18464
315.792	30812
315.881	91764
315.971	46300
316.060	40957
316.150	98524
316.239	97566
316.328	41785
316.418	14458
316.507	12890
316.597	13229
316.686	16660
316.775	36535
316.865	88537
316.954	21973
317.043	12911
317.133	12234
317.222	11028
317.311	11656
317.400	9536
317.490	12550
317.579	11762
317.668	13814
317.757	17944
317.847	43824
317.936	141559
318.025	53650
318.114	36137
318.203	24253
318.293	22019
318.382	33039
318.471	28801
318.560	47399
318.649	97949
318.738	31240
318.828	15947
318.917	18758
319.006	33695
319.095	94074
319.184	116442
319.273	54250
319.362	17799
319.451	15783
319.540	17183
319.629	16177
319.718	18503
319.807	23861
319.896	45788
319.985	125417
320.074	54550
320.163	33065
320.252	68642
320.341	57217
320.430	40273
320.519	23503
320.608	20183
320.697	21840
320.786	18947
320.875	16754
320.964	16364
321.053	15338
321.142	15515
321.230	21158
321.319	35522
321.408	58392
321.497	48090
321.586	32903
321.675	82877
321.764	76025
321.852	56624
321.941	37311
322.030	25232
322.119	39486
322.207	57948
322.296	118856
322.385	72221
322.474	47544
322.562	48025
322.651	53886
322.740	33361
322.829	69184
322.917	132503
323.006	55380
323.095	30732
323.183	47017
323.272	54583
323.361	67772
323.449	181359
323.538	90306
323.626	155166
323.715	106750
323.804	53830
323.892	147217
323.981	95544
324.069	36469
324.158	97756
324.246	106165
324.335	25098
324.424	18575
324.512	14666
324.601	13668
324.689	18096
324.778	35478
324.866	87660
324.954	31552
325.043	20407
325.131	49545
325.220	110210
325.308	121097
325.397	77869
325.485	50072
325.574	15139
325.662	12282
325.750	12187
325.839	12964
325.927	13353
326.015	21242
326.104	48182
326.192	79308
326.280	18772
326.369	17318
326.457	14004
326.545	14583
326.634	12566
326.722	11919
326.810	10965
326.898	11899
326.987	13098
327.075	21246
327.163	51763
327.251	36947
327.340	17265
327.428	17893
327.516	14793
327.604	15578
327.692	23522
327.781	33034
327.869	65604
327.957	34482
328.045	14901
328.133	12984
328.221	30333
328.309	18459
328.397	11543
328.485	12558
328.574	14257
328.662	19778
328.750	50657
328.838	40300
328.926	21588
329.014	13760
329.102	16833
329.190	48822
329.278	25928
329.366	10593
329.454	13247
329.542	15398
329.630	12408
329.718	13282
329.806	11293
329.893	17351
329.981	18652
330.069	8921
330.157	9566
330.245	11635
330.333	10044
330.421	10026
330.509	11717
330.597	18950
330.684	31002
330.772	31948
330.860	67603
330.948	78478
331.036	29672
331.123	12257
331.211	16955
331.299	25405
331.387	53618
331.475	90337
331.562	37268
331.650	15792
331.738	24994
331.825	46310
331.913	15995
332.001	13789
332.089	27570
332.176	68186
332.264	113598
332.352	95205
332.439	28423
332.527	22255
332.614	25125
332.702	41714
332.790	26014
332.877	51295
332.965	110429
333.052	24709
333.140	24722
333.228	49210
333.315	18350
333.403	22925
333.490	78498
333.578	60329
333.665	18616
333.753	18983
333.840	15796
333.928	23752
334.015	81295
334.103	92596
334.190	183608
334.278	70626
334.365	47052
334.452	32474
334.540	19551
334.627	32906
334.715	47192
334.802	64645
334.889	275424
334.977	252932
335.064	47660
335.151	24870
335.239	27422
335.326	33102
335.413	79121
335.501	102154
335.588	23114
335.675	19414
335.762	34684
335.850	60279
335.937	30639
336.024	73559
336.111	258095
336.199	142426
336.286	34157
336.373	17865
336.460	14038
336.547	15653
336.635	22227
336.722	16691
336.809	18303
336.896	21257
336.983	54876
337.070	124033
337.157	160805
337.245	170551
337.332	129700
337.419	28241
337.506	20793
337.593	22910
337.680	59607
337.767	141092
337.854	52000
337.941	71412
338.028	99773
338.115	42234
338.202	42319
338.289	65085
338.376	164153
338.463	67165
338.550	96199
338.637	91862
338.724	54917
338.811	95579
338.898	24142
338.984	17909
339.071	25423
339.158	17468
339.245	27352
339.332	25295
339.419	61681
339.506	65673
339.593	11441
339.679	8940
339.766	9099
339.853	14750
339.940	11914
340.027	10639
340.113	8430
340.200	10807
340.287	15316
340.374	11387
340.460	10961
340.547	9884
340.634	9169
340.720	14801
340.807	10305
340.894	8361
340.980	12991
341.067	8855
341.154	9980
341.240	8507
341.327	7700
341.414	7670
341.500	7605
341.587	10226
341.674	10319
341.760	8668
341.847	7129
341.933	6355
342.020	6753
342.106	6036
342.193	6702
342.279	8016
342.366	6633
342.452	7353
342.539	7211
342.625	6829
342.712	8104
342.798	7339
342.885	7815
342.971	6933
343.058	6550
343.144	6381
343.230	6092
343.317	5931
343.403	5271
343.490	6557
343.576	6944
343.662	6336
343.749	6262
343.835	8579
343.921	12242
344.008	24096
344.094	45272
344.180	15800
344.267	9800
344.353	28310
344.439	68020
344.525	19379
344.612	7978
344.698	6033
344.784	5567
344.870	6372
344.957	5652
345.043	6345
345.129	5396
345.215	9732
345.301	9119
345.387	9016
345.474	8636
345.560	11764
345.646	23336
345.732	13564
345.818	8369
345.904	8157
345.990	9600
346.076	19677
346.162	53041
346.249	15983
346.335	8111
346.421	9356
346.507	10345
346.593	16942
346.679	12087
346.765	14211
346.851	9228
346.937	8359
347.023	6615
347.108	4869
347.194	6153
347.280	8069
347.366	6369
347.452	12268
347.538	22027
347.624	24035
347.710	50538
347.796	22548
347.882	12635
347.967	12757
348.053	26075
348.139	16014
348.225	8055
348.311	6468
348.397	6621
348.482	7712
348.568	10394
348.654	6863
348.740	10647
348.825	11297
348.911	9529
348.997	18488
349.083	43607
349.168	24709
349.254	7987
349.340	8506
349.425	6989
349.511	8723
349.597	15821
349.682	8636
349.768	10745
349.854	11146
349.939	14878
350.025	9942
350.110	6429
350.196	6096
350.282	5862
350.367	9296
350.453	34125
350.538	39315
350.624	14784
350.709	15570
350.795	8659
350.880	5756
350.966	11369
351.051	29657
351.137	29408
351.222	7156
351.308	6431
351.393	8235
351.479	5092
351.564	4488
351.649	6865
351.735	7294
351.820	5295
351.906	6218
351.991	12934
352.076	15027
352.162	9051
352.247	5598
352.332	5156
352.418	5210
352.503	7943
352.588	9818
352.673	8385
352.759	5789
352.844	5032
352.929	5053
353.014	5097
353.100	5892
353.185	7807
353.270	7418
353.355	7249
353.441	8654
353.526	19909
353.611	14069
353.696	6412
353.781	7322
353.866	5323
353.952	5785
354.037	5508
354.122	7095
354.207	7784
354.292	7592
354.377	5470
354.462	5567
354.547	5352
354.632	10193
354.717	19733
354.802	9839
354.887	10447
354.972	8327
355.057	5573
355.142	5436
355.227	5870
355.312	5862
355.397	5498
355.482	9591
355.567	8557
355.652	8786
355.737	6211
355.822	11128
355.907	9939
355.991	6197
356.076	6018
356.161	7591
356.246	6264
356.331	6632
356.416	8087
356.501	20428
356.585	23779
356.670	7354
356.755	6831
356.840	7263
356.924	17237
357.009	48040
357.094	22276
357.179	9018
357.263	8509
357.348	13262
357.433	17438
357.517	8495
357.602	7947
357.687	6860
357.771	9124
357.856	15767
357.941	10797
358.025	18107
358.110	54238
358.195	26341
358.279	5905
358.364	4781
358.448	11714
358.533	15606
358.617	12772
358.702	16803
358.787	11320
358.871	6236
358.956	5954
359.040	4984
359.125	4480
359.209	6687
359.294	15859
359.378	13937
359.462	6708
359.547	12105
359.631	20222
359.716	7629
359.800	12102
359.885	23576
359.969	11102
360.053	21543
360.138	19765
360.222	12494
360.306	6736
360.391	10102
360.475	11166
360.559	12702
360.644	12265
360.728	12887
360.812	13860
360.896	33355
360.981	45873
361.065	44788
361.149	18574
361.233	9990
361.318	9484
361.402	10951
361.486	7840
361.570	5564
361.654	5726
361.739	7741
361.823	18764
361.907	31308
361.991	12590
362.075	17205
362.159	14400
362.243	14492
362.327	27219
362.411	41653
362.495	30676
362.580	15324
362.664	10367
362.748	10163
362.832	12981
362.916	20555
363.000	55542
363.084	97744
363.168	62141
363.252	23328
363.336	24389
363.420	28197
363.503	107154
363.587	122378
363.671	22439
363.755	15913
363.839	17580
363.923	10406
364.007	12395
364.091	26983
364.175	63017
364.258	165218
364.342	124787
364.426	142608
364.510	84109
364.594	40726
364.677	27510
364.761	28309
364.845	21826
364.929	8860
365.013	9305
365.096	9417
365.180	12890
365.264	49247
365.347	164477
365.431	94982
365.515	33497
365.598	9850
365.682	10619
365.766	36942
365.849	48329
365.933	19334
366.017	34876
366.100	31324
366.184	15385
366.267	15676
366.351	7752
366.435	8546
366.518	8583
366.602	4843
366.685	5093
366.769	8069
366.852	28145
366.936	35152
367.019	11267
367.103	26163
367.186	53749
367.270	14427
367.353	6023
367.436	7676
367.520	6156
367.603	6234
367.687	5488
367.770	7574
367.853	7101
367.937	11214
368.020	14836
368.104	7525
368.187	6281
368.270	7206
368.353	10886
368.437	41978
368.520	152464
368.603	72425
368.687	19701
368.770	18750
368.853	12277
368.936	25799
369.020	41006
369.103	10297
369.186	9399
369.269	9062
369.352	10516
369.436	23880
369.519	13635
369.602	6917
369.685	8802
369.768	10943
369.851	12379
369.934	7245
370.018	11132
370.101	9433
370.184	15364
370.267	18702
370.350	18419
370.433	29062
370.516	28198
370.599	53241
370.682	32841
370.765	20575
370.848	18343
370.931	36615
371.014	60059
371.097	24819
371.180	7416
371.263	7266
371.346	8416
371.429	6744
371.511	8959
371.594	13075
371.677	29153
371.760	50586
371.843	16566
371.926	23751
372.009	51714
372.091	24925
372.174	33357
372.257	56379
372.340	28757
372.423	54181
372.505	84564
372.588	29858
372.671	11331
372.754	16397
372.836	17705
372.919	54585
373.002	107814
373.085	27356
373.167	9382
373.250	9855
373.332	19882
373.415	32066
373.498	64494
373.580	37500
373.663	71790
373.746	88011
373.828	22681
373.911	20738
373.993	28943
374.076	106406
374.159	122417
374.241	36587
374.324	25430
374.406	18930
374.489	19461
374.571	43334
374.654	19822
374.736	18753
374.819	45440
374.901	46390
374.983	45814
375.066	14954
375.148	18863
375.231	83921
375.313	163864
375.395	79445
375.478	17625
375.560	10640
375.643	12242
375.725	25263
375.807	61869
375.890	122224
375.972	131648
376.054	58131
376.136	137139
376.219	57494
376.301	18753
376.383	28769
376.465	14167
376.548	9025
376.630	12145
376.712	21631
376.794	11446
376.877	6385
376.959	6856
377.041	11296
377.123	41817
377.205	51589
377.287	11071
377.369	12749
377.452	23274
377.534	10721
377.616	8588
377.698	6927
377.780	3508
377.862	4819
377.944	6472
378.026	5835
378.108	6625
378.190	7283
378.272	6806
378.354	6179
378.436	7745
378.518	22079
378.600	69284
378.682	37813
378.764	14260
378.846	22979
378.928	27527
379.010	13812
379.091	11284
379.173	8597
379.255	6206
379.337	6767
379.419	9402
379.501	21862
379.583	19648
379.664	11538
379.746	8928
379.828	19004
379.910	13989
379.991	11668
380.073	9008
380.155	12147
380.237	7759
380.318	7026
380.400	6080
380.482	8987
380.564	11298
380.645	11938
380.727	9381
380.809	9203
380.890	7316
380.972	5467
381.053	7691
381.135	8858
381.217	7950
381.298	15613
381.380	15302
381.461	17747
381.543	24345
381.624	25183
381.706	13124
381.787	21119
381.869	17593
381.951	16579
382.032	44600
382.113	34219
382.195	22306
382.276	15259
382.358	12189
382.439	19925
382.521	24743
382.602	40024
382.684	25669
382.765	44867
382.846	49413
382.928	41441
383.009	27214
383.090	16815
383.172	47067
383.253	90206
383.334	56311
383.416	49730
383.497	23030
383.578	15053
383.659	29141
383.741	48504
383.822	119314
383.903	70089
383.984	23230
384.066	33464
384.147	23639
384.228	15028
384.309	12499
384.390	8788
384.471	10149
384.553	14053
384.634	20764
384.715	15313
384.796	11888
384.877	12737
384.958	12361
385.039	10821
385.120	8325
385.201	13390
385.282	32043
385.363	44751
385.444	24626
385.525	16101
385.606	23718
385.687	22565
385.768	31861
385.849	37429
385.930	30261
386.011	44415
386.092	19858
386.173	14704
386.254	23562
386.335	24151
386.416	16279
386.496	19019
386.577	30114
386.658	46122
386.739	31775
386.820	45038
386.901	42605
386.981	27638
387.062	14949
387.143	13683
387.224	20295
387.304	34483
387.385	29036
387.466	34918
387.547	50043
387.627	23066
387.708	18815
387.789	26387
387.869	26932
387.950	15686
388.031	13638
388.111	27484
388.192	88810
388.273	134540
388.353	64000
388.434	17832
388.514	13765
388.595	24409
388.676	26416
388.756	16878
388.837	16378
388.917	13069
388.998	14092
389.078	12557
389.159	8230
389.239	7520
389.320	10203
389.400	11597
389.480	27900
389.561	35465
389.641	15813
389.722	12110
389.802	15470
389.883	21111
389.963	32191
390.043	64977
390.124	52275
390.204	16379
390.284	15812
390.365	21320
390.445	76569
390.525	104948
390.605	50154
390.686	13922
390.766	10345
390.846	8956
390.927	8332
391.007	9041
391.087	17977
391.167	17522
391.247	16975
391.328	46929
391.408	66911
391.488	41213
391.568	12588
391.648	11449
391.728	10366
391.808	11490
391.888	10835
391.969	15291
392.049	21144
392.129	38890
392.209	27661
392.289	20601
392.369	32835
392.449	76864
392.529	43748
392.609	25163
392.689	23435
392.769	25631
392.849	31414
392.929	60359
393.009	96983
393.089	68119
393.169	96264
393.248	256411
393.328	673138
393.408	720087
393.488	284536
393.568	95913
393.648	49593
393.728	33668
393.807	25535
393.887	21632
393.967	16461
394.047	16298
394.127	15136
394.206	17278
394.286	26054
394.366	83383
394.446	92474
394.525	23128
394.605	13408
394.685	26751
394.764	89291
394.844	140292
394.924	94194
395.003	24271
395.083	13836
395.163	12270
395.242	11548
395.322	10930
395.402	9341
395.481	16087
395.561	49831
395.640	126422
395.720	95840
395.799	134810
395.879	98145
395.958	22606
396.038	29267
396.117	111146
396.197	137843
396.276	85547
396.356	62954
396.435	73156
396.515	41618
396.594	35501
396.673	72328
396.753	239373
396.832	605867
396.912	455195
396.991	127666
397.070	46433
397.150	28052
397.229	24274
397.308	33320
397.388	50724
397.467	25848
397.546	13104
397.625	10000
397.705	12951
397.784	9988
397.863	9528
397.942	9782
398.022	13861
398.101	51331
398.180	143828
398.259	98442
398.338	27966
398.417	14305
398.497	14720
398.576	15053
398.655	9338
398.734	12992
398.813	25009
398.892	50470
398.971	136185
399.050	72050
399.129	12925
399.208	9199
399.287	10455
399.366	9139
399.445	11982
399.524	10913
399.603	9321
399.682	11742
399.761	33310
399.840	131164
399.919	111499
399.998	24122
400.077	8428
400.156	7500
400.235	15181
400.313	14778
400.392	16380
400.471	12133
400.550	13517
400.629	12037
400.708	12860
400.786	24140
400.865	61886
400.944	62607
401.023	22744
401.102	6893
401.180	10258
401.259	17917
401.338	20769
401.416	15881
401.495	15176
401.574	20208
401.652	15190
401.731	17813
401.810	17847
401.888	7974
401.967	5756
402.046	7213
402.124	16407
402.203	23411
402.281	12758
402.360	19732
402.438	65166
402.517	53076
402.596	23852
402.674	27174
402.753	15359
402.831	10490
402.910	10492
402.988	22708
403.066	51727
403.145	30502
403.223	18668
403.302	24660
403.380	21612
403.459	21042
403.537	15842
403.615	13501
403.694	5626
403.772	6049
403.850	5500
403.929	5774
404.007	8478
404.085	11362
404.164	6818
404.242	5595
404.320	7671
404.398	6477
404.477	7698
404.555	24545
404.633	24299
404.711	8222
404.789	6988
404.868	5265
404.946	5323
405.024	4560
405.102	3579
405.180	3331
405.258	3325
405.336	7506
405.415	10739
405.493	23378
405.571	16018
405.649	4675
405.727	9022
405.805	17665
405.883	17971
405.961	21146
406.039	32270
406.117	12994
406.195	5424
406.273	7563
406.351	25405
406.429	36493
406.507	30812
406.585	13607
406.663	4770
406.740	4547
406.818	6393
406.896	7851
406.974	6444
407.052	4636
407.130	14075
407.208	18168
407.285	7029
407.363	5549
407.441	5185
407.519	5114
407.596	8239
407.674	16361
407.752	36578
407.830	57628
407.907	40763
407.985	15382
408.063	7886
408.141	8338
408.218	22820
408.296	21863
408.373	9950
408.451	4980
408.529	4555
408.606	4520
408.684	7308
408.762	5554
408.839	3921
408.917	3777
408.994	4040
409.072	3853
409.149	4254
409.227	9378
409.304	10729
409.382	9705
409.459	11835
409.537	15668
409.614	12383
409.692	8175
409.769	9297
409.846	18442
409.924	24485
410.001	15830
410.079	13389
410.156	15001
410.233	26035
410.311	15351
410.388	5877
410.465	6254
410.543	6990
410.620	5496
410.697	5019
410.775	5639
410.852	5746
410.929	9215
411.006	9893
411.083	7646
411.161	13198
411.238	24114
411.315	21151
411.392	6461
411.469	6386
411.547	7420
411.624	4095
411.701	5698
411.778	4956
411.855	5699
411.932	6038
412.009	7087
412.086	7075
412.163	11418
412.240	17358
412.317	25072
412.394	24504
412.471	9206
412.548	4549
412.625	4417
412.702	13437
412.779	31391
412.856	27414
412.933	11672
413.010	6878
413.087	7284
413.164	9739
413.241	9982
413.318	6253
413.395	7459
413.471	5677
413.548	5167
413.625	7125
413.702	14376
413.779	14717
413.855	5803
413.932	4648
414.009	5206
414.086	4779
414.162	5737
414.239	18078
414.316	28536
414.393	15556
414.469	5649
414.546	4854
414.623	5104
414.699	3096
414.776	3199
414.853	5206
414.929	6505
415.006	10738
415.082	19627
415.159	14528
415.236	9059
415.312	6105
415.389	3336
415.465	4381
415.542	5023
415.618	3451
415.695	3850
415.771	3667
415.848	5952
415.924	9235
416.000	12032
416.077	6426
416.153	3442
416.230	2641
416.306	5531
416.383	12562
416.459	9338
416.535	6185
416.612	6426
416.688	7286
416.764	8018
416.841	6884
416.917	6304
416.993	7157
417.069	7409
417.146	9957
417.222	7133
417.298	5488
417.374	7102
417.451	8447
417.527	4200
417.603	3256
417.679	5482
417.755	10151
417.831	4658
417.908	3784
417.984	4178
418.060	3337
418.136	3974
418.212	3565
418.288	3989
418.364	5051
418.440	4110
418.516	8527
418.592	26981
418.668	27146
418.744	8376
418.820	5876
418.896	5673
418.972	3810
419.048	3450
419.124	4447
419.200	3161
419.276	4157
419.352	3612
419.428	3794
419.504	3917
419.579	3737
419.655	3918
419.731	3820
419.807	4423
419.883	5002
419.959	4677
420.034	4886
420.110	7042
420.186	6625
420.262	6819
420.337	9291
420.413	7164
420.489	5172
420.565	5416
420.640	4063
420.716	4073
420.792	2321
420.867	5070
420.943	4328
421.019	5214
421.094	5338
421.170	8567
421.245	6768
421.321	5929
421.397	4754
421.472	6585
421.548	7301
421.623	7332
421.699	7534
421.774	8329
421.850	7731
421.925	9366
422.001	9678
422.076	13032
422.152	14342
422.227	18696
422.302	27398
422.378	38462
422.453	69236
422.529	143362
422.604	271472
422.679	325762
422.755	287999
422.830	157862
422.905	75983
422.981	43732
423.056	29592
423.131	23380
423.207	17789
423.282	14305
423.357	11928
423.432	10481
423.508	10712
423.583	11929
423.658	10906
423.733	12406
423.808	19249
423.883	11735
423.959	8143
424.034	9611
424.109	9555
424.184	7077
424.259	5803
424.334	5725
424.409	4244
424.484	4893
424.559	5764
424.634	5118
424.709	4877
424.784	5376
424.859	6244
424.934	8464
425.009	7657
425.084	8777
425.159	8710
425.234	7438
425.309	4490
425.384	5371
425.459	6483
425.534	7836
425.609	14694
425.683	10929
425.758	5807
425.833	7961
425.908	8379
425.983	6211
426.058	10198
426.132	12429
426.207	15650
426.282	31125
426.357	35985
426.431	10267
426.506	7769
426.581	11816
426.655	10336
426.730	5720
426.805	3891
426.879	5834
426.954	7158
427.029	11250
427.103	11576
427.178	18427
427.253	19102
427.327	12375
427.402	22438
427.476	49010
427.551	23033
427.625	17279
427.700	18088
427.774	11947
427.849	16814
427.923	11608
427.998	9831
428.072	13464
428.147	25097
428.221	48124
428.296	122036
428.370	72280
428.444	22622
428.519	38863
428.593	71939
428.667	64096
428.742	74269
428.816	63380
428.890	118039
428.965	157444
429.039	83262
429.113	91689
429.188	38375
429.262	11448
429.336	10545
429.410	17793
429.485	23108
429.559	57429
429.633	54645
429.707	17767
429.781	30616
429.855	137986
429.930	196519
430.004	159324
430.078	228541
430.152	174934
430.226	148114
430.300	143777
430.374	39617
430.448	19590
430.522	58256
430.596	164784
430.670	102521
430.744	86379
430.818	107508
430.892	30801
430.966	12515
431.040	9815
431.114	7497
431.188	8883
431.262	10143
431.336	12586
431.410	30006
431.484	79714
431.557	46699
431.631	9491
431.705	8196
431.779	24394
431.853	97507
431.927	83865
432.000	18368
432.074	8875
432.148	19544
432.222	22576
432.295	8878
432.369	6510
432.443	9671
432.516	30121
432.590	41973
432.664	30502
432.737	11429
432.811	4279
432.885	2903
432.958	3452
433.032	4074
433.106	3446
433.179	3574
433.253	2908
433.326	3767
433.400	6278
433.473	5777
433.547	3876
433.620	3137
433.694	4469
433.767	11176
433.841	13813
433.914	5656
433.988	3799
434.061	4130
434.134	4258
434.208	4048
434.281	2748
434.355	4207
434.428	5917
434.501	5002
434.575	6576
434.648	9406
434.721	5764
434.795	3027
434.868	3257
434.941	3022
435.014	3145
435.088	3222
435.161	3800
435.234	4276
435.307	6347
435.381	7497
435.454	9575
435.527	12384
435.600	11600
435.673	8274
435.746	6541
435.819	6080
435.892	5117
435.966	5092
436.039	7972
436.112	10139
436.185	4806
436.258	3128
436.331	2421
436.404	4026
436.477	3524
436.550	3637
436.623	2963
436.696	2782
436.769	4331
436.842	5480
436.915	9776
436.987	14978
437.060	8898
437.133	4302
437.206	5330
437.279	7474
437.352	4896
437.425	5191
437.498	14266
437.570	13146
437.643	4945
437.716	2765
437.789	3279
437.861	4901
437.934	12541
438.007	9337
438.080	3111
438.152	3345
438.225	4342
438.298	9949
438.370	27555
438.443	21152
438.516	12911
438.588	6544
438.661	4687
438.734	5159
438.806	7567
438.879	9395
438.951	5789
439.024	9368
439.096	7071
439.169	6217
439.241	5541
439.314	5672
439.386	20930
439.459	35107
439.531	46273
439.604	21753
439.676	5393
439.749	4127
439.821	5776
439.893	6067
439.966	9063
440.038	10835
440.110	8891
440.183	4914
440.255	3124
440.327	7797
440.400	22822
440.472	50771
440.544	34751
440.617	11886
440.689	8073
440.761	8573
440.833	12090
440.905	10792
440.978	5288
441.050	5631
441.122	6444
441.194	5456
441.266	5389
441.338	4217
441.411	5026
441.483	7181
441.555	11397
441.627	12684
441.699	27959
441.771	40768
441.843	22876
441.915	9255
441.987	6437
442.059	6230
442.131	11485
442.203	24321
442.275	28041
442.347	25551
442.419	20637
442.491	65004
442.563	168834
442.635	128792
442.706	91649
442.778	70577
442.850	20073
442.922	11294
442.994	16329
443.066	26513
443.137	23467
443.209	16727
443.281	18467
443.353	35028
443.425	100333
443.496	252959
443.568	288594
443.640	158013
443.711	55113
443.783	22533
443.855	16558
443.926	11373
443.998	14533
444.070	25730
444.141	22496
444.213	15266
444.285	12448
444.356	24268
444.428	39250
444.499	21530
444.571	9011
444.642	8681
444.714	8584
444.785	9507
444.857	24639
444.928	81916
445.000	73577
445.071	63777
445.143	82459
445.214	44095
445.285	47987
445.357	137216
445.428	229444
445.500	381843
445.571	345263
445.642	224887
445.714	131550
445.785	133192
445.856	60667
445.928	18119
445.999	14163
446.070	14829
446.141	10952
446.213	11170
446.284	14207
446.355	27785
446.426	27373
446.497	16137
446.569	28163
446.640	39873
446.711	17768
446.782	10161
446.853	27413
446.924	32766
446.995	14240
447.066	14517
447.138	38712
447.209	36382
447.280	9568
447.351	5100
447.422	5629
447.493	16458
447.564	20552
447.635	9781
447.706	6354
447.777	7168
447.847	6903
447.918	7966
447.989	20100
448.060	29695
448.131	60699
448.202	60013
448.273	25964
448.344	20427
448.414	9225
448.485	6551
448.556	6466
448.627	5535
448.698	6761
448.768	6571
448.839	10700
448.910	30839
448.981	40000
449.051	12999
449.122	5779
449.193	5343
449.263	7705
449.334	9363
449.405	6997
449.475	7683
449.546	15483
449.616	37485
449.687	46284
449.758	18352
449.828	9704
449.899	7331
449.969	5565
450.040	7128
450.110	16522
450.181	29331
450.251	14643
450.322	7256
450.392	9978
450.463	11571
450.533	8118
450.604	9822
450.674	12627
450.744	11580
450.815	9847
450.885	10125
450.955	8865
451.026	7583
451.096	10839
451.166	18867
451.237	38386
451.307	97782
451.377	73788
451.447	19358
451.518	9834
451.588	10695
451.658	12008
451.728	17755
451.799	75800
451.869	126041
451.939	60082
452.009	16127
452.079	9989
452.149	10299
452.219	23869
452.289	95317
452.360	111818
452.430	37023
452.500	14790
452.570	13501
452.640	22609
452.710	66031
452.780	122330
452.850	76986
452.920	27346
452.990	18325
453.060	15043
453.129	14816
453.199	22673
453.269	66648
453.339	178925
453.409	291256
453.479	280044
453.549	377016
453.619	450629
453.688	265666
453.758	72077
453.828	27511
453.898	18030
453.968	19811
454.037	16472
454.087	14464
454.107	13392
454.168	12981
454.177	12680
454.247	10706
454.249	10946
454.316	12071
454.330	14666
454.386	23124
454.411	41507
454.456	59994
454.492	85301
454.525	105865
454.574	72654
454.595	59932
454.655	25057
454.665	20021
454.734	30208
454.736	31948
454.804	64049
454.817	81665
454.873	122014
454.898	143345
454.943	165634
454.979	132340
455.013	107967
455.060	68116
455.082	58301
455.141	63404
455.152	61692
455.221	113788
455.222	117214
455.291	152701
455.303	141644
455.360	105912
455.384	83351
455.430	65257
455.465	86102
455.499	92932
455.546	141812
455.569	143655
455.627	113991
455.638	113652
455.707	40957
455.708	41147
455.777	26034
455.789	26920
455.846	27396
455.869	27557
455.916	29855
455.950	31704
455.985	29885
456.031	31841
456.054	32096
456.112	26693
456.124	27125
456.193	31490
456.193	31116
456.262	49655
456.274	54428
456.332	65803
456.355	72149
456.401	66417
456.436	56193
456.470	49249
456.516	30397
456.540	24185
456.597	20505
456.609	19719
456.678	18746
456.678	18581
456.747	18699
456.759	18784
456.817	18258
456.840	18789
456.886	20431
456.920	21390
456.955	25040
457.001	31967
457.024	39644
457.082	61346
457.093	65544
457.162	98478
457.163	99326
457.232	105975
457.243	104534
457.301	71897
457.324	51894
457.370	35306
457.405	30772
457.439	29511
457.485	31288
457.508	31822
457.566	35242
457.577	35511
457.646	38852
457.647	39096
457.715	60153
457.727	64732
457.784	104593
457.808	125365
457.853	145641
457.889	166332
457.922	147980
457.969	111536
457.991	125106
458.050	154287
458.060	163395
458.129	251096
458.130	254292
458.198	213354
458.211	202049
458.267	134893
458.292	96721
458.336	79511
458.372	72729
458.405	90854
458.453	125976
458.474	162990
458.533	278810
458.543	288015
458.611	390121
458.614	394678
458.680	228994
458.694	186046
458.749	120551
458.775	87600
458.818	65557
458.855	57711
458.887	55648
458.936	56184
458.955	55374
459.016	56252
459.024	55666
459.093	51878
459.097	51732
459.162	51513
459.177	52066
459.230	52085
459.257	52211
459.299	56907
459.338	61537
459.368	63643
459.418	69377
459.437	65224
459.499	50112
459.505	49815
459.574	45255
459.579	45099
459.643	44628
459.659	45063
459.711	47449
459.740	48740
459.780	55967
459.820	63571
459.849	71622
459.900	88136
459.917	83879
459.981	70724
459.986	69648
460.054	50084
460.061	48042
460.123	44999
460.141	44908
460.191	45623
460.222	46676
460.260	46529
460.302	46038
460.328	45849
460.382	46547
460.397	47190
460.462	49374
460.465	49390
460.534	52149
460.543	52503
460.602	60499
460.623	63770
460.671	70243
460.703	74947
460.739	70623
460.783	64783
460.808	64899
460.864	63266
460.876	64378
460.944	73557
460.945	73313
461.013	58596
461.024	55848
461.081	52887
461.104	51755
461.150	52516
461.184	53758
461.218	55027
461.264	56613
461.286	58711
461.345	64767
461.355	65726
461.423	73340
461.425	73552
461.491	82871
461.505	84832
461.559	161447
461.585	197653
461.628	349304
461.665	486480
461.696	534008
461.745	626467
461.764	519809
461.825	153342
461.832	150908
461.901	92878
461.905	90775
461.969	85955
461.985	86346
462.037	81444
462.065	78312
462.105	100728
462.145	123963
462.173	190737
462.225	316220
462.241	360322
462.305	543655
462.310	524698
462.378	234119
462.385	198796
462.446	114896
462.465	86161
462.514	75005
462.545	74931
462.582	80844
462.625	88650
462.650	93707
462.705	104891
462.718	110905
462.785	142450
462.786	144133
462.854	242200
462.865	257971
462.922	321628
462.945	348816
462.990	222959
463.025	120874
463.058	108632
463.104	84888
463.126	81993
463.184	81547
463.194	81779
463.262	84567
463.264	84603
463.330	97519
463.344	100329
463.398	125511
463.424	137805
463.466	145369
463.504	152851
463.533	147093
463.583	135858
463.601	142452
463.663	163973
463.669	169954
463.737	238151
463.743	244311
463.805	393581
463.823	437198
463.873	732971
463.903	912837
463.940	987534
463.982	1078394
464.008	830781
464.062	295039
464.076	269674
464.142	115619
464.144	115069
464.211	109483
464.221	109743
464.279	137929
464.301	148985
464.347	182843
464.381	208566
464.414	224020
464.461	244304
464.482	253575
464.540	277933
464.550	258102
464.617	116209
464.620	110964
464.685	100119
464.699	98146
464.753	99008
464.779	99885
464.820	116491
464.859	131760
464.888	162630
464.938	215818
464.956	223527
465.018	251438
465.023	242515
465.091	120979
465.098	107920
465.158	101625
465.177	99756
465.226	103731
465.257	106646
465.293	110038
465.336	113721
465.361	121885
465.416	139581
465.428	161464
465.495	278254
465.496	280723
465.563	594333
465.575	647933
465.631	776333
465.654	830815
465.698	483233
465.734	191221
465.765	159315
465.813	105875
465.833	103433
465.893	101734
465.900	101485
465.968	98744
465.972	98378
466.035	94311
466.052	92978
466.102	98635
466.131	101638
466.170	105676
466.210	109611
466.237	107591
466.290	102870
466.304	104764
466.369	112042
466.372	112364
466.439	115454
466.449	115660
466.506	132988
466.528	139273
466.573	210987
466.607	264256
466.641	437871
466.687	678294
466.708	763812
466.766	996737
466.775	914758
466.842	283940
466.845	253385
466.909	162402
466.925	140407
466.977	133131
467.004	129574
467.044	131789
467.083	133548
467.111	135579
467.163	138582
467.178	138595
467.242	137072
467.245	137995
467.312	150827
467.321	152194
467.379	223315
467.400	248470
467.446	338272
467.480	402036
467.559	258670
467.638	155202
467.717	163603
467.796	151482
467.875	154727
467.955	189561
468.034	305969
468.113	779582
468.192	1209159
468.271	326494
468.350	190328
468.429	214126
468.508	205681
468.588	184238
468.667	199588
468.746	211242
468.825	209516
468.904	170736
468.983	224810
469.062	476661
469.141	621269
469.220	186567
469.299	162695
469.378	177137
469.456	123607
469.535	132615
469.614	168557
469.693	220117
469.772	317503
469.851	581976
469.930	337412
470.009	122636
470.088	108742
470.166	104342
470.245	112813
470.324	115767
470.403	106786
470.482	104988
470.560	110378
470.639	125175
470.718	132700
470.797	141832
470.875	207703
470.954	397500
471.033	493236
471.111	134395
471.190	108484
471.269	113727
471.347	119948
471.426	146551
471.505	190716
471.583	151990
471.662	118985
471.740	120552
471.819	121334
471.898	126861
471.976	120153
472.055	123110
472.133	171328
472.212	326810
472.290	410843
472.369	195300
472.447	129412
472.526	116623
472.604	107846
472.683	110389
472.761	118894
472.839	124249
472.918	118918
472.996	156624
473.075	244167
473.153	222186
473.231	156881
473.310	210483
473.388	197364
473.466	165601
473.545	115454
473.623	107473
473.701	113897
473.780	113687
473.858	118285
473.936	137098
474.014	135901
474.093	169149
474.171	362634
474.249	659599
474.327	375754
474.405	113578
474.484	105883
474.562	102332
474.640	118443
474.718	160303
474.796	147128
474.874	106203
474.952	100383
475.030	101315
475.108	101748
475.187	103343
475.265	104409
475.343	112970
475.421	124548
475.499	123686
475.577	151884
475.655	245922
475.733	648036
475.811	1306437
475.889	1167910
475.966	731651
476.044	177345
476.122	177025
476.200	169968
476.278	164975
476.356	163131
476.434	173025
476.512	180596
476.590	218587
476.667	207294
476.745	155404
476.823	150935
476.901	186269
476.979	222792
477.056	183753
477.134	182515
477.212	160842
477.290	148848
477.367	151311
477.445	155772
477.523	158376
477.601	155274
477.678	168230
477.756	273230
477.834	352030
477.911	175859
477.989	169653
478.066	185346
478.144	239740
478.222	184261
478.299	167221
478.377	159763
478.454	141427
478.532	144752
478.609	146528
478.687	147846
478.764	135217
478.842	138790
478.919	150213
478.997	155921
479.074	165713
479.152	260808
479.229	406367
479.307	226529
479.384	133203
479.461	138026
479.539	198031
479.616	274973
479.694	198496
479.771	245062
479.848	260454
479.926	437884
480.003	453988
480.080	158051
480.157	154961
480.235	155783
480.312	162112
480.389	241219
480.467	504076
480.544	699366
480.621	275162
480.698	216154
480.775	265976
480.853	314747
480.930	211403
481.007	210458
481.084	281346
481.161	283983
481.238	277197
481.315	184484
481.392	174771
481.470	183601
481.547	198144
481.624	196980
481.701	194395
481.778	219109
481.855	265006
481.932	419815
482.009	797240
482.086	533426
482.163	206830
482.240	196052
482.317	204966
482.393	200100
482.470	208439
482.547	241221
482.624	193842
482.701	200310
482.778	201696
482.855	158516
482.932	155684
483.009	160478
483.085	169435
483.162	193888
483.239	192363
483.316	171581
483.393	167383
483.469	178101
483.546	252383
483.623	302134
483.699	192676
483.776	191856
483.853	222374
483.930	341092
484.006	774013
484.083	1324460
484.160	388728
484.236	193865
484.313	194405
484.389	220561
484.466	203068
484.543	229480
484.619	237143
484.696	248636
484.772	351440
484.849	434714
484.925	213978
485.002	185474
485.078	211660
485.155	220728
485.231	216935
485.308	215091
485.384	241340
485.461	374537
485.537	821637
485.614	1082426
485.690	256120
485.766	185692
485.843	176255
485.919	190472
485.995	187616
486.072	164007
486.148	165542
486.224	165969
486.301	215055
486.377	304654
486.453	262397
486.530	191629
486.606	203081
486.682	260378
486.758	604415
486.835	900842
486.911	499230
486.987	1028023
487.063	552231
487.139	179084
487.215	166259
487.292	159986
487.368	184816
487.444	226909
487.520	268488
487.596	255486
487.672	375963
487.748	944400
487.824	1559711
487.900	667187
487.976	306889
488.052	310472
488.128	303803
488.204	267804
488.280	282336
488.356	407597
488.432	884387
488.508	1534783
488.584	379093
488.660	161852
488.736	147526
488.812	144142
488.888	158661
488.964	158655
489.039	181945
489.115	222052
489.191	203601
489.267	218538
489.343	246831
489.418	157916
489.494	137482
489.570	148780
489.646	170776
489.722	190035
489.797	206743
489.873	406661
489.949	1231107
490.024	1086622
490.100	233834
490.176	199843
490.251	178883
490.327	158943
490.403	155376
490.478	137503
490.554	124312
490.629	130655
490.705	132896
490.781	149387
490.856	189823
490.932	174783
491.007	150528
491.083	174391
491.158	202421
491.234	301665
491.309	940163
491.385	1043803
491.460	253630
491.536	250897
491.611	141405
491.686	134819
491.762	139560
491.837	176604
491.913	374994
491.988	613119
492.063	365932
492.139	650938
492.214	486318
492.289	134823
492.365	143468
492.440	212593
492.515	271991
492.590	251223
492.666	175054
492.741	284114
492.816	661905
492.891	285219
492.967	114177
493.042	109078
493.117	103226
493.192	98494
493.267	100587
493.342	106479
493.418	107786
493.493	106739
493.568	115134
493.643	128681
493.718	232465
493.793	468594
493.868	296602
493.943	114421
494.018	124291
494.093	168925
494.168	173379
494.243	106149
494.318	116086
494.393	121917
494.468	127319
494.543	101913
494.618	110092
494.693	123121
494.768	164308
494.842	162895
494.917	111866
494.992	117241
495.067	99437
495.142	98084
495.217	95352
495.292	100681
495.366	127111
495.441	180760
495.516	216278
495.591	194398
495.665	233710
495.740	312101
495.815	273655
495.890	240198
495.964	220086
496.039	195854
496.114	192383
496.188	190245
496.263	193092
496.338	218394
496.412	281422
496.487	337383
496.561	232440
496.636	218611
496.710	214639
496.785	272658
496.860	394022
496.934	228426
497.009	195550
497.083	191446
497.158	209436
497.232	289613
497.307	415649
497.381	265205
497.455	382616
497.530	662662
497.604	304056
497.679	294043
497.753	592628
497.827	772433
497.902	396469
497.976	416919
498.050	854212
498.125	2783189
498.199	2905961
498.273	533711
498.348	273309
498.422	216494
498.496	211538
498.570	206919
498.645	225675
498.719	267504
498.793	369545
498.867	754009
498.941	989248
499.016	1329447
499.090	3231479
499.164	1410449
499.238	288394
499.312	217267
499.386	219629
499.460	265565
499.534	272135
499.609	322205
499.683	646010
499.757	563944
499.831	738691
499.905	2388050
499.979	2468283
500.053	927169
500.127	871604
500.201	289128
500.275	241634
500.349	239842
500.422	261331
500.496	307266
500.570	438833
500.644	1272972
500.718	2718917
500.792	784761
500.866	322636
500.940	517429
501.013	374171
501.087	287475
501.161	354783
501.235	613600
501.309	1629960
501.382	2855741
501.456	2373491
501.530	759361
501.603	1568522
501.677	610902
501.751	267530
501.825	293549
501.898	528158
501.972	1605274
502.046	1081292
502.119	345592
502.193	641964
502.266	1762457
502.340	963167
502.413	874376
502.487	1971809
502.561	1553289
502.634	416799
502.708	204061
502.781	186971
502.855	167727
502.928	172376
503.002	176130
503.075	180934
503.149	212111
503.222	204220
503.295	241895
503.369	308938
503.442	431065
503.516	1202003
503.589	3196832
503.662	2304858
503.736	748642
503.809	1697359
503.882	1345211
503.956	1419174
504.029	1428310
504.102	728475
504.175	851872
504.249	450374
504.322	406220
504.395	369229
504.468	230776
504.542	280338
504.615	170765
504.688	143336
504.761	157813
504.834	191035
504.907	142601
504.980	155804
505.053	174991
505.127	152567
505.200	229220
505.273	482908
505.346	267299
505.419	206214
505.492	152127
505.565	135659
505.638	127759
505.711	140731
505.784	148314
505.857	136117
505.930	139419
506.003	146894
506.076	154888
506.149	273171
506.221	417856
506.294	238889
506.367	544507
506.440	1671201
506.513	943243
506.586	432268
506.659	221700
506.731	142625
506.804	183538
506.877	221076
506.950	236758
507.022	149819
507.095	293537
507.168	369125
507.241	134079
507.313	99781
507.386	111263
507.459	111081
507.531	102208
507.604	108299
507.677	115163
507.749	96977
507.822	103408
507.894	124372
507.967	115790
508.040	94246
508.112	91982
508.185	106062
508.257	93259
508.330	99973
508.402	121074
508.475	154281
508.547	184207
508.620	177718
508.692	448609
508.765	218824
508.837	102844
508.909	92383
508.982	99068
509.054	95845
509.127	88677
509.199	92681
509.271	100576
509.344	88752
509.416	90343
509.488	104636
509.560	100199
509.633	83105
509.705	88218
509.777	103869
509.849	106511
509.922	91686
509.994	93768
510.066	92297
510.138	91112
510.210	92797
510.283	117232
510.355	109062
510.427	83194
510.499	84305
510.571	93680
510.643	97194
510.715	89090
510.787	86672
510.859	105609
510.931	177788
511.003	113116
511.076	111175
511.148	115847
511.219	131927
511.291	328126
511.363	476597
511.435	122314
511.507	100845
511.579	97495
511.651	94663
511.723	107106
511.795	99758
511.867	117269
511.939	195507
512.010	650441
512.082	471082
512.154	124568
512.226	118869
512.298	101733
512.369	107343
512.441	99627
512.513	86773
512.585	83188
512.656	98731
512.728	136523
512.800	89434
512.871	93521
512.943	108907
513.015	77175
513.086	77246
513.158	76360
513.230	91390
513.301	113563
513.373	81528
513.444	76954
513.516	82910
513.588	71971
513.659	65742
513.731	71463
513.802	75819
513.874	74279
513.945	81900
514.016	80146
514.088	81163
514.159	78579
514.231	87329
514.302	92180
514.374	102385
514.445	167614
514.516	579815
514.588	437581
514.659	182914
514.730	521965
514.802	252134
514.873	84885
514.944	92835
515.016	96886
515.087	106078
515.158	256965
515.229	501227
515.301	113415
515.372	87679
515.443	84245
515.514	71780
515.585	71837
515.656	70083
515.728	69255
515.799	74118
515.870	80411
515.941	91639
516.012	90889
516.083	74168
516.154	82372
516.225	69659
516.296	68672
516.367	70478
516.438	75673
516.509	79585
516.580	89456
516.651	148820
516.722	290952
516.793	223520
516.864	178175
516.935	218933
517.006	224908
517.077	234096
517.148	247806
517.219	367151
517.289	695447
517.360	1593506
517.431	694580
517.502	197993
517.573	175997
517.643	165562
517.714	183519
517.785	169647
517.856	170266
517.926	171525
517.997	172928
518.068	173420
518.138	178512
518.209	189164
518.280	269431
518.350	586291
518.421	346705
518.492	205978
518.562	253066
518.633	353636
518.703	324809
518.774	480978
518.845	1016221
518.915	1030431
518.986	434775
519.056	286201
519.127	285665
519.197	440711
519.268	1417466
519.338	1171181
519.408	403372
519.479	194903
519.549	165377
519.620	146785
519.690	136993
519.760	147271
519.831	134915
519.901	147778
519.971	144079
520.042	212282
520.112	289121
520.182	177478
520.253	145807
520.323	159419
520.393	164023
520.463	165945
520.534	208899
520.604	367205
520.674	214144
520.744	239159
520.814	302383
520.885	260647
520.955	489193
521.025	1769994
521.095	814686
521.165	238024
521.235	247864
521.305	183049
521.375	129506
521.445	124172
521.515	117542
521.585	121102
521.655	123613
521.725	130574
521.795	158939
521.865	163963
521.935	321275
522.005	330191
522.075	161802
522.145	178295
522.215	259209
522.285	441333
522.355	608524
522.424	1287014
522.494	1125620
522.564	301026
522.634	192385
522.704	167412
522.774	131054
522.843	141926
522.913	128228
522.983	125869
523.053	126753
523.122	131359
523.192	107753
523.262	111603
523.331	129817
523.401	133555
523.471	107111
523.540	108087
523.610	99543
523.680	113175
523.749	135236
523.819	219670
523.888	262941
523.958	126588
524.027	137623
524.097	160709
524.166	128561
524.236	116007
524.305	134154
524.375	132750
524.444	132362
524.514	144450
524.583	186293
524.653	279454
524.722	299962
524.791	186293
524.861	143578
524.930	137007
524.999	132666
525.069	166817
525.138	210920
525.207	325525
525.277	168983
525.346	158390
525.415	146930
525.484	143685
525.554	243235
525.623	236755
525.692	146759
525.761	179815
525.830	167319
525.900	200614
525.969	321655
526.038	438757
526.107	597665
526.176	1636623
526.245	1431686
526.314	539865
526.383	925440
526.452	1235514
526.522	1579885
526.591	1975884
526.660	460181
526.729	252162
526.797	266656
526.867	349357
526.935	698215
527.004	2281580
527.073	1728205
527.142	353330
527.211	198694
527.280	143391
527.349	138398
527.418	123204
527.487	118110
527.555	116127
527.624	109263
527.693	111831
527.762	107919
527.831	108919
527.899	111721
527.968	117951
528.037	115464
528.106	115783
528.174	151835
528.243	241476
528.312	335110
528.380	348443
528.449	162169
528.518	108634
528.586	97862
528.655	101276
528.723	102501
528.792	106097
528.861	141700
528.929	139037
528.998	105309
529.066	100616
529.135	105435
529.203	106816
529.272	114158
529.340	119031
529.409	119582
529.477	130225
529.545	216543
529.614	236157
529.682	264612
529.751	355461
529.819	261517
529.887	210535
529.956	128443
530.024	134787
530.092	105065
530.161	104906
530.229	114673
530.297	112216
530.365	107116
530.434	98631
530.502	103408
530.570	100421
530.638	101446
530.707	98444
530.775	114872
530.843	113957
530.911	112146
530.979	100276
531.047	108008
531.115	116154
531.183	113707
531.252	110273
531.320	129180
531.388	119140
531.456	111260
531.524	107807
531.592	105356
531.660	114326
531.728	109690
531.796	111580
531.864	108288
531.932	114807
532.000	113052
532.067	111308
532.135	105661
532.203	109485
532.271	119293
532.339	114346
532.407	123698
532.475	111353
532.542	111285
532.610	109481
532.678	115925
532.746	132328
532.814	172654
532.881	132924
532.949	117529
533.017	116008
533.084	119026
533.152	114497
533.220	110071
533.287	107973
533.355	105876
533.423	111800
533.490	112080
533.558	115855
533.625	120352
533.693	128478
533.761	117891
533.828	127656
533.896	105369
533.963	109835
534.031	118369
534.098	136302
534.166	141166
534.233	111398
534.300	110033
534.368	123226
534.435	134641
534.503	117179
534.570	117016
534.637	128155
534.705	140055
534.772	158950
534.840	220399
534.907	677472
534.974	978457
535.041	222392
535.109	263630
535.176	149135
535.243	107828
535.310	107819
535.378	111569
535.445	99155
535.512	98481
535.579	103584
535.646	106191
535.714	105674
535.781	107823
535.848	106985
535.915	120837
535.982	115547
536.049	110338
536.116	113913
536.183	110884
536.250	104303
536.317	109874
536.384	108422
536.451	108683
536.518	107110
536.585	113404
536.652	140245
536.719	124566
536.786	114490
536.853	113768
536.920	165002
536.987	211792
537.053	115524
537.120	122346
537.187	120338
537.254	106893
537.321	109745
537.388	104137
537.454	103839
537.521	100923
537.588	97347
537.654	104539
537.721	102546
537.788	101521
537.855	93163
537.921	96332
537.988	100117
538.055	105950
538.121	107175
538.188	95506
538.254	99659
538.321	106001
538.388	99823
538.454	110322
538.521	104597
538.587	97488
538.654	101891
538.720	99111
538.787	98552
538.853	115585
538.920	165617
538.986	190190
539.053	149007
539.119	123098
539.185	103500
539.252	103284
539.318	104953
539.385	108568
539.451	107071
539.517	103741
539.583	114234
539.650	170313
539.716	250156
539.782	123954
539.849	93996
539.915	99111
539.981	95109
540.047	93305
540.114	104580
540.180	106288
540.246	97085
540.312	104288
540.378	134461
540.444	125488
540.510	104561
540.576	124387
540.643	123439
540.709	101977
540.775	102608
540.841	115072
540.907	177628
540.973	291708
541.039	120447
541.105	101810
541.171	98944
541.237	101598
541.303	100508
541.369	97153
541.435	96020
541.500	98705
541.566	95880
541.632	94159
541.698	92513
541.764	96558
541.830	101638
541.896	108161
541.961	102884
542.027	100036
542.093	94266
542.159	95234
542.224	106206
542.290	110477
542.356	109618
542.421	108674
542.487	97320
542.553	105998
542.618	148323
542.684	114391
542.750	102417
542.815	115653
542.881	177519
542.947	204073
543.012	114494
543.078	96843
543.143	97373
543.209	102356
543.274	97924
543.340	95244
543.405	99049
543.471	98184
543.536	97618
543.602	113668
543.667	122489
543.732	104479
543.798	115049
543.863	118248
543.928	98448
543.994	91526
544.059	98692
544.124	87623
544.190	87626
544.255	89518
544.320	85543
544.386	85692
544.451	95810
544.516	97978
544.581	103635
544.646	150222
544.712	145504
544.777	128365
544.842	167282
544.907	222848
544.972	166249
545.037	145909
545.102	160438
545.168	166573
545.233	166560
545.298	166545
545.363	211152
545.428	172137
545.493	170703
545.558	175469
545.623	170599
545.688	171592
545.753	158709
545.818	159972
545.883	163627
545.947	163345
546.012	198018
546.077	223096
546.142	162573
546.207	151166
546.272	155515
546.337	157372
546.401	155149
546.466	163189
546.531	173089
546.596	206846
546.661	225902
546.725	167301
546.790	165544
546.855	178077
546.919	172267
546.984	181047
547.049	205839
547.113	278229
547.178	234231
547.243	254199
547.307	274332
547.372	316238
547.436	400961
547.501	253643
547.565	242989
547.630	234722
547.695	261402
547.759	413973
547.823	362288
547.888	238426
547.952	236898
548.017	247209
548.081	288780
548.146	461886
548.210	410041
548.274	250335
548.339	232337
548.403	219963
548.468	209385
548.532	216984
548.596	226603
548.660	231054
548.725	246800
548.789	317497
548.853	362095
548.917	278737
548.982	425880
549.046	462963
549.110	242658
549.174	223594
549.238	224491
549.303	222962
549.367	227946
549.431	228205
549.495	219665
549.559	222212
549.623	230081
549.687	256541
549.751	269188
549.815	291350
549.879	290021
549.943	270129
550.007	292585
550.071	296779
550.135	293561
550.199	277066
550.263	273626
550.327	314129
550.391	485944
550.455	319068
550.519	275452
550.582	281718
550.646	303669
550.710	312460
550.774	309639
550.838	317330
550.901	341778
550.965	366078
551.029	397251
551.093	452782
551.156	594135
551.220	1033861
551.284	1198329
551.347	632101
551.411	1109298
551.475	1307384
551.538	393161
551.602	312551
551.666	292382
551.729	274304
551.793	272279
551.856	272278
551.920	253308
551.983	257378
552.047	256808
552.110	246838
552.174	255426
552.237	256883
552.301	243711
552.364	237791
552.428	239584
552.491	242124
552.554	238660
552.618	247518
552.681	261174
552.745	292910
552.808	276054
552.871	260727
552.934	248845
552.998	256753
553.061	289927
553.124	251743
553.187	227979
553.251	243854
553.314	252787
553.377	236155
553.440	246399
553.503	248658
553.567	243061
553.630	239045
553.693	240178
553.756	254227
553.819	231004
553.882	236055
553.945	227392
554.008	223924
554.071	226845
554.134	228432
554.197	220881
554.260	203227
554.323	216444
554.386	224391
554.449	235803
554.512	228490
554.575	224153
554.638	236665
554.701	225589
554.764	212920
554.827	216202
554.889	208517
554.952	191577
555.015	195568
555.078	199533
555.141	200166
555.203	190476
555.266	191045
555.329	198694
555.391	186926
555.454	184891
555.517	189110
555.580	191466
555.642	187646
555.705	180157
555.768	178496
555.830	177473
555.893	172362
555.955	168665
556.018	172790
556.080	175784
556.143	172251
556.206	176056
556.268	193458
556.330	188102
556.393	182182
556.455	209703
556.518	342591
556.580	355637
556.643	171070
556.705	159655
556.767	161648
556.830	165625
556.892	154280
556.955	152623
557.017	152513
557.079	159194
557.142	149502
557.204	150186
557.266	159245
557.328	163870
557.391	151429
557.453	147571
557.515	148604
557.577	156699
557.639	156862
557.701	157080
557.764	163714
557.826	171454
557.888	194791
557.950	187878
558.012	190837
558.074	231471
558.136	414467
558.198	983214
558.260	433727
558.322	206210
558.384	185956
558.446	195739
558.508	218959
558.570	260952
558.632	274601
558.694	339985
558.756	482215
558.818	1081325
558.880	2458357
558.942	1141985
559.003	998081
559.065	558025
559.127	242987
559.189	239153
559.251	263335
559.312	332395
559.374	620409
559.436	1812151
559.498	1127649
559.559	299668
559.621	259386
559.683	296786
559.744	457160
559.806	1074831
559.868	1623071
559.929	488295
559.991	327482
560.052	411643
560.114	935085
560.176	700787
560.237	532399
560.299	894579
560.360	302186
560.422	198046
560.483	183466
560.545	176253
560.606	178446
560.667	175783
560.729	167840
560.790	160553
560.852	161936
560.913	164268
560.974	157319
561.036	157832
561.097	157598
561.158	153682
561.220	152839
561.281	151820
561.342	147565
561.403	155415
561.465	155650
561.526	159882
561.587	162196
561.648	153439
561.709	152023
561.771	152304
561.832	154023
561.893	149232
561.954	146510
562.015	146248
562.076	149437
562.137	148158
562.198	148455
562.259	144073
562.320	142930
562.381	142745
562.442	147292
562.503	145418
562.564	142197
562.625	138889
562.686	142743
562.747	151035
562.808	149712
562.869	166702
562.930	220723
562.991	224548
563.051	198963
563.112	172605
563.173	162346
563.234	157752
563.294	151248
563.355	145400
563.416	149053
563.477	150193
563.537	162471
563.598	178993
563.659	162118
563.720	160865
563.780	158579
563.841	159343
563.901	160958
563.962	160922
564.023	161395
564.083	161859
564.144	168123
564.204	176778
564.265	184754
564.325	230489
564.386	472661
564.446	469753
564.507	172058
564.567	151160
564.628	148083
564.688	152449
564.749	162813
564.809	205442
564.869	274941
564.930	176433
564.990	134927
565.050	134031
565.111	133864
565.171	131280
565.231	134035
565.292	128234
565.352	128482
565.412	137294
565.472	143917
565.532	141770
565.593	130987
565.653	127185
565.713	132727
565.773	136566
565.833	134399
565.893	141452
565.953	141952
566.013	144588
566.074	167073
566.134	233424
566.194	434838
566.254	440819
566.314	267305
566.374	165415
566.434	149135
566.494	145290
566.554	138406
566.614	131775
566.673	132722
566.733	140336
566.793	147237
566.853	149299
566.913	144173
566.973	153585
567.033	151049
567.092	147022
567.152	145442
567.212	154742
567.272	161858
567.331	185488
567.391	170281
567.451	181369
567.511	287096
567.570	331101
567.630	158761
567.690	141004
567.749	137296
567.809	130574
567.868	131759
567.928	146523
567.988	177954
568.047	152689
568.107	126180
568.166	120220
568.226	116395
568.285	121309
568.345	118006
568.404	116734
568.464	117997
568.523	116102
568.582	119820
568.642	118447
568.701	121109
568.761	129454
568.820	134564
568.879	158195
568.939	250894
568.998	188235
569.057	120009
569.116	117748
569.176	111101
569.235	113654
569.294	116350
569.353	113121
569.413	121487
569.472	134061
569.531	125756
569.590	124126
569.649	125478
569.708	121720
569.767	118892
569.827	128655
569.886	126446
569.945	123003
570.004	117875
570.063	121483
570.122	126507
570.181	143241
570.240	189382
570.299	188444
570.358	136406
570.417	123215
570.475	115072
570.534	114750
570.593	115416
570.652	125665
570.711	131323
570.770	131540
570.829	157757
570.887	121004
570.946	111475
571.005	115895
571.064	119108
571.122	132450
571.181	176590
571.240	148184
571.299	125558
571.357	151846
571.416	171598
571.475	193485
571.533	218087
571.592	145486
571.650	175099
571.709	130208
571.768	118586
571.826	119553
571.885	124015
571.943	122086
572.002	129035
572.060	147443
572.119	111294
572.177	108050
572.236	104497
572.294	102031
572.352	101480
572.411	102568
572.469	103025
572.528	99855
572.586	104416
572.644	107047
572.703	115782
572.761	110720
572.819	111751
572.877	108571
572.936	104548
572.994	101480
573.052	101152
573.110	102943
573.169	97667
573.227	98009
573.285	98470
573.343	99493
573.401	107644
573.459	105776
573.517	105308
573.576	107198
573.634	104622
573.692	109798
573.750	106882
573.808	114024
573.866	130696
573.924	196085
573.982	197991
574.040	130775
574.098	114848
574.155	106902
574.213	95274
574.271	98274
574.329	102727
574.387	101872
574.445	100147
574.503	92932
574.560	87457
574.618	88659
574.676	87593
574.734	87707
574.792	87993
574.849	86429
574.907	82608
574.965	84425
575.022	83198
575.080	84185
575.138	84968
575.195	88972
575.253	92201
575.311	91700
575.368	83573
575.426	84850
575.483	85951
575.541	86991
575.598	89567
575.656	103701
575.713	101757
575.771	93050
575.828	93753
575.886	95667
575.943	101181
576.001	111451
576.058	113590
576.115	121473
576.173	149407
576.230	162821
576.287	139101
576.345	123418
576.402	119061
576.459	122767
576.517	130662
576.574	144773
576.631	157475
576.688	132550
576.746	114021
576.803	112119
576.860	110303
576.917	115145
576.974	111910
577.031	106934
577.089	109076
577.146	113983
577.203	114685
577.260	124269
577.317	143845
577.374	165197
577.431	153604
577.488	119780
577.545	102354
577.602	98294
577.659	99644
577.716	93723
577.773	91692
577.830	93367
577.886	93300
577.943	93655
578.000	96056
578.057	109603
578.114	103833
578.171	94073
578.227	96439
578.284	98594
578.341	107059
578.398	111294
578.454	124169
578.511	148034
578.568	169412
578.625	145559
578.681	113251
578.738	99486
578.794	102701
578.851	97231
578.908	99948
578.964	98308
579.021	95704
579.077	96020
579.134	99757
579.190	89544
579.247	84515
579.303	86756
579.360	83548
579.416	81460
579.473	84614
579.529	84340
579.586	84812
579.642	87416
579.698	92461
579.755	98196
579.811	88554
579.867	85361
579.924	86101
579.980	88883
580.036	91860
580.093	91009
580.149	91856
580.205	97116
580.261	98651
580.317	106117
580.374	120927
580.430	144905
580.486	141049
580.542	117250
580.598	106134
580.619	104121
580.654	100785
580.692	98817
580.710	98063
580.765	95755
580.767	95831
580.823	95919
580.838	95539
580.879	95021
580.911	92187
580.935	90335
580.984	89912
580.991	89998
581.047	91705
581.057	92136
581.103	94748
581.130	96739
581.159	99086
581.203	100915
581.215	101564
581.270	104947
581.276	104597
581.326	102489
581.349	101350
581.382	99989
581.422	97072
581.438	96004
581.494	100576
581.494	100429
581.550	96628
581.567	95564
581.606	93477
581.640	93168
581.661	93223
581.713	90631
581.717	90510
581.773	89495
581.786	90291
581.829	93417
581.859	92495
581.885	91812
581.932	91805
581.940	91917
581.996	92543
582.004	92349
582.052	91582
582.077	90005
582.107	88386
582.150	90760
582.163	91546
582.219	93496
582.223	93400
582.274	93342
582.296	96911
582.330	102692
582.368	106043
582.386	107590
582.441	88922
582.441	88951
582.497	83890
582.514	83909
582.552	84291
582.587	83182
582.608	82508
582.659	83760
582.663	83905
582.719	84016
582.732	84019
582.774	84254
582.805	85858
582.830	87186
582.877	85343
582.885	85070
582.941	84186
582.950	84085
582.996	83868
583.023	85158
583.052	86454
583.095	86011
583.107	86017
583.162	90613
583.168	90789
583.218	92072
583.240	89292
583.273	85214
583.313	80171
583.328	78309
583.384	79679
583.385	79773
583.439	82410
583.458	82014
583.494	81318
583.531	77896
583.549	76055
583.603	78573
583.605	78645
583.660	76003
583.676	76165
583.715	76797
583.748	79851
583.770	81807
583.820	85891
583.825	86245
583.881	81130
583.893	80442
583.936	77631
583.965	77228
583.991	76991
584.038	75306
584.046	75011
584.101	78529
584.110	78479
584.156	77848
584.183	76256
584.211	74218
584.255	72320
584.266	71896
584.321	68157
584.328	68688
584.376	72395
584.400	71872
584.431	70970
584.472	69443
584.486	68888
584.541	68399
584.545	68335
584.596	66271
584.617	67936
584.651	70961
584.689	73054
584.706	73760
584.761	74157
584.762	74214
584.816	72481
584.834	72257
584.871	72000
584.906	73453
584.926	73939
584.978	71657
584.980	71509
585.035	74338
585.051	75855
585.090	79373
585.123	80267
585.145	80769
585.195	84836
585.200	85092
585.254	89200
585.267	90121
585.309	92543
585.340	98001
585.364	102209
585.412	110530
585.419	111608
585.473	125437
585.484	130155
585.528	149503
585.556	170647
585.583	194314
585.628	265590
585.637	283797
585.692	506654
585.700	561879
585.747	844054
585.772	705060
585.801	499808
585.845	230917
585.856	172829
585.910	106755
585.917	103262
585.965	88472
585.989	84412
586.019	80168
586.061	77737
586.074	76777
586.128	74709
586.133	75179
586.183	79758
586.205	82228
586.237	85021
586.277	86954
586.292	87305
586.346	87294
586.349	87511
586.401	87245
586.421	89225
586.455	93732
586.493	103756
586.509	109775
586.564	147451
586.565	150350
586.618	274084
586.637	274070
586.672	243743
586.709	149458
586.727	105514
586.781	83911
586.781	83653
586.835	73866
586.853	72010
586.889	68244
586.925	65835
586.944	64679
586.996	64696
586.998	64524
587.052	66127
587.068	66052
587.106	64755
587.140	65208
587.161	65293
587.212	64844
587.215	64638
587.269	66735
587.284	66736
587.323	65710
587.356	65339
587.377	64637
587.427	63625
587.431	63375
587.485	63512
587.499	63791
587.539	63760
587.571	64293
587.593	64329
587.643	65395
587.648	65309
587.702	66811
587.715	67822
587.755	70106
587.786	70867
587.810	70025
587.858	64945
587.864	64330
587.917	65196
587.930	66312
587.971	69584
588.001	74888
588.025	77643
588.073	67673
588.079	65974
588.133	58836
588.145	58272
588.187	57430
588.217	58307
588.241	58546
588.288	58822
588.295	58599
588.348	58414
588.360	58571
588.402	58448
588.431	59922
588.456	60752
588.503	62699
588.510	62664
588.564	64307
588.575	65013
588.617	66714
588.646	68292
588.671	69213
588.718	74382
588.725	75161
588.778	85891
588.789	89106
588.832	108404
588.861	127545
588.886	161066
588.932	244262
588.939	256948
588.993	384910
589.004	380520
589.047	223182
589.075	137510
589.100	99780
589.147	68168
589.154	66786
589.207	62460
589.218	62229
589.261	62415
589.290	64147
589.314	65442
589.361	69630
589.368	70135
589.421	77875
589.433	81396
589.475	113567
589.504	143748
589.528	186405
589.576	299065
589.582	297985
589.635	197286
589.647	176202
589.689	99660
589.718	68197
589.742	67057
589.790	70847
589.795	71907
589.849	88846
589.861	98165
589.902	132346
589.932	140255
589.955	124892
590.004	71011
590.009	67046
590.062	57689
590.075	56006
590.115	52371
590.146	50864
590.168	50850
590.218	52538
590.222	52270
590.275	54220
590.289	55545
590.328	58318
590.360	58127
590.381	55527
590.431	50987
590.435	50515
590.488	51264
590.503	51679
590.541	50910
590.574	50948
590.594	50514
590.645	50502
590.647	50110
590.700	48994
590.716	49313
590.753	48310
590.787	47740
590.806	47045
590.859	47291
590.859	46922
590.912	46325
590.930	46599
590.965	46099
591.001	46486
591.018	46080
591.071	45243
591.072	45608
591.124	44286
591.143	44451
591.177	44435
591.214	45195
591.230	45076
591.283	45887
591.285	46329
591.336	46468
591.356	46982
591.389	46051
591.427	45475
591.442	44639
591.495	43736
591.498	44088
591.547	43350
591.569	43516
591.600	42992
591.640	43601
591.653	43423
591.706	44451
591.711	45088
591.759	48549
591.782	51615
591.811	56638
591.853	65311
591.864	63054
591.917	49989
591.924	48981
591.969	45195
591.995	44206
592.022	44615
592.066	46761
592.075	47462
592.127	55164
592.137	57587
592.180	69527
592.208	77109
592.233	68370
592.279	51538
592.285	49975
592.338	43591
592.350	42718
592.390	40839
592.421	40238
592.443	39802
592.491	40442
592.495	39962
592.548	39848
592.562	40306
592.600	39990
592.633	40606
592.653	39425
592.704	37428
592.705	37639
592.775	38195
592.846	39280
592.916	38114
592.987	39805
593.058	41069
593.128	39814
593.199	38831
593.270	37407
593.341	36705
593.411	38178
593.482	39100
593.553	39182
593.623	38601
593.694	40690
593.764	48679
593.835	43132
593.906	40574
593.976	42503
594.047	47826
594.117	57621
594.188	63820
594.258	42329
594.329	40154
594.399	41450
594.470	40677
594.540	40048
594.611	42436
594.681	40840
594.751	43719
594.822	44484
594.892	46430
594.963	48673
595.033	49482
595.103	49255
595.174	57140
595.244	80812
595.314	119160
595.384	61937
595.455	50329
595.525	51584
595.595	51845
595.665	53651
595.736	53172
595.806	52315
595.876	51990
595.946	51368
596.016	52125
596.087	52752
596.157	53887
596.227	53271
596.297	56356
596.367	58352
596.437	67177
596.507	86014
596.577	120435
596.647	74541
596.717	61680
596.787	60748
596.857	60826
596.927	62193
596.997	61518
597.067	61718
597.137	65677
597.207	70422
597.277	69945
597.347	66620
597.417	64230
597.487	61510
597.557	64127
597.626	64446
597.696	68870
597.766	84802
597.836	112115
597.906	78259
597.975	59937
598.045	58744
598.115	60066
598.185	62332
598.254	67803
598.324	69965
598.394	69696
598.464	69745
598.533	69539
598.603	64136
598.672	65679
598.742	69656
598.812	71588
598.881	71843
598.951	67887
599.020	65791
599.090	67930
599.159	68192
599.229	67097
599.299	63527
599.368	66460
599.437	66863
599.507	64464
599.576	66465
599.646	63460
599.715	62995
599.785	63972
599.854	67847
599.924	76429
599.993	70268
600.062	64181
600.132	63290
600.201	66679
600.270	70725
600.340	75985
600.409	73644
600.478	73264
600.547	72911
600.617	73288
600.686	62543
600.755	58317
600.824	56765
600.894	57593
600.963	56014
601.032	54410
601.101	55495
601.170	55556
601.239	53867
601.308	55386
601.378	53957
601.447	54279
601.516	52110
601.585	54123
601.654	53805
601.723	56044
601.792	56546
601.861	57870
601.930	57823
601.999	61450
602.068	58500
602.137	59665
602.206	58535
602.275	59701
602.343	59219
602.412	59965
602.481	58117
602.550	60024
602.619	58224
602.688	59993
602.756	61287
602.825	60448
602.894	60095
602.963	63431
603.032	62404
603.100	64307
603.169	61664
603.238	63781
603.307	61539
603.375	61984
603.444	63007
603.513	63429
603.581	63582
603.650	66549
603.719	63651
603.787	62596
603.856	63372
603.924	63709
603.993	64688
604.061	67588
604.130	67835
604.198	69729
604.267	69999
604.335	70515
604.404	70354
604.472	71629
604.541	73108
604.609	73047
604.678	74019
604.746	74856
604.815	75842
604.883	77305
604.951	76608
605.020	75863
605.088	78114
605.156	78649
605.225	78434
605.293	78641
605.361	79123
605.429	79193
605.498	79298
605.566	79373
605.634	82558
605.702	85134
605.771	87831
605.839	88197
605.907	85443
605.975	84909
606.043	81767
606.111	82328
606.180	82782
606.248	81065
606.316	80113
606.384	83829
606.452	91852
606.520	82224
606.588	80403
606.656	80110
606.724	78983
606.792	76612
606.860	69448
606.928	64162
606.996	61161
607.064	61543
607.132	61905
607.200	65101
607.267	67158
607.335	67928
607.403	67993
607.471	68815
607.539	65336
607.607	65482
607.674	58879
607.742	61411
607.810	59859
607.878	59380
607.946	58279
608.013	62628
608.081	62794
608.149	61585
608.216	61861
608.284	67266
608.352	66846
608.419	72740
608.487	88519
608.555	79828
608.622	65437
608.690	67069
608.757	72497
608.825	76094
608.893	74582
608.960	75368
609.028	78756
609.095	99784
609.163	80224
609.230	66792
609.298	62331
609.365	60026
609.432	60832
609.500	68078
609.567	73412
609.635	85141
609.702	90095
609.769	88985
609.837	82911
609.904	69188
609.971	64401
610.039	70189
610.106	85427
610.173	148883
610.241	335561
610.308	256166
610.375	86805
610.442	67900
610.509	62838
610.577	62545
610.644	62796
610.711	64849
610.778	67423
610.845	67299
610.912	70762
610.980	72686
611.047	73806
611.114	73488
611.181	69411
611.248	69744
611.315	72772
611.382	76356
611.449	77448
611.516	79481
611.583	79039
611.650	79003
611.717	80366
611.784	81562
611.851	87096
611.918	91674
611.984	105274
612.051	143737
612.118	263214
612.185	606558
612.252	526686
612.319	142416
612.386	104125
612.452	96212
612.519	96515
612.586	116821
612.653	105867
612.719	89981
612.786	86690
612.853	82632
612.919	78290
612.986	79868
613.053	76777
613.120	74178
613.186	75907
613.253	76984
613.319	73673
613.386	72693
613.453	72914
613.519	72228
613.586	72154
613.652	72977
613.719	70713
613.785	73571
613.852	75073
613.918	71485
613.985	71715
614.051	74065
614.118	74567
614.184	72259
614.250	70207
614.317	72412
614.383	72919
614.449	73281
614.516	72279
614.582	76579
614.648	75341
614.715	72278
614.781	74049
614.847	78765
614.914	79320
614.980	75872
615.046	71121
615.112	71032
615.179	71833
615.245	71488
615.311	70986
615.377	73725
615.443	74004
615.509	76519
615.575	79564
615.642	78479
615.708	79722
615.774	84758
615.840	92262
615.906	101743
615.972	116029
616.038	161353
616.104	307170
616.170	687966
616.236	766140
616.302	215135
616.368	145540
616.434	112582
616.500	103024
616.565	110169
616.631	133517
616.697	115586
616.763	112310
616.829	153443
616.895	267790
616.961	288760
617.026	134203
617.092	90638
617.158	83267
617.224	81277
617.289	76281
617.355	74820
617.421	76059
617.487	76270
617.552	71507
617.618	69708
617.684	67047
617.749	70458
617.815	66420
617.880	64493
617.946	63199
618.012	64962
618.077	66691
618.143	65967
618.208	67723
618.274	71301
618.339	72508
618.405	64433
618.470	62836
618.536	65189
618.601	70075
618.667	67703
618.732	59231
618.798	59044
618.863	57580
618.928	58640
618.994	60615
619.059	61832
619.124	64555
619.190	64494
619.255	58970
619.320	60281
619.386	59069
619.451	58993
619.516	57290
619.581	57551
619.647	58309
619.712	58875
619.777	56535
619.842	57091
619.907	57995
619.972	59672
620.038	58770
620.103	58220
620.168	55330
620.233	56078
620.298	57071
620.363	57328
620.428	57773
620.493	59119
620.558	59247
620.623	58244
620.688	58540
620.753	57429
620.818	58361
620.883	60158
620.948	59343
621.013	59631
621.078	58932
621.143	60606
621.207	64620
621.272	62895
621.337	63824
621.402	69278
621.467	83231
621.532	94644
621.596	72898
621.661	65753
621.726	62091
621.791	63701
621.855	63555
621.920	66083
621.985	73989
622.049	85768
622.114	82375
622.179	74317
622.243	73751
622.308	73251
622.373	72622
622.437	72043
622.502	67128
622.566	66524
622.631	67163
622.695	68108
622.760	67880
622.824	65145
622.889	65860
622.953	65771
623.018	67564
623.082	68387
623.147	68013
623.211	66736
623.276	65662
623.340	63879
623.404	61428
623.469	62568
623.533	62314
623.597	61501
623.662	61183
623.726	60857
623.790	58221
623.854	56767
623.919	58047
623.983	56341
624.047	58222
624.111	57313
624.176	57708
624.240	58969
624.304	60550
624.368	58438
624.432	57861
624.496	58318
624.560	58138
624.625	59471
624.689	58639
624.753	60445
624.817	58442
624.881	58121
624.945	58091
625.009	55746
625.073	52613
625.137	54260
625.201	56396
625.265	57165
625.329	56202
625.393	55873
625.456	56789
625.520	62183
625.584	64989
625.648	78964
625.712	112469
625.776	232881
625.839	292268
625.903	150343
625.967	69148
626.031	97117
626.095	172995
626.158	87492
626.222	51007
626.286	45163
626.349	43470
626.413	42333
626.477	42946
626.540	40880
626.604	43314
626.668	42657
626.731	41286
626.795	44920
626.858	44758
626.922	42482
626.986	40762
627.049	40242
627.113	40804
627.176	39341
627.240	39176
627.303	39997
627.366	40173
627.430	39508
627.493	39696
627.557	42163
627.620	41000
627.684	41823
627.747	42082
627.810	39221
627.874	38079
627.937	37379
628.000	38153
628.064	37398
628.127	34258
628.190	34985
628.253	34623
628.317	33989
628.380	33636
628.443	32981
628.506	32490
628.569	32388
628.632	29778
628.696	30924
628.759	29436
628.822	29789
628.885	28981
628.948	29847
629.011	29058
629.074	29580
629.137	27697
629.200	27926
629.263	31040
629.326	28836
629.389	27652
629.452	28792
629.515	30959
629.578	29529
629.641	29703
629.704	29930
629.767	29091
629.830	27185
629.892	26259
629.955	26139
630.018	27551
630.081	26169
630.144	26588
630.207	26992
630.269	28679
630.332	35212
630.395	33033
630.458	26026
630.520	24590
630.583	25347
630.646	23824
630.708	24348
630.771	24574
630.834	25201
630.896	24693
630.959	22912
631.021	25053
631.084	26074
631.146	28722
631.209	36643
631.272	26849
631.334	24697
631.397	23672
631.459	23553
631.522	23249
631.584	25362
631.646	25556
631.709	27127
631.771	30287
631.834	29354
631.896	24672
631.958	23343
632.021	23298
632.083	23449
632.145	24679
632.208	23462
632.270	22693
632.332	21883
632.395	21360
632.457	24170
632.519	22936
632.581	23099
632.643	20955
632.706	22494
632.768	21781
632.830	22015
632.892	20228
632.954	22067
633.016	23013
633.078	21817
633.141	21251
633.203	21423
633.265	22105
633.327	20927
633.389	20606
633.451	21992
633.513	22542
633.575	28107
633.637	24420
633.698	21459
633.760	22384
633.822	21882
633.884	23075
633.946	22242
634.008	22317
634.070	23005
634.132	22848
634.193	25069
634.255	26136
634.317	27223
634.379	25906
634.441	24976
634.502	24250
634.564	21617
634.626	19978
634.687	21219
634.749	20689
634.811	20944
634.873	18641
634.934	19492
634.996	19482
635.057	20748
635.119	20173
635.181	20893
635.242	20152
635.304	19455
635.365	20519
635.427	19475
635.488	19120
635.550	20339
635.611	19645
635.673	18918
635.734	22043
635.796	22237
635.857	22843
635.918	23760
635.980	25890
636.041	26330
636.102	27298
636.164	27587
636.225	25956
636.286	24710
636.348	23696
636.409	20874
636.470	20227
636.531	20490
636.593	24994
636.654	25095
636.715	18180
636.776	17544
636.838	17033
636.899	18983
636.960	18368
637.021	17221
637.082	17392
637.143	18119
637.204	15829
637.265	16302
637.326	15969
637.387	16238
637.448	15636
637.509	17200
637.570	17156
637.631	17457
637.692	15101
637.753	14953
637.814	14887
637.875	15711
637.936	16148
637.997	15211
638.058	16144
638.119	18621
638.179	17122
638.240	16344
638.301	16266
638.362	16037
638.423	15909
638.483	17098
638.544	13516
638.605	16361
638.666	13862
638.726	15994
638.787	14852
638.848	15326
638.908	14334
638.969	15578
639.030	14865
639.090	14038
639.151	13660
639.211	14303
639.272	15269
639.332	17115
639.393	17335
639.453	16216
639.514	15329
639.574	14769
639.635	13207
639.695	13978
639.756	12935
639.816	13855
639.877	12265
639.937	14649
639.997	13772
640.058	13133
640.118	13785
640.178	14139
640.239	11406
640.299	13271
640.359	13555
640.420	13875
640.480	14124
640.540	15061
640.600	14717
640.661	14688
640.721	13016
640.781	15196
640.841	11252
640.901	14749
640.961	13015
641.021	14126
641.082	14332
641.142	13709
641.202	13075
641.262	11619
641.322	13297
641.382	12203
641.442	12752
641.502	13064
641.562	13735
641.622	12695
641.682	13716
641.742	14864
641.802	14109
641.861	14237
641.921	13388
641.981	12765
642.041	12475
642.101	12778
642.161	10806
642.221	12510
642.280	11695
642.340	11979
642.400	11851
642.460	14123
642.519	12881
642.579	12058
642.639	12662
642.698	11055
642.758	13563
642.818	13480
642.877	12102
642.937	12756
642.997	12636
643.056	13586
643.116	11342
643.175	13452
643.235	12556
643.294	14557
643.354	14314
643.414	15817
643.473	20987
643.532	21392
643.592	22129
643.651	30428
643.711	47345
643.770	84509
643.830	179260
643.889	449374
643.948	185877
644.008	32861
644.067	19259
644.126	16433
644.186	14081
644.245	14018
644.304	11206
644.363	14063
644.423	11486
644.482	12905
644.541	12342
644.600	12364
644.659	15012
644.719	17262
644.778	23096
644.837	33125
644.896	57814
644.955	135764
645.014	77125
645.073	19211
645.132	14816
645.191	14614
645.250	12698
645.309	14690
645.368	13443
645.427	16551
645.486	20632
645.545	36832
645.604	19529
645.663	13559
645.722	12876
645.781	13848
645.840	14241
645.898	15877
645.957	20739
646.016	27549
646.075	44176
646.134	82290
646.192	183092
646.251	369055
646.310	93688
646.369	22770
646.427	17176
646.486	15598
646.545	11963
646.603	12773
646.662	11951
646.721	11864
646.779	10780
646.838	11288
646.896	13122
646.955	15626
647.014	21790
647.072	33380
647.131	83168
647.189	68476
647.248	14577
647.306	11741
647.365	10451
647.423	9340
647.481	10525
647.540	7762
647.598	9116
647.657	9909
647.715	9089
647.773	9845
647.832	9551
647.890	9186
647.948	9471
648.007	11094
648.065	8613
648.123	9456
648.181	10432
648.240	9401
648.298	8876
648.356	10075
648.414	10388
648.472	10591
648.531	10129
648.589	10240
648.647	9347
648.705	9754
648.763	10260
648.821	10638
648.879	8892
648.937	11419
648.995	11905
649.053	14656
649.111	17148
649.169	26200
649.227	38416
649.285	68836
649.343	193567
649.401	158478
649.459	25200
649.516	15525
649.574	10840
649.632	14238
649.690	13883
649.748	17562
649.806	17714
649.863	26695
649.921	56818
649.979	62382
650.037	15464
650.094	9710
650.152	9060
650.210	9194
650.268	9235
650.325	8637
650.383	6553
650.440	7074
650.498	9030
650.556	9231
650.613	7307
650.671	9113
650.728	8302
650.786	11599
650.843	10020
650.901	8131
650.958	7678
651.016	7809
651.073	7016
651.131	8127
651.188	7404
651.246	9269
651.303	7933
651.360	7867
651.418	7478
651.475	8281
651.532	6257
651.590	8366
651.647	6959
651.704	8568
651.762	7593
651.819	7689
651.876	6857
651.933	8022
651.990	7189
652.048	7091
652.105	7039
652.162	7646
652.219	6871
652.276	7812
652.333	7027
652.390	6734
652.448	6683
652.505	7328
652.562	7380
652.619	5994
652.676	7005
652.733	7689
652.790	6480
652.847	5529
652.904	6548
652.961	5720
653.017	5585
653.074	6957
653.131	6133
653.188	6470
653.245	6444
653.302	6815
653.359	6363
653.415	7350
653.472	5784
653.529	7196
653.586	6341
653.642	7100
653.699	6329
653.756	6280
653.813	6048
653.869	6956
653.926	5555
653.983	6210
654.039	6158
654.096	7103
654.152	8077
654.209	7189
654.266	7464
654.322	7542
654.379	8519
654.435	10568
654.492	9151
654.548	12155
654.605	19801
654.661	14335
654.717	7653
654.774	8732
654.830	8727
654.887	8765
654.943	7903
655.000	9042
655.056	7690
655.112	8314
655.168	8627
655.225	8453
655.281	11220
655.337	15003
655.394	26283
655.450	24574
655.506	16331
655.562	24336
655.618	26682
655.675	9961
655.731	8481
655.787	8023
655.843	8545
655.899	7275
655.955	8666
656.011	8986
656.067	7058
656.123	9999
656.179	8745
656.235	10332
656.291	8103
656.347	10026
656.403	9667
656.459	10426
656.515	11056
656.571	12315
656.627	9616
656.683	8935
656.739	8332
656.795	7540
656.850	7348
656.906	7451
656.962	7569
657.018	5984
657.074	7460
657.129	8233
657.185	9249
657.241	12786
657.297	11715
657.352	8458
657.408	6113
657.464	8983
657.519	8982
657.575	6498
657.630	6993
657.686	7932
657.742	6318
657.797	8305
657.853	7236
657.908	9228
657.964	6649
658.019	7895
658.075	7321
658.130	7878
658.186	6681
658.241	7433
658.297	5907
658.352	7233
658.407	7289
658.463	7945
658.518	7746
658.573	8150
658.629	5871
658.684	6527
658.739	5656
658.795	5904
658.850	6664
658.905	6519
658.960	7636
659.016	6581
659.071	5810
659.126	6609
659.181	5550
659.236	8180
659.291	7829
659.346	7844
659.401	7416
659.457	6889
659.512	6825
659.567	8209
659.622	8148
659.677	8025
659.732	6965
659.787	9058
659.842	9184
659.897	14540
659.952	9594
660.007	8616
660.061	6995
660.116	7514
660.171	7058
660.226	8010
660.281	7861
660.336	6688
660.391	7361
660.445	5575
660.500	7162
660.555	7407
660.610	6830
660.664	8025
660.719	6597
660.774	7468
660.828	7455
660.883	7603
660.938	7640
660.992	7003
661.047	7151
661.101	7236
661.156	7132
661.211	7899
661.265	7017
661.320	6943
661.374	7480
661.429	7402
661.483	7647
661.538	7601
661.592	7207
661.647	9021
661.701	7796
661.755	7395
661.810	8675
661.864	7866
661.919	7954
661.973	8939
662.027	8272
662.081	7751
662.136	7786
662.190	8857
662.244	9962
662.299	8791
662.353	7783
662.407	7939
662.461	8113
662.515	8966
662.569	7997
662.624	9840
662.678	9100
662.732	8938
662.786	8091
662.840	10113
662.894	9277
662.948	8867
663.002	8164
663.056	8277
663.110	7859
663.164	8631
663.218	7680
663.272	8072
663.326	8627
663.380	9068
663.434	9833
663.488	9392
663.542	9612
663.595	9852
663.649	9186
663.703	10124
663.757	8950
663.811	8500
663.864	8600
663.918	9174
663.972	8451
664.026	8970
664.079	8449
664.133	8897
664.187	9351
664.240	8193
664.294	8764
664.348	9562
664.401	8825
664.455	9740
664.508	8396
664.562	8973
664.615	8961
664.669	8972
664.722	8494
664.776	9834
664.829	9150
664.883	9771
664.936	10176
664.990	11277
665.043	10908
665.097	11937
665.150	13897
665.203	11809
665.257	10197
665.310	11147
665.363	11389
665.417	12175
665.470	11299
665.523	11636
665.576	11606
665.630	11221
665.683	10914
665.736	11851
665.789	11651
665.842	10957
665.895	11571
665.949	12198
666.002	10326
666.055	12122
666.108	11994
666.161	12790
666.214	11627
666.267	12350
666.320	11582
666.373	12708
666.426	11114
666.479	12299
666.532	14162
666.585	16515
666.638	19502
666.691	17160
666.744	16659
666.796	18441
666.849	17136
666.902	14390
666.955	12264
667.008	12260
667.060	10880
667.113	10932
667.166	10845
667.219	11610
667.271	11194
667.324	12145
667.377	10733
667.430	11229
667.482	10280
667.535	12586
667.587	11468
667.640	12534
667.693	13670
667.745	14086
667.798	13213
667.850	14211
667.903	12926
667.955	13638
668.008	13168
668.060	15438
668.113	16159
668.165	16267
668.218	15808
668.270	15277
668.322	14431
668.375	13627
668.427	14434
668.479	14551
668.532	13569
668.584	15320
668.636	14363
668.689	14794
668.741	15053
668.793	15215
668.845	14254
668.898	15131
668.950	14133
669.002	15312
669.054	15592
669.106	14990
669.158	15149
669.211	15075
669.263	14813
669.315	15438
669.367	14824
669.419	15229
669.471	14818
669.523	14932
669.575	13163
669.627	14407
669.679	14434
669.731	14413
669.783	14224
669.835	14462
669.886	12931
669.938	14247
669.990	14656
670.042	13519
670.094	13698
670.146	13687
670.197	13265
670.249	15162
670.301	13199
670.353	15558
670.404	14433
670.456	15714
670.508	14995
670.560	17229
670.611	18166
670.663	21987
670.715	31178
670.766	55468
670.818	34880
670.869	16309
670.921	15011
670.972	15087
671.024	14792
671.075	14812
671.127	15340
671.178	15247
671.230	14999
671.281	15226
671.333	15110
671.384	18709
671.436	19226
671.487	21812
671.538	22337
671.590	25642
671.641	33197
671.692	44073
671.744	77800
671.795	84063
671.846	38693
671.897	25963
671.949	23535
672.000	22004
672.051	19625
672.102	20468
672.153	18751
672.204	19274
672.256	18951
672.307	19004
672.358	18987
672.409	19477
672.460	18701
672.511	17347
672.562	17444
672.613	18699
672.664	17252
672.715	18675
672.766	16995
672.817	18071
672.868	17030
672.919	17925
672.970	17184
673.021	19058
673.071	16292
673.122	16570
673.173	17446
673.224	18412
673.275	17409
673.326	17660
673.376	16869
673.427	16678
673.478	18051
673.528	18241
673.579	15327
673.630	17493
673.680	17537
673.731	17085
673.782	15327
673.832	17590
673.883	18184
673.934	18578
673.984	17191
674.035	18237
674.085	17311
674.136	18959
674.186	20537
674.237	22633
674.287	34428
674.338	32987
674.388	18329
674.438	19129
674.489	18769
674.539	21000
674.589	19403
674.640	18997
674.690	18971
674.740	19041
674.791	22592
674.841	22065
674.891	21434
674.942	20302
674.992	18423
675.042	18466
675.092	17445
675.142	17796
675.193	19479
675.243	17963
675.293	18082
675.343	20325
675.393	18963
675.443	20207
675.493	17876
675.543	16358
675.593	18956
675.643	19382
675.693	17518
675.743	18761
675.793	18049
675.843	17233
675.893	17807
675.943	18139
675.993	16217
676.043	18659
676.093	18116
676.142	16373
676.192	17237
676.242	18652
676.292	18185
676.341	18177
676.391	20570
676.441	20023
676.491	16432
676.540	17912
676.590	16617
676.640	17792
676.689	17369
676.739	17343
676.789	16752
676.838	16134
676.888	16589
676.937	17736
676.987	18464
677.037	16475
677.086	15484
677.136	16683
677.185	16841
677.235	16591
677.284	14464
677.333	16387
677.383	15968
677.432	15857
677.482	15276
677.531	16217
677.580	16595
677.630	16311
677.679	14706
677.728	17055
677.778	16857
677.827	15281
677.876	15930
677.925	15498
677.975	14836
678.024	17047
678.073	16588
678.122	18105
678.171	19370
678.220	18738
678.269	18612
678.319	20876
678.368	19395
678.417	19843
678.466	20449
678.515	20268
678.564	20357
678.613	20332
678.662	17910
678.711	19398
678.760	18985
678.809	18005
678.857	18072
678.906	19746
678.955	19835
679.004	19638
679.053	17389
679.102	18892
679.151	18918
679.199	20118
679.248	17023
679.297	17921
679.346	20885
679.394	20125
679.443	18775
679.492	18474
679.540	17623
679.589	19902
679.638	20382
679.686	17812
679.735	16052
679.784	17482
679.832	20289
679.881	19020
679.929	16170
679.978	16228
680.026	15864
680.075	18137
680.123	16877
680.172	17488
680.220	15496
680.268	16078
680.317	17399
680.365	16476
680.414	16181
680.462	16257
680.510	17014
680.559	16298
680.607	15286
680.655	16280
680.703	16042
680.752	17614
680.800	15262
680.848	15291
680.896	15423
680.945	14335
680.993	15682
681.041	16660
681.089	16386
681.137	14918
681.185	15091
681.233	16237
681.258	15830
681.281	15380
681.329	15720
681.377	15235
681.380	15329
681.425	15738
681.473	18183
681.502	18636
681.521	18845
681.569	18963
681.617	18194
681.624	18279
681.665	18246
681.713	19156
681.745	17988
681.761	17338
681.809	17725
681.857	17855
681.867	17783
681.904	17251
681.952	17665
681.989	18008
682.000	18036
682.048	18495
682.096	18338
682.111	18377
682.143	18240
682.191	18804
682.233	18866
682.239	18808
682.286	19678
682.334	17662
682.354	18103
682.382	18529
682.430	18937
682.476	20572
682.477	20547
682.525	18985
682.572	19139
682.598	19078
682.620	18954
682.667	19056
682.715	19532
682.720	19697
682.763	20616
682.810	18858
682.841	19324
682.857	19434
682.905	18306
682.952	18984
682.963	19172
683.000	19720
683.047	21027
683.085	20502
683.095	20278
683.142	19695
683.190	19780
683.206	19860
683.237	19862
683.284	19445
683.328	20173
683.332	20186
683.379	20058
683.426	20400
683.449	19788
683.473	19054
683.521	20546
683.568	19322
683.571	19453
683.615	20504
683.662	19845
683.693	20970
683.709	21534
683.757	19891
683.804	21237
683.814	21168
683.851	20773
683.898	20874
683.936	20671
683.945	20504
683.992	20284
684.039	20768
684.057	20806
684.086	20974
684.133	20514
684.179	20999
684.180	20976
684.227	21546
684.274	21023
684.300	20817
684.321	20484
684.368	20472
684.415	21014
684.422	21167
684.462	22028
684.509	20866
684.543	21969
684.556	22283
684.603	22266
684.649	22174
684.665	22117
684.696	22043
684.743	23245
684.786	22752
684.790	22707
684.837	24678
684.883	25615
684.908	26686
684.930	27529
684.977	28888
685.023	29578
685.029	29417
685.070	26645
685.117	25399
685.150	25158
685.164	25469
685.210	28443
685.257	29620
685.272	29561
685.303	28656
685.350	26342
685.393	26875
685.396	26914
685.443	26067
685.490	25873
685.514	26603
685.536	27317
685.583	27915
685.629	27306
685.636	27410
685.675	27549
685.722	26381
685.757	26822
685.768	27120
685.815	27255
685.861	29453
685.878	29206
685.908	28718
685.954	30144
686.000	30635
686.000	30664
686.047	35109
686.093	40378
686.121	43982
686.139	44582
686.185	38302
686.232	37143
686.242	36668
686.278	33699
686.324	31392
686.363	27544
686.370	27232
686.416	27597
686.463	27540
686.484	28216
686.509	29165
686.555	27417
686.601	27974
686.606	28022
686.647	28286
686.693	27845
686.727	27769
686.739	27752
686.785	28275
686.831	28246
686.848	28511
686.877	28719
686.923	27588
686.969	26124
686.969	26116
687.015	27656
687.061	28395
687.090	28258
687.107	28183
687.153	29161
687.199	28207
687.211	28264
687.245	28554
687.291	28785
687.332	30313
687.336	30536
687.382	32995
687.428	34286
687.453	34008
687.474	32268
687.520	30261
687.565	28115
687.574	27667
687.611	27522
687.657	27243
687.695	27039
687.702	27074
687.748	28031
687.794	29399
687.816	28969
687.839	28175
687.885	27534
687.931	26283
687.937	26297
687.976	26986
688.022	27252
688.058	27988
688.067	28208
688.113	29040
688.158	28900
688.179	28757
688.204	28353
688.249	28790
688.295	28559
688.300	28704
688.340	30800
688.386	32822
688.421	32104
688.431	31555
688.477	30612
688.522	30165
688.542	29825
688.567	29946
688.613	30223
688.658	30032
688.663	29949
688.703	29272
688.749	30124
688.784	30481
688.794	30590
688.839	30203
688.884	30540
688.905	30189
688.930	29717
688.975	29547
689.020	29299
689.026	29398
689.065	30917
689.110	30146
689.146	31322
689.155	31374
689.201	29735
689.246	28997
689.267	28303
689.291	28263
689.336	29342
689.381	29966
689.388	30131
689.426	30835
689.471	30647
689.509	30369
689.516	30246
689.561	29542
689.606	29536
689.630	29066
689.651	29038
689.696	29466
689.741	29616
689.750	29687
689.785	29934
689.830	29583
689.871	29448
689.875	29440
689.920	29299
689.965	29452
689.992	28690
690.010	28329
690.054	28541
690.099	29011
690.112	29080
690.144	29394
690.189	28790
690.233	28693
690.233	28721
690.278	28552
690.323	28379
690.354	27961
690.367	28009
690.412	28929
690.457	28971
690.474	29372
690.501	29894
690.546	29473
690.590	29448
690.595	29349
690.635	28297
690.680	28185
690.716	27700
690.724	27857
690.769	29142
690.813	29750
690.836	29993
690.857	29843
690.902	29335
690.946	29280
690.957	29159
690.991	29132
691.035	29416
691.077	28871
691.080	28930
691.124	30567
691.168	31912
691.198	32746
691.213	33748
691.257	36469
691.301	38911
691.318	39688
691.346	37757
691.390	34787
691.434	31786
691.439	31429
691.478	31050
691.522	30732
691.559	30504
691.567	30630
691.611	31076
691.655	31311
691.680	31161
691.699	31105
691.743	32256
691.787	32005
691.800	32075
691.831	32733
691.875	33610
691.919	34600
691.921	34581
691.964	36234
692.008	37405
692.041	38577
692.052	38663
692.096	38033
692.139	38469
692.162	38114
692.183	37461
692.227	36723
692.271	36165
692.282	35795
692.315	35682
692.359	36054
692.402	36016
692.403	36073
692.447	36170
692.490	36289
692.523	36695
692.534	37146
692.578	38298
692.622	39126
692.643	39404
692.666	38417
692.709	36944
692.753	35092
692.763	34650
692.797	34272
692.840	33275
692.884	32611
692.884	32669
692.928	33049
692.971	33484
693.004	33925
693.015	34152
693.059	34738
693.102	34687
693.124	34626
693.146	34671
693.189	35269
693.233	36201
693.245	36189
693.276	37278
693.320	38988
693.363	40064
693.365	40064
693.407	39420
693.450	38463
693.485	37296
693.493	37480
693.537	38234
693.580	39277
693.605	39614
693.624	38844
693.667	37064
693.710	35109
693.725	34324
693.753	34376
693.797	34686
693.840	35012
693.845	34966
693.883	34321
693.926	33555
693.966	32507
693.970	32479
694.013	31951
694.056	30806
694.086	30763
694.099	31537
694.142	33338
694.185	35384
694.206	35828
694.229	36424
694.272	38343
694.315	39987
694.326	40371
694.358	40540
694.401	39980
694.444	39770
694.446	39690
694.487	37669
694.530	35321
694.566	33461
694.573	33544
694.616	33597
694.659	33219
694.686	33006
694.702	32634
694.745	31533
694.787	30706
694.806	30104
694.830	30484
694.873	31752
694.916	32273
694.926	32378
694.959	31959
695.002	31156
695.044	30643
695.046	30559
695.087	31200
695.130	31870
695.166	32287
695.172	32470
695.215	33316
695.258	34012
695.286	34494
695.301	34712
695.343	35018
695.386	35572
695.406	35557
695.428	34888
695.471	33781
695.514	32454
695.526	32076
695.556	32651
695.599	33361
695.641	34190
695.646	34148
695.684	33680
695.726	33352
695.766	33095
695.769	33172
695.811	33428
695.854	33263
695.886	33266
695.896	33241
695.938	32765
695.981	32243
696.005	31837
696.023	31889
696.065	31942
696.108	32167
696.125	32198
696.150	33046
696.192	34042
696.235	35099
696.245	35332
696.277	34887
696.319	33907
696.361	33180
696.365	33043
696.404	32763
696.446	32260
696.485	31865
696.488	31984
696.530	32197
696.572	32917
696.604	33296
696.614	33455
696.656	33995
696.698	34074
696.724	34224
696.740	33835
696.783	32435
696.825	31447
696.844	30741
696.867	31078
696.909	31729
696.951	32347
696.964	32493
696.992	32431
697.034	31966
697.076	31711
697.083	31589
697.118	31860
697.160	32170
697.202	32350
697.203	32281
697.244	32794
697.286	33261
697.323	33557
697.327	33522
697.369	32385
697.411	31447
697.442	30617
697.453	30830
697.494	31513
697.536	32051
697.562	32322
697.578	32342
697.620	32194
697.661	31984
697.682	31860
697.703	31728
697.744	31280
697.786	30860
697.801	30617
697.828	31207
697.869	31988
697.911	32883
697.921	33004
697.952	33126
697.994	33233
698.035	33299
698.040	33231
698.077	33250
698.118	33121
698.160	33041
698.160	32960
698.201	32748
698.243	32543
698.279	32235
698.284	32383
698.325	33089
698.367	33733
698.399	34159
698.408	34033
698.449	33045
698.491	32107
698.518	31364
698.532	31518
698.573	31843
698.614	32091
698.638	32170
698.656	32412
698.697	32785
698.738	33164
698.757	33257
698.779	33935
698.820	35089
698.862	36224
698.877	36564
698.903	37413
698.944	38615
698.985	39825
698.996	40063
699.026	39664
699.067	38978
699.116	38067
699.235	32935
699.354	31353
699.474	33783
699.593	42533
699.713	47408
699.832	33274
699.951	35994
700.070	31624
700.190	32360
700.309	33908
700.428	40632
700.547	37366
700.667	33222
700.786	40162
700.905	37182
701.024	36448
701.143	40605
701.262	27624
701.381	27784
701.500	29633
701.619	27276
701.738	26482
701.857	27901
701.976	26622
702.095	25960
702.214	27027
702.333	28361
702.452	26568
702.571	26307
702.690	26535
702.809	26540
702.928	24865
703.047	25368
703.165	26461
703.284	25092
703.403	26547
703.522	33732
703.640	38025
703.759	38575
703.878	76133
703.997	43664
704.115	29321
704.234	28834
704.353	26905
704.471	24512
704.590	24517
704.708	25028
704.827	23071
704.946	26191
705.064	36165
705.183	27702
705.301	34581
705.420	52084
705.538	51535
705.656	39663
705.775	33478
705.893	36441
706.012	40320
706.130	41559
706.249	40940
706.367	43158
706.485	48694
706.604	46541
706.722	44745
706.840	50167
706.958	57006
707.077	38341
707.195	35866
707.313	35801
707.431	36192
707.549	36054
707.668	36556
707.786	39239
707.904	35717
708.022	33899
708.140	33266
708.258	32350
708.376	34103
708.494	34220
708.612	37696
708.730	55841
708.848	60298
708.966	49370
709.084	45502
709.202	43219
709.320	47684
709.438	48137
709.556	47932
709.674	47322
709.791	48220
709.909	44265
710.027	44476
710.145	44578
710.263	46136
710.380	47171
710.498	45028
710.616	45885
710.733	46270
710.851	51447
710.969	56213
711.086	48824
711.204	46423
711.322	47512
711.439	50153
711.557	55216
711.674	47154
711.792	46323
711.909	43975
712.027	40591
712.144	42456
712.262	42822
712.379	48634
712.497	68887
712.614	75167
712.732	58906
712.849	55420
712.966	59937
713.084	71327
713.201	61379
713.318	57118
713.436	55589
713.553	57407
713.670	57598
713.787	66207
713.905	77243
714.022	56156
714.139	53491
714.256	57007
714.373	62646
714.490	76062
714.608	112097
714.725	354326
714.842	659243
714.959	106588
715.076	58163
715.193	51414
715.310	49342
715.427	46116
715.544	44186
715.661	46006
715.778	44341
715.895	52006
716.011	53086
716.128	48985
716.245	44330
716.362	43185
716.479	44434
716.596	42175
716.713	44170
716.829	40581
716.946	44100
717.063	39808
717.180	41774
717.296	39879
717.413	40061
717.530	38360
717.646	38677
717.763	39162
717.880	36270
717.996	37044
718.113	38524
718.229	35341
718.346	36729
718.462	35377
718.579	36796
718.695	39011
718.812	53856
718.928	69960
719.045	62231
719.161	35134
719.277	34095
719.394	33684
719.510	35511
719.626	35009
719.743	46881
719.859	47518
719.975	57825
720.092	125229
720.208	374164
720.324	115420
720.440	41710
720.557	39832
720.673	46134
720.789	77478
720.905	219495
721.021	134364
721.137	38959
721.253	38109
721.369	40895
721.486	45723
721.602	80432
721.718	44577
721.834	29675
721.950	30996
722.066	29273
722.181	28969
722.297	28905
722.413	28910
722.529	28520
722.645	29615
722.761	28896
722.877	28878
722.993	27283
723.108	31381
723.224	29490
723.340	31141
723.456	27079
723.571	28259
723.687	27507
723.803	25843
723.918	25847
724.034	25653
724.150	29521
724.265	33595
724.381	71386
724.497	151293
724.612	35728
724.728	26299
724.843	25995
724.959	33046
725.074	69069
725.190	137467
725.305	37970
725.421	33697
725.536	23152
725.651	22756
725.767	22582
725.882	21693
725.997	22002
726.113	22108
726.228	21496
726.343	22609
726.459	20942
726.574	25057
726.689	25440
726.804	23223
726.920	24237
727.035	22217
727.150	25577
727.265	21484
727.380	26256
727.495	20627
727.610	18258
727.725	19741
727.841	18834
727.956	20051
728.071	27471
728.186	24589
728.301	17871
728.416	18754
728.531	17952
728.645	16701
728.760	17387
728.875	17886
728.990	17258
729.105	19530
729.220	17975
729.335	15286
729.449	15922
729.564	15986
729.679	15432
729.794	16014
729.908	21513
730.023	22593
730.138	15124
730.253	15500
730.367	14973
730.482	14492
730.596	16064
730.711	15916
730.826	15238
730.940	13958
731.055	14899
731.169	14727
731.284	15559
731.398	16571
731.513	22215
731.627	24076
731.742	23591
731.856	37611
731.970	16892
732.085	18584
732.199	23248
732.313	32707
732.428	62771
732.542	182458
732.656	195752
732.771	38682
732.885	21340
732.999	19737
733.113	22930
733.227	21102
733.342	16398
733.456	15331
733.570	15095
733.684	14904
733.798	18121
733.912	14571
734.026	12720
734.140	14298
734.254	17988
734.368	36785
734.482	79652
734.596	19116
734.710	13929
734.824	12598
734.938	12081
735.052	12719
735.166	18045
735.280	16872
735.393	12808
735.507	13752
735.621	23208
735.735	59271
735.849	37197
735.962	13274
736.076	15001
736.190	17929
736.303	25080
736.417	53161
736.531	16588
736.644	17544
736.758	11757
736.872	10628
736.985	10986
737.099	10253
737.212	10930
737.326	11275
737.439	9981
737.553	10935
737.666	10199
737.780	9648
737.893	10011
738.007	11082
738.120	11024
738.233	9788
738.347	10167
738.460	9623
738.573	9370
738.687	9569
738.800	9186
738.913	9295
739.026	10171
739.140	10537
739.253	9228
739.366	8779
739.479	8982
739.592	9183
739.705	9232
739.818	10328
739.932	9548
740.045	8318
740.158	9350
740.271	11460
740.384	10370
740.497	8960
740.610	10292
740.723	9978
740.836	9159
740.949	9146
741.062	10248
741.174	9989
741.287	11263
741.400	10308
741.513	8800
741.626	10110
741.739	9467
741.851	9255
741.964	8639
742.077	10436
742.189	10273
742.302	11253
742.415	10413
742.527	9591
742.640	8824
742.753	7771
742.865	7082
742.978	7889
743.090	8628
743.203	9665
743.316	9451
743.428	8651
743.541	8702
743.653	7921
743.766	7859
743.878	9985
743.990	17313
744.103	23568
744.215	11377
744.327	9276
744.440	7909
744.552	8398
744.664	7542
744.777	7391
744.889	8177
745.001	8979
745.113	7857
745.226	6951
745.338	8013
745.450	7266
745.562	8121
745.674	7958
745.786	6752
745.898	6104
746.010	6735
746.122	7131
746.234	6976
746.347	7040
746.459	7650
746.570	8176
746.682	8496
746.794	12436
746.906	8975
747.018	7752
747.130	7770
747.242	6689
747.354	7671
747.466	9074
747.577	7294
747.689	7125
747.801	6282
747.913	6510
748.024	6168
748.136	6194
748.248	6838
748.359	6742
748.471	6985
748.583	6122
748.694	6950
748.806	7968
748.918	15657
749.029	12763
749.141	6768
749.252	6695
749.364	6377
749.475	8217
749.587	14558
749.698	9109
749.809	6577
749.921	5577
750.032	5647
750.144	6377
750.255	4744
750.366	5129
750.478	6065
750.589	6373
750.700	5636
750.811	5579
750.923	6023
751.034	6343
751.145	6982
751.256	4664
751.367	5525
751.479	5368
751.590	5310
751.701	4999
751.812	4786
751.923	6130
752.034	5737
752.145	5603
752.256	4852
752.367	5418
752.478	5372
752.589	5931
752.700	5463
752.811	5415
752.922	5110
753.032	5310
753.143	5629
753.254	5357
753.365	5652
753.476	5822
753.586	5351
753.697	4836
753.808	5156
753.919	4677
754.029	5616
754.140	5461
754.251	5418
754.361	6509
754.472	5428
754.582	5332
754.693	4764
754.804	5766
754.914	3967
755.025	4068
755.135	3817
755.246	4230
755.356	5043
755.466	4992
755.577	4642
755.687	5824
755.798	4554
755.908	4038
756.018	4602
756.129	4359
756.239	4492
756.349	5729
756.460	4652
756.570	6312
756.680	5465
756.790	5430
756.900	4795
757.011	4735
757.121	3675
757.231	4115
757.341	4555
757.451	4871
757.561	4561
757.671	3896
757.781	3551
757.891	5684
758.001	6252
758.111	5324
758.221	4560
758.331	4977
758.441	4852
758.551	5320
758.661	4928
758.771	5020
758.880	6253
758.990	7639
759.100	6646
759.210	6373
759.320	6329
759.429	7043
759.539	6413
759.649	6179
759.758	7268
759.868	7045
759.978	7060
760.087	7040
760.197	7882
760.307	8110
760.416	6546
760.526	5886
760.635	6664
760.745	6604
760.854	7092
760.964	8025
761.073	8277
761.182	7803
761.292	7177
761.401	10368
761.511	9370
761.620	6195
761.729	6602
761.839	8726
761.948	6246
762.057	5987
762.166	6437
762.276	5723
762.385	5923
762.494	5125
762.603	5999
762.712	5683
762.822	7764
762.931	5543
763.040	5900
763.149	5679
763.258	5954
763.367	6124
763.476	6315
763.585	4768
763.694	5998
763.803	6580
763.912	7963
764.021	7163
764.130	5750
764.238	5887
764.347	6439
764.456	5810
764.565	5763
764.674	5946
764.783	5142
764.891	5405
765.000	5626
765.109	5739
765.217	5785
765.326	6789
765.435	13181
765.543	7386
765.652	5371
765.761	6341
765.869	5504
765.978	5429
766.086	6326
766.195	7480
766.303	13557
766.412	36272
766.520	52170
766.629	10759
766.737	7986
766.846	8627
766.954	6462
767.062	7272
767.171	7662
767.279	8709
767.387	6812
767.496	6926
767.604	6634
767.712	7160
767.820	5454
767.928	7138
768.037	6646
768.145	6579
768.253	6586
768.361	6171
768.469	6489
768.577	6381
768.685	6640
768.793	5983
768.901	6638
769.009	5653
769.117	6320
769.225	6294
769.333	7941
769.441	7347
769.549	6525
769.657	8792
769.765	14576
769.873	38867
769.981	19117
770.088	7531
770.196	5604
770.304	6843
770.412	6682
770.519	7954
770.627	8178
770.735	7352
770.842	7428
770.950	6970
771.058	6759
771.165	6525
771.273	7281
771.380	7612
771.488	7195
771.595	7985
771.703	7604
771.810	8118
771.918	6851
772.025	7962
772.133	6415
772.240	7489
772.348	7809
772.455	8240
772.562	7659
772.670	7159
772.777	7239
772.884	7053
772.991	7201
773.099	7123
773.206	6916
773.313	6853
773.420	7115
773.528	6356
773.635	6061
773.742	6982
773.849	6830
773.956	5849
774.063	7090
774.170	6914
774.277	8022
774.384	6617
774.491	7089
774.598	6527
774.705	8121
774.812	6734
774.919	8096
775.026	8477
775.133	8159
775.239	7987
775.346	7792
775.453	7587
775.560	7191
775.667	7691
775.773	7892
775.880	6369
775.987	7352
776.093	7386
776.200	7630
776.307	6695
776.413	7358
776.520	7339
776.627	8287
776.733	7508
776.840	6989
776.946	8762
777.053	9232
777.159	15990
777.266	12487
777.372	14911
777.478	14199
777.585	10468
777.691	7347
777.798	6527
777.904	7490
778.010	6006
778.117	6811
778.223	7047
778.329	7303
778.435	6977
778.542	6689
778.648	6010
778.754	6672
778.860	7012
778.966	6772
779.072	8337
779.178	6832
779.284	5744
779.391	5414
779.497	6236
779.603	6091
779.708	6086
779.815	6255
779.920	6524
780.026	6306
780.132	5527
780.238	5548
780.344	6512
780.450	6040
780.556	4982
780.661	4825
780.767	7203
780.873	5690
780.979	5870
781.085	6167
781.190	5368
781.296	5716
781.402	5468
781.507	5592
781.613	4861
781.719	4633
781.824	5169
781.930	4775
782.035	4295
782.141	5721
782.246	4860
782.352	5496
782.457	5523
782.563	5222
782.668	5403
782.773	5667
782.879	6317
782.984	5667
783.090	5874
783.195	5890
783.300	5782
783.405	6372
783.511	7327
783.616	6226
783.721	6334
783.826	4790
783.932	5748
784.037	5873
784.142	6240
784.247	6610
784.352	5841
784.457	4416
784.562	4156
784.667	5179
784.772	5157
784.877	5242
784.982	5074
785.087	5626
785.192	6084
785.297	5184
785.402	4400
785.507	5231
785.611	4632
785.716	4584
785.821	5082
785.926	5210
786.031	4701
786.135	4531
786.240	5107
786.345	4609
786.450	5161
786.554	3792
786.659	4629
786.763	3602
786.868	5539
786.973	5332
787.077	4010
787.182	3308
787.286	4118
787.391	3047
787.495	4069
787.600	4556
787.704	3757
787.809	4683
787.913	4155
788.017	4608
788.122	3976
788.226	3990
788.330	2866
788.435	3621
788.539	5428
788.643	3774
788.747	3415
788.852	3115
788.956	3049
789.060	3755
789.164	3286
789.268	3273
789.372	3487
789.476	3141
789.580	3075
789.684	3163
789.788	3512
789.892	4068
789.996	4855
790.100	4250
790.204	4638
790.308	5435
790.412	5232
790.516	4855
790.620	4811
790.724	5215
790.828	4627
790.931	4394
791.035	4885
791.139	4037
791.242	4214
791.346	4470
791.450	4490
791.554	4144
791.657	3075
791.761	4549
791.864	4587
791.968	4312
792.072	4390
792.175	4551
792.279	3825
792.382	4158
792.486	3933
792.589	6442
792.693	7351
792.796	3925
792.899	3259
793.003	3403
793.106	3313
793.209	3525
793.313	4167
793.416	2244
793.519	3831
793.623	4281
793.726	3908
793.829	3886
793.932	3350
794.035	3379
794.138	4414
794.242	4477
794.345	6414
794.448	7930
794.551	4198
794.654	4730
794.757	5513
794.860	8755
794.963	10526
795.066	3084
795.169	4102
795.272	3532
795.375	3261
795.477	2586
795.580	3347
795.683	2613
795.786	3213
795.889	2646
795.991	4775
796.094	6183
796.197	8408
796.300	5827
796.402	3137
796.505	4069
796.608	2868
796.710	3252
796.813	2254
796.915	3160
797.018	3380
797.120	3245
797.223	2589
797.326	4121
797.428	3092
797.530	2748
797.633	4032
797.735	6916
797.838	15358
797.940	20262
798.042	5080
798.145	2625
798.247	3099
798.349	2014
798.452	3045
798.554	2180
798.656	3391
798.758	4129
798.860	2736
798.962	2315
799.065	2432
799.167	2678
799.269	3583
799.371	3983
799.473	5174
799.575	7635
799.677	12274
799.779	5811
799.881	2856
799.983	3358
800.085	2993
800.187	3058
800.289	3293
800.390	3765
800.492	3286
800.594	3244
800.696	2389
800.798	2223
800.899	2154
801.001	1940
801.103	1919
801.205	2896
801.306	1090
801.408	2330
801.509	2507
801.611	2429
801.713	2085
801.814	1890
801.916	2242
802.017	2111
802.119	1834
802.220	2560
802.322	2673
802.423	8600
802.525	10656
802.626	3998
802.727	2385
802.829	2023
802.930	1117
803.031	3353
803.133	2383
803.234	1407
803.335	1235
803.436	1434
803.538	1741
803.639	1553
803.740	2206
803.841	1117
803.942	1464
804.043	2197
804.144	1306
804.245	1936
804.346	1553
804.447	852
804.548	1857
804.649	2172
804.750	1295
804.851	1715
804.952	956
805.053	2287
805.154	1008
805.255	2110
805.355	2085
805.456	896
805.557	775
805.658	479
805.758	1703
805.859	1556
805.960	1949
806.061	280
806.161	1350
806.262	2431
806.362	2820
806.463	2184
806.564	3007
806.664	3122
806.765	6012
806.865	8053
806.966	3342
807.066	1966
807.166	1337
807.267	1636
807.367	1166
807.468	2582
807.568	719
807.668	1676
807.769	2026
807.869	1450
807.969	1242
808.069	1581
808.170	1245
808.270	1727
808.370	1849
808.470	2018
808.570	2107
808.670	1474
808.770	1297
808.870	1108
808.970	1645
809.070	188
809.170	1255
809.271	1000
809.370	859
809.470	1280
809.570	821
809.670	471
809.770	434
809.870	1118
809.970	1487
810.070	1295
810.169	2093
810.269	-709
810.369	1962
810.469	953
810.568	287
810.668	601
810.768	287
810.867	1221
810.967	920
811.066	779
811.166	378
811.265	709
811.365	938
811.464	165
811.564	634
811.663	581
811.763	-172
811.862	1400
811.962	917
812.061	467
812.160	559
812.260	609
812.359	340
812.458	386
812.557	424
812.657	968
812.756	1219
812.855	623
812.954	589
813.053	328
813.153	1418
813.252	754
813.351	926
813.450	1063
813.549	378
813.648	1265
813.747	80
813.846	299
813.945	26
814.044	1126
814.143	471
814.242	445
814.341	766
814.439	696
814.538	436
814.637	705
814.736	600
814.835	1062
814.933	-14
815.032	683
815.131	880
815.229	959
815.328	2242
815.427	1765
815.525	1653
815.624	1545
815.722	1445
815.821	1221
815.919	712
816.018	1193
816.116	1782
816.215	1328
816.313	2277
816.412	1261
816.510	1467
816.609	2587
816.707	1842
816.805	1503
816.904	2125
817.002	1746
817.100	2014
817.198	2527
817.296	2223
817.395	2177
817.493	2492
817.591	1907
817.689	1539
817.787	897
817.885	2801
817.983	2612
818.081	2976
818.179	3158
818.277	6226
818.375	6978
818.473	4089
818.571	2493
818.669	2436
818.767	3458
818.865	860
818.963	1408
819.061	2103
819.158	1960
819.256	3738
819.354	3622
819.452	10636
819.549	10211
819.647	4064
819.745	1092
819.842	1685
819.940	1217
820.038	1919
820.135	1703
820.233	2386
820.330	1463
820.428	979
820.525	2804
820.623	2038
820.720	2013
820.818	2407
820.915	1477
821.012	1902
821.110	892
821.207	1862
821.304	2202
821.402	2307
821.499	3097
821.596	4237
821.693	2721
821.791	1477
821.888	1512
821.985	2367
822.082	1901
822.179	2824
822.276	2590
822.373	1930
822.470	990
822.567	1583
822.664	1350
822.761	2048
822.858	764
822.955	1092
823.052	1155
823.149	972
823.246	77
823.343	1366
823.440	1544
823.536	892
823.633	1501
823.730	756
823.827	1674
823.923	1439
824.020	2445
824.117	1893
824.213	2290
824.310	2493
824.407	429
824.503	1096
824.600	1250
824.696	1518
824.793	886
824.889	1775
824.986	697
825.082	1605
825.179	2013
825.275	1147
825.371	1555
825.468	692
825.564	66
825.660	1388
825.757	1457
825.853	969
825.949	290
826.045	1119
826.142	681
826.238	1518
826.334	1321
826.430	1683
826.526	1888
826.622	-167
826.718	1029
826.814	1706
826.910	1676
827.006	494
827.102	301
827.198	2002
827.294	360
827.390	1145
827.486	1250
827.582	1372
827.678	459
827.774	1376
827.869	779
827.965	1306
828.061	658
828.157	1357
828.252	798
828.348	647
828.444	602
828.539	47
828.635	762
828.731	1175
828.826	254
828.922	1555
829.017	1893
829.113	2072
829.208	1659
829.304	-205
829.399	2236
829.495	1367
829.590	810
829.685	1001
829.781	1208
829.876	1517
829.971	823
830.066	558
830.162	456
830.257	953
830.352	1230
830.447	1326
830.543	2473
830.638	3356
830.733	3911
830.828	1868
830.923	2027
831.018	1568
831.113	2096
831.208	2617
831.303	3014
831.398	1429
831.493	1322
831.588	2215
831.683	769
831.778	1214
831.873	1309
831.967	1692
832.062	1154
832.157	131
832.252	1803
832.346	489
832.441	2866
832.536	1785
832.631	1454
832.725	1387
832.820	495
832.914	944
833.009	611
833.104	1390
833.198	1628
833.293	895
833.387	2450
833.482	2340
833.576	1145
833.670	1300
833.765	1500
833.859	1341
833.954	2020
834.048	1144
834.142	1112
834.237	649
834.331	545
834.425	1142
834.519	1089
834.613	1341
834.708	119
834.802	1514
834.896	948
834.990	779
835.084	1222
835.178	1778
835.272	1968
835.366	2275
835.460	1974
835.554	781
835.648	1078
835.742	541
835.836	990
835.930	279
836.024	2396
836.117	2833
836.211	3967
836.305	7246
836.399	12987
836.493	4975
836.586	2448
836.680	-89
836.774	443
836.867	1572
836.961	817
837.055	249
837.148	852
837.242	1607
837.335	1407
837.429	1030
837.522	2728
837.616	5458
837.709	11561
837.803	15490
837.896	4307
837.989	4436
838.083	7843
838.176	16638
838.269	25322
838.363	6651
838.456	1030
838.549	1885
838.642	2192
838.735	1205
838.829	2188
838.922	2833
839.015	950
839.108	1179
839.201	1388
839.294	1711
839.387	2378
839.480	2959
839.573	6495
839.666	12102
839.759	5273
839.852	1661
839.945	337
840.038	884
840.131	853
840.223	1206
840.316	1834
840.409	1545
840.502	682
840.594	450
840.687	67
840.780	1438
840.873	1877
840.965	3366
841.058	6029
841.150	15228
841.243	18071
841.336	4606
841.428	1739
841.521	1406
841.613	3142
841.706	4255
841.798	2054
841.890	1973
841.983	613
842.075	2016
842.167	2122
842.260	4088
842.352	5700
842.444	10789
842.537	17014
842.629	34013
842.721	13042
842.813	1337
842.905	2005
842.997	1950
843.090	4489
843.182	8366
843.274	17525
843.366	36836
843.458	80663
843.550	74752
843.642	17896
843.734	4685
843.826	6266
843.918	6068
844.009	1976
844.101	1281
844.193	2167
844.285	2086
844.377	2186
844.469	2350
844.560	2628
844.652	3306
844.744	2747
844.835	2306
844.927	3214
845.019	5167
845.110	5846
845.202	2570
845.293	607
845.385	576
845.476	951
845.568	1756
845.659	2044
845.751	1915
845.842	1042
845.934	1347
846.025	1257
846.116	1254
846.208	1251
846.299	1561
846.390	1327
846.482	2416
846.573	3660
846.664	5919
846.755	7225
846.846	8835
846.937	1946
847.029	955
847.120	1562
847.211	1375
847.302	1728
847.393	-15
847.484	1315
847.575	1112
847.666	1088
847.757	1863
847.847	1058
847.938	1928
848.029	1616
848.120	1005
848.211	980
848.302	1513
848.392	1529
848.483	1300
848.574	399
848.664	615
848.755	1283
848.846	1296
848.936	1091
849.027	1547
849.118	1841
849.208	1508
849.299	3833
849.389	6650
849.480	11926
849.570	24497
849.661	40487
849.751	82151
849.841	52496
849.932	9129
850.022	2857
850.112	2206
850.203	1908
850.293	1372
850.383	1716
850.474	965
850.564	1008
850.654	1765
850.744	1235
850.834	1252
850.924	1620
851.014	1735
851.104	1219
851.194	1422
851.284	1766
851.374	2414
851.464	1360
851.554	3057
851.644	4267
851.734	9486
851.824	8781
851.914	2791
852.004	1896
852.094	1661
852.183	1623
852.273	2560
852.363	1300
852.452	2176
852.542	1988
852.632	1436
852.721	2128
852.811	1417
852.901	2539
852.990	2309
853.080	2155
853.169	1833
853.259	2649
853.348	3176
853.438	4300
853.527	6140
853.617	7785
853.706	13625
853.795	24356
853.885	50207
853.974	93702
854.063	158179
854.152	274324
854.242	176441
854.331	45325
854.420	16216
854.509	10186
854.598	8667
854.687	8702
854.777	8862
854.866	5663
854.955	3690
855.044	2618
855.133	2457
855.222	2128
855.311	1682
855.400	2227
855.488	1364
855.577	1721
855.666	1824
855.755	1994
855.844	1951
855.933	827
856.021	1870
856.110	1325
856.199	1414
856.288	1324
856.376	1485
856.465	1445
856.554	1935
856.642	1200
856.731	1969
856.819	1648
856.908	2409
856.996	1342
857.085	1099
857.173	1196
857.262	945
857.350	1552
857.438	1681
857.527	1435
857.615	652
857.703	1636
857.792	1771
857.880	1579
857.968	1493
858.056	1004
858.145	1440
858.233	842
858.321	-7
858.409	1001
858.497	290
858.585	657
858.673	1197
858.761	13
858.849	622
858.937	723
859.025	1522
859.113	1339
859.201	334
859.289	1503
859.377	1560
859.465	1898
859.552	2183
859.640	959
859.728	2435
859.816	2065
859.903	1716
859.991	1133
860.079	2390
860.166	743
860.254	968
860.342	1421
860.429	439
860.517	660
860.604	921
860.692	1365
860.779	74
860.867	646
860.954	962
861.042	941
861.129	1002
861.216	1001
861.304	386
861.391	1494
861.478	1483
861.565	621
861.653	2128
861.740	834
861.827	1372
861.914	648
862.001	2
862.089	781
862.176	1132
862.263	1521
862.350	609
862.437	762
862.524	757
862.611	914
862.698	1183
862.785	1423
862.871	2500
862.958	1749
863.045	1149
863.132	743
863.219	1170
863.306	352
863.392	2101
863.479	1635
863.566	1719
863.652	1561
863.739	1436
863.826	764
863.912	1125
863.999	1277
864.086	1487
864.172	799
864.259	1213
864.345	776
864.432	979
864.518	1345
864.604	1466
864.691	2134
864.777	1155
864.863	2164
864.950	2083
865.036	2029
865.122	3992
865.209	4405
865.295	4113
865.381	4705
865.467	5154
865.553	6588
865.639	8650
865.726	13677
865.812	27731
865.898	52289
865.984	80908
866.070	131988
866.156	193921
866.242	87143
866.328	20605
866.414	9974
866.499	6211
866.585	4915
866.671	5363
866.757	4664
866.843	4756
866.928	3480
867.014	3555
867.100	3608
867.186	4301
867.271	5199
867.357	7360
867.442	11133
867.528	7854
867.614	3969
867.699	3356
867.785	4453
867.870	4768
867.956	5405
868.041	6299
868.127	5981
868.212	8654
868.297	5807
868.383	3361
868.468	2804
868.553	3514
868.639	2515
868.724	2666
868.809	2861
868.894	2602
868.979	3406
869.065	3336
869.150	3640
869.235	2863
869.320	1836
869.405	1824
869.490	1871
869.575	2352
869.660	2563
869.745	2450
869.830	2653
869.915	1919
870.000	2153
870.085	1772
870.169	1532
870.254	3031
870.339	1334
870.424	1662
870.509	1932
870.593	1021
870.678	1771
870.763	2106
870.847	2086
870.932	1658
871.016	2556
871.101	1566
871.186	2186
871.270	2083
871.355	1228
871.439	1111
871.523	1829
871.608	2066
871.692	2321
871.777	2361
871.861	2863
871.945	1734
872.030	1905
872.114	1321
872.198	1126
872.282	969
872.367	1403
872.451	948
872.535	1417
872.619	1441
872.703	1899
872.787	1804
872.871	2364
872.955	2103
873.039	836
873.123	1036
873.207	3020
873.291	2046
873.375	2276
873.459	2579
873.543	2116
873.627	1417
873.711	1465
873.794	1612
873.878	1434
873.962	1787
874.045	1494
874.129	919
874.137	915
874.213	868
874.245	1031
874.296	1300
874.352	1431
874.380	1484
874.460	1066
874.464	1051
874.547	728
874.568	804
874.631	1025
874.676	1228
874.714	1391
874.784	2073
874.798	2206
874.881	2132
874.892	2003
874.965	1144
874.999	1219
875.048	1285
875.107	1406
875.131	1455
875.215	969
875.215	969
875.298	523
875.323	502
875.381	532
875.430	855
875.465	1069
875.538	1586
875.548	1641
875.631	1240
875.646	1135
875.714	708
875.753	741
875.798	785
875.861	1015
875.881	1069
875.964	1568
875.968	1539
876.047	1122
876.076	1391
876.130	1870
876.183	1509
876.213	1320
876.291	1025
876.296	1010
876.379	2168
876.398	2348
876.462	2924
876.506	2458
876.545	1953
876.613	2409
876.628	2503
876.711	1074
876.721	1112
876.794	1609
876.828	1594
876.877	1477
876.935	1175
876.960	1095
877.043	449
877.043	456
877.125	2271
877.150	2153
877.208	1809
877.258	1674
877.291	1517
877.365	962
877.374	924
877.456	1068
877.472	1139
877.539	1349
877.579	1398
877.622	1599
877.687	1592
877.704	1540
877.787	2524
877.794	2463
877.869	1796
877.901	1775
877.952	1574
878.008	992
878.034	863
878.115	952
878.117	957
878.199	808
878.222	1101
878.282	1699
878.329	1951
878.364	2155
878.437	1789
878.447	1724
878.529	1279
878.544	1264
878.611	1201
878.651	1237
878.694	1471
878.758	1876
878.776	1949
878.858	1706
878.865	1656
878.941	879
878.972	631
879.023	352
879.078	902
879.105	1269
879.185	1786
879.187	1796
879.269	1994
879.292	1954
879.351	1785
879.399	1425
879.433	1113
879.506	1311
879.516	1369
879.598	1870
879.613	1854
879.680	1802
879.720	1917
879.762	2015
879.827	2053
879.844	2053
879.926	2021
879.933	2018
880.007	1933
880.040	1675
880.089	1458
880.147	1597
880.171	1740
880.253	2684
880.254	2680
880.335	2020
880.360	2274
880.417	3156
880.467	3492
880.499	3648
880.574	4037
880.580	4063
880.662	2896
880.680	2687
880.744	1602
880.787	1227
880.825	1314
880.893	1735
880.907	1732
880.989	1316
881.000	1316
881.070	1911
881.106	2216
881.152	2365
881.213	2266
881.233	2140
881.315	1517
881.319	1507
881.396	2263
881.426	2270
881.478	2027
881.532	2390
881.559	2463
881.639	2190
881.641	2197
881.722	1896
881.745	2056
881.803	2596
881.852	2704
881.885	2641
881.958	2634
881.966	2647
882.047	2410
882.064	2403
882.129	2159
882.171	1914
882.210	1782
882.277	1868
882.291	1961
882.372	2057
882.383	2123
882.454	2766
882.489	2870
882.535	2720
882.596	2790
882.616	2777
882.697	2273
882.702	2261
882.778	1953
882.808	1648
882.859	1619
882.914	1959
882.940	1989
883.020	1650
883.021	1656
883.102	1965
883.127	2059
883.183	2682
883.233	3035
883.264	2889
883.339	2731
883.345	2707
883.426	1724
883.445	1653
883.507	2015
883.551	2048
883.587	2135
883.657	3021
883.668	3117
883.749	2336
883.763	2327
883.830	2203
883.869	2029
883.910	1675
883.975	1203
883.991	1367
884.072	2305
884.081	2406
884.152	2557
884.187	2534
884.233	2764
884.292	2835
884.314	2659
884.394	2128
884.398	2094
884.475	2164
884.504	2241
884.555	2084
884.610	1832
884.636	1888
884.716	2146
884.716	2157
884.797	2587
884.821	2636
884.877	2575
884.927	2448
884.958	2231
885.033	2053
885.038	2059
885.118	1692
885.139	1628
885.199	1803
885.244	1988
885.279	2116
885.350	2279
885.359	2374
885.439	3466
885.456	3570
885.520	3258
885.561	3056
885.600	2666
885.667	2219
885.680	2437
885.760	3601
885.773	3802
885.840	3930
885.878	3791
885.920	3880
885.984	4140
886.000	3945
886.080	3008
886.089	2882
886.160	3424
886.195	3720
886.240	3551
886.300	3229
886.320	3123
886.400	2690
886.406	2661
886.480	2866
886.511	2904
886.560	3239
886.616	3413
886.640	3189
886.720	2754
886.722	2733
886.800	3462
886.827	3667
886.879	3629
886.932	3582
886.959	3908
887.038	4813
887.039	4820
887.119	4071
887.143	3797
887.198	3845
887.248	3909
887.278	3741
887.354	3241
887.358	3250
887.437	3088
887.459	3091
887.517	3391
887.564	3621
887.596	3865
887.669	4135
887.676	4053
887.755	3124
887.774	2864
887.835	3508
887.880	3991
887.914	3832
887.985	3296
887.994	3364
888.073	4156
888.090	4278
888.153	4183
888.195	4042
888.232	3879
888.300	3665
888.311	3731
888.391	4057
888.405	4102
888.470	4337
888.510	4466
888.549	4234
888.615	3804
888.628	3957
888.708	4801
888.720	4914
888.787	4523
888.825	4279
888.866	3959
888.930	3402
888.945	3463
889.024	3780
889.035	3805
889.103	3954
889.140	4020
889.182	3806
889.245	3469
889.261	3527
889.340	3761
889.349	3775
889.419	3494
889.454	3354
889.498	3310
889.559	3221
889.577	3352
889.656	3894
889.664	3939
889.735	4463
889.768	4692
889.814	4416
889.873	4020
889.978	3689
890.083	3419
890.187	3891
890.292	4498
890.397	4452
890.501	4174
890.606	2665
890.710	4589
890.815	4416
890.919	4052
891.024	4563
891.128	4126
891.233	4423
891.337	4717
891.442	3995
891.546	3467
891.650	4090
891.755	3158
891.859	4278
891.963	4274
892.068	3910
892.172	3530
892.276	3301
892.380	3051
892.484	4914
892.589	4996
892.693	5426
892.797	3580
892.901	3118
893.005	2510
893.109	4475
893.213	4268
893.317	4139
893.421	3083
893.525	2068
893.629	3817
893.733	4462
893.837	3433
893.941	4340
894.045	3170
894.148	3750
894.252	2833
894.356	3667
894.460	3885
894.564	3600
894.667	4076
894.771	4393
894.875	2434
894.978	4202
895.082	3985
895.186	4883
895.289	3513
895.393	3114
895.496	3725
895.600	4028
895.703	3299
895.807	3259
895.910	3699
896.014	4148
896.117	3602
896.221	3536
896.324	3549
896.427	3758
896.531	3316
896.634	3808
896.737	4016
896.840	3768
896.944	4076
897.047	4201
897.150	3753
897.253	3647
897.356	3223
897.460	2588
897.563	2298
897.666	3716
897.769	4753
897.872	3632
897.975	3156
898.078	2729
898.181	3774
898.284	3454
898.387	3848
898.490	4952
898.593	4018
898.695	3803
898.798	4861
898.901	9416
899.004	5953
899.107	3545
899.209	3561
899.312	4218
899.415	2718
899.518	2616
899.620	2665
899.723	2998
899.826	3340
899.928	4018
900.031	3028
900.133	3707
900.236	2945
900.338	2551
900.441	2763
900.543	3367
900.646	2918
900.748	2889
900.851	3841
900.953	2862
901.055	2780
901.158	2827
901.260	2877
901.362	2175
901.465	2624
901.567	3426
901.669	3838
901.771	3246
901.873	3018
901.976	2473
902.078	3025
902.180	4212
902.282	3033
902.384	4436
902.486	5582
902.588	7096
902.690	12833
902.792	8539
902.894	4260
902.996	3989
903.098	2813
903.200	2833
903.302	3552
903.404	3215
903.505	2160
903.607	3314
903.709	3308
903.811	3628
903.913	3440
904.014	3325
904.116	2639
904.218	3392
904.319	3488
904.421	4043
904.523	4781
904.624	3344
904.726	2871
904.827	3016
904.929	3146
905.030	3530
905.132	3605
905.233	3511
905.335	2491
905.436	2412
905.537	2812
905.639	3367
905.740	2848
905.841	2809
905.943	3012
906.044	4091
906.145	2231
906.247	2536
906.348	2984
906.449	2473
906.550	2928
906.651	2873
906.752	2590
906.854	2949
906.955	2249
907.056	2688
907.157	3235
907.258	3328
907.359	3280
907.460	2458
907.561	2290
907.662	1974
907.762	1642
907.863	2833
907.964	3121
908.065	2956
908.166	2662
908.267	2384
908.367	2655
908.468	2827
908.569	3478
908.670	4733
908.770	5483
908.871	5260
908.971	8310
909.072	18274
909.173	5475
909.273	2957
909.374	2749
909.474	2690
909.575	2681
909.675	1556
909.776	2641
909.876	2759
909.977	2489
910.077	3018
910.177	3430
910.278	2837
910.378	2420
910.478	2850
910.579	3002
910.679	3116
910.779	2657
910.879	2933
910.980	3309
911.080	2659
911.180	2446
911.280	2454
911.380	2826
911.480	2300
911.580	2474
911.680	2810
911.780	2745
911.880	3800
911.980	2834
912.080	1995
912.180	2654
912.280	4608
912.380	4476
912.480	2589
912.580	2141
912.679	2331
912.779	2738
912.879	2645
912.979	3092
913.078	2186
913.178	2160
913.278	2771
913.377	1698
913.477	2238
913.577	3304
913.676	3635
913.776	2955
913.875	3513
913.975	2584
914.074	2835
914.174	2029
914.273	1785
914.373	3303
914.472	2797
914.572	2652
914.671	1972
914.770	1704
914.870	2538
914.969	2202
915.068	2887
915.167	2660
915.267	2473
915.366	1926
915.465	2110
915.564	2383
915.663	2957
915.763	2074
915.862	2452
915.961	2260
916.060	2214
916.159	2890
916.258	1455
916.357	1749
916.456	2878
916.555	2907
916.654	3485
916.752	6424
916.851	4272
916.950	1992
917.049	3005
917.148	3133
917.247	2194
917.345	2887
917.444	2374
917.543	2130
917.642	2227
917.740	2873
917.839	2092
917.937	3635
918.036	3444
918.135	2956
918.233	3025
918.332	2215
918.430	1890
918.529	2142
918.627	2743
918.726	2509
918.824	2729
918.923	2327
919.021	2540
919.119	2148
919.218	2140
919.316	2068
919.414	2877
919.512	2157
919.611	2668
919.709	3143
919.807	2927
919.905	3054
920.003	2787
920.102	2607
920.200	2860
920.298	2621
920.396	3071
920.494	2666
920.592	3127
920.690	3294
920.788	3735
920.886	2914
920.984	3074
921.082	2347
921.180	3614
921.277	3232
921.375	3804
921.473	4205
921.571	4116
921.669	3846
921.766	3477
921.864	3947
921.962	4373
922.060	3205
922.157	4163
922.255	3431
922.352	3725
922.450	5229
922.548	4289
922.645	4907
922.743	5437
922.840	7038
922.938	9644
923.035	8452
923.133	11327
923.230	10393
923.327	10623
923.425	10031
923.522	9130
923.619	8442
923.717	8097
923.814	7871
923.911	7147
924.008	8474
924.106	8822
924.203	7137
924.300	8115
924.397	8059
924.494	8709
924.591	11753
924.688	9931
924.786	7961
924.883	7893
924.979	7190
925.077	7890
925.173	7698
925.270	7686
925.367	8154
925.464	8522
925.561	8985
925.658	10382
925.755	10976
925.852	11469
925.948	9428
926.045	9102
926.142	7506
926.239	9778
926.335	7405
926.432	7346
926.529	7664
926.625	9349
926.722	7413
926.818	6809
926.915	7853
927.011	7299
927.108	5766
927.204	6510
927.301	6046
927.397	7345
927.494	7977
927.590	6603
927.687	5664
927.783	7639
927.879	7619
927.976	6821
928.072	5477
928.168	6771
928.264	7200
928.361	6609
928.457	8786
928.553	8335
928.649	6863
928.745	7025
928.841	6762
928.937	6122
929.033	6949
929.129	5859
929.225	7160
929.321	6932
929.417	5052
929.513	7378
929.609	6210
929.705	5746
929.801	6744
929.897	5541
929.993	5451
930.089	7130
930.184	4903
930.280	6117
930.376	7120
930.471	6607
930.567	5166
930.663	6456
930.758	6097
930.854	5340
930.950	6126
931.045	5274
931.141	5601
931.236	8238
931.332	7479
931.427	4918
931.523	6614
931.618	7137
931.714	4667
931.809	5911
931.905	5747
932.000	5736
932.095	3720
932.191	5981
932.286	6513
932.381	5957
932.476	4943
932.572	5523
932.667	5276
932.762	4915
932.857	5653
932.952	6121
933.047	5311
933.142	4908
933.237	4796
933.332	5367
933.427	6092
933.522	5508
933.617	4539
933.712	5335
933.807	5656
933.902	6612
933.997	6603
934.092	5378
934.187	4738
934.282	6047
934.376	5838
934.471	6094
934.566	5409
934.661	4767
934.755	4868
934.850	5961
934.945	4791
935.039	5092
935.134	4933
935.228	5562
935.323	5830
935.417	5803
935.512	4393
935.606	4821
935.701	5675
935.795	5892
935.890	4851
935.984	5262
936.079	4387
936.173	5117
936.267	5203
936.362	5173
936.456	4761
936.550	5675
936.644	5513
936.738	4162
936.833	3397
936.927	3607
937.021	3353
937.115	4269
937.209	5633
937.303	5352
937.397	3885
937.491	4211
937.585	4748
937.679	5008
937.773	4059
937.867	4314
937.961	3641
938.055	4782
938.149	5308
938.243	3141
938.337	3234
938.430	3947
938.524	5921
938.618	6615
938.712	4905
938.805	5008
938.899	4383
938.993	6725
939.086	5330
939.180	5949
939.274	6591
939.367	5706
939.461	4611
939.554	5069
939.648	3403
939.741	3822
939.835	4553
939.928	5251
940.022	5042
940.115	5070
940.208	5127
940.302	5291
940.395	5879
940.488	4970
940.582	4109
940.675	3980
940.768	3695
940.861	4708
940.954	5419
941.048	4739
941.141	3829
941.234	5329
941.327	5413
941.420	6363
941.513	5555
941.606	4003
941.699	4238
941.792	5170
941.885	5103
941.978	4529
942.071	4985
942.164	3658
942.257	3711
942.349	4210
942.442	3512
942.535	3072
942.628	3225
942.721	3600
942.813	3938
942.906	5512
942.999	4272
943.091	3559
943.184	4400
943.277	4873
943.369	3795
943.462	1995
943.554	2865
943.647	3499
943.739	3786
943.832	5050
943.924	3287
944.017	3074
944.109	2964
944.201	4066
944.294	3725
944.386	4064
944.478	3097
944.571	2806
944.663	2824
944.755	3873
944.847	3447
944.940	3708
945.032	2569
945.124	2740
945.216	3269
945.308	4316
945.400	3685
945.492	3668
945.584	3543
945.676	4965
945.768	3770
945.860	3548
945.952	5317
946.044	3787
946.136	2781
946.228	3668
946.320	3442
946.412	3691
946.503	3680
946.595	4390
946.687	3089
946.779	3463
946.870	3120
946.962	2765
947.054	3733
947.145	2810
947.237	3264
947.329	3590
947.420	4268
947.512	3622
947.603	2272
947.695	1723
947.786	2135
947.878	3204
947.969	1973
948.061	3652
948.152	2870
948.243	3252
948.335	2884
948.426	3001
948.517	2831
948.609	3543
948.700	3549
948.791	3400
948.882	2443
948.973	2199
949.065	2061
949.156	3085
949.247	1526
949.338	3258
949.429	3451
949.520	4041
949.611	2799
949.702	3184
949.793	3048
949.884	2531
949.975	2969
950.066	2180
950.157	2403
950.247	2670
950.338	2865
950.429	3272
950.520	5332
950.611	8778
950.701	7709
950.792	6514
950.883	9171
950.973	6753
951.064	6186
951.155	8079
951.245	5798
951.336	4790
951.427	2773
951.517	3930
951.608	2976
951.698	2790
951.788	2092
951.879	2063
951.969	2382
952.060	2611
952.150	2891
952.240	3220
952.331	2364
952.421	3720
952.511	1963
952.602	2710
952.692	1190
952.782	1813
952.872	2422
952.962	2551
953.052	2839
953.143	3485
953.233	2220
953.323	2667
953.413	3123
953.503	3375
953.593	2953
953.683	2972
953.773	2835
953.863	2444
953.953	2779
954.042	3908
954.132	3999
954.222	4971
954.312	4724
954.402	4574
954.492	9426
954.581	28205
954.671	21019
954.761	3447
954.850	3451
954.940	1964
955.030	2675
955.119	2068
955.209	2086
955.298	2103
955.388	2813
955.477	2410
955.567	1257
955.656	1494
955.746	2215
955.835	2342
955.925	1322
956.014	1442
956.103	2826
956.193	2905
956.282	2923
956.371	2396
956.461	1500
956.550	2640
956.639	1616
956.728	2166
956.817	1989
956.906	2126
956.995	3147
957.085	2798
957.174	2243
957.263	1607
957.352	1386
957.441	2019
957.530	2085
957.619	1976
957.708	2136
957.796	2182
957.885	1759
957.974	1386
958.063	1177
958.152	1848
958.241	1394
958.329	1835
958.418	2136
958.507	1622
958.596	2625
958.684	1783
958.773	3192
958.861	2383
958.950	3740
959.039	1966
959.127	2118
959.216	1701
959.304	1689
959.393	2679
959.481	3223
959.570	2531
959.658	3538
959.746	5516
959.835	10824
959.923	34031
960.011	29612
960.100	4420
960.188	2973
960.276	3153
960.365	2039
960.453	2211
960.541	1453
960.629	1684
960.717	2313
960.805	1305
960.893	1852
960.981	1225
961.069	2620
961.158	2926
961.245	2766
961.333	1900
961.421	2005
961.509	2181
961.597	1226
961.685	2200
961.773	1576
961.861	1308
961.949	1081
962.036	2379
962.124	1727
962.212	1018
962.299	1074
962.387	1639
962.475	1255
962.562	1254
962.650	2775
962.738	1825
962.825	1397
962.913	2051
963.000	2614
963.088	2217
963.175	3266
963.263	3181
963.350	4060
963.438	7016
963.525	9651
963.612	15808
963.700	37604
963.787	107865
963.874	97882
963.962	15754
964.049	3758
964.136	3676
964.223	1968
964.310	2987
964.398	3238
964.485	3869
964.572	8831
964.659	21441
964.746	36904
964.833	10369
964.920	2386
965.007	2555
965.094	1894
965.181	2502
965.268	2594
965.355	1027
965.441	1401
965.528	1273
965.615	1895
965.702	1329
965.789	1923
965.875	1571
965.962	2156
966.049	3253
966.136	4385
966.222	3392
966.309	3685
966.395	3518
966.482	3539
966.569	2016
966.655	2124
966.742	2391
966.828	1936
966.915	2444
967.001	2774
967.087	2517
967.174	5214
967.260	8088
967.347	14188
967.433	32314
967.519	88603
967.605	63021
967.692	9825
967.778	3765
967.864	2748
967.950	2963
968.036	1661
968.123	1789
968.209	2211
968.295	1818
968.381	2402
968.467	2730
968.553	2561
968.639	4139
968.725	6999
968.811	17941
968.897	27052
968.983	7494
969.069	2251
969.154	3137
969.240	1708
969.326	1707
969.412	1194
969.497	480
969.583	988
969.669	1719
969.755	1766
969.840	1713
969.926	3673
970.012	4210
970.097	6933
970.183	10378
970.268	8856
970.354	10624
970.439	22458
970.525	62118
970.610	46744
970.696	8195
970.781	2946
970.866	1058
970.952	1913
971.037	1604
971.122	1423
971.208	1437
971.293	1994
971.378	1485
971.463	3116
971.549	3526
971.634	3431
971.719	6200
971.804	8961
971.889	17451
971.974	7733
972.059	2092
972.144	1855
972.229	1974
972.314	2453
972.399	2745
972.484	4085
972.569	5460
972.654	9557
972.739	23489
972.824	48101
972.908	20307
972.993	2584
973.078	2217
973.163	1123
973.247	2027
973.332	840
973.417	2645
973.501	1221
973.586	1583
973.671	2228
973.755	3021
973.840	2124
973.924	2464
974.009	4227
974.093	5710
974.178	9980
974.262	20113
974.346	39750
974.431	16448
974.515	2849
974.600	3501
974.684	4044
974.768	2131
974.852	1980
974.937	1369
975.021	1985
975.105	808
975.189	1642
975.273	1745
975.358	793
975.442	1130
975.526	1896
975.610	1523
975.694	1592
975.778	1885
975.862	2013
975.946	581
976.030	2167
976.114	1519
976.198	1479
976.281	1387
976.365	1555
976.449	1642
976.533	1571
976.617	2475
976.700	2374
976.784	4432
976.868	6547
976.951	14021
977.035	20620
977.119	6279
977.202	2318
977.286	2023
977.369	1470
977.453	2513
977.536	3209
977.620	1696
977.703	2667
977.787	1682
977.870	2821
977.953	3665
978.037	4703
978.120	7901
978.203	15733
978.287	40060
978.370	34837
978.453	8685
978.536	5485
978.620	9680
978.703	22181
978.786	23034
978.869	5705
978.952	1029
979.035	2064
979.118	2456
979.201	1902
979.284	2608
979.367	1249
979.450	1783
979.533	705
979.616	1388
979.699	388
979.782	853
979.865	562
979.948	1511
980.030	1623
980.113	1386
980.196	651
980.279	923
980.361	1066
980.444	1674
980.526	1523
980.609	1784
980.692	1910
980.774	2383
980.857	1515
980.939	2440
981.022	1248
981.104	1123
981.187	1412
981.269	1336
981.352	1866
981.434	974
981.516	1630
981.599	2389
981.681	1381
981.763	2114
981.846	1689
981.928	1927
982.010	1369
982.092	1823
982.174	1869
982.256	1532
982.339	1285
982.421	1639
982.503	1237
982.585	1549
982.667	1634
982.749	2197
982.831	2218
982.913	2567
982.995	2779
983.077	3735
983.158	9108
983.240	7099
983.322	1579
983.404	2548
983.486	2052
983.568	2855
983.649	1393
983.731	2437
983.813	2368
983.894	1999
983.976	1657
984.058	1782
984.139	1743
984.221	1755
984.302	2012
984.384	2125
984.465	1668
984.547	2119
984.628	1262
984.710	2482
984.791	1385
984.872	936
984.954	692
985.035	1813
985.116	853
985.198	865
985.279	1890
985.360	1615
985.441	1840
985.522	2480
985.604	2106
985.685	95
985.766	1731
985.847	3043
985.928	1721
986.009	1489
986.090	1119
986.171	2103
986.252	1714
986.333	2022
986.414	1656
986.495	1741
986.576	1589
986.656	1199
986.737	1867
986.818	1565
986.899	2192
986.980	2040
987.060	1114
987.141	2101
987.222	1636
987.302	2465
987.383	2674
987.464	2012
987.544	2858
987.625	2110
987.705	2253
987.786	1961
987.866	2935
987.947	2105
988.027	1652
988.108	1448
988.188	1106
988.268	2096
988.349	1496
988.429	2042
988.509	975
988.589	1749
988.670	1082
988.750	3080
988.830	1758
988.910	1582
988.990	2065
989.070	1252
989.151	1360
989.231	1427
989.311	1872
989.391	1421
989.471	1424
989.551	1500
989.631	1388
989.711	1809
989.791	1338
989.870	912
989.950	1622
990.030	1399
990.110	1375
990.190	1147
990.269	2044
990.349	1154
990.429	1661
990.509	1460
990.588	332
990.668	1053
990.747	1188
990.827	1061
990.907	1045
990.986	1715
991.066	1039
991.145	330
991.225	704
991.304	341
991.383	1788
991.463	684
991.542	1383
991.622	1083
991.701	2088
991.780	838
991.859	792
991.939	1200
992.018	834
992.097	1958
992.176	1565
992.256	793
992.335	1265
992.414	1817
992.493	1577
992.572	1820
992.651	4999
992.730	5234
992.809	1503
992.888	584
992.967	664
993.046	1811
993.125	329
993.203	833
993.282	729
993.361	1160
993.440	829
993.519	434
993.597	866
993.676	809
993.755	1925
993.834	905
993.912	630
993.991	1692
994.069	572
994.148	933
994.226	713
994.305	958
994.384	-223
994.462	1176
994.540	698
994.619	294
994.697	1089
994.776	1393
994.854	2354
994.932	276
995.011	269
995.089	648
995.167	629
995.245	730
995.324	101
995.402	813
995.480	-126
995.558	504
995.636	-272
995.714	656
995.792	1682
995.870	406
995.948	584
996.026	-223
996.104	-205
996.182	1830
996.260	279
996.338	1548
996.416	136
996.494	520
996.572	639
996.649	310
996.727	-379
996.805	259
996.883	512
996.960	568
997.038	44
997.116	1187
997.193	-619
997.271	400
997.348	-912
997.426	133
997.504	137
997.581	785
997.658	897
997.736	-140
997.813	-1096
997.891	471
997.968	165
998.046	8
998.123	1113
998.200	1668
998.277	122
998.355	549
998.432	-730
998.509	-791
998.586	-179
998.663	672
998.741	-276
998.818	-12
998.895	-238
998.972	-55
999.049	-70
999.126	-139
999.203	-668
999.280	-824
999.357	-1033
999.434	100
999.511	1022
999.587	1191
999.664	866
999.741	2699
999.818	2363
999.895	592
999.971	635
1000.048	333
1000.125	1767
1000.202	2012
1000.278	1897
1000.355	1227
1000.431	-372
1000.508	-90
1000.584	-107
1000.661	-24
1000.738	-1025
1000.814	-614
1000.890	-688
1000.967	573
1001.043	1015
1001.120	571
1001.196	863
1001.272	11
1001.349	535
1001.425	870
1001.501	189
1001.577	-1405
1001.654	133
1001.730	517
1001.806	-846
1001.882	-482
1001.958	279
1002.034	-165
1002.110	-361
1002.186	-158
1002.262	-533
1002.338	-641
1002.414	370
1002.490	82
1002.566	1069
1002.642	-431
1002.718	1340
1002.794	102
1002.870	-71
1002.945	-797
1003.021	-515
1003.097	-692
1003.173	233
1003.248	147
1003.324	716
1003.400	1259
1003.475	-662
1003.551	-222
1003.626	-773
1003.702	-996
1003.777	-616
1003.853	-24
1003.928	-555
1004.004	63
1004.079	-501
1004.155	-366
1004.230	-93
1004.305	546
1004.381	-1205
1004.456	-278
1004.531	21
1004.607	-168
1004.682	-180
1004.757	306
1004.832	1173
1004.907	307
1004.982	-19
1005.057	79
1005.133	-182
1005.208	-561
1005.283	-763
1005.358	-385
1005.433	-359
1005.508	726
1005.583	-190
1005.657	1694
1005.732	3678
1005.807	1644
1005.882	-313
1005.957	42
1006.032	236
1006.106	-1516
1006.181	-610
1006.256	-458
1006.331	-963
1006.405	-144
1006.480	-762
1006.554	-402
1006.629	-566
1006.704	-671
1006.778	70
1006.853	-723
1006.927	-625
1007.002	-750
1007.076	-799
1007.150	-128
1007.225	198
1007.299	694
1007.373	-833
1007.448	-269
1007.522	528
1007.596	-93
1007.671	-333
1007.745	-602
1007.819	-1091
1007.893	-871
1007.967	-148
1008.041	-345
1008.115	-365
1008.190	-64
1008.264	-329
1008.338	-1340
1008.412	-759
1008.486	-408
1008.560	-1249
1008.633	-707
1008.707	-883
1008.781	-338
1008.855	-651
1008.929	-314
1009.003	-1366
1009.076	-896
1009.150	-613
1009.224	-439
1009.298	-1013
1009.371	-1801
1009.445	21
1009.519	-1365
1009.592	-1691
1009.666	-625
1009.739	-865
1009.813	-1123
1009.886	-75
1009.960	-1498
1010.033	-250
1010.107	-578
1010.180	-1686
1010.253	-699
1010.327	-1366
1010.400	-992
1010.473	-961
1010.547	-46
1010.620	-689
1010.693	-368
1010.766	-1322
1010.840	-358
1010.913	-824
1010.986	-1509
1011.059	-489
1011.132	-1143
1011.205	19
1011.278	-725
1011.351	-1003
1011.424	-1567
1011.497	-1791
1011.570	-880
1011.643	-614
1011.716	-1300
1011.789	-1139
1011.862	-656
1011.934	-677
1012.007	-837
1012.080	-465
1012.153	-1765
1012.225	-608
1012.298	-1782
1012.371	-757
1012.443	-1472
1012.516	-1501
1012.588	-410
1012.661	-590
1012.733	-870
1012.806	-259
1012.879	-345
1012.951	-455
1013.023	-1639
1013.096	-733
1013.168	-1334
1013.241	-1628
1013.313	-932
1013.385	-888
1013.458	-1485
1013.530	-1486
1013.602	-1725
1013.674	-984
1013.746	-1379
1013.819	-986
1013.891	-1198
1013.963	-1375
1014.035	-915
1014.107	-324
1014.179	-600
1014.251	-1541
1014.323	-574
1014.395	-918
1014.467	-1252
1014.539	-812
1014.611	-1113
1014.683	-1449
1014.754	-472
1014.826	-1030
1014.898	-1104
1014.970	-1663
1015.042	-1498
1015.113	-579
1015.185	-1152
1015.257	-1732
1015.328	-670
1015.400	-1338
1015.471	-1073
1015.543	-1047
1015.615	-730
1015.686	-1505
1015.757	-1086
1015.829	-983
1015.901	-503
1015.972	-857
1016.043	-1778
1016.115	-573
1016.186	-718
1016.257	-1658
1016.328	-777
1016.400	-1556
1016.471	-1598
1016.542	-774
1016.613	-1055
1016.685	-1262
1016.756	-1342
1016.827	-1573
1016.898	-1172
1016.969	-721
1017.040	-1098
1017.111	-1046
1017.182	-1483
1017.253	-833
1017.324	-1076
1017.395	-1744
1017.466	-1035
1017.537	-1340
1017.608	-1824
1017.678	-2173
1017.749	-1206
1017.820	-925
1017.891	-839
1017.961	-1367
1018.032	-1443
1018.103	-1476
1018.173	-526
1018.244	-1829
1018.315	-1267
1018.385	-1137
1018.456	-1445
1018.526	-1562
1018.597	-464
1018.667	-1465
1018.738	-1351
1018.808	-1210
1018.878	-1341
1018.949	-1438
1019.019	-1159
1019.089	-867
1019.160	-943
1019.230	-1675
1019.300	-391
1019.371	-1606
1019.441	-961
1019.511	-1246
1019.581	-1141
1019.651	-1668
1019.721	-1114
1019.791	-1645
1019.861	-1286
1019.931	-1368
1020.001	-1493
1020.071	-1682
1020.141	-1490
1020.211	-1183
1020.281	-1254
1020.351	-1583
1020.421	-1225
1020.491	-1106
1020.560	-1820
1020.630	-1381
1020.700	-1420
1020.770	-1635
1020.839	-675
1020.909	-1690
1020.979	-1421
1021.048	-1550
1021.118	-1214
1021.187	-1788
1021.257	-1621
1021.326	-967
1021.396	-1127
1021.465	-2101
1021.535	-987
1021.604	-2077
1021.674	-1339
1021.743	-1165
1021.812	-487
1021.882	-1268
1021.951	-1165
1022.020	-1557
1022.089	-986
1022.159	-749
1022.228	-269
1022.297	-1866
1022.366	-1253
1022.435	-2181
1022.504	-1273
1022.573	-892
1022.642	-959
1022.711	-1154
1022.781	-216
1022.849	-1344
1022.918	-2242
1022.987	-661
1023.056	-645
1023.125	-1451
1023.194	-1335
1023.263	-745
1023.331	-1191
1023.400	-2098
1023.469	-2175
1023.538	-1373
1023.606	-1981
1023.675	-1565
1023.744	-1703
1023.812	-1315
1023.881	-1635
1023.949	-1457
1024.018	-776
1024.086	-1256
1024.155	-827
1024.223	-1954
1024.292	-1715
1024.360	-1324
1024.429	-635
1024.497	-2704
1024.565	-1034
1024.634	-1648
1024.702	-1341
1024.770	-1603
1024.838	-2275
1024.907	-1342
1024.975	-1539
1025.043	-865
1025.111	-2406
1025.179	-1215
1025.247	-909
1025.315	-2033
1025.383	-1013
1025.451	-829
1025.519	-850
1025.587	-1252
1025.655	-2245
1025.723	-2071
1025.791	-1204
1025.859	-1012
1025.927	-414
1025.995	-1960
1026.062	-1081
1026.130	-2392
1026.198	-1424
1026.266	-1708
1026.333	-706
1026.401	-1210
1026.469	-1331
1026.536	-1201
1026.604	-881
1026.671	-2159
1026.739	-819
1026.806	-1706
1026.874	-1829
1026.941	-1539
1027.009	-1052
1027.076	-1606
1027.144	-277
1027.211	-2710
1027.278	-1747
1027.345	-1308
1027.413	-1414
1027.480	-2753
1027.547	-952
1027.614	-2087
1027.682	-473
1027.749	-1528
1027.816	-1151
1027.883	-1585
1027.950	-1382
1028.017	-1934
1028.084	-918
1028.151	-1617
1028.218	-1773
1028.285	-1290
1028.352	-2209
1028.419	-1053
1028.486	-1679
1028.553	-1440
1028.619	-1999
1028.686	-1419
1028.753	-1426
1028.820	-2084
1028.886	-1345
1028.953	-1115
1029.020	-1639
1029.086	-1302
1029.153	-1053
1029.220	-2273
1029.286	-1735
1029.353	-1077
1029.419	-1483
1029.486	-2002
1029.552	-1364
1029.619	-1828
1029.685	-1668
1029.751	-1987
1029.818	-1171
1029.884	-1991
1029.951	-1120
1030.017	-1320
1030.083	-1481
1030.149	-2115
1030.216	-1477
1030.282	-1496
1030.348	-1603
1030.414	-2596
1030.480	-1476
1030.546	-1952
1030.612	-215
1030.678	-1857
1030.744	-1954
1030.810	-1237
1030.876	-1003
1030.942	-1742
1031.008	-1740
1031.074	-784
1031.140	-995
1031.206	-1488
1031.272	-1758
1031.337	-1410
1031.403	-1850
1031.469	-1444
1031.534	-1889
1031.600	-1674
1031.666	-1158
1031.731	-1448
1031.797	-1215
1031.863	-1726
1031.928	-1097
1031.994	-478
1032.059	-1086
1032.125	-2738
1032.190	-2011
1032.256	-1511
1032.321	-1919
1032.386	-743
1032.452	-760
1032.517	-1260
1032.582	-1940
1032.647	-2085
1032.713	-1891
1032.778	-1292
1032.843	-985
1032.908	-1869
1032.974	-1682
1033.039	-1929
1033.104	-1025
1033.169	-686
1033.234	-1158
1033.299	-1683
1033.364	-1746
1033.429	-1166
1033.494	-877
1033.559	-1336
1033.624	-992
1033.688	-504
1033.753	-780
1033.818	-1105
1033.883	-692
1033.948	-20
1034.013	188
1034.077	-208
1034.142	1636
1034.207	1561
1034.271	3763
1034.336	5003
1034.400	5545
1034.465	3035
1034.530	779
1034.594	-113
1034.658	-516
1034.723	-617
1034.787	-409
1034.852	-1419
1034.916	-1277
1034.981	-1385
1035.045	-329
1035.109	-1318
1035.173	-773
1035.238	-2416
1035.302	-1321
1035.366	-2319
1035.430	-804
1035.495	-1819
1035.559	-1525
1035.623	-1676
1035.687	-540
1035.751	-1644
1035.815	-1565
1035.879	-1403
1035.943	-1115
1036.007	-2077
1036.071	-1330
1036.135	-2621
1036.198	-1797
1036.262	-2056
1036.326	-2155
1036.390	-1295
1036.454	-1369
1036.517	-696
1036.581	-915
1036.645	-1492
1036.709	-328
1036.772	-1405
1036.836	-1675
1036.900	-1209
1036.963	-1443
1037.026	-1501
1037.090	-870
1037.154	-1084
1037.217	-1192
1037.280	-2080
1037.344	-1724
1037.407	-1259
1037.471	-1004
1037.534	-1785
1037.597	-1717
1037.661	-1559
1037.724	-855
1037.787	-1047
1037.850	-2138
1037.913	-1716
1037.977	-853
1038.040	-178
1038.103	-1421
1038.166	-1503
1038.229	-794
1038.292	-1682
1038.355	-1423
1038.418	-747
1038.481	-522
1038.544	-776
1038.607	-250
1038.670	-1579
1038.732	-1433
1038.795	-1740
1038.858	-1459
1038.921	-1680
1038.984	-1019
1039.046	-2100
1039.109	-947
1039.172	-1545
1039.234	-1342
1039.297	-908
1039.360	-1285
1039.422	-1127
1039.485	-1036
1039.547	-1095
1039.610	445
1039.672	-110
1039.734	-465
1039.797	-2096
1039.859	-1067
1039.922	-1954
1039.984	-1518
1040.046	-2180
1040.109	-1614
1040.171	-1279
1040.233	-1861
1040.295	-2334
1040.358	-1940
1040.420	-1508
1040.482	-1892
1040.544	-1703
1040.606	-1489
1040.668	-1580
1040.730	-2117
1040.792	-1454
1040.854	-1353
1040.916	-1809
1040.978	-2021
1041.040	-999
1041.102	-651
1041.164	-1892
1041.225	-1168
1041.287	-1930
1041.349	-657
1041.411	-1626
1041.472	-1247
1041.534	-1826
1041.596	-1448
1041.657	-2055
1041.719	-1932
1041.781	-2196
1041.842	-1183
1041.904	-1196
1041.965	-948
1042.027	-965
1042.088	301
1042.150	-780
1042.211	-1636
1042.272	-1301
1042.334	-1872
1042.395	-1527
1042.456	-2073
1042.518	-1820
1042.579	-2020
1042.640	-1998
1042.701	-2486
1042.763	-1867
1042.824	-1880
1042.885	-2306
1042.946	-2363
1043.007	-2085
1043.068	-1315
1043.129	-1677
1043.190	-2261
1043.251	-1213
1043.312	-1241
1043.373	-2241
1043.434	-2658
1043.495	-1935
1043.556	-1514
1043.616	-1927
1043.677	-1571
1043.738	-812
1043.799	-2487
1043.859	-1315
1043.920	-1442
1043.981	-1592
1044.041	-1183
1044.102	-2150
1044.162	-1881
1044.223	-2343
1044.284	-1317
1044.344	-1116
1044.405	-1088
1044.465	-2045
1044.525	-2005
1044.586	-917
1044.646	-795
1044.707	-1301
1044.767	-1622
1044.827	-1187
1044.887	-1150
1044.948	-260
1045.008	-1085
1045.068	-1337
1045.128	-1907
1045.188	-1915
1045.249	-727
1045.309	-1638
1045.369	-1615
1045.429	-1677
1045.489	-1834
1045.549	-2229
1045.609	-1908
1045.669	-2238
1045.729	-1544
1045.789	-1895
1045.848	-1632
1045.908	-1224
1045.968	-1275
1046.028	-1679
1046.088	-1018
1046.147	-945
1046.207	-2376
1046.267	-1059
1046.326	-1263
1046.386	-1868
1046.446	-876
1046.505	-1715
1046.565	-1233
1046.624	-798
1046.684	-1357
1046.743	-861
1046.803	-363
1046.862	191
1046.922	0
