'Start Wavelength	183.907
'End Wavelength	1046.922
'Gate Delay	5.000
'Gate Width (ms)	1.050
'Laser Output Level	0.000
'X Position	0.000
'Y Position	0.000
'Z Position	0.000
'Grid Point Number	1.000
'Shot Number	100.000
183.907	164.000
183.977	726.000
184.047	251
184.116	54
184.186	94
184.256	-166
184.325	175
184.395	5
184.465	355
184.534	263
184.604	-733
184.674	81
184.743	-221
184.813	645
184.883	889
184.952	253
185.022	394
185.092	-138
185.161	344
185.231	-249
185.301	-218
185.370	329
185.440	-43
185.509	15
185.579	272
185.649	-71
185.718	386
185.788	-470
185.857	-265
185.927	712
185.996	21
186.066	217
186.136	42
186.205	257
186.275	-204
186.344	-167
186.414	-2
186.483	-569
186.553	-49
186.622	-8
186.692	-29
186.761	-190
186.831	-158
186.900	600
186.970	364
187.039	680
187.109	1731
187.178	221
187.248	27
187.317	561
187.387	508
187.456	339
187.526	575
187.595	95
187.664	-286
187.734	-345
187.803	39
187.873	-54
187.942	111
188.012	274
188.081	-350
188.150	-99
188.220	828
188.289	420
188.358	-596
188.428	754
188.497	-344
188.567	411
188.636	-165
188.705	-234
188.775	-53
188.844	507
188.913	919
188.983	965
189.052	-90
189.121	-166
189.191	779
189.260	117
189.329	1090
189.399	521
189.468	-162
189.537	416
189.606	34
189.676	351
189.745	364
189.814	519
189.883	111
189.953	191
190.022	958
190.091	1530
190.161	2157
190.230	377
190.299	-322
190.368	-55
190.437	589
190.507	-41
190.576	435
190.645	338
190.714	396
190.783	264
190.853	1060
190.922	303
190.991	535
191.060	-49
191.129	-393
191.198	-312
191.268	392
191.337	294
191.406	788
191.475	706
191.544	297
191.613	546
191.682	158
191.752	174
191.821	210
191.890	221
191.959	266
192.028	570
192.097	932
192.166	626
192.235	109
192.304	684
192.373	-110
192.442	-86
192.511	61
192.580	504
192.650	464
192.719	192
192.788	805
192.857	926
192.926	350
192.995	207
193.064	111
193.133	1089
193.202	1814
193.271	1452
193.340	1300
193.409	416
193.478	764
193.547	1335
193.615	2219
193.684	2145
193.753	923
193.822	1339
193.891	152
193.960	414
194.029	753
194.098	767
194.167	56
194.236	1274
194.305	375
194.374	653
194.443	428
194.512	1161
194.580	961
194.649	548
194.718	863
194.787	104
194.856	361
194.925	273
194.994	610
195.062	770
195.131	189
195.200	698
195.269	1236
195.338	623
195.407	413
195.475	372
195.544	1826
195.613	1636
195.682	914
195.751	1814
195.819	910
195.888	642
195.957	1826
196.026	971
196.094	1046
196.163	1657
196.232	1076
196.301	1158
196.369	1207
196.438	1333
196.507	1326
196.576	1202
196.644	176
196.713	487
196.782	46
196.850	207
196.919	1525
196.988	69
197.056	87
197.125	1326
197.194	1422
197.262	201
197.331	712
197.400	585
197.468	706
197.537	874
197.606	710
197.674	1920
197.743	3335
197.812	1859
197.880	3438
197.949	1598
198.017	2458
198.086	1880
198.155	795
198.223	1954
198.292	3580
198.360	1794
198.429	434
198.497	1266
198.566	1862
198.635	2792
198.703	1679
198.772	1095
198.840	3292
198.909	3132
198.977	1061
199.046	1365
199.114	871
199.183	1373
199.251	1027
199.320	840
199.388	428
199.457	292
199.525	635
199.594	349
199.662	781
199.731	361
199.799	508
199.867	1002
199.936	184
200.004	1683
200.073	768
200.141	409
200.210	1063
200.278	500
200.346	798
200.415	1462
200.483	1350
200.552	970
200.620	641
200.688	573
200.757	470
200.825	256
200.893	775
200.962	956
201.030	763
201.098	302
201.167	1667
201.235	1499
201.303	979
201.372	1302
201.440	1029
201.508	786
201.577	418
201.645	890
201.713	1094
201.781	103
201.850	1277
201.918	920
201.986	744
202.055	697
202.123	989
202.191	972
202.259	1356
202.327	1298
202.396	1112
202.464	761
202.532	1435
202.600	4768
202.669	2443
202.737	601
202.805	573
202.873	1024
202.941	1292
203.009	372
203.078	1542
203.146	1322
203.214	508
203.282	840
203.350	1173
203.418	799
203.487	555
203.555	443
203.623	1387
203.691	1447
203.759	999
203.827	278
203.895	1446
203.963	1162
204.031	1411
204.099	1223
204.168	768
204.236	1617
204.304	933
204.372	976
204.440	1241
204.508	1098
204.576	426
204.644	853
204.712	1016
204.780	633
204.848	1159
204.916	440
204.984	1419
205.052	1205
205.120	1066
205.188	951
205.256	1386
205.324	1368
205.392	1431
205.460	916
205.528	1777
205.596	1318
205.664	2094
205.732	919
205.799	5062
205.867	4853
205.935	2084
206.003	1398
206.071	1096
206.139	929
206.207	1140
206.275	704
206.343	1426
206.411	1437
206.478	1392
206.546	1563
206.614	1346
206.682	1273
206.750	973
206.818	1205
206.885	1492
206.953	737
207.021	1331
207.089	1286
207.157	982
207.225	1255
207.292	996
207.360	820
207.428	1027
207.496	1379
207.563	1383
207.631	1422
207.699	1054
207.767	1013
207.834	1799
207.902	1858
207.970	1208
208.038	912
208.105	1681
208.173	1616
208.241	1832
208.309	2082
208.376	1555
208.444	3361
208.512	2226
208.579	493
208.647	1835
208.715	2459
208.782	1514
208.850	1493
208.918	1094
208.985	1508
209.053	1755
209.120	1692
209.188	1359
209.256	1103
209.323	2589
209.391	2189
209.459	2693
209.526	848
209.594	1567
209.661	1333
209.729	2076
209.796	1374
209.864	1999
209.932	1028
209.999	1782
210.067	2129
210.134	1422
210.202	2638
210.269	2485
210.337	2331
210.404	709
210.472	1641
210.539	1536
210.607	1471
210.674	1653
210.742	2123
210.809	2007
210.877	2151
210.944	2682
211.012	1336
211.079	2484
211.146	1083
211.214	1468
211.281	1906
211.349	1674
211.416	1129
211.484	2736
211.551	2565
211.618	2248
211.686	1671
211.753	1704
211.821	2620
211.888	2283
211.955	1937
212.023	1653
212.090	1569
212.157	2282
212.225	1870
212.292	3784
212.359	7989
212.427	16991
212.494	7750
212.561	3939
212.629	2782
212.696	2098
212.763	2269
212.831	2073
212.898	2192
212.965	2648
213.032	2542
213.100	2217
213.167	1936
213.234	2519
213.301	2595
213.369	2138
213.436	1630
213.503	2257
213.570	2497
213.638	2045
213.705	1382
213.772	1087
213.839	1416
213.906	2699
213.973	2183
214.041	1654
214.108	2330
214.175	2156
214.242	1801
214.309	2361
214.376	2145
214.444	1961
214.511	2446
214.578	2145
214.645	2411
214.712	2599
214.779	3529
214.846	1980
214.913	3026
214.980	2864
215.048	3100
215.115	4001
215.182	3408
215.249	2132
215.316	2618
215.383	2271
215.450	2495
215.517	2856
215.584	1750
215.651	1655
215.718	2318
215.785	3391
215.852	2312
215.919	2412
215.986	2374
216.053	1564
216.120	1821
216.187	2187
216.254	2097
216.321	2357
216.388	2342
216.455	1849
216.522	2385
216.589	3069
216.656	4621
216.722	4620
216.789	3988
216.856	4111
216.923	3004
216.990	3132
217.057	3330
217.124	3650
217.191	3953
217.258	4377
217.324	5212
217.391	6104
217.458	4168
217.525	3628
217.592	3170
217.659	2369
217.725	2836
217.792	4898
217.859	4056
217.926	1358
217.993	2605
218.059	2431
218.126	1643
218.193	2189
218.260	1102
218.327	1998
218.393	1759
218.460	2310
218.527	1120
218.594	2206
218.660	4210
218.727	4305
218.794	1807
218.860	2431
218.927	940
218.994	1510
219.061	1379
219.127	2115
219.194	3939
219.261	2064
219.327	1632
219.394	2328
219.461	1406
219.527	2287
219.594	4058
219.661	1888
219.727	964
219.794	1175
219.860	1125
219.927	2168
219.994	3625
220.060	5709
220.127	3011
220.193	1653
220.260	2522
220.326	4293
220.393	6588
220.460	9879
220.526	5663
220.593	4063
220.659	3978
220.726	4605
220.792	10428
220.859	8583
220.925	12045
220.992	15663
221.058	15279
221.125	12994
221.191	9054
221.258	3665
221.324	3290
221.391	3084
221.457	2583
221.524	2220
221.590	3886
221.657	12642
221.723	6802
221.789	7840
221.856	6454
221.922	2787
221.989	2481
222.055	1795
222.121	2108
222.188	2832
222.254	2330
222.321	1805
222.387	1983
222.453	903
222.520	1719
222.586	1357
222.652	1888
222.719	1104
222.785	1445
222.851	1930
222.918	2205
222.984	1958
223.050	1931
223.116	1297
223.183	1923
223.249	1390
223.315	939
223.382	231
223.448	1570
223.514	1007
223.580	1538
223.647	1299
223.713	1162
223.779	1727
223.845	1840
223.911	2075
223.978	899
224.044	2026
224.110	716
224.176	1001
224.242	859
224.309	862
224.375	1738
224.441	1237
224.507	698
224.573	872
224.639	2152
224.705	453
224.772	1135
224.838	666
224.904	1851
224.970	1412
225.036	1144
225.102	1775
225.168	1626
225.234	1897
225.300	1072
225.366	1449
225.432	1575
225.499	1260
225.565	1192
225.631	1370
225.697	2164
225.763	2920
225.829	2562
225.895	2928
225.961	5533
226.027	3582
226.093	3376
226.159	3857
226.225	6504
226.291	16662
226.357	25181
226.423	11439
226.489	6477
226.554	3932
226.620	4721
226.686	5559
226.752	8722
226.818	14877
226.884	35393
226.950	26032
227.016	9024
227.082	5625
227.148	5151
227.214	5672
227.279	4433
227.345	3528
227.411	3390
227.477	2652
227.543	4343
227.609	6110
227.674	3967
227.740	2174
227.806	2375
227.872	1919
227.938	2878
228.003	4373
228.069	2683
228.135	1164
228.201	1933
228.267	1502
228.332	2519
228.398	4262
228.464	3148
228.530	1658
228.595	1996
228.661	2662
228.727	3799
228.792	2915
228.858	1423
228.924	1599
228.990	3182
229.055	2760
229.121	2994
229.187	2135
229.252	2694
229.318	1574
229.384	1677
229.449	2350
229.515	901
229.581	278
229.646	3279
229.712	2145
229.777	7078
229.843	5811
229.909	4909
229.974	5179
230.040	4373
230.105	2480
230.171	4270
230.236	4431
230.302	7108
230.368	5422
230.433	3758
230.499	3081
230.564	3572
230.630	2487
230.695	1733
230.761	2144
230.826	899
230.892	4478
230.957	1624
231.023	1621
231.088	2676
231.154	2114
231.219	3103
231.284	4132
231.350	3747
231.415	2217
231.481	1657
231.546	1721
231.612	2000
231.677	2798
231.742	1209
231.808	2250
231.873	1792
231.939	895
232.004	5347
232.069	4003
232.135	1645
232.200	1592
232.265	2303
232.331	1785
232.396	1677
232.461	1370
232.527	1589
232.592	2212
232.657	2399
232.723	2880
232.788	1908
232.853	1664
232.918	2452
232.984	984
233.049	644
233.114	2899
233.179	2665
233.245	4530
233.310	4973
233.375	904
233.440	2388
233.506	1521
233.571	1117
233.636	1947
233.701	1531
233.766	4016
233.832	3684
233.897	2589
233.962	1997
234.027	3681
234.092	1972
234.157	2251
234.222	2455
234.288	4193
234.353	10651
234.418	8842
234.483	6033
234.548	4453
234.613	2934
234.678	3748
234.743	3091
234.808	11041
234.873	6431
234.938	4064
235.004	3478
235.069	2757
235.134	1989
235.199	3353
235.264	2996
235.329	2188
235.394	3134
235.459	3909
235.524	3034
235.589	2828
235.654	2385
235.719	1203
235.784	3363
235.849	3423
235.913	6103
235.978	7000
236.043	6397
236.108	3401
236.173	3501
236.238	3205
236.303	2364
236.368	2753
236.433	5416
236.498	7146
236.563	6022
236.627	13201
236.692	45014
236.757	28329
236.822	10988
236.887	8609
236.952	7023
237.017	5666
237.081	6247
237.146	8389
237.211	17286
237.276	44296
237.341	64825
237.405	26135
237.470	11657
237.535	8434
237.600	6642
237.664	4364
237.729	3766
237.794	5810
237.859	10962
237.923	7308
237.988	4004
238.053	6289
238.118	6133
238.182	16073
238.247	12770
238.312	5539
238.376	5309
238.441	3574
238.506	4703
238.570	1676
238.635	3009
238.700	2641
238.764	2265
238.829	7735
238.893	7034
238.958	4823
239.023	3998
239.087	2431
239.152	2781
239.216	2602
239.281	3161
239.346	2148
239.410	2763
239.475	2947
239.539	15826
239.604	9019
239.668	3502
239.733	3080
239.797	3733
239.862	6246
239.926	10569
239.991	4165
240.055	2482
240.120	2752
240.184	3100
240.249	1480
240.313	2416
240.378	2444
240.442	8966
240.507	11929
240.571	4337
240.635	7434
240.700	7065
240.764	3639
240.829	2304
240.893	1302
240.957	2529
241.022	9360
241.086	12638
241.151	5450
241.215	2181
241.279	4662
241.344	6610
241.408	4530
241.472	2857
241.537	4303
241.601	3956
241.665	2212
241.730	3321
241.794	3352
241.858	3921
241.922	3231
241.987	2496
242.051	2726
242.115	3217
242.179	2594
242.244	2221
242.308	3301
242.372	3531
242.436	3458
242.501	2929
242.565	2383
242.629	1488
242.693	2834
242.757	2367
242.822	2165
242.886	3508
242.950	2695
243.014	2519
243.078	3433
243.142	4379
243.206	3282
243.271	3296
243.335	3542
243.399	5871
243.463	25517
243.527	53501
243.591	14898
243.655	6440
243.719	4320
243.783	5810
243.847	8225
243.911	9351
243.975	12104
244.040	7571
244.104	4973
244.168	3301
244.232	7105
244.296	7923
244.360	9580
244.424	4757
244.488	3771
244.552	3409
244.615	2049
244.679	2126
244.743	4583
244.807	3780
244.871	3169
244.935	3326
244.999	1993
245.063	2572
245.127	4463
245.191	6883
245.255	5403
245.319	5638
245.383	3274
245.446	3945
245.510	2812
245.574	4204
245.638	3130
245.702	3641
245.766	10715
245.829	5981
245.893	4050
245.957	3088
246.021	4050
246.085	4362
246.149	4878
246.212	15226
246.276	18585
246.340	7856
246.404	5223
246.467	7292
246.531	9403
246.595	6091
246.659	4815
246.722	4630
246.786	5977
246.850	6953
246.913	8916
246.977	3205
247.041	3545
247.104	5140
247.168	4589
247.232	13668
247.295	27435
247.359	11292
247.423	5489
247.486	11099
247.550	6156
247.614	5875
247.677	6853
247.741	4517
247.804	3945
247.868	5348
247.932	13097
247.995	22829
248.059	7735
248.122	4570
248.186	6056
248.249	12137
248.313	45284
248.376	40029
248.440	24434
248.503	8267
248.567	8604
248.630	13516
248.694	16221
248.757	21508
248.821	43851
248.884	22419
248.948	24780
249.011	32519
249.075	54018
249.138	38890
249.202	15332
249.265	10034
249.328	11400
249.392	9191
249.455	7513
249.519	6278
249.582	8029
249.645	13543
249.709	8656
249.772	5608
249.835	6399
249.899	6400
249.962	6063
250.025	6373
250.089	18696
250.152	20095
250.215	9937
250.279	6743
250.342	8288
250.405	7595
250.468	6279
250.532	9757
250.595	15449
250.658	62183
250.721	79748
250.785	26718
250.848	16379
250.911	10449
250.974	9782
251.038	14673
251.101	25146
251.164	12500
251.227	14256
251.290	11667
251.354	20623
251.417	81347
251.480	63354
251.543	52389
251.606	142228
251.669	85922
251.732	34777
251.795	39129
251.859	39292
251.922	88952
251.985	41616
252.048	18499
252.111	13589
252.174	13412
252.237	26416
252.300	51812
252.363	61180
252.426	109485
252.489	39235
252.552	22359
252.615	15315
252.678	17606
252.741	40943
252.804	56158
252.867	110301
252.930	60365
252.993	33967
253.056	20557
253.119	16204
253.182	13132
253.245	19720
253.308	13812
253.371	13079
253.434	11178
253.497	12633
253.559	26367
253.622	15923
253.685	19160
253.748	17264
253.811	8816
253.874	11757
253.937	10400
254.000	9222
254.062	18392
254.125	24652
254.188	25488
254.251	18013
254.314	8961
254.376	19131
254.439	17225
254.502	14431
254.565	19502
254.628	29195
254.690	15871
254.753	7527
254.816	8053
254.878	8733
254.941	19191
255.004	16893
255.067	7324
255.129	7419
255.192	5168
255.255	4275
255.317	6117
255.380	3606
255.443	3210
255.505	2882
255.568	2883
255.631	3491
255.693	4388
255.756	2863
255.819	4305
255.881	3216
255.944	2898
256.006	2466
256.069	2555
256.132	3229
256.194	4591
256.257	11676
256.319	8103
256.382	6934
256.444	5564
256.507	4348
256.569	4248
256.632	5173
256.694	6745
256.757	26218
256.819	62786
256.882	19711
256.944	8788
257.007	8661
257.069	8127
257.132	5502
257.194	5097
257.257	4256
257.319	4000
257.381	6259
257.444	18144
257.506	82585
257.569	66950
257.631	23009
257.693	16431
257.756	9161
257.818	7105
257.880	4657
257.943	4979
258.005	4009
258.067	4616
258.130	3924
258.192	5222
258.254	10118
258.317	5323
258.379	4827
258.441	15761
258.503	12672
258.566	16401
258.628	17799
258.690	4425
258.753	5890
258.815	10735
258.877	5027
258.939	4644
259.001	3759
259.064	3695
259.126	4375
259.188	6339
259.250	4248
259.312	4655
259.375	8482
259.437	5336
259.499	2985
259.561	3376
259.623	4128
259.685	4398
259.747	4301
259.809	16642
259.872	24713
259.934	45583
259.996	35004
260.058	10242
260.120	4927
260.182	3503
260.244	3828
260.306	3571
260.368	3810
260.430	3259
260.492	11891
260.554	14217
260.616	6401
260.678	25413
260.740	25397
260.802	5897
260.864	5306
260.926	4787
260.988	5392
261.050	5356
261.112	17593
261.174	36375
261.236	19347
261.298	6955
261.359	14312
261.421	15278
261.483	4698
261.545	4656
261.607	3234
261.669	3525
261.731	8001
261.793	18778
261.854	8024
261.916	6084
261.978	6352
262.040	5777
262.102	4520
262.164	7499
262.225	5557
262.287	4399
262.349	13663
262.411	8263
262.472	4352
262.534	9650
262.596	15557
262.658	5013
262.719	3229
262.781	6916
262.843	15283
262.904	6313
262.966	4756
263.028	6704
263.090	40587
263.151	81171
263.213	25059
263.275	14602
263.336	7072
263.398	6156
263.459	4070
263.521	3978
263.583	13618
263.644	6900
263.706	3792
263.767	2649
263.829	2533
263.891	2150
263.952	1408
264.014	2486
264.075	8779
264.137	18520
264.198	6976
264.260	2607
264.321	3340
264.383	13142
264.444	26404
264.506	6758
264.567	4587
264.629	13420
264.690	23829
264.752	7972
264.813	4860
264.875	3221
264.936	3922
264.998	2573
265.059	2226
265.120	3328
265.182	6711
265.243	35405
265.305	25989
265.366	5992
265.427	4061
265.489	4341
265.550	2248
265.611	3687
265.673	3464
265.734	3095
265.795	2699
265.857	2281
265.918	3021
265.979	10399
266.040	60407
266.102	34452
266.163	11036
266.224	9557
266.286	4664
266.347	2792
266.408	3281
266.469	3659
266.530	2414
266.592	2184
266.653	7557
266.714	11016
266.775	3054
266.836	2341
266.898	2874
266.959	7015
267.020	4355
267.081	3714
267.142	2900
267.203	2678
267.264	2282
267.326	3405
267.387	2356
267.448	2066
267.509	2967
267.570	2591
267.631	1900
267.692	1795
267.753	3110
267.814	1070
267.875	8610
267.936	15412
267.997	7752
268.058	6075
268.119	3346
268.180	3477
268.241	2400
268.302	2262
268.363	2386
268.424	2449
268.485	2845
268.546	1670
268.607	2080
268.668	1882
268.729	1666
268.790	1837
268.851	3870
268.912	12188
268.972	11050
269.033	4595
269.094	2561
269.155	2501
269.216	2599
269.277	2209
269.338	2130
269.398	2832
269.459	3080
269.520	4786
269.581	6367
269.642	7043
269.702	3573
269.763	3844
269.824	2109
269.885	5175
269.945	6795
270.006	2124
270.067	1690
270.128	1962
270.188	2454
270.249	2353
270.310	1645
270.370	1992
270.431	1735
270.492	1414
270.553	3018
270.613	7329
270.674	14925
270.734	5026
270.795	2851
270.856	4743
270.916	3043
270.977	2770
271.038	3171
271.098	4660
271.159	7488
271.219	5249
271.280	2521
271.340	1958
271.401	3807
271.462	7498
271.522	4264
271.583	2782
271.643	2747
271.704	3317
271.764	3866
271.825	13004
271.885	42892
271.946	45259
272.006	14189
272.066	27037
272.127	37270
272.187	9155
272.248	6541
272.308	8636
272.369	30074
272.429	13738
272.489	11932
272.550	10923
272.610	12217
272.671	7981
272.731	7944
272.791	11144
272.852	6690
272.912	6140
272.972	3533
273.033	4388
273.093	6266
273.153	6804
273.214	4349
273.274	6202
273.334	27613
273.394	41056
273.455	14657
273.515	18509
273.575	36436
273.635	13605
273.696	21751
273.756	38394
273.816	12548
273.876	8480
273.936	18805
273.997	25004
274.057	6839
274.117	6246
274.177	11401
274.237	56587
274.297	36311
274.358	23779
274.418	34262
274.478	21890
274.538	7477
274.598	7049
274.658	24519
274.718	26202
274.778	9703
274.838	5743
274.898	15716
274.958	38069
275.018	40330
275.078	20365
275.138	8755
275.198	5030
275.258	4291
275.318	5971
275.378	11113
275.438	10246
275.498	6419
275.558	20973
275.618	40585
275.678	26049
275.738	16115
275.798	13132
275.858	6744
275.918	3994
275.978	5611
276.038	4778
276.098	2776
276.157	10963
276.217	26264
276.277	10471
276.337	7143
276.397	4268
276.457	7034
276.517	3433
276.576	3634
276.636	3547
276.696	7273
276.756	16792
276.815	9916
276.875	4925
276.935	5033
276.995	5325
277.055	2540
277.114	3300
277.174	8081
277.234	22782
277.293	7363
277.353	4225
277.413	4048
277.472	4167
277.532	4186
277.592	5662
277.651	25596
277.711	36485
277.771	12611
277.830	50473
277.890	32386
277.950	31000
278.009	77524
278.069	23957
278.128	31631
278.188	36661
278.248	16923
278.307	45732
278.367	21011
278.426	7960
278.486	5606
278.545	4155
278.605	4509
278.664	4575
278.724	5430
278.783	20537
278.843	41067
278.902	9723
278.962	6909
279.021	6696
279.081	9367
279.140	7610
279.199	6527
279.259	6364
279.318	7589
279.378	9366
279.437	16843
279.496	58116
279.556	197048
279.615	127594
279.675	32942
279.734	19168
279.793	29006
279.853	30367
279.912	11555
279.971	8638
280.031	6275
280.090	12469
280.149	18654
280.208	28802
280.268	145582
280.327	113376
280.386	27148
280.445	22938
280.505	18987
280.564	10966
280.623	9027
280.682	15986
280.742	18913
280.801	5320
280.860	4818
280.919	4052
280.978	4032
281.037	4767
281.097	3222
281.156	4490
281.215	3937
281.274	6587
281.333	30882
281.392	18133
281.451	4190
281.510	3656
281.569	2823
281.628	3571
281.688	3080
281.747	3785
281.806	3957
281.865	3015
281.924	2521
281.983	2426
282.042	2017
282.101	1914
282.160	3030
282.219	1840
282.278	3218
282.337	14932
282.396	8258
282.454	4097
282.513	6184
282.572	22258
282.631	10636
282.690	3909
282.749	2809
282.808	4561
282.867	4838
282.926	3122
282.985	2034
283.043	1941
283.102	2332
283.161	3570
283.220	13876
283.279	25400
283.338	7094
283.396	3660
283.455	3978
283.514	4622
283.573	7676
283.631	4703
283.690	3738
283.749	3422
283.808	9530
283.866	9529
283.925	3719
283.984	3632
284.043	5801
284.101	5040
284.160	4421
284.219	7090
284.277	5603
284.336	9978
284.395	34052
284.453	22479
284.512	8871
284.570	11347
284.629	9036
284.688	9869
284.746	10514
284.805	11815
284.863	15524
284.922	18644
284.981	20936
285.039	31551
285.098	60555
285.156	157254
285.215	288071
285.273	264127
285.332	135978
285.390	69760
285.449	44193
285.507	31936
285.566	23337
285.624	17758
285.683	12668
285.741	9663
285.799	8743
285.858	7834
285.916	8075
285.975	5767
286.033	4883
286.091	4660
286.150	4185
286.208	5053
286.267	5799
286.325	5438
286.383	9197
286.442	6537
286.500	3134
286.558	4153
286.616	3294
286.675	6002
286.733	4736
286.791	4135
286.850	4865
286.908	7264
286.966	11910
287.024	4447
287.083	3509
287.141	2983
287.199	3696
287.257	5485
287.315	4169
287.374	6342
287.432	14504
287.490	7577
287.548	4929
287.606	3814
287.664	3952
287.723	6397
287.781	6970
287.839	5157
287.897	4891
287.955	6863
288.013	12905
288.071	32108
288.129	137977
288.187	305979
288.245	120913
288.303	39601
288.361	23107
288.419	17398
288.477	14291
288.535	9991
288.593	6758
288.651	5313
288.709	3917
288.767	3985
288.825	3045
288.883	3723
288.941	3423
288.999	3099
289.057	2262
289.115	2958
289.173	2956
289.231	2688
289.289	3092
289.346	3220
289.404	3686
289.462	6813
289.520	6859
289.578	3381
289.636	1456
289.694	1538
289.751	1262
289.809	2467
289.867	2464
289.925	4095
289.983	3342
290.040	1928
290.098	2112
290.156	2853
290.214	4216
290.271	2205
290.329	1083
290.387	1028
290.444	2223
290.502	573
290.560	1834
290.617	2527
290.675	2118
290.733	1836
290.790	2999
290.848	1934
290.906	2573
290.963	2650
291.021	2497
291.078	3356
291.136	4214
291.194	16994
291.251	29429
291.309	7283
291.366	3613
291.424	3168
291.481	2576
291.539	2394
291.596	2774
291.654	2017
291.711	728
291.769	2989
291.826	6426
291.884	3493
291.941	1829
291.999	2433
292.056	2680
292.114	2865
292.171	1415
292.228	2454
292.286	3915
292.343	7880
292.401	8634
292.458	5328
292.515	2963
292.573	3496
292.630	3893
292.687	3436
292.745	3487
292.802	6774
292.859	18092
292.917	29740
292.974	14354
293.031	4540
293.089	3367
293.146	2176
293.203	2330
293.260	2168
293.318	3519
293.375	7063
293.432	3912
293.489	1827
293.546	2534
293.604	5592
293.661	20856
293.718	47974
293.775	20759
293.832	9565
293.889	6829
293.947	4452
294.004	4381
294.061	5282
294.118	14968
294.175	31952
294.232	37270
294.289	12419
294.346	6767
294.403	5843
294.460	4384
294.517	3896
294.574	3875
294.631	3504
294.688	5280
294.745	16569
294.802	61087
294.859	57201
294.916	18551
294.973	8077
295.030	8231
295.087	6542
295.144	5147
295.201	4598
295.258	3818
295.315	6124
295.372	24096
295.429	38804
295.486	14514
295.542	10446
295.599	32239
295.656	44884
295.713	31289
295.770	37568
295.827	13282
295.883	7675
295.940	7590
295.997	11409
296.054	9087
296.111	5184
296.167	3778
296.224	2473
296.281	2466
296.338	3092
296.394	3810
296.451	5138
296.508	19126
296.564	30634
296.621	20860
296.678	45741
296.734	55116
296.791	19685
296.848	10939
296.904	12359
296.961	25723
297.018	44762
297.074	30088
297.131	10967
297.187	9186
297.244	14124
297.301	51800
297.357	73731
297.414	24093
297.470	9919
297.527	6292
297.583	5827
297.640	5469
297.696	4883
297.753	3798
297.809	4013
297.866	2468
297.922	3196
297.979	2194
298.035	3872
298.092	8660
298.148	27588
298.204	21400
298.261	11358
298.317	22817
298.374	52953
298.430	26386
298.486	12681
298.543	8085
298.599	8746
298.656	11315
298.712	19442
298.768	43341
298.824	27695
298.881	10876
298.937	4704
298.993	4907
299.050	6461
299.106	5723
299.162	5413
299.218	4683
299.275	4611
299.331	5494
299.387	13453
299.443	47400
299.500	39555
299.556	14131
299.612	7174
299.668	6996
299.724	6715
299.780	6260
299.837	6227
299.893	11664
299.949	39220
300.005	39483
300.061	38257
300.117	61306
300.173	26780
300.229	12784
300.285	15158
300.341	16563
300.397	8993
300.453	5578
300.510	5597
300.566	4971
300.622	6015
300.678	13449
300.734	29850
300.790	35904
300.845	43567
300.901	23633
300.957	34041
301.013	24910
301.069	9898
301.125	7549
301.181	8839
301.237	6694
301.293	4368
301.349	4058
301.405	3992
301.461	5843
301.516	6647
301.572	6979
301.628	10864
301.684	9996
301.740	17299
301.796	25884
301.851	16576
301.907	27608
301.963	27760
302.019	54681
302.074	133633
302.130	116215
302.186	50528
302.242	20553
302.297	13882
302.353	15102
302.409	29412
302.464	22698
302.520	20678
302.576	48721
302.631	49333
302.687	25717
302.743	11842
302.798	7357
302.854	5264
302.910	5851
302.965	8283
303.021	14248
303.076	11971
303.132	16611
303.187	17495
303.243	9871
303.299	5460
303.354	3815
303.410	4508
303.465	4010
303.521	3888
303.576	3928
303.632	6612
303.687	15778
303.743	42997
303.798	32973
303.853	13006
303.909	7995
303.964	6192
304.020	9908
304.075	14286
304.130	13915
304.186	23113
304.241	22552
304.297	17515
304.352	9056
304.358	8684
304.407	5658
304.449	5316
304.463	5207
304.518	5826
304.539	5605
304.573	5254
304.629	5953
304.630	6064
304.684	11354
304.720	25341
304.739	32446
304.794	44331
304.811	37493
304.850	20859
304.902	9809
304.905	9116
304.960	5833
304.992	6308
305.015	6704
305.071	7180
305.083	6914
305.126	5878
305.173	4347
305.181	4105
305.236	3145
305.264	4041
305.292	4960
305.347	5497
305.354	5543
305.402	5845
305.445	6476
305.457	6649
305.512	7719
305.535	7697
305.567	7686
305.622	9534
305.626	9924
305.678	18307
305.716	38164
305.733	45797
305.788	47901
305.807	41910
305.843	30706
305.897	41592
305.898	41723
305.953	38174
305.988	26318
306.008	19550
306.063	11444
306.078	10123
306.118	7328
306.168	5382
306.173	5229
306.228	4291
306.259	3749
306.283	3381
306.338	3884
306.349	4009
306.393	4526
306.440	5247
306.448	5400
306.503	6322
306.530	7378
306.558	9867
306.613	22843
306.620	24279
306.668	32867
306.711	41438
306.723	42464
306.778	30641
306.801	23506
306.833	14714
306.888	7807
306.892	7534
306.943	6015
306.982	5296
306.997	5154
307.052	5341
307.072	5473
307.107	6132
307.162	7791
307.163	7852
307.217	14587
307.253	17341
307.272	17959
307.327	19796
307.343	18212
307.381	13800
307.434	11290
307.436	11553
307.491	24425
307.524	36643
307.546	40831
307.600	37003
307.614	33173
307.655	19783
307.704	9784
307.710	9426
307.765	11581
307.795	15206
307.819	19764
307.874	35134
307.885	35109
307.929	25230
307.975	16264
307.984	15996
308.038	19787
308.065	25559
308.093	42358
308.148	92462
308.156	105609
308.202	186297
308.246	224652
308.257	217801
308.312	113047
308.336	77517
308.366	57609
308.421	34048
308.426	32460
308.475	21270
308.517	15312
308.530	14302
308.585	12357
308.607	11866
308.639	11932
308.694	13641
308.697	13905
308.748	26907
308.787	41157
308.803	42061
308.857	31569
308.877	27251
308.912	21313
308.967	16138
308.967	16106
309.021	20990
309.058	26573
309.076	32978
309.130	59492
309.148	71131
309.185	131439
309.238	244435
309.239	245603
309.293	296955
309.328	278521
309.348	235027
309.402	105095
309.418	73936
309.457	48808
309.508	28784
309.511	28178
309.566	25986
309.598	25934
309.620	30153
309.674	45553
309.688	49344
309.729	47558
309.778	38130
309.783	36994
309.837	24609
309.868	19005
309.892	21383
309.946	31181
309.959	34681
310.001	47824
310.049	58171
310.055	56437
310.109	34322
310.139	22380
310.163	17758
310.218	10967
310.229	9849
310.272	8205
310.319	6939
310.326	6731
310.381	5700
310.409	5277
310.435	5171
310.489	4758
310.499	4743
310.543	5324
310.589	5893
310.598	5919
310.652	6487
310.679	6492
310.706	5614
310.760	3768
310.769	3506
310.814	3240
310.859	3229
310.868	3195
310.923	2903
310.948	2829
310.977	3458
311.031	4734
311.038	4909
311.085	4717
311.128	4362
311.139	4378
311.193	4540
311.218	4645
311.247	4445
311.301	3997
311.308	3941
311.356	3923
311.398	4010
311.410	3885
311.464	3160
311.488	2856
311.518	2929
311.572	3073
311.578	3105
311.626	4078
311.668	4904
311.680	5178
311.734	6380
311.758	6899
311.788	6815
311.842	6698
311.847	6685
311.896	8481
311.937	10125
311.950	9902
312.004	8847
312.027	8357
312.058	7036
312.112	4744
312.117	4522
312.165	4363
312.207	4247
312.297	6478
312.386	5930
312.476	4449
312.566	8984
312.656	5201
312.745	3416
312.835	4007
312.925	4084
313.015	4245
313.104	5482
313.194	3836
313.284	4346
313.374	5515
313.463	4621
313.553	3268
313.643	3208
313.732	3066
313.822	2753
313.912	3389
314.001	4137
314.091	3928
314.180	7186
314.270	5992
314.360	6060
314.449	5428
314.539	3056
314.628	3821
314.718	4303
314.808	6173
314.897	3409
314.987	3261
315.076	4179
315.166	6484
315.255	6787
315.345	5665
315.434	6329
315.524	5268
315.613	5997
315.703	7367
315.792	6499
315.881	13145
315.971	6435
316.060	11225
316.150	21541
316.239	23907
316.328	9562
316.418	3540
316.507	3078
316.597	5139
316.686	5045
316.775	9671
316.865	26168
316.954	5542
317.043	2962
317.133	3859
317.222	3374
317.311	3398
317.400	2579
317.490	4853
317.579	4930
317.668	3618
317.757	5249
317.847	8936
317.936	22812
318.025	16194
318.114	8550
318.203	6658
318.293	10037
318.382	20371
318.471	16279
318.560	24775
318.649	55427
318.738	13633
318.828	7137
318.917	7087
319.006	9789
319.095	29321
319.184	66862
319.273	38178
319.362	15710
319.451	5743
319.540	5170
319.629	10621
319.718	19452
319.807	10848
319.896	22422
319.985	82825
320.074	33136
320.163	8228
320.252	14283
320.341	10127
320.430	8789
320.519	9604
320.608	6478
320.697	4780
320.786	4548
320.875	6442
320.964	7780
321.053	12590
321.142	16465
321.230	19285
321.319	14693
321.408	33883
321.497	16130
321.586	13289
321.675	21193
321.764	21572
321.852	12557
321.941	18491
322.030	13652
322.119	14218
322.207	35654
322.296	35471
322.385	15049
322.474	14817
322.562	39063
322.651	24645
322.740	14324
322.829	22282
322.917	30302
323.006	16696
323.095	10345
323.183	10369
323.272	15253
323.361	29286
323.449	101761
323.538	40520
323.626	65290
323.715	51210
323.804	16290
323.892	61254
323.981	37042
324.069	11087
324.158	33819
324.246	38901
324.335	7597
324.424	12141
324.512	4858
324.601	5830
324.689	6357
324.778	10871
324.866	20183
324.954	7178
325.043	5249
325.131	12305
325.220	26633
325.308	32079
325.397	19958
325.485	13785
325.574	3266
325.662	3341
325.750	3400
325.839	3850
325.927	1970
326.015	4955
326.104	9905
326.192	15893
326.280	3806
326.369	3770
326.457	4597
326.545	9463
326.634	5184
326.722	2111
326.810	3285
326.898	2413
326.987	3156
327.075	9462
327.163	11577
327.251	6908
327.340	2561
327.428	4056
327.516	2293
327.604	2653
327.692	4679
327.781	4688
327.869	10467
327.957	7415
328.045	4389
328.133	3735
328.221	4319
328.309	4807
328.397	2854
328.485	4273
328.574	5842
328.662	19542
328.750	15648
328.838	6513
328.926	3229
329.014	3189
329.102	4202
329.190	14044
329.278	10187
329.366	3047
329.454	2271
329.542	2832
329.630	2417
329.718	2993
329.806	3954
329.893	3782
329.981	3425
330.069	4316
330.157	18000
330.245	55718
330.333	30437
330.421	5500
330.509	6673
330.597	23672
330.684	18105
330.772	7687
330.860	10971
330.948	14435
331.036	6293
331.123	2329
331.211	2350
331.299	4353
331.387	10381
331.475	20683
331.562	7404
331.650	3328
331.738	4356
331.825	8225
331.913	2938
332.001	2340
332.089	5274
332.176	12121
332.264	32011
332.352	28934
332.439	6069
332.527	4345
332.614	3905
332.702	6672
332.790	3531
332.877	13144
332.965	32686
333.052	8694
333.140	6133
333.228	17484
333.315	5192
333.403	5345
333.490	18591
333.578	18595
333.665	17721
333.753	9275
333.840	3290
333.928	6440
334.015	19191
334.103	30565
334.190	95817
334.278	27440
334.365	7992
334.452	5456
334.540	3693
334.627	6385
334.715	9422
334.802	18973
334.889	112162
334.977	135919
335.064	13213
335.151	4738
335.239	5986
335.326	9110
335.413	42795
335.501	65521
335.588	7854
335.675	4774
335.762	6043
335.850	10941
335.937	7278
336.024	23121
336.111	119737
336.199	54539
336.286	6789
336.373	4099
336.460	2609
336.547	3661
336.635	4050
336.722	4682
336.809	3511
336.896	6969
336.983	23594
337.070	64892
337.157	99587
337.245	80857
337.332	67501
337.419	7991
337.506	3712
337.593	6031
337.680	19532
337.767	63395
337.854	17684
337.941	18710
338.028	27674
338.115	10731
338.202	8162
338.289	19940
338.376	80844
338.463	29586
338.550	33925
338.637	41389
338.724	12888
338.811	26549
338.898	5178
338.984	2815
339.071	4372
339.158	4897
339.245	12291
339.332	10056
339.419	14915
339.506	17326
339.593	2089
339.679	3537
339.766	2043
339.853	4048
339.940	8841
340.027	3975
340.113	3064
340.200	4722
340.287	4161
340.374	4812
340.460	8033
340.547	3571
340.634	6502
340.720	24510
340.807	16187
340.894	3199
340.980	2469
341.067	2743
341.154	3022
341.240	5404
341.327	12014
341.414	5269
341.500	6387
341.587	3724
341.674	2493
341.760	7145
341.847	8604
341.933	3700
342.020	1106
342.106	1747
342.193	2712
342.279	6250
342.366	4575
342.452	8786
342.539	4100
342.625	10535
342.712	26030
342.798	11743
342.885	4671
342.971	1290
343.058	1395
343.144	1931
343.230	2089
343.317	2797
343.403	1673
343.490	1382
343.576	1612
343.662	2412
343.749	2880
343.835	4429
343.921	9033
344.008	57839
344.094	151300
344.180	36442
344.267	10276
344.353	36574
344.439	44972
344.525	14772
344.612	8054
344.698	7167
344.784	3550
344.870	1296
344.957	2172
345.043	4712
345.129	3199
345.215	7916
345.301	4428
345.387	3033
345.474	1909
345.560	2071
345.646	4094
345.732	3151
345.818	3771
345.904	3473
345.990	2683
346.076	4183
346.162	10977
346.249	4414
346.335	1902
346.421	3934
346.507	14874
346.593	57879
346.679	14734
346.765	3940
346.851	2199
346.937	2724
347.023	1785
347.108	3630
347.194	2522
347.280	3126
347.366	2907
347.452	13681
347.538	68525
347.624	49870
347.710	40678
347.796	7989
347.882	2190
347.967	3298
348.053	4268
348.139	3685
348.225	2017
348.311	1969
348.397	2374
348.482	3757
348.568	3604
348.654	2238
348.740	2006
348.825	1212
348.911	5339
348.997	28151
349.083	68812
349.168	12465
349.254	4221
349.340	4281
349.425	2047
349.511	3993
349.597	4091
349.682	8566
349.768	33754
349.854	19054
349.939	3175
350.025	2559
350.110	1933
350.196	2333
350.282	931
350.367	1876
350.453	5373
350.538	7324
350.624	3551
350.709	4138
350.795	1939
350.880	2089
350.966	2876
351.051	6260
351.137	5074
351.222	3403
351.308	8954
351.393	29110
351.479	8338
351.564	3623
351.649	2363
351.735	2489
351.820	1705
351.906	2319
351.991	4225
352.076	17528
352.162	28446
352.247	4705
352.332	4100
352.418	7875
352.503	11389
352.588	38353
352.673	32987
352.759	7504
352.844	3128
352.929	3791
353.014	4713
353.100	3101
353.185	3308
353.270	7624
353.355	9909
353.441	2637
353.526	3747
353.611	8889
353.696	9624
353.781	5706
353.866	2362
353.952	3477
354.037	7567
354.122	19442
354.207	17088
354.292	7925
354.377	2142
354.462	2009
354.547	4198
354.632	2943
354.717	3529
354.802	2364
354.887	1823
354.972	3121
355.057	1123
355.142	2269
355.227	2548
355.312	5191
355.397	11367
355.482	30648
355.567	15437
355.652	9731
355.737	11917
355.822	39061
355.907	36399
355.991	5640
356.076	2071
356.161	2828
356.246	2154
356.331	3711
356.416	9761
356.501	70129
356.585	85532
356.670	11512
356.755	5616
356.840	7400
356.924	37613
357.009	173028
357.094	70791
357.179	11674
357.263	7104
357.348	7278
357.433	8210
357.517	6366
357.602	4727
357.687	3490
357.771	7598
357.856	32307
357.941	20274
358.025	32011
358.110	163256
358.195	85908
358.279	10527
358.364	6985
358.448	24105
358.533	71915
358.617	52267
358.702	51538
358.787	20889
358.871	9984
358.956	7533
359.040	2875
359.125	2204
359.209	3459
359.294	14338
359.378	25964
359.462	8749
359.547	4864
359.631	3714
359.716	3054
359.800	2706
359.885	5787
359.969	3859
360.053	2114
360.138	1334
360.222	5073
360.306	8317
360.391	7926
360.475	15248
360.559	35611
360.644	27162
360.728	20731
360.812	34353
360.896	118030
360.981	45374
361.065	21918
361.149	5137
361.233	4934
361.318	4092
361.402	4336
361.486	3708
361.570	2897
361.654	4374
361.739	12907
361.823	64975
361.907	123680
361.991	21457
362.075	7740
362.159	17647
362.243	12126
362.327	7641
362.411	8978
362.495	6408
362.580	4693
362.664	2340
362.748	1746
362.832	2403
362.916	2635
363.000	12575
363.084	61312
363.168	134242
363.252	31603
363.336	7752
363.420	13027
363.503	58724
363.587	80885
363.671	12340
363.755	6202
363.839	8714
363.923	4603
364.007	8655
364.091	12419
364.175	20677
364.258	97115
364.342	53896
364.426	22346
364.510	13152
364.594	10360
364.677	17924
364.761	96043
364.845	77683
364.929	17787
365.013	14537
365.096	10602
365.180	15020
365.264	23771
365.347	104663
365.431	49813
365.515	9785
365.598	3354
365.682	4419
365.766	8077
365.849	12045
365.933	5335
366.017	7390
366.100	6186
366.184	2613
366.267	3385
366.351	2363
366.435	1712
366.518	2016
366.602	1781
366.685	2191
366.769	3475
366.852	6806
366.936	12947
367.019	5909
367.103	5748
367.186	13307
367.270	3929
367.353	1356
367.436	2875
367.520	1764
367.603	3792
367.687	4883
367.770	9610
367.853	7475
367.937	24577
368.020	47016
368.104	11291
368.187	7347
368.270	11747
368.353	9607
368.437	17254
368.520	54055
368.603	30953
368.687	28143
368.770	59350
368.853	14102
368.936	12486
369.020	12890
369.103	3968
369.186	2850
369.269	3682
369.352	6423
369.436	10774
369.519	7066
369.602	3098
369.685	3615
369.768	4390
369.851	2834
369.934	1980
370.018	3990
370.101	9569
370.184	8270
370.267	6077
370.350	9284
370.433	16040
370.516	44993
370.599	60885
370.682	14543
370.765	26405
370.848	33582
370.931	74152
371.014	30246
371.097	4930
371.180	3629
371.263	2460
371.346	1490
371.429	2919
371.511	2213
371.594	6590
371.677	10544
371.760	13879
371.843	10196
371.926	48317
372.009	133476
372.091	42949
372.174	26649
372.257	75048
372.340	31088
372.423	17739
372.505	23185
372.588	9482
372.671	19065
372.754	68985
372.836	39519
372.919	26454
373.002	59965
373.085	17510
373.167	10190
373.250	27122
373.332	68593
373.415	83366
373.498	194085
373.580	70960
373.663	70612
373.746	119139
373.828	25667
373.911	10117
373.993	12542
374.076	53680
374.159	57333
374.241	19702
374.324	55271
374.406	40642
374.489	48876
374.571	161938
374.654	71193
374.736	27217
374.819	96988
374.901	134253
374.983	154554
375.066	27913
375.148	8965
375.231	43006
375.313	94781
375.395	32687
375.478	6796
375.560	4586
375.643	5463
375.725	25337
375.807	123817
375.890	113973
375.972	53112
376.054	22492
376.136	45027
376.219	21143
376.301	29892
376.383	110705
376.465	44213
376.548	19273
376.630	25712
376.712	86272
376.794	46373
376.877	5789
376.959	2420
377.041	4382
377.123	9298
377.205	13722
377.287	2420
377.369	1959
377.452	2128
377.534	2725
377.616	1981
377.698	3144
377.780	1041
377.862	2485
377.944	2974
378.026	1793
378.108	2176
378.190	1792
378.272	2212
378.354	1751
378.436	1329
378.518	5641
378.600	20640
378.682	17251
378.764	36424
378.846	32889
378.928	7637
379.010	10064
379.091	5304
379.173	2581
379.255	2244
379.337	4769
379.419	16850
379.501	57838
379.583	24842
379.664	4212
379.746	11684
379.828	35004
379.910	50707
379.991	47800
380.073	8631
380.155	4389
380.237	3553
380.318	2571
380.400	3131
380.482	7180
380.564	11731
380.645	8631
380.727	8616
380.809	6622
380.890	3345
380.972	2966
381.053	3074
381.135	4771
381.217	11183
381.298	39718
381.380	20765
381.461	16554
381.543	79332
381.624	116030
381.706	20957
381.787	9022
381.869	9851
381.951	32232
382.032	146843
382.113	100292
382.195	17714
382.276	10561
382.358	21560
382.439	76472
382.521	87086
382.602	148067
382.684	63992
382.765	100240
382.846	108226
382.928	145536
383.009	85615
383.090	46588
383.172	189924
383.253	348857
383.334	120286
383.416	122463
383.497	67517
383.578	22404
383.659	39077
383.741	156195
383.822	494305
383.903	278345
383.984	79834
384.066	141334
384.147	89970
384.228	18816
384.309	10791
384.390	9217
384.471	5998
384.553	7252
384.634	9891
384.715	10244
384.796	5143
384.877	7968
384.958	32852
385.039	44228
385.120	14414
385.201	6967
385.282	7966
385.363	9848
385.444	7358
385.525	13898
385.606	58979
385.687	58684
385.768	12377
385.849	13933
385.930	55791
386.011	117850
386.092	33421
386.173	6561
386.254	5326
386.335	5319
386.416	5376
386.496	20520
386.577	38679
386.658	15717
386.739	7988
386.820	9165
386.901	6612
386.981	5935
387.062	3686
387.143	8062
387.224	34579
387.304	35392
387.385	11217
387.466	6922
387.547	9785
387.627	5616
387.708	12353
387.789	65777
387.869	92686
387.950	25872
388.031	4030
388.111	3256
388.192	13235
388.273	21800
388.353	12566
388.434	5475
388.514	12512
388.595	67950
388.676	94797
388.756	39757
388.837	31979
388.917	21776
388.998	3618
389.078	3636
389.159	2295
389.239	2919
389.320	6699
389.400	5369
389.480	13879
389.561	43568
389.641	22280
389.722	6313
389.802	10069
389.883	16730
389.963	51759
390.043	38600
390.124	11412
390.204	12766
390.284	40156
390.365	29430
390.445	35092
390.525	102897
390.605	96301
390.686	25117
390.766	6591
390.846	3991
390.927	2285
391.007	3443
391.087	3591
391.167	3190
391.247	2258
391.328	9713
391.408	13165
391.488	9342
391.568	1855
391.648	3820
391.728	6586
391.808	7161
391.888	7116
391.969	19749
392.049	37252
392.129	16446
392.209	16498
392.289	48291
392.369	27351
392.449	22093
392.529	13672
392.609	8024
392.689	12074
392.769	45516
392.849	41648
392.929	24691
393.009	65593
393.089	48354
393.169	19021
393.248	59232
393.328	330142
393.408	433959
393.488	89692
393.568	17710
393.648	9946
393.728	5969
393.807	4821
393.887	5828
393.967	5259
394.047	7457
394.127	8581
394.206	14699
394.286	58547
394.366	305787
394.446	375839
394.525	78650
394.605	15852
394.685	13481
394.764	31399
394.844	57640
394.924	41338
395.003	11459
395.083	5972
395.163	6568
395.242	5642
395.322	4954
395.402	4011
395.481	7681
395.561	19923
395.640	62362
395.720	42956
395.799	70300
395.879	62993
395.958	25298
396.038	85834
396.117	400968
396.197	495106
396.276	130419
396.356	35819
396.435	25932
396.515	14595
396.594	12762
396.673	20427
396.753	75720
396.832	336462
396.912	285122
396.991	60093
397.070	13770
397.150	6845
397.229	5637
397.308	4755
397.388	7449
397.467	4741
397.546	2273
397.625	1741
397.705	5828
397.784	5298
397.863	2705
397.942	1564
398.022	4113
398.101	17637
398.180	65270
398.259	34672
398.338	7903
398.417	3911
398.497	3355
398.576	3404
398.655	1777
398.734	1527
398.813	2698
398.892	18241
398.971	71958
399.050	38359
399.129	3602
399.208	1648
399.287	2266
399.366	670
399.445	2219
399.524	1259
399.603	1442
399.682	3864
399.761	17133
399.840	73006
399.919	64098
399.998	7455
400.077	894
400.156	655
400.235	3629
400.313	1957
400.392	2638
400.471	16442
400.550	30858
400.629	7836
400.708	4019
400.786	3973
400.865	12613
400.944	14552
401.023	6391
401.102	634
401.180	1123
401.259	1205
401.338	1942
401.416	3633
401.495	2700
401.574	3010
401.652	2102
401.731	3542
401.810	2160
401.888	353
401.967	-18
402.046	419
402.124	2975
402.203	4265
402.281	1987
402.360	2480
402.438	15555
402.517	11869
402.596	3461
402.674	2691
402.753	1496
402.831	983
402.910	2103
402.988	3880
403.066	11534
403.145	6718
403.223	4249
403.302	6482
403.380	6167
403.459	4138
403.537	2758
403.615	1251
403.694	-232
403.772	543
403.850	1052
403.929	733
404.007	782
404.085	2475
404.164	1530
404.242	1216
404.320	8779
404.398	28702
404.477	34649
404.555	106390
404.633	110816
404.711	30190
404.789	11085
404.868	1799
404.946	883
405.024	904
405.102	521
405.180	403
405.258	98
405.336	920
405.415	514
405.493	4029
405.571	3447
405.649	5
405.727	287
405.805	3217
405.883	2339
405.961	2666
406.039	4098
406.117	1338
406.195	3723
406.273	19503
406.351	89140
406.429	60315
406.507	9277
406.585	2961
406.663	1709
406.740	2291
406.818	2212
406.896	1272
406.974	2210
407.052	5121
407.130	45887
407.208	75481
407.285	14951
407.363	1619
407.441	1882
407.519	876
407.596	1664
407.674	6233
407.752	22973
407.830	27001
407.907	10259
407.985	1221
408.063	1302
408.141	30
408.218	3688
408.296	2053
408.373	1016
408.451	1882
408.529	1381
408.606	771
408.684	-71
408.762	-197
408.839	409
408.917	-633
408.994	412
409.072	-440
409.149	519
409.227	775
409.304	2101
409.382	-45
409.459	361
409.537	957
409.614	2384
409.692	98
409.769	725
409.846	1937
409.924	3231
410.001	1211
410.079	1940
410.156	1368
410.233	566
410.311	699
410.388	419
410.465	2060
410.543	1008
410.620	454
410.697	1501
410.775	1053
410.852	488
410.929	789
411.006	3211
411.083	1574
411.161	5148
411.238	6574
411.315	3757
411.392	-209
411.469	2046
411.547	2803
411.624	519
411.701	202
411.778	1033
411.855	4915
411.932	2109
412.009	-9
412.086	1741
412.163	1552
412.240	1823
412.317	3347
412.394	2355
412.471	1205
412.548	-188
412.625	494
412.702	1540
412.779	4666
412.856	3557
412.933	-599
413.010	1077
413.087	1611
413.164	15012
413.241	25358
413.318	5044
413.395	2882
413.471	3998
413.548	2472
413.625	1575
413.702	1458
413.779	2156
413.855	341
413.932	24
414.009	-344
414.086	643
414.162	592
414.239	1749
414.316	13585
414.393	39141
414.469	14324
414.546	737
414.623	495
414.699	653
414.776	1612
414.853	1355
414.929	1029
415.006	1053
415.082	1600
415.159	1358
415.236	714
415.312	1333
415.389	2238
415.465	4234
415.542	2166
415.618	974
415.695	2780
415.771	1598
415.848	1390
415.924	1985
416.000	520
416.077	925
416.153	-889
416.230	-272
416.306	-400
416.383	563
416.459	243
416.535	-282
416.612	136
416.688	343
416.764	-51
416.841	995
416.917	-531
416.993	527
417.069	1440
417.146	1918
417.222	3527
417.298	1678
417.374	364
417.451	1492
417.527	1556
417.603	2207
417.679	822
417.755	1123
417.831	-112
417.908	296
417.984	-145
418.060	140
418.136	3233
418.212	5630
418.288	1465
418.364	880
418.440	63
418.516	1787
418.592	3488
418.668	7808
418.744	9441
418.820	7985
418.896	1766
418.972	-192
419.048	316
419.124	3489
419.200	2874
419.276	569
419.352	-936
419.428	527
419.504	325
419.579	1674
419.655	94
419.731	842
419.807	5461
419.883	12237
419.959	9443
420.034	2579
420.110	4097
420.186	22448
420.262	19308
420.337	2777
420.413	1284
420.489	993
420.565	882
420.640	549
420.716	305
420.792	-83
420.867	886
420.943	-145
421.019	1971
421.094	1229
421.170	398
421.245	-312
421.321	139
421.397	-53
421.472	2275
421.548	10787
421.623	9107
421.699	1826
421.774	1220
421.850	99
421.925	2529
422.001	2526
422.076	1086
422.152	1223
422.227	3817
422.302	4137
422.378	4492
422.453	7849
422.529	22045
422.604	100768
422.679	248670
422.755	137701
422.830	28653
422.905	8503
422.981	3772
423.056	2409
423.131	1905
423.207	1286
423.282	1242
423.357	6265
423.432	3399
423.508	3386
423.583	8611
423.658	8586
423.733	1693
423.808	2566
423.883	3069
423.959	2125
424.034	379
424.109	1186
424.184	-512
424.259	584
424.334	-105
424.409	-498
424.484	-193
424.559	725
424.634	-183
424.709	1156
424.784	3006
424.859	1392
424.934	2453
425.009	13526
425.084	27995
425.159	11210
425.234	1356
425.309	677
425.384	6757
425.459	14729
425.534	3865
425.609	630
425.683	103
425.758	627
425.833	389
425.908	1473
425.983	7325
426.058	27042
426.132	12539
426.207	2476
426.282	4753
426.357	3659
426.431	581
426.506	1223
426.581	1297
426.655	558
426.730	737
426.805	269
426.879	966
426.954	1634
427.029	3487
427.103	24533
427.178	76190
427.253	39605
427.327	4096
427.402	4780
427.476	16301
427.551	9256
427.625	1518
427.700	1989
427.774	-2
427.849	1943
427.923	191
427.998	550
428.072	463
428.147	3442
428.221	10796
428.296	30361
428.370	16642
428.444	2810
428.519	4918
428.593	12859
428.667	11322
428.742	12283
428.816	10758
428.890	24274
428.965	39751
429.039	19180
429.113	15368
429.188	6344
429.262	402
429.336	3274
429.410	11138
429.485	8749
429.559	10192
429.633	8608
429.707	1414
429.781	5361
429.855	29282
429.930	46980
430.004	34880
430.078	63902
430.152	51703
430.226	47027
430.300	52758
430.374	8283
430.448	3495
430.522	16270
430.596	62914
430.670	38426
430.744	47336
430.818	94257
430.892	25110
430.966	2464
431.040	968
431.114	975
431.188	-308
431.262	1158
431.336	527
431.410	4781
431.484	15232
431.557	11148
431.631	29
431.705	696
431.779	2863
431.853	22213
431.927	18912
432.000	2702
432.074	130
432.148	2560
432.222	1199
432.295	921
432.369	-20
432.443	2829
432.516	24732
432.590	79780
432.664	36587
432.737	2963
432.811	2
432.885	-98
432.958	-116
433.032	-559
433.106	-1058
433.179	-401
433.253	-332
433.326	-298
433.400	-1057
433.473	524
433.547	-884
433.620	-11
433.694	1645
433.767	2614
433.841	225
433.914	-273
433.988	-2
434.061	-54
434.134	-699
434.208	-216
434.281	-1362
434.355	-499
434.428	-264
434.501	-93
434.575	-869
434.648	573
434.721	-88
434.795	-657
434.868	-977
434.941	-588
435.014	-842
435.088	-634
435.161	1266
435.234	2470
435.307	3279
435.381	556
435.454	-414
435.527	696
435.600	-358
435.673	-537
435.746	-826
435.819	-1004
435.892	-372
435.966	-824
436.039	-848
436.112	635
436.185	-996
436.258	-199
436.331	-1313
436.404	-664
436.477	-1018
436.550	-338
436.623	-1109
436.696	-1217
436.769	-140
436.842	538
436.915	-943
436.987	1034
437.060	-182
437.133	-675
437.206	-942
437.279	207
437.352	-864
437.425	-736
437.498	-65
437.570	2030
437.643	2120
437.716	305
437.789	-942
437.861	1295
437.934	8226
438.007	4350
438.080	-153
438.152	271
438.225	2843
438.298	32391
438.370	121904
438.443	61623
438.516	10160
438.588	2178
438.661	-580
438.734	92
438.806	-356
438.879	967
438.951	1777
439.024	3932
439.096	524
439.169	-348
439.241	-354
439.314	-154
439.386	1366
439.459	3577
439.531	6373
439.604	2428
439.676	-576
439.749	-839
439.821	-461
439.893	76
439.966	-605
440.038	-6
440.110	635
440.183	-258
440.255	-1139
440.327	892
440.400	11232
440.472	63875
440.544	55439
440.617	7444
440.689	3131
440.761	3495
440.833	6650
440.905	4602
440.978	258
441.050	-425
441.122	33
441.194	-308
441.266	-305
441.338	-96
441.411	1013
441.483	15256
441.555	28610
441.627	8403
441.699	2371
441.771	3115
441.843	951
441.915	-427
441.987	-652
442.059	-408
442.131	301
442.203	1762
442.275	2570
442.347	2354
442.419	10
442.491	5555
442.563	21083
442.635	14811
442.706	14197
442.778	14162
442.850	810
442.922	-347
442.994	39
443.066	2657
443.137	1518
443.209	-64
443.281	305
443.353	2839
443.425	11250
443.496	40642
443.568	45001
443.640	17669
443.711	3534
443.783	1166
443.855	458
443.926	-107
443.998	318
444.070	2177
444.141	1087
444.213	1961
444.285	2780
444.356	3235
444.428	3191
444.499	930
444.571	-441
444.642	271
444.714	-817
444.785	2423
444.857	2606
444.928	10977
445.000	7524
445.071	6047
445.143	7812
445.214	3119
445.285	4424
445.357	16639
445.428	33111
445.500	83715
445.571	64360
445.642	26173
445.714	13532
445.785	19671
445.856	6439
445.928	2950
445.999	1952
446.070	1910
446.141	1734
446.213	2486
446.284	33
446.355	2330
446.426	987
446.497	868
446.569	2217
446.640	4863
446.711	3255
446.782	1193
446.853	2383
446.924	3815
446.995	660
447.066	1181
447.138	3081
447.209	2778
447.280	-905
447.351	-183
447.422	-970
447.493	968
447.564	1859
447.635	2059
447.706	1096
447.777	-982
447.847	-679
447.918	-450
447.989	785
448.060	2489
448.131	6663
448.202	6900
448.273	3923
448.344	1088
448.414	-712
448.485	334
448.556	213
448.627	-1122
448.698	-826
448.768	-632
448.839	-174
448.910	2816
448.981	2760
449.051	207
449.122	-674
449.193	-483
449.263	-874
449.334	-637
449.405	168
449.475	3440
449.546	2851
449.616	3968
449.687	4341
449.758	1063
449.828	-620
449.899	-703
449.969	-550
450.040	-241
450.110	503
450.181	2248
450.251	296
450.322	845
450.392	212
450.463	744
450.533	-1030
450.604	-61
450.674	-698
450.744	-333
450.815	-1165
450.885	-213
450.955	-947
451.026	-414
451.096	-728
451.166	250
451.237	2757
451.307	12284
451.377	7050
451.447	450
451.518	-467
451.588	-47
451.658	556
451.728	1228
451.799	10645
451.869	17956
451.939	5258
452.009	54
452.079	-587
452.149	561
452.219	1016
452.289	13359
452.360	14042
452.430	2679
452.500	248
452.570	1359
452.640	2283
452.710	7215
452.780	14503
452.850	10846
452.920	8544
452.990	3599
453.060	479
453.129	1495
453.199	3304
453.269	13199
453.339	45871
453.409	78596
453.479	60180
453.549	92987
453.619	104229
453.688	53331
453.758	8510
453.828	1844
453.898	1051
453.968	1099
454.037	483
454.087	842
454.107	967
454.168	237
454.177	107
454.247	222
454.249	219
454.316	-392
454.330	-89
454.386	1024
454.411	2995
454.456	5695
454.492	9336
454.525	12491
454.574	7269
454.595	5060
454.655	900
454.665	249
454.734	1844
454.736	1958
454.804	4176
454.817	6111
454.873	12324
454.898	15363
454.943	20152
454.979	14470
455.013	9725
455.060	5332
455.082	3759
455.141	3482
455.152	3355
455.221	11755
455.222	12060
455.291	23644
455.303	23917
455.360	24153
455.384	31266
455.430	40907
455.465	35980
455.499	31626
455.546	21168
455.569	15909
455.627	12049
455.638	11536
455.707	2687
455.708	2702
455.777	1366
455.789	1323
455.846	1072
455.869	1049
455.916	1004
455.950	1056
455.985	1014
456.031	1084
456.054	1078
456.112	500
456.124	405
456.193	931
456.193	906
456.262	1357
456.274	1696
456.332	3044
456.355	3359
456.401	3399
456.436	2885
456.470	2335
456.516	739
456.540	167
456.597	1061
456.609	1154
456.678	220
456.678	201
456.747	1158
456.759	1067
456.817	468
456.840	608
456.886	929
456.920	1029
456.955	1068
457.001	1026
457.024	1253
457.082	2148
457.093	2269
457.162	4277
457.163	4316
457.232	5953
457.243	5715
457.301	3585
457.324	2356
457.370	855
457.405	1184
457.439	1529
457.485	1002
457.508	794
457.566	1942
457.577	2153
457.646	2072
457.647	2102
457.715	3748
457.727	3890
457.784	5059
457.808	5843
457.853	6574
457.889	7717
457.922	7479
457.969	5849
457.991	6254
458.050	7712
458.060	7952
458.129	11148
458.130	11277
458.198	9889
458.211	9232
458.267	6274
458.292	4389
458.336	3079
458.372	3161
458.405	4257
458.453	5882
458.474	7339
458.533	12059
458.543	12471
458.611	18288
458.614	18517
458.680	11746
458.694	9360
458.749	5376
458.775	4304
458.818	3362
458.855	2792
458.887	2354
458.936	2094
458.955	2215
459.016	2364
459.024	2318
459.093	3709
459.097	3666
459.162	3007
459.177	3214
459.230	3900
459.257	4159
459.299	4477
459.338	4906
459.368	5097
459.418	5125
459.437	4807
459.499	3878
459.505	3813
459.574	3092
459.579	3061
459.643	2891
459.659	2811
459.711	2974
459.740	3433
459.780	3927
459.820	3765
459.849	3796
459.900	4535
459.917	4609
459.981	4979
459.986	4957
460.054	4276
460.061	4227
460.123	4507
460.141	4675
460.191	5775
460.222	6306
460.260	6687
460.302	7648
460.328	7294
460.382	6238
460.397	6255
460.462	5731
460.465	5826
460.534	8511
460.543	8884
460.602	26788
460.623	33400
460.671	55611
460.703	73660
460.739	65145
460.783	52584
460.808	42471
460.864	9712
460.876	8250
460.944	4764
460.945	4718
461.013	4584
461.024	4541
461.081	4767
461.104	5005
461.150	5069
461.184	4861
461.218	4452
461.264	3846
461.286	3902
461.345	3946
461.355	3909
461.423	4834
461.425	4828
461.491	4772
461.505	5003
461.559	10278
461.585	12352
461.628	20840
461.665	29222
461.696	32570
461.745	40456
461.764	35046
461.825	13149
461.832	12981
461.901	6728
461.905	6628
461.969	5562
461.985	5291
462.037	5009
462.065	4936
462.105	5579
462.145	6258
462.173	9359
462.225	15377
462.241	17338
462.305	25981
462.310	25238
462.378	14105
462.385	12471
462.446	7375
462.465	5905
462.514	5428
462.545	5750
462.582	5656
462.625	5374
462.650	5234
462.705	5144
462.718	5350
462.785	6129
462.786	6177
462.854	9105
462.865	9641
462.922	13264
462.945	14728
462.990	10712
463.025	7141
463.058	6379
463.104	5015
463.126	4823
463.184	5031
463.194	5126
463.262	5081
463.264	5105
463.330	5422
463.344	5435
463.398	6120
463.424	6403
463.466	6414
463.504	6460
463.533	6630
463.583	6930
463.601	7133
463.663	7367
463.669	7563
463.737	10525
463.743	10762
463.805	17091
463.823	18982
463.873	29127
463.903	35276
463.940	38297
463.982	42646
464.008	34406
464.062	15087
464.076	14065
464.142	7411
464.144	7357
464.211	6370
464.221	6319
464.279	6441
464.301	6513
464.347	7581
464.381	8396
464.414	9316
464.461	10555
464.482	11235
464.540	13367
464.550	13119
464.617	10757
464.620	10656
464.685	10400
464.699	10351
464.753	12022
464.779	12928
464.820	13932
464.859	14716
464.888	14778
464.938	14782
464.956	14870
465.018	15235
465.023	15039
465.091	12207
465.098	11852
465.158	11484
465.177	11467
465.226	11779
465.257	11837
465.293	12047
465.336	12392
465.361	13129
465.416	14568
465.428	15625
465.495	21525
465.496	21653
465.563	35841
465.575	38320
465.631	48785
465.654	53440
465.698	33591
465.734	16396
465.765	14524
465.813	11141
465.833	10839
465.893	10759
465.900	10745
465.968	10403
465.972	10369
466.035	10812
466.052	10869
466.102	11196
466.131	11366
466.170	11805
466.210	12310
466.237	12552
466.290	12807
466.304	12943
466.369	13488
466.372	13538
466.439	14225
466.449	14289
466.506	16033
466.528	16660
466.573	21977
466.607	25896
466.641	38386
466.687	55704
466.708	62564
466.766	81347
466.775	75454
466.842	30101
466.845	27878
466.909	19867
466.925	17975
466.977	17290
467.004	16967
467.044	17239
467.083	17463
467.111	18996
467.163	21758
467.178	22119
467.242	23410
467.245	23352
467.312	21129
467.321	20791
467.379	19873
467.400	19477
467.446	20478
467.480	21130
467.559	20937
467.638	16742
467.717	17584
467.796	19375
467.875	20431
467.955	19907
468.034	27363
468.113	63805
468.192	98296
468.271	28172
468.350	15453
468.429	16313
468.508	16727
468.588	15175
468.667	14571
468.746	14571
468.825	14422
468.904	14055
468.983	17122
469.062	25592
469.141	32517
469.220	16066
469.299	13466
469.378	15630
469.456	20060
469.535	17942
469.614	16319
469.693	17679
469.772	22310
469.851	31660
469.930	23387
470.009	15101
470.088	15544
470.166	18069
470.245	24665
470.324	31162
470.403	22278
470.482	16818
470.560	15883
470.639	15184
470.718	17257
470.797	15034
470.875	16044
470.954	22490
471.033	26478
471.111	13097
471.190	13384
471.269	11572
471.347	12245
471.426	13525
471.505	15280
471.583	16475
471.662	15768
471.740	14567
471.819	14398
471.898	12532
471.976	13044
472.055	13898
472.133	15501
472.212	19967
472.290	20587
472.369	14248
472.447	12231
472.526	11049
472.604	13084
472.683	13337
472.761	13294
472.839	12879
472.918	13422
472.996	12654
473.075	15518
473.153	14157
473.231	11570
473.310	15634
473.388	14225
473.466	14145
473.545	15221
473.623	18792
473.701	19993
473.780	13332
473.858	11103
473.936	12969
474.014	12845
474.093	14677
474.171	21176
474.249	30580
474.327	21082
474.405	11436
474.484	10823
474.562	12133
474.640	11621
474.718	13014
474.796	13509
474.874	12931
474.952	10746
475.030	10704
475.108	11800
475.187	13317
475.265	12695
475.343	12381
475.421	13906
475.499	12827
475.577	14179
475.655	17396
475.733	33655
475.811	60282
475.889	56389
475.966	39767
476.044	11411
476.122	11470
476.200	13441
476.278	12299
476.356	11837
476.434	12571
476.512	12854
476.590	14082
476.667	13558
476.745	11539
476.823	11695
476.901	12693
476.979	12411
477.056	11919
477.134	12035
477.212	12312
477.290	11936
477.367	10776
477.445	11466
477.523	10771
477.601	11057
477.678	10852
477.756	13637
477.834	16601
477.911	11148
477.989	11608
478.066	10249
478.144	12844
478.222	11679
478.299	11501
478.377	12355
478.454	9541
478.532	10319
478.609	10397
478.687	11962
478.764	10368
478.842	11374
478.919	12743
478.997	11039
479.074	9287
479.152	12304
479.229	17097
479.307	12249
479.384	8666
479.461	8582
479.539	10434
479.616	12224
479.694	10517
479.771	12170
479.848	12866
479.926	16611
480.003	20226
480.080	10747
480.157	9346
480.235	8848
480.312	10174
480.389	11433
480.467	19597
480.544	25627
480.621	13297
480.698	11939
480.775	14089
480.853	13711
480.930	11028
481.007	10912
481.084	12454
481.161	15701
481.238	14175
481.315	9822
481.392	8815
481.470	9768
481.547	8696
481.624	9194
481.701	9284
481.778	10399
481.855	11481
481.932	16966
482.009	31153
482.086	24527
482.163	8963
482.240	9655
482.317	10914
482.393	10536
482.470	10240
482.547	10470
482.624	9471
482.701	10925
482.778	10271
482.855	8479
482.932	9115
483.009	7868
483.085	10134
483.162	12169
483.239	13094
483.316	9485
483.393	9388
483.469	8175
483.546	11137
483.623	11912
483.699	9206
483.776	9942
483.853	12809
483.930	16506
484.006	46929
484.083	90247
484.160	46521
484.236	59036
484.313	46995
484.389	34357
484.466	30373
484.543	28326
484.619	29278
484.696	29957
484.772	31495
484.849	33918
484.925	28474
485.002	26581
485.078	29369
485.155	30145
485.231	25556
485.308	25806
485.384	27507
485.461	31905
485.537	53703
485.614	69080
485.690	30065
485.766	25226
485.843	25687
485.919	33667
485.995	38170
486.072	24870
486.148	23489
486.224	23483
486.301	24437
486.377	27302
486.453	30049
486.530	26866
486.606	35435
486.682	39790
486.758	46991
486.835	58389
486.911	41729
486.987	68657
487.063	71192
487.139	79665
487.215	59367
487.292	30827
487.368	26402
487.444	28815
487.520	33827
487.596	32070
487.672	34866
487.748	61769
487.824	90894
487.900	40389
487.976	26323
488.052	27603
488.128	35628
488.204	30625
488.280	25235
488.356	28649
488.432	57509
488.508	99448
488.584	37931
488.660	22890
488.736	23635
488.812	22482
488.888	29132
488.964	36617
489.039	69113
489.115	112426
489.191	73836
489.267	25270
489.343	22803
489.418	20474
489.494	19682
489.570	18025
489.646	20204
489.722	19709
489.797	20125
489.873	29498
489.949	68772
490.024	66181
490.100	19890
490.176	19225
490.251	22384
490.327	29469
490.403	19567
490.478	18155
490.554	14380
490.629	15986
490.705	15691
490.781	16764
490.856	17085
490.932	20525
491.007	19885
491.083	19910
491.158	19058
491.234	23532
491.309	51356
491.385	60335
491.460	19874
491.536	19198
491.611	17481
491.686	18626
491.762	24062
491.837	44205
491.913	79413
491.988	104629
492.063	142242
492.139	46403
492.214	29383
492.289	15161
492.365	13184
492.440	17306
492.515	17157
492.590	17714
492.666	13637
492.741	19383
492.816	32649
492.891	17853
492.967	14432
493.042	13215
493.117	15100
493.192	16492
493.267	26204
493.342	91140
493.418	147758
493.493	30378
493.568	13107
493.643	12789
493.718	16151
493.793	24398
493.868	29488
493.943	16957
494.018	13293
494.093	12313
494.168	12832
494.243	11450
494.318	11343
494.393	9834
494.468	10473
494.543	9804
494.618	12849
494.693	11586
494.768	11975
494.842	12248
494.917	10307
494.992	11816
495.067	10360
495.142	10340
495.217	12111
495.292	12131
495.366	14647
495.441	17051
495.516	21931
495.591	28508
495.665	85463
495.740	232297
495.815	107683
495.890	20587
495.964	14724
496.039	16634
496.114	14339
496.188	18059
496.263	17341
496.338	15249
496.412	16533
496.487	19933
496.561	19561
496.636	21561
496.710	17318
496.785	18399
496.860	22111
496.934	16895
497.009	17317
497.083	16580
497.158	17856
497.232	20065
497.307	25494
497.381	19904
497.455	24545
497.530	34502
497.604	25035
497.679	24425
497.753	39518
497.827	54739
497.902	52011
497.976	57284
498.050	116110
498.125	470046
498.199	583670
498.273	89380
498.348	54945
498.422	43868
498.496	37416
498.570	35431
498.645	26764
498.719	26665
498.793	32731
498.867	47998
498.941	67986
499.016	170548
499.090	553494
499.164	235746
499.238	23349
499.312	17718
499.386	22520
499.460	21208
499.534	20110
499.609	24590
499.683	39133
499.757	39105
499.831	73298
499.905	327506
499.979	381391
500.053	54134
500.127	45504
500.201	30898
500.275	20316
500.349	19503
500.422	22588
500.496	31548
500.570	63825
500.644	165095
500.718	380024
500.792	101244
500.866	20621
500.940	25498
501.013	22376
501.087	20131
501.161	34572
501.235	46870
501.309	96363
501.382	294163
501.456	309786
501.530	58075
501.603	99716
501.677	44744
501.751	15516
501.825	19739
501.898	34568
501.972	116323
502.046	88478
502.119	22046
502.193	45124
502.266	131179
502.340	73146
502.413	49887
502.487	112818
502.561	69834
502.634	21750
502.708	15816
502.781	12946
502.855	11174
502.928	9836
503.002	9927
503.075	9614
503.149	10986
503.222	11837
503.295	13970
503.369	17057
503.442	24491
503.516	73804
503.589	224647
503.662	163661
503.736	43322
503.809	96079
503.882	90195
503.956	109640
504.029	120251
504.102	44541
504.175	49686
504.249	19623
504.322	15210
504.395	16218
504.468	11338
504.542	11914
504.615	8487
504.688	8934
504.761	8786
504.834	11648
504.907	13706
504.980	23355
505.053	12934
505.127	14936
505.200	18228
505.273	18364
505.346	12010
505.419	9096
505.492	8178
505.565	6846
505.638	6562
505.711	6880
505.784	6906
505.857	7080
505.930	8767
506.003	7278
506.076	9301
506.149	13024
506.221	18099
506.294	16598
506.367	38282
506.440	156307
506.513	102182
506.586	18475
506.659	11542
506.731	9468
506.804	10221
506.877	16768
506.950	13216
507.022	8728
507.095	10702
507.168	15342
507.241	9442
507.313	7442
507.386	8194
507.459	12488
507.531	9195
507.604	7290
507.677	7625
507.749	5917
507.822	9887
507.894	19769
507.967	26304
508.040	14438
508.112	13092
508.185	12861
508.257	11829
508.330	16430
508.402	12484
508.475	12822
508.547	12322
508.620	11963
508.692	20258
508.765	15056
508.837	9520
508.909	10034
508.982	9202
509.054	11112
509.127	10231
509.199	8994
509.271	8491
509.344	7756
509.416	8793
509.488	9050
509.560	10113
509.633	10423
509.705	12237
509.777	11893
509.849	16151
509.922	12302
509.994	10505
510.066	10839
510.138	11280
510.210	22003
510.283	21562
510.355	17184
510.427	14573
510.499	12920
510.571	12820
510.643	13032
510.715	19195
510.787	18550
510.859	13481
510.931	15975
511.003	19003
511.076	18669
511.148	12599
511.219	14338
511.291	21133
511.363	27324
511.435	12992
511.507	11313
511.579	11152
511.651	10792
511.723	11040
511.795	10662
511.867	11247
511.939	12816
512.010	29224
512.082	27092
512.154	11588
512.226	12581
512.298	16213
512.369	25760
512.441	19763
512.513	19672
512.585	15111
512.656	15102
512.728	16774
512.800	13577
512.871	11932
512.943	13695
513.015	11626
513.086	12340
513.158	12772
513.230	13668
513.301	19279
513.373	22662
513.444	14271
513.516	10672
513.588	11024
513.659	12709
513.731	16146
513.802	13963
513.874	24499
513.945	47528
514.016	20040
514.088	11439
514.159	13171
514.231	15973
514.302	24062
514.374	18134
514.445	16170
514.516	33737
514.588	27923
514.659	16758
514.730	30579
514.802	25540
514.873	17319
514.944	18086
515.016	14041
515.087	16465
515.158	21012
515.229	33016
515.301	19090
515.372	23207
515.443	15762
515.514	12554
515.585	10571
515.656	11714
515.728	11391
515.799	10915
515.870	11493
515.941	12233
516.012	12859
516.083	17003
516.154	18861
516.225	23466
516.296	22290
516.367	21297
516.438	22479
516.509	29027
516.580	41185
516.651	103060
516.722	419128
516.793	229011
516.864	42015
516.935	39961
517.006	45198
517.077	61200
517.148	124762
517.219	435682
517.289	865625
517.360	251538
517.431	88683
517.502	22174
517.573	20542
517.643	19716
517.714	21004
517.785	22015
517.856	23323
517.926	29112
517.997	34759
518.068	45769
518.138	61396
518.209	88809
518.280	281053
518.350	1200742
518.421	575501
518.492	56871
518.562	29347
518.633	25931
518.703	21367
518.774	28164
518.845	49637
518.915	53978
518.986	26413
519.056	25569
519.127	43158
519.197	64335
519.268	162160
519.338	135225
519.408	28483
519.479	28110
519.549	21110
519.620	15378
519.690	12368
519.760	12698
519.831	12592
519.901	13066
519.971	11528
520.042	12980
520.112	16089
520.182	17270
520.253	19448
520.323	14701
520.393	20866
520.463	37489
520.534	23393
520.604	54906
520.674	26248
520.744	22560
520.814	55663
520.885	56337
520.955	47260
521.025	201334
521.095	103793
521.165	16155
521.235	13094
521.305	11294
521.375	11290
521.445	12364
521.515	14608
521.585	18424
521.655	16913
521.725	13846
521.795	13968
521.865	9960
521.935	17382
522.005	17943
522.075	10890
522.145	12202
522.215	13253
522.285	20257
522.355	25763
522.424	50647
522.494	49416
522.564	22475
522.634	32278
522.704	101757
522.774	48768
522.843	13747
522.913	11675
522.983	14678
523.053	12356
523.122	11656
523.192	15157
523.262	49952
523.331	59984
523.401	12695
523.471	8742
523.540	10093
523.610	7158
523.680	8048
523.749	8204
523.819	11053
523.888	13253
523.958	9128
524.027	8321
524.097	10148
524.166	8217
524.236	9241
524.305	10923
524.375	8165
524.444	8272
524.514	9642
524.583	8613
524.653	13473
524.722	15187
524.791	9594
524.861	9046
524.930	8100
524.999	9482
525.069	13251
525.138	11233
525.207	14556
525.277	10097
525.346	9161
525.415	9109
525.484	9456
525.554	11864
525.623	11435
525.692	9583
525.761	9562
525.830	9399
525.900	10220
525.969	14451
526.038	19931
526.107	27172
526.176	81007
526.245	71635
526.314	31161
526.383	49261
526.452	63785
526.522	95686
526.591	122981
526.660	60783
526.729	31722
526.797	31858
526.867	59874
526.935	266591
527.004	352393
527.073	176205
527.142	20454
527.211	11785
527.280	12706
527.349	12908
527.418	7151
527.487	8671
527.555	7788
527.624	6096
527.693	6114
527.762	7838
527.831	5585
527.899	7952
527.968	7776
528.037	6345
528.106	8216
528.174	17720
528.243	15900
528.312	19417
528.380	30033
528.449	10243
528.518	7629
528.586	4721
528.655	6919
528.723	6358
528.792	5605
528.861	6630
528.929	5898
528.998	6629
529.066	6352
529.135	6409
529.203	6499
529.272	5596
529.340	6159
529.409	7406
529.477	6548
529.545	9156
529.614	11272
529.682	11670
529.751	15565
529.819	14449
529.887	11509
529.956	6781
530.024	8144
530.092	6304
530.161	7746
530.229	13173
530.297	7490
530.365	6945
530.434	6622
530.502	5808
530.570	5936
530.638	5023
530.707	7314
530.775	8076
530.843	6778
530.911	6133
530.979	6814
531.047	6005
531.115	6194
531.183	6260
531.252	7205
531.320	6783
531.388	6317
531.456	6718
531.524	5187
531.592	7497
531.660	7951
531.728	6559
531.796	6694
531.864	7043
531.932	7265
532.000	6508
532.067	7189
532.135	8635
532.203	10782
532.271	10070
532.339	16819
532.407	43441
532.475	30634
532.542	14815
532.610	14687
532.678	19982
532.746	63656
532.814	208345
532.881	61977
532.949	11667
533.017	8696
533.084	8446
533.152	6997
533.220	6950
533.287	8427
533.355	6456
533.423	6758
533.490	6864
533.558	7108
533.625	7716
533.693	8690
533.761	8585
533.828	8450
533.896	8679
533.963	17604
534.031	21426
534.098	26500
534.166	15124
534.233	8417
534.300	9698
534.368	9381
534.435	8065
534.503	8691
534.570	10363
534.637	9412
534.705	8704
534.772	9331
534.840	12741
534.907	35034
534.974	52153
535.041	10804
535.109	11012
535.176	8198
535.243	6061
535.310	7358
535.378	6631
535.445	6567
535.512	5750
535.579	6487
535.646	6222
535.714	6765
535.781	9938
535.848	10451
535.915	9840
535.982	11767
536.049	10572
536.116	10857
536.183	8497
536.250	7894
536.317	8247
536.384	9702
536.451	13338
536.518	15841
536.585	9990
536.652	13425
536.719	18645
536.786	16454
536.853	11959
536.920	17332
536.987	29376
537.053	26670
537.120	84807
537.187	98377
537.254	11847
537.321	7293
537.388	8513
537.454	6325
537.521	6585
537.588	5825
537.654	7912
537.721	8674
537.788	8248
537.855	7521
537.921	7498
537.988	7978
538.055	9228
538.121	8325
538.188	8346
538.254	11516
538.321	26840
538.388	19097
538.454	7322
538.521	7175
538.587	6927
538.654	6429
538.720	6371
538.787	6636
538.853	6926
538.920	10290
538.986	11148
539.053	9440
539.119	8923
539.185	7885
539.252	9765
539.318	15369
539.385	12902
539.451	10574
539.517	11733
539.583	12757
539.650	23382
539.716	72262
539.782	26383
539.849	8693
539.915	8960
539.981	8179
540.047	11136
540.114	10361
540.180	10312
540.246	9617
540.312	12265
540.378	25725
540.444	30728
540.510	24694
540.576	78997
540.643	31855
540.709	8063
540.775	8376
540.841	8375
540.907	12969
540.973	22692
541.039	18449
541.105	17732
541.171	10255
541.237	8552
541.303	9363
541.369	11044
541.435	11628
541.500	24091
541.566	17181
541.632	7983
541.698	7777
541.764	6786
541.830	6925
541.896	6767
541.961	7673
542.027	7586
542.093	7631
542.159	8097
542.224	8831
542.290	13580
542.356	21014
542.421	29462
542.487	13896
542.553	8957
542.618	10829
542.684	10125
542.750	9337
542.815	11691
542.881	17200
542.947	60704
543.012	60083
543.078	9995
543.143	7568
543.209	8903
543.274	9588
543.340	10684
543.405	22121
543.471	44701
543.536	12854
543.602	7498
543.667	7567
543.732	8579
543.798	6453
543.863	8339
543.928	7150
543.994	5465
544.059	7199
544.124	7559
544.190	6254
544.255	7592
544.320	7561
544.386	8085
544.451	12372
544.516	15163
544.581	13610
544.646	36000
544.712	72783
544.777	16546
544.842	11448
544.907	12383
544.972	9920
545.037	9487
545.102	10252
545.168	10555
545.233	12045
545.298	12084
545.363	14593
545.428	16436
545.493	22750
545.558	54281
545.623	28779
545.688	11167
545.753	9818
545.818	9837
545.883	11140
545.947	9510
546.012	11629
546.077	13750
546.142	12424
546.207	9918
546.272	13696
546.337	15130
546.401	12696
546.466	11523
546.531	9973
546.596	12269
546.661	11872
546.725	11524
546.790	9684
546.855	10201
546.919	10460
546.984	11952
547.049	11523
547.113	13601
547.178	13327
547.243	14116
547.307	16249
547.372	17936
547.436	20462
547.501	15196
547.565	16388
547.630	17203
547.695	18756
547.759	20422
547.823	19138
547.888	14363
547.952	13791
548.017	14919
548.081	19283
548.146	23791
548.210	21753
548.274	15833
548.339	13578
548.403	13476
548.468	12816
548.532	13497
548.596	13937
548.660	14565
548.725	15624
548.789	18587
548.853	21002
548.917	16255
548.982	20588
549.046	23991
549.110	13564
549.174	13082
549.238	13641
549.303	13003
549.367	15205
549.431	14297
549.495	14114
549.559	13926
549.623	16122
549.687	17832
549.751	22897
549.815	19975
549.879	18621
549.943	16611
550.007	19285
550.071	18103
550.135	21627
550.199	18098
550.263	17315
550.327	17873
550.391	24233
550.455	18995
550.519	18289
550.582	19752
550.646	23522
550.710	26137
550.774	19679
550.838	19784
550.901	19717
550.965	20775
551.029	21597
551.093	26124
551.156	30315
551.220	51145
551.284	67775
551.347	35476
551.411	54040
551.475	75298
551.538	26670
551.602	19773
551.666	18204
551.729	16032
551.793	16421
551.856	17760
551.920	17442
551.983	17113
552.047	16167
552.110	16178
552.174	17241
552.237	17538
552.301	15882
552.364	15010
552.428	15353
552.491	14911
552.554	17132
552.618	16270
552.681	18247
552.745	18817
552.808	28371
552.871	42575
552.934	25112
552.998	17769
553.061	19350
553.124	18072
553.187	17082
553.251	18592
553.314	20084
553.377	19502
553.440	25617
553.503	55748
553.567	114406
553.630	32235
553.693	15898
553.756	16447
553.819	14943
553.882	15103
553.945	16000
554.008	14205
554.071	13046
554.134	14863
554.197	13889
554.260	12520
554.323	14983
554.386	14470
554.449	14917
554.512	14442
554.575	13477
554.638	14542
554.701	14120
554.764	13976
554.827	13479
554.889	12318
554.952	11722
555.015	11608
555.078	11998
555.141	12707
555.203	11460
555.266	12483
555.329	12059
555.391	12196
555.454	13025
555.517	12993
555.580	11162
555.642	10722
555.705	10936
555.768	11989
555.830	11931
555.893	11289
555.955	11857
556.018	10797
556.080	11262
556.143	11483
556.206	10659
556.268	12020
556.330	12456
556.393	12049
556.455	11104
556.518	16255
556.580	19810
556.643	11077
556.705	10820
556.767	9418
556.830	11204
556.892	11742
556.955	17254
557.017	14763
557.079	10979
557.142	10437
557.204	11307
557.266	21725
557.328	21896
557.391	10184
557.453	8687
557.515	9720
557.577	11570
557.639	13022
557.701	9801
557.764	9570
557.826	8762
557.888	10925
557.950	9845
558.012	11241
558.074	12489
558.136	21622
558.198	52981
558.260	25244
558.322	11970
558.384	12695
558.446	15451
558.508	16901
558.570	21890
558.632	33676
558.694	53821
558.756	46995
558.818	107130
558.880	314172
558.942	107344
559.003	57067
559.065	34319
559.127	15130
559.189	15492
559.251	18382
559.312	24089
559.374	46631
559.436	169326
559.498	102311
559.559	17622
559.621	15969
559.683	18454
559.744	28900
559.806	75213
559.868	127073
559.929	30001
559.991	17717
560.052	21550
560.114	50501
560.176	41322
560.237	29179
560.299	53853
560.360	16783
560.422	11003
560.483	10510
560.545	9817
560.606	9143
560.667	8957
560.729	9525
560.790	9390
560.852	10070
560.913	7955
560.974	8611
561.036	8451
561.097	9558
561.158	8854
561.220	10115
561.281	9557
561.342	9920
561.403	11231
561.465	13562
561.526	29009
561.587	47187
561.648	15570
561.709	8999
561.771	9382
561.832	9293
561.893	9048
561.954	8396
562.015	8529
562.076	9328
562.137	8697
562.198	8493
562.259	8796
562.320	8585
562.381	10349
562.442	13929
562.503	13745
562.564	8984
562.625	8569
562.686	8970
562.747	10972
562.808	10393
562.869	9021
562.930	12274
562.991	11276
563.051	9954
563.112	10649
563.173	9691
563.234	7819
563.294	8976
563.355	9086
563.416	10010
563.477	9089
563.537	9022
563.598	10528
563.659	8934
563.720	9226
563.780	10421
563.841	10726
563.901	9883
563.962	9294
564.023	8663
564.083	9730
564.144	10102
564.204	10085
564.265	9876
564.325	11415
564.386	21753
564.446	25975
564.507	10121
564.567	8699
564.628	8327
564.688	8929
564.749	8695
564.809	10019
564.869	13662
564.930	10220
564.990	9425
565.050	8828
565.111	8917
565.171	8474
565.231	8453
565.292	8833
565.352	8375
565.412	9691
565.472	7548
565.532	9934
565.593	9038
565.653	8269
565.713	8684
565.773	10233
565.833	10670
565.893	15310
565.953	10052
566.013	8426
566.074	10878
566.134	12940
566.194	20241
566.254	23789
566.314	15040
566.374	10204
566.434	10615
566.494	10273
566.554	9771
566.614	10456
566.673	10383
566.733	11600
566.793	11743
566.853	11969
566.913	12213
566.973	11831
567.033	12370
567.092	12851
567.152	12241
567.212	11388
567.272	10901
567.331	13850
567.391	13554
567.451	15114
567.511	18273
567.570	20419
567.630	12516
567.690	11929
567.749	13222
567.809	12727
567.868	14291
567.928	17119
567.988	19190
568.047	21891
568.107	26183
568.166	34460
568.226	53959
568.285	81248
568.345	70557
568.404	50176
568.464	40766
568.523	36304
568.582	37336
568.642	42203
568.701	52850
568.761	78893
568.820	134213
568.879	139701
568.939	94960
568.998	62882
569.057	43019
569.116	31591
569.176	25220
569.235	19093
569.294	17519
569.353	16136
569.413	14208
569.472	13754
569.531	12708
569.590	11339
569.649	10971
569.708	10293
569.767	10828
569.827	12707
569.886	11416
569.945	8913
570.004	9162
570.063	10265
570.122	9886
570.181	10827
570.240	11805
570.299	11501
570.358	12190
570.417	10611
570.475	8714
570.534	9448
570.593	9530
570.652	10502
570.711	9443
570.770	8771
570.829	11120
570.887	9459
570.946	10465
571.005	8553
571.064	8389
571.122	9534
571.181	9943
571.240	8631
571.299	7725
571.357	8759
571.416	9239
571.475	8955
571.533	11054
571.592	7767
571.650	8345
571.709	7446
571.768	7495
571.826	6928
571.885	7187
571.943	6892
572.002	7095
572.060	7815
572.119	7010
572.177	6054
572.236	6226
572.294	6083
572.352	6336
572.411	6255
572.469	6346
572.528	6968
572.586	7675
572.644	7786
572.703	10598
572.761	7882
572.819	6663
572.877	6354
572.936	5870
572.994	6144
573.052	5522
573.110	6223
573.169	6705
573.227	6679
573.285	6627
573.343	5338
573.401	6146
573.459	5729
573.517	6639
573.576	6321
573.634	6482
573.692	6617
573.750	6521
573.808	6044
573.866	6448
573.924	9902
573.982	9604
574.040	6411
574.098	6469
574.155	6090
574.213	6236
574.271	5715
574.329	5652
574.387	4931
574.445	5661
574.503	5087
574.560	5288
574.618	5119
574.676	4505
574.734	5140
574.792	5775
574.849	5235
574.907	4359
574.965	5122
575.022	4686
575.080	4272
575.138	5371
575.195	5663
575.253	5278
575.311	6579
575.368	5507
575.426	4038
575.483	6393
575.541	4196
575.598	4846
575.656	4907
575.713	5372
575.771	5155
575.828	5449
575.886	5770
575.943	6586
576.001	5640
576.058	5898
576.115	6814
576.173	7363
576.230	9437
576.287	9959
576.345	8451
576.402	6691
576.459	6457
576.517	5810
576.574	7954
576.631	7476
576.688	6734
576.746	5854
576.803	5847
576.860	5630
576.917	6392
576.974	6104
577.031	6203
577.089	6220
577.146	5054
577.203	6601
577.260	7359
577.317	7492
577.374	8512
577.431	7151
577.488	6709
577.545	5765
577.602	5184
577.659	6148
577.716	6892
577.773	7015
577.830	6537
577.886	5609
577.943	5958
578.000	5922
578.057	6771
578.114	6428
578.171	8212
578.227	9953
578.284	10453
578.341	9144
578.398	7764
578.454	6884
578.511	8567
578.568	9094
578.625	8211
578.681	7150
578.738	6417
578.794	6335
578.851	5871
578.908	5835
578.964	6121
579.021	6847
579.077	5531
579.134	5561
579.190	5921
579.247	5645
579.303	5850
579.360	5112
579.416	6204
579.473	5134
579.529	5693
579.586	5392
579.642	5489
579.698	6717
579.755	7305
579.811	6232
579.867	5961
579.924	6541
579.980	6269
580.036	7768
580.093	8809
580.149	12528
580.205	16370
580.261	11166
580.317	8444
580.374	8718
580.430	9460
580.486	8234
580.542	7493
580.598	6379
580.619	6341
580.654	6283
580.692	5770
580.710	5523
580.765	6616
580.767	6659
580.823	6357
580.838	6402
580.879	6546
580.911	6121
580.935	5825
580.984	6154
580.991	6201
581.047	6331
581.057	6290
581.103	6194
581.130	6933
581.159	7677
581.203	8594
581.215	8859
581.270	7963
581.276	7849
581.326	6790
581.349	6896
581.382	7095
581.422	6711
581.438	6508
581.494	7032
581.494	7015
581.550	6018
581.567	6096
581.606	6183
581.640	6645
581.661	6969
581.713	6436
581.717	6391
581.773	5858
581.786	5780
581.829	5620
581.859	5920
581.885	6135
581.932	6560
581.940	6661
581.996	7030
582.004	6959
582.052	6407
582.077	6166
582.107	5979
582.150	6380
582.163	6479
582.219	6159
582.223	6156
582.274	6311
582.296	6489
582.330	6600
582.368	6226
582.386	6189
582.441	6781
582.441	6782
582.497	5364
582.514	5822
582.552	7218
582.587	7218
582.608	7084
582.659	6588
582.663	6563
582.719	6729
582.732	6687
582.774	6466
582.805	6433
582.830	6526
582.877	6951
582.885	6972
582.941	6800
582.950	6853
582.996	7434
583.023	7342
583.052	7119
583.095	7462
583.107	7630
583.162	9864
583.168	9973
583.218	10631
583.240	10089
583.273	9288
583.313	8213
583.328	7765
583.384	7720
583.385	7689
583.439	7025
583.458	7076
583.494	7098
583.531	6137
583.549	5757
583.603	6164
583.605	6164
583.660	6700
583.676	6629
583.715	6558
583.748	6614
583.770	6632
583.820	7022
583.825	7085
583.881	6659
583.893	6677
583.936	6499
583.965	6572
583.991	6736
584.038	6610
584.046	6525
584.101	6762
584.110	6773
584.156	7266
584.183	7111
584.211	6794
584.255	7052
584.266	7130
584.321	6741
584.328	6781
584.376	6973
584.400	6969
584.431	7158
584.472	7134
584.486	6970
584.541	6973
584.545	6904
584.596	6284
584.617	6728
584.651	7471
584.689	7616
584.706	7602
584.761	7722
584.762	7718
584.816	6886
584.834	7028
584.871	7853
584.906	8308
584.926	8270
584.978	7527
584.980	7515
585.035	7548
585.051	7694
585.090	7945
585.123	8437
585.145	8917
585.195	9598
585.200	9618
585.254	9958
585.267	10066
585.309	11039
585.340	12694
585.364	13646
585.412	13219
585.419	13137
585.473	12866
585.484	12998
585.528	13636
585.556	14862
585.583	17262
585.628	22837
585.637	24760
585.692	44284
585.700	48891
585.747	71636
585.772	62990
585.801	43448
585.845	19142
585.856	15394
585.910	12219
585.917	11951
585.965	11125
585.989	10893
586.019	11016
586.061	11035
586.074	10930
586.128	10339
586.133	10314
586.183	10857
586.205	11375
586.237	11660
586.277	11476
586.292	11576
586.346	11932
586.349	11971
586.401	11707
586.421	11482
586.455	11919
586.493	13499
586.509	14399
586.564	17670
586.565	17835
586.618	27821
586.637	29353
586.672	26532
586.709	19096
586.727	16068
586.781	13627
586.781	13620
586.835	12299
586.853	12340
586.889	12781
586.925	12636
586.944	12409
586.996	12603
586.998	12636
587.052	14138
587.068	14469
587.106	14077
587.140	13372
587.161	13556
587.212	14556
587.215	14578
587.269	15405
587.284	15588
587.323	16052
587.356	16444
587.377	16615
587.427	17162
587.431	17229
587.485	17498
587.499	17727
587.539	18316
587.571	19047
587.593	19683
587.643	20707
587.648	20770
587.702	21605
587.715	21953
587.755	23895
587.786	25364
587.810	25801
587.858	25786
587.864	25982
587.917	29067
587.930	29845
587.971	32155
588.001	34085
588.025	35805
588.073	39092
588.079	39544
588.133	43577
588.145	44665
588.187	50060
588.217	54664
588.241	58450
588.288	66479
588.295	67838
588.348	80642
588.360	83608
588.402	94578
588.431	103756
588.456	112792
588.503	132151
588.510	135225
588.564	164136
588.575	171203
588.617	202103
588.646	227070
588.671	255671
588.718	319370
588.725	334217
588.778	470353
588.789	504808
588.832	733990
588.861	914610
588.886	1124541
588.932	1528346
588.939	1549948
588.993	1536143
589.004	1545786
589.047	1388029
589.075	1202190
589.100	981868
589.147	576162
589.154	545303
589.207	380944
589.218	353352
589.261	317982
589.290	303691
589.314	310066
589.361	335939
589.368	348289
589.421	471658
589.433	505467
589.475	763503
589.504	970480
589.528	1150319
589.576	1433810
589.582	1414499
589.635	1165662
589.647	1090609
589.689	694653
589.718	436769
589.742	341106
589.790	196834
589.795	189387
589.849	135964
589.861	125300
589.902	106975
589.932	94830
589.955	85884
590.004	67200
590.009	66056
590.062	56810
590.075	54705
590.115	49103
590.146	45203
590.168	43379
590.218	39493
590.222	39181
590.275	35821
590.289	34967
590.328	34143
590.360	33644
590.381	32256
590.431	28869
590.435	28742
590.488	26747
590.503	26334
590.541	25439
590.574	24569
590.594	24216
590.645	23495
590.647	23443
590.700	22256
590.716	21814
590.753	21021
590.787	20546
590.806	20225
590.859	19315
590.859	19304
590.912	18796
590.930	18779
590.965	18368
591.001	17861
591.018	17816
591.071	17626
591.072	17623
591.124	17001
591.143	16680
591.177	16830
591.214	17013
591.230	16742
591.283	16148
591.285	16116
591.336	16753
591.356	17084
591.389	17183
591.427	17173
591.442	16832
591.495	15415
591.498	15319
591.547	14288
591.569	13845
591.600	14462
591.640	15213
591.653	14862
591.706	13431
591.711	13290
591.759	14469
591.782	14999
591.811	15592
591.853	16618
591.864	16462
591.917	15385
591.924	15232
591.969	13778
591.995	12963
592.022	13282
592.066	13863
592.075	13994
592.127	14766
592.137	14926
592.180	17137
592.208	18533
592.233	16769
592.279	13299
592.285	13304
592.338	13486
592.350	13521
592.390	12661
592.421	12041
592.443	12585
592.491	13777
592.495	13727
592.548	12982
592.562	12779
592.600	12871
592.633	12952
592.653	12647
592.704	11796
592.705	11890
592.775	13293
592.846	12100
592.916	12716
592.987	13505
593.058	13535
593.128	11274
593.199	12778
593.270	10489
593.341	11281
593.411	11742
593.482	12010
593.553	11278
593.623	11631
593.694	11538
593.764	12584
593.835	11331
593.906	11528
593.976	10915
594.047	12303
594.117	12932
594.188	14896
594.258	10659
594.329	10745
594.399	10900
594.470	10706
594.540	9830
594.611	11128
594.681	11028
594.751	11450
594.822	12602
594.892	13198
594.963	12298
595.033	11772
595.103	11825
595.174	13486
595.244	17110
595.314	24143
595.384	13900
595.455	12225
595.525	11631
595.595	12649
595.665	11410
595.736	12266
595.806	11120
595.876	12574
595.946	10470
596.016	11888
596.087	11703
596.157	12353
596.227	11912
596.297	12563
596.367	12756
596.437	14471
596.507	16610
596.577	22821
596.647	14839
596.717	13501
596.787	12590
596.857	12889
596.927	11782
596.997	12832
597.067	13054
597.137	14338
597.207	13361
597.277	13518
597.347	12353
597.417	13097
597.487	12436
597.557	13441
597.626	12315
597.696	14900
597.766	15974
597.836	21013
597.906	15667
597.975	12468
598.045	11941
598.115	12556
598.185	12156
598.254	14300
598.324	14145
598.394	15173
598.464	14119
598.533	14577
598.603	12553
598.672	13963
598.742	12991
598.812	13481
598.881	13045
598.951	13165
599.020	12288
599.090	13177
599.159	13088
599.229	13765
599.299	12071
599.368	14089
599.437	12787
599.507	13015
599.576	12592
599.646	14110
599.715	13732
599.785	13664
599.854	13141
599.924	14638
599.993	14331
600.062	12319
600.132	12586
600.201	13091
600.270	13748
600.340	14767
600.409	13728
600.478	14285
600.547	13959
600.617	14947
600.686	12417
600.755	11864
600.824	12366
600.894	12916
600.963	11584
601.032	11833
601.101	11167
601.170	11504
601.239	9725
601.308	11855
601.378	12049
601.447	11639
601.516	10195
601.585	11059
601.654	9962
601.723	11801
601.792	11605
601.861	12178
601.930	12649
601.999	13378
602.068	11950
602.137	11860
602.206	11708
602.275	12924
602.343	13455
602.412	15346
602.481	11806
602.550	12402
602.619	11049
602.688	13339
602.756	12826
602.825	12369
602.894	11689
602.963	12895
603.032	12390
603.100	12309
603.169	12171
603.238	12327
603.307	12340
603.375	12365
603.444	12438
603.513	13228
603.581	12228
603.650	13068
603.719	11466
603.787	12911
603.856	11513
603.924	13281
603.993	12398
604.061	12542
604.130	12895
604.198	14604
604.267	13302
604.335	13937
604.404	13718
604.472	14182
604.541	13105
604.609	14567
604.678	13656
604.746	15286
604.815	14037
604.883	15001
604.951	14323
605.020	15535
605.088	14519
605.156	14387
605.225	13680
605.293	14232
605.361	14791
605.429	15484
605.498	14941
605.566	15828
605.634	15462
605.702	15523
605.771	15314
605.839	17277
605.907	16554
605.975	15521
606.043	15082
606.111	15144
606.180	15974
606.248	16478
606.316	16682
606.384	16300
606.452	18249
606.520	18609
606.588	15184
606.656	13919
606.724	13803
606.792	13796
606.860	12330
606.928	11565
606.996	11475
607.064	10748
607.132	10512
607.200	11561
607.267	11644
607.335	12468
607.403	12377
607.471	12682
607.539	10921
607.607	12263
607.674	11103
607.742	11663
607.810	11574
607.878	11041
607.946	10547
608.013	11846
608.081	11094
608.149	11619
608.216	11384
608.284	13111
608.352	11829
608.419	12457
608.487	15801
608.555	14341
608.622	11463
608.690	12235
608.757	12388
608.825	13971
608.893	13382
608.960	13879
609.028	16583
609.095	17925
609.163	13683
609.230	12649
609.298	11497
609.365	10951
609.432	10628
609.500	12015
609.567	13031
609.635	14565
609.702	15490
609.769	16786
609.837	14438
609.904	12992
609.971	11722
610.039	14991
610.106	18654
610.173	35049
610.241	83025
610.308	84849
610.375	48065
610.442	18096
610.509	11936
610.577	13230
610.644	10954
610.711	12039
610.778	12458
610.845	12069
610.912	12451
610.980	14023
611.047	16232
611.114	15604
611.181	12055
611.248	11968
611.315	12079
611.382	13945
611.449	12814
611.516	14624
611.583	13108
611.650	13926
611.717	13854
611.784	14328
611.851	15416
611.918	18030
611.984	21187
612.051	30884
612.118	64654
612.185	169192
612.252	141266
612.319	27162
612.386	18218
612.452	17562
612.519	16723
612.586	20030
612.653	18258
612.719	16293
612.786	15071
612.853	14437
612.919	13488
612.986	14390
613.053	13079
613.120	12239
613.186	11478
613.253	13153
613.319	11878
613.386	12681
613.453	12131
613.519	14323
613.586	14716
613.652	21006
613.719	17808
613.785	16607
613.852	13398
613.918	13785
613.985	14637
614.051	19977
614.118	33938
614.184	41779
614.250	14823
614.317	13006
614.383	12761
614.449	12804
614.516	12570
614.582	13730
614.648	12340
614.715	12893
614.781	11615
614.847	12906
614.914	12754
614.980	13226
615.046	12537
615.112	11852
615.179	12611
615.245	14490
615.311	15210
615.377	22534
615.443	25894
615.509	17176
615.575	14681
615.642	14585
615.708	15400
615.774	17061
615.840	17914
615.906	22304
615.972	32608
616.038	58978
616.104	106840
616.170	228362
616.236	255825
616.302	47559
616.368	26407
616.434	19336
616.500	18127
616.565	18381
616.631	22627
616.697	19612
616.763	18862
616.829	26138
616.895	47020
616.961	50467
617.026	21487
617.092	15016
617.158	13646
617.224	13833
617.289	12843
617.355	13275
617.421	12357
617.487	13493
617.552	11432
617.618	11383
617.684	11645
617.749	13734
617.815	10701
617.880	11016
617.946	11310
618.012	11985
618.077	10917
618.143	11422
618.208	10097
618.274	11972
618.339	12118
618.405	10636
618.470	10833
618.536	11005
618.601	11465
618.667	11201
618.732	9905
618.798	10102
618.863	9734
618.928	10745
618.994	9609
619.059	11739
619.124	15062
619.190	13331
619.255	9706
619.320	9954
619.386	9994
619.451	10181
619.516	8855
619.581	9761
619.647	9334
619.712	10964
619.777	9732
619.842	10168
619.907	8891
619.972	10696
620.038	10167
620.103	9199
620.168	8596
620.233	9898
620.298	8961
620.363	9179
620.428	9023
620.493	10060
620.558	9783
620.623	9985
620.688	9417
620.753	9783
620.818	9143
620.883	9716
620.948	9369
621.013	9714
621.078	8963
621.143	9360
621.207	11137
621.272	11249
621.337	10815
621.402	11895
621.467	13609
621.532	16005
621.596	12424
621.661	11940
621.726	9434
621.791	11156
621.855	11241
621.920	11722
621.985	11646
622.049	14599
622.114	13081
622.179	12077
622.243	12090
622.308	11368
622.373	11830
622.437	13006
622.502	10925
622.566	11618
622.631	11099
622.695	12023
622.760	10975
622.824	12289
622.889	11182
622.953	12593
623.018	16933
623.082	18334
623.147	12011
623.211	12381
623.276	11723
623.340	11169
623.404	9924
623.469	10603
623.533	9971
623.597	10078
623.662	9701
623.726	11350
623.790	8863
623.854	10231
623.919	9617
623.983	10827
624.047	9751
624.111	10327
624.176	10305
624.240	10771
624.304	12125
624.368	10529
624.432	9726
624.496	11263
624.560	11028
624.625	12309
624.689	9751
624.753	10307
624.817	9921
624.881	9001
624.945	9214
625.009	9377
625.073	9140
625.137	10642
625.201	11225
625.265	13063
625.329	9567
625.393	11149
625.456	10408
625.520	11563
625.584	11630
625.648	13779
625.712	19964
625.776	44729
625.839	58383
625.903	28303
625.967	10643
626.031	18426
626.095	30664
626.158	14728
626.222	7162
626.286	8731
626.349	7639
626.413	6811
626.477	8451
626.540	7299
626.604	6396
626.668	7688
626.731	6577
626.795	7895
626.858	6845
626.922	7261
626.986	7333
627.049	6920
627.113	7079
627.176	7656
627.240	6096
627.303	7848
627.366	6916
627.430	7202
627.493	6723
627.557	7624
627.620	7750
627.684	7018
627.747	7565
627.810	6792
627.874	6730
627.937	6301
628.000	6943
628.064	7170
628.127	5478
628.190	6776
628.253	6457
628.317	6311
628.380	5758
628.443	6144
628.506	5282
628.569	5938
628.632	5030
628.696	5760
628.759	4398
628.822	5499
628.885	4859
628.948	5375
629.011	5392
629.074	4996
629.137	5023
629.200	4637
629.263	6286
629.326	5435
629.389	4285
629.452	5705
629.515	5147
629.578	4694
629.641	5507
629.704	5554
629.767	5822
629.830	5166
629.892	4819
629.955	4331
630.018	5974
630.081	5393
630.144	7256
630.207	5056
630.269	6067
630.332	6162
630.395	5775
630.458	4726
630.520	3128
630.583	5242
630.646	4726
630.708	4221
630.771	3424
630.834	5204
630.896	4076
630.959	5370
631.021	4268
631.084	4620
631.146	4360
631.209	6766
631.272	4229
631.334	4638
631.397	4216
631.459	4293
631.522	4213
631.584	4711
631.646	4396
631.709	6309
631.771	6373
631.834	6182
631.896	4184
631.958	4374
632.021	3900
632.083	3952
632.145	3630
632.208	4733
632.270	4197
632.332	4229
632.395	2930
632.457	5461
632.519	3624
632.581	5227
632.643	2277
632.706	5313
632.768	3684
632.830	4663
632.892	3299
632.954	4212
633.016	4105
633.078	4005
633.141	2840
633.203	3101
633.265	2921
633.327	3754
633.389	3400
633.451	4381
633.513	4624
633.575	5846
633.637	4381
633.698	4914
633.760	3971
633.822	4243
633.884	4307
633.946	3594
634.008	3312
634.070	4688
634.132	3811
634.193	5125
634.255	4016
634.317	4293
634.379	4748
634.441	4247
634.502	3302
634.564	3921
634.626	3994
634.687	5159
634.749	3995
634.811	4279
634.873	2770
634.934	4243
634.996	2968
635.057	2955
635.119	2645
635.181	4217
635.242	3785
635.304	1690
635.365	4125
635.427	3176
635.488	3455
635.550	3024
635.611	3396
635.673	2645
635.734	3413
635.796	3424
635.857	3877
635.918	3864
635.980	3741
636.041	3894
636.102	3990
636.164	4706
636.225	4179
636.286	4023
636.348	3769
636.409	4208
636.470	2982
636.531	3592
636.593	3178
636.654	4684
636.715	2572
636.776	3568
636.838	2483
636.899	3844
636.960	2248
637.021	3055
637.082	3079
637.143	3075
637.204	1560
637.265	2724
637.326	2913
637.387	1904
637.448	1858
637.509	3008
637.570	2733
637.631	3026
637.692	2101
637.753	1898
637.814	2401
637.875	2762
637.936	3062
637.997	1383
638.058	2370
638.119	4031
638.179	1843
638.240	2831
638.301	2186
638.362	1763
638.423	1909
638.483	3604
638.544	1307
638.605	3194
638.666	1868
638.726	2337
638.787	2484
638.848	1908
638.908	1711
638.969	2375
639.030	2383
639.090	1710
639.151	1305
639.211	2824
639.272	3958
639.332	6721
639.393	4164
639.453	1530
639.514	2832
639.574	2648
639.635	1593
639.695	2849
639.756	1456
639.816	3085
639.877	2546
639.937	5418
639.997	8366
640.058	3891
640.118	1676
640.178	2427
640.239	2026
640.299	1752
640.359	1841
640.420	2348
640.480	2444
640.540	2156
640.600	1964
640.661	2713
640.721	1286
640.781	4549
640.841	1761
640.901	3543
640.961	2489
641.021	2154
641.082	2322
641.142	4717
641.202	2643
641.262	1225
641.322	1639
641.382	2424
641.442	1810
641.502	2250
641.562	2321
641.622	1995
641.682	1572
641.742	3081
641.802	2650
641.861	2748
641.921	1894
641.981	2798
642.041	2004
642.101	3916
642.161	1920
642.221	2036
642.280	1050
642.340	2492
642.400	1277
642.460	2409
642.519	1781
642.579	1990
642.639	2122
642.698	114
642.758	2981
642.818	2810
642.877	1451
642.937	1804
642.997	1502
643.056	4601
643.116	2657
643.175	2431
643.235	1773
643.294	1481
643.354	1442
643.414	2505
643.473	2494
643.532	2529
643.592	4074
643.651	8597
643.711	13897
643.770	28508
643.830	61103
643.889	176894
643.948	64165
644.008	7398
644.067	2535
644.126	2933
644.186	2199
644.245	2774
644.304	1266
644.363	2983
644.423	501
644.482	2008
644.541	1712
644.600	713
644.659	2903
644.719	2397
644.778	2457
644.837	4868
644.896	9853
644.955	28106
645.014	13774
645.073	4445
645.132	1556
645.191	3080
645.250	1275
645.309	3032
645.368	1945
645.427	3663
645.486	1163
645.545	6610
645.604	1847
645.663	2221
645.722	1697
645.781	2343
645.840	2281
645.898	2807
645.957	4519
646.016	5908
646.075	11452
646.134	23514
646.192	56560
646.251	123564
646.310	25528
646.369	4779
646.427	3200
646.486	2489
646.545	1944
646.603	2155
646.662	2079
646.721	1797
646.779	443
646.838	744
646.896	1938
646.955	3541
647.014	3361
647.072	5141
647.131	15744
647.189	11959
647.248	1250
647.306	2022
647.365	1783
647.423	180
647.481	1654
647.540	39
647.598	984
647.657	1288
647.715	1290
647.773	1636
647.832	1771
647.890	430
647.948	976
648.007	2400
648.065	412
648.123	420
648.181	2065
648.240	2329
648.298	933
648.356	1998
648.414	1539
648.472	2117
648.531	1975
648.589	1183
648.647	1196
648.705	1571
648.763	1474
648.821	1875
648.879	1000
648.937	2513
648.995	2399
649.053	2315
649.111	2705
649.169	5337
649.227	7662
649.285	15430
649.343	50632
649.401	41583
649.459	10455
649.516	10180
649.574	4477
649.632	11794
649.690	16842
649.748	6741
649.806	2751
649.863	8991
649.921	10997
649.979	10671
650.037	2499
650.094	308
650.152	943
650.210	422
650.268	856
650.325	1482
650.383	1276
650.440	657
650.498	1055
650.556	1306
650.613	521
650.671	1492
650.728	703
650.786	787
650.843	996
650.901	422
650.958	604
651.016	895
651.073	507
651.131	1010
651.188	-154
651.246	1289
651.303	-582
651.360	1530
651.418	-140
651.475	2088
651.532	-788
651.590	2088
651.647	-1344
651.704	1154
651.762	641
651.819	1649
651.876	426
651.933	1090
651.990	475
652.048	197
652.105	36
652.162	1450
652.219	-375
652.276	1074
652.333	879
652.390	277
652.448	733
652.505	397
652.562	124
652.619	903
652.676	2043
652.733	2927
652.790	270
652.847	-173
652.904	728
652.961	759
653.017	-49
653.074	932
653.131	448
653.188	-16
653.245	556
653.302	1098
653.359	-154
653.415	1158
653.472	204
653.529	807
653.586	-79
653.642	1115
653.699	547
653.756	-271
653.813	431
653.869	1123
653.926	-184
653.983	194
654.039	159
654.096	869
654.152	551
654.209	-656
654.266	202
654.322	731
654.379	655
654.435	1488
654.492	604
654.548	1745
654.605	3276
654.661	2927
654.717	482
654.774	1572
654.830	1306
654.887	1050
654.943	284
655.000	1547
655.056	520
655.112	1011
655.168	-353
655.225	1066
655.281	418
655.337	1286
655.394	3333
655.450	3126
655.506	1685
655.562	3115
655.618	4399
655.675	1363
655.731	1093
655.787	229
655.843	1682
655.899	1418
655.955	2233
656.011	1271
656.067	1012
656.123	3777
656.179	2984
656.235	4587
656.291	2728
656.347	4308
656.403	1948
656.459	2569
656.515	2499
656.571	2454
656.627	1999
656.683	923
656.739	1555
656.795	1005
656.850	1001
656.906	1967
656.962	1238
657.018	123
657.074	199
657.129	848
657.185	994
657.241	1532
657.297	654
657.352	809
657.408	-209
657.464	1820
657.519	531
657.575	305
657.630	17
657.686	220
657.742	-807
657.797	349
657.853	414
657.908	1693
657.964	-593
658.019	873
658.075	340
658.130	1275
658.186	-621
658.241	925
658.297	-84
658.352	463
658.407	1057
658.463	254
658.518	-266
658.573	976
658.629	-779
658.684	145
658.739	50
658.795	571
658.850	527
658.905	-120
658.960	206
659.016	-39
659.071	-18
659.126	657
659.181	14
659.236	2484
659.291	1895
659.346	1345
659.401	564
659.457	1744
659.512	1085
659.567	1351
659.622	-134
659.677	319
659.732	-759
659.787	624
659.842	51
659.897	1674
659.952	724
660.007	737
660.061	190
660.116	-279
660.171	-117
660.226	845
660.281	260
660.336	-148
660.391	1013
660.445	131
660.500	-380
660.555	1060
660.610	-916
660.664	1110
660.719	-402
660.774	1486
660.828	278
660.883	557
660.938	-308
660.992	-735
661.047	612
661.101	222
661.156	-180
661.211	193
661.265	-316
661.320	424
661.374	-722
661.429	-260
661.483	819
661.538	528
661.592	136
661.647	876
661.701	76
661.755	1084
661.810	-163
661.864	-135
661.919	-500
661.973	845
662.027	160
662.081	-378
662.136	-966
662.190	522
662.244	389
662.299	81
662.353	793
662.407	-390
662.461	-596
662.515	1235
662.569	-831
662.624	1819
662.678	-53
662.732	273
662.786	-190
662.840	-234
662.894	-142
662.948	471
663.002	-289
663.056	806
663.110	-524
663.164	681
663.218	423
663.272	689
663.326	-323
663.380	941
663.434	403
663.488	224
663.542	363
663.595	606
663.649	-231
663.703	839
663.757	-587
663.811	-722
663.864	-108
663.918	1445
663.972	-485
664.026	404
664.079	-423
664.133	1380
664.187	275
664.240	277
664.294	-139
664.348	1063
664.401	171
664.455	1052
664.508	-196
664.562	557
664.615	210
664.669	42
664.722	90
664.776	620
664.829	393
664.883	191
664.936	-801
664.990	254
665.043	277
665.097	145
665.150	1389
665.203	551
665.257	-16
665.310	1944
665.363	-29
665.417	503
665.470	425
665.523	955
665.576	536
665.630	1060
665.683	-555
665.736	1253
665.789	326
665.842	791
665.895	301
665.949	831
666.002	65
666.055	1378
666.108	557
666.161	1312
666.214	318
666.267	827
666.320	319
666.373	1281
666.426	525
666.479	264
666.532	890
666.585	1622
666.638	1017
666.691	591
666.744	1495
666.796	1864
666.849	546
666.902	1166
666.955	632
667.008	309
667.060	10
667.113	852
667.166	482
667.219	1082
667.271	-142
667.324	828
667.377	-660
667.430	447
667.482	-35
667.535	664
667.587	320
667.640	786
667.693	983
667.745	2112
667.798	2709
667.850	1262
667.903	-633
667.955	490
668.008	-415
668.060	1460
668.113	16
668.165	392
668.218	82
668.270	995
668.322	175
668.375	1125
668.427	20
668.479	615
668.532	302
668.584	628
668.636	229
668.689	591
668.741	-71
668.793	744
668.845	-55
668.898	1559
668.950	-159
669.002	1888
669.054	-351
669.106	192
669.158	241
669.211	442
669.263	226
669.315	1260
669.367	1160
669.419	588
669.471	1833
669.523	1856
669.575	2353
669.627	2301
669.679	747
669.731	1779
669.783	1718
669.835	1954
669.886	369
669.938	1302
669.990	1068
670.042	237
670.094	983
670.146	2534
670.197	1846
670.249	3338
670.301	3109
670.353	6462
670.404	9144
670.456	14648
670.508	21668
670.560	36617
670.611	58353
670.663	100707
670.715	209195
670.766	470199
670.818	247839
670.869	35689
670.921	12653
670.972	7572
671.024	4934
671.075	4615
671.127	2432
671.178	2223
671.230	2155
671.281	2455
671.333	2091
671.384	1448
671.436	1679
671.487	3049
671.538	1270
671.590	2722
671.641	2598
671.692	3930
671.744	8553
671.795	8348
671.846	2182
671.897	1697
671.949	764
672.000	969
672.051	600
672.102	2058
672.153	223
672.204	1887
672.256	72
672.307	1474
672.358	640
672.409	1464
672.460	602
672.511	1266
672.562	58
672.613	1081
672.664	158
672.715	946
672.766	177
672.817	523
672.868	125
672.919	1075
672.970	532
673.021	935
673.071	214
673.122	1690
673.173	571
673.224	1813
673.275	400
673.326	620
673.376	718
673.427	530
673.478	-327
673.528	1191
673.579	-74
673.630	563
673.680	228
673.731	754
673.782	-422
673.832	1523
673.883	230
673.934	746
673.984	255
674.035	745
674.085	829
674.136	1715
674.186	737
674.237	1109
674.287	2060
674.338	1782
674.388	50
674.438	56
674.489	639
674.539	641
674.589	-167
674.640	262
674.690	328
674.740	579
674.791	871
674.841	949
674.891	451
674.942	1262
674.992	284
675.042	-389
675.092	-42
675.142	516
675.193	-191
675.243	1259
675.293	-28
675.343	577
675.393	-283
675.443	448
675.493	27
675.543	-549
675.593	-459
675.643	516
675.693	125
675.743	870
675.793	-71
675.843	-31
675.893	-181
675.943	580
675.993	-52
676.043	198
676.093	921
676.142	139
676.192	210
676.242	875
676.292	-560
676.341	936
676.391	740
676.441	1001
676.491	134
676.540	755
676.590	-448
676.640	929
676.689	333
676.739	-126
676.789	-712
676.838	618
676.888	-87
676.937	11
676.987	11
677.037	-64
677.086	-913
677.136	262
677.185	-471
677.235	400
677.284	-1174
677.333	329
677.383	-479
677.432	331
677.482	-449
677.531	652
677.580	-594
677.630	334
677.679	-381
677.728	410
677.778	-10
677.827	561
677.876	-759
677.925	-152
677.975	-317
678.024	256
678.073	-205
678.122	616
678.171	162
678.220	1006
678.269	-33
678.319	742
678.368	-162
678.417	-205
678.466	169
678.515	948
678.564	-102
678.613	-194
678.662	-423
678.711	856
678.760	311
678.809	-125
678.857	-294
678.906	339
678.955	-477
679.004	897
679.053	-892
679.102	364
679.151	-421
679.199	292
679.248	-694
679.297	646
679.346	-33
679.394	-11
679.443	442
679.492	359
679.540	-549
679.589	575
679.638	-7
679.686	-204
679.735	323
679.784	-495
679.832	-49
679.881	113
679.929	-692
679.978	45
680.026	-638
680.075	166
680.123	-239
680.172	360
680.220	-256
680.268	381
680.317	-890
680.365	-140
680.414	-969
680.462	968
680.510	176
680.559	-329
680.607	-908
680.655	-66
680.703	14
680.752	34
680.800	-528
680.848	-499
680.896	-381
680.945	-371
680.993	-929
681.041	-239
681.089	-159
681.137	-99
681.185	-502
681.233	3
681.258	-215
681.281	-432
681.329	-18
681.377	-331
681.380	-301
681.425	74
681.473	212
681.502	161
681.521	108
681.569	401
681.617	181
681.624	139
681.665	-212
681.713	958
681.745	349
681.761	45
681.809	290
681.857	701
681.867	619
681.904	295
681.952	-312
681.989	620
682.000	888
682.048	280
682.096	380
682.111	286
682.143	34
682.191	361
682.233	-31
682.239	-97
682.286	490
682.334	-1156
682.354	-546
682.382	265
682.430	-27
682.476	366
682.477	364
682.525	-267
682.572	-617
682.598	-434
682.620	-276
682.667	629
682.715	-2
682.720	46
682.763	400
682.810	-267
682.841	-86
682.857	5
682.905	-300
682.952	1230
682.963	861
683.000	-512
683.047	1045
683.085	963
683.095	929
683.142	134
683.190	162
683.206	252
683.237	444
683.284	622
683.328	594
683.332	579
683.379	-15
683.426	868
683.449	480
683.473	103
683.521	1347
683.568	467
683.571	498
683.615	766
683.662	62
683.693	408
683.709	591
683.757	176
683.804	729
683.814	606
683.851	180
683.898	1139
683.936	918
683.945	841
683.992	1215
684.039	322
684.057	618
684.086	1124
684.133	1052
684.179	629
684.180	607
684.227	717
684.274	1822
684.300	1192
684.321	652
684.368	1193
684.415	457
684.422	449
684.462	395
684.509	135
684.543	1035
684.556	1371
684.603	308
684.649	917
684.665	940
684.696	947
684.743	1627
684.786	884
684.790	820
684.837	935
684.883	1500
684.908	1588
684.930	1655
684.977	1510
685.023	1594
685.029	1557
685.070	1178
685.117	2037
685.150	1321
685.164	1026
685.210	2090
685.257	1233
685.272	1532
685.303	2193
685.350	1036
685.393	1861
685.396	1925
685.443	1030
685.490	1843
685.514	1822
685.536	1773
685.583	1877
685.629	1410
685.636	1386
685.675	1121
685.722	967
685.757	1271
685.768	1420
685.815	1622
685.861	2146
685.878	1990
685.908	1630
685.954	1575
686.000	1353
686.000	1351
686.047	1860
686.093	2552
686.121	2978
686.139	3102
686.185	1974
686.232	2834
686.242	2516
686.278	1435
686.324	1752
686.363	1504
686.370	1468
686.416	2207
686.463	1309
686.484	1537
686.509	1812
686.555	1289
686.601	1827
686.606	1840
686.647	1954
686.693	2555
686.727	1878
686.739	1597
686.785	1980
686.831	1574
686.848	1646
686.877	1837
686.923	1304
686.969	1965
686.969	1968
687.015	1335
687.061	1983
687.090	2199
687.107	2282
687.153	2425
687.199	1437
687.211	1573
687.245	1961
687.291	1681
687.332	2350
687.336	2414
687.382	1880
687.428	2196
687.453	2043
687.474	1873
687.520	2559
687.565	1636
687.574	1610
687.611	1633
687.657	1937
687.695	2442
687.702	2545
687.748	1845
687.794	2499
687.816	2557
687.839	2526
687.885	2968
687.931	2022
687.937	2083
687.976	2441
688.022	1828
688.058	2494
688.067	2679
688.113	2075
688.158	2187
688.179	2102
688.204	1934
688.249	2554
688.295	2233
688.300	2257
688.340	2604
688.386	2420
688.421	2525
688.431	2542
688.477	2271
688.522	2866
688.542	2659
688.567	2322
688.613	2518
688.658	2000
688.663	2018
688.703	2410
688.749	1734
688.784	3255
688.794	3612
688.839	2191
688.884	2581
688.905	2205
688.930	1905
688.975	2227
689.020	2014
689.026	2038
689.065	2220
689.110	2099
689.146	2433
689.155	2508
689.201	2342
689.246	2551
689.267	2429
689.291	2307
689.336	2347
689.381	2446
689.388	2553
689.426	3141
689.471	2223
689.509	2675
689.516	2774
689.561	2625
689.606	3148
689.630	2801
689.651	2454
689.696	2695
689.741	2343
689.750	2464
689.785	2838
689.830	2391
689.871	2517
689.875	2538
689.920	1971
689.965	2035
689.992	1785
690.010	1723
690.054	2354
690.099	2498
690.112	2549
690.144	2611
690.189	2338
690.233	2446
690.233	2451
690.278	2305
690.323	2514
690.354	2220
690.367	2141
690.412	2672
690.457	2443
690.474	2605
690.501	2938
690.546	3081
690.590	3282
690.595	3292
690.635	3394
690.680	3356
690.716	3237
690.724	3226
690.769	3853
690.813	4380
690.836	4394
690.857	4615
690.902	4673
690.946	6041
690.957	6204
690.991	8128
691.035	11191
691.077	14171
691.080	14255
691.124	14841
691.168	13900
691.198	13997
691.213	13079
691.257	10265
691.301	7826
691.318	6771
691.346	6250
691.390	5593
691.434	4667
691.439	4564
691.478	4141
691.522	4166
691.559	3650
691.567	3649
691.611	3862
691.655	3969
691.680	3933
691.699	3778
691.743	4128
691.787	3390
691.800	3334
691.831	3435
691.875	3389
691.919	3952
691.921	3941
691.964	3854
692.008	4295
692.041	4072
692.052	4009
692.096	4102
692.139	3954
692.162	4117
692.183	4125
692.227	3580
692.271	3750
692.282	3600
692.315	3572
692.359	3940
692.402	3861
692.403	3868
692.447	3968
692.490	3555
692.523	3789
692.534	3966
692.578	3896
692.622	4218
692.643	4156
692.666	3933
692.709	4251
692.753	3819
692.763	3835
692.797	3938
692.840	3570
692.884	3531
692.884	3541
692.928	3184
692.971	3527
693.004	3509
693.015	3538
693.059	3934
693.102	3774
693.124	3938
693.146	4125
693.189	4217
693.233	4602
693.245	4537
693.276	4361
693.320	4830
693.363	4822
693.365	4810
693.407	4843
693.450	4893
693.485	5125
693.493	5348
693.537	6309
693.580	7136
693.605	7744
693.624	8371
693.667	9721
693.710	11239
693.725	11820
693.753	16022
693.797	22484
693.840	29928
693.845	30571
693.883	30966
693.926	30690
693.966	30796
693.970	30154
694.013	23678
694.056	16550
694.086	12019
694.099	11548
694.142	9472
694.185	8044
694.206	7092
694.229	6742
694.272	6319
694.315	5781
694.326	5658
694.358	5755
694.401	5418
694.444	5658
694.446	5648
694.487	5636
694.530	5489
694.566	5195
694.573	5120
694.616	5218
694.659	4470
694.686	4222
694.702	4242
694.745	4324
694.787	4512
694.806	4378
694.830	4080
694.873	4144
694.916	3512
694.926	3473
694.959	3711
695.002	3953
695.044	3983
695.046	3969
695.087	4013
695.130	4380
695.166	4236
695.172	4193
695.215	4586
695.258	4256
695.286	4328
695.301	4363
695.343	4297
695.386	4019
695.406	4008
695.428	4024
695.471	3800
695.514	3627
695.526	3605
695.556	3824
695.599	3943
695.641	4415
695.646	4412
695.684	4268
695.726	4147
695.766	4108
695.769	4129
695.811	4204
695.854	4306
695.886	4379
695.896	4392
695.938	4177
695.981	4432
696.005	4299
696.023	4334
696.065	4669
696.108	4752
696.125	4946
696.150	5038
696.192	4723
696.235	4562
696.245	4480
696.277	4390
696.319	4565
696.361	4534
696.365	4516
696.404	4530
696.446	4437
696.485	4598
696.488	4617
696.530	4274
696.572	4366
696.604	4186
696.614	4167
696.656	4250
696.698	4135
696.724	4124
696.740	4201
696.783	4218
696.825	4368
696.844	4403
696.867	4408
696.909	4464
696.951	4323
696.964	4351
696.992	4452
697.034	4269
697.076	4210
697.083	4191
697.118	4317
697.160	4520
697.202	4527
697.203	4514
697.244	4515
697.286	4467
697.323	4385
697.327	4411
697.369	4424
697.411	4648
697.442	4601
697.453	4579
697.494	4674
697.536	4602
697.562	4558
697.578	4630
697.620	4801
697.661	4963
697.682	4998
697.703	4945
697.744	4931
697.786	4849
697.801	4802
697.828	5222
697.869	5826
697.911	6505
697.921	6629
697.952	5996
697.994	5208
698.035	4372
698.040	4262
698.077	4461
698.118	4592
698.160	4796
698.160	4782
698.201	4637
698.243	4553
698.279	4395
698.284	4434
698.325	4737
698.367	4974
698.399	5153
698.408	5116
698.449	4827
698.491	4651
698.518	4437
698.532	4474
698.573	4586
698.614	4703
698.638	4751
698.656	4818
698.697	4945
698.738	5080
698.757	5109
698.779	5061
698.820	4970
698.862	4860
698.877	4811
698.903	5176
698.944	5719
698.985	6273
698.996	6406
699.026	6269
699.067	6054
699.116	5780
699.235	4755
699.354	4440
699.474	5623
699.593	5761
699.713	6607
699.832	4801
699.951	5539
700.070	5946
700.190	5752
700.309	5361
700.428	5327
700.547	5467
700.667	5293
700.786	6192
700.905	5500
701.024	5027
701.143	5782
701.262	4791
701.381	5478
701.500	5022
701.619	6267
701.738	5629
701.857	4774
701.976	4147
702.095	4566
702.214	4977
702.333	5132
702.452	5129
702.571	3887
702.690	5200
702.809	4282
702.928	4149
703.047	4594
703.165	4832
703.284	4441
703.403	4318
703.522	5462
703.640	6461
703.759	5731
703.878	9212
703.997	5866
704.115	4635
704.234	4067
704.353	4290
704.471	4177
704.590	4569
704.708	3914
704.827	4488
704.946	3984
705.064	4214
705.183	4423
705.301	5149
705.420	6636
705.538	7305
705.656	4957
705.775	5719
705.893	8147
706.012	12053
706.130	5557
706.249	5793
706.367	4842
706.485	6267
706.604	5194
706.722	5491
706.840	6828
706.958	7931
707.077	6289
707.195	5021
707.313	5099
707.431	4682
707.549	4738
707.668	5187
707.786	5556
707.904	5482
708.022	4563
708.140	5269
708.258	4567
708.376	5356
708.494	4395
708.612	5507
708.730	6805
708.848	7701
708.966	6564
709.084	6263
709.202	6132
709.320	6894
709.438	4656
709.556	6032
709.674	5941
709.791	6554
709.909	6049
710.027	5440
710.145	5360
710.263	6019
710.380	4967
710.498	5523
710.616	5501
710.733	5552
710.851	6406
710.969	6866
711.086	5521
711.204	6109
711.322	6388
711.439	5857
711.557	5818
711.674	5767
711.792	5348
711.909	6295
712.027	6010
712.144	5195
712.262	4954
712.379	5803
712.497	7864
712.614	7976
712.732	6665
712.849	6377
712.966	7094
713.084	9542
713.201	6835
713.318	6680
713.436	6476
713.553	6614
713.670	5884
713.787	7344
713.905	8351
714.022	6469
714.139	6740
714.256	7102
714.373	7580
714.490	10780
714.608	15934
714.725	61562
714.842	111832
714.959	13612
715.076	6850
715.193	6655
715.310	6095
715.427	5580
715.544	6185
715.661	6214
715.778	5827
715.895	6615
716.011	6709
716.128	6198
716.245	5753
716.362	6893
716.479	6946
716.596	5550
716.713	6643
716.829	5734
716.946	5102
717.063	5537
717.180	5183
717.296	5583
717.413	5375
717.530	5779
717.646	5333
717.763	4632
717.880	4692
717.996	5289
718.113	5257
718.229	4714
718.346	3822
718.462	4997
718.579	6320
718.695	9842
718.812	9433
718.928	7831
719.045	6965
719.161	4824
719.277	4367
719.394	5033
719.510	5679
719.626	4485
719.743	6120
719.859	5404
719.975	7427
720.092	15531
720.208	47855
720.324	14248
720.440	5022
720.557	5781
720.673	7390
720.789	12555
720.905	23938
721.021	14053
721.137	4409
721.253	5017
721.369	4539
721.486	5758
721.602	7766
721.718	5078
721.834	4185
721.950	4883
722.066	3514
722.181	4547
722.297	4424
722.413	4502
722.529	4145
722.645	5008
722.761	3914
722.877	3812
722.993	3152
723.108	4069
723.224	3637
723.340	4204
723.456	3930
723.571	4512
723.687	3987
723.803	3454
723.918	3587
724.034	3838
724.150	3574
724.265	4918
724.381	8534
724.497	14724
724.612	3317
724.728	3775
724.843	3924
724.959	5037
725.074	8583
725.190	13535
725.305	4907
725.421	4464
725.536	3245
725.651	3824
725.767	3982
725.882	3407
725.997	3150
726.113	3988
726.228	3620
726.343	3837
726.459	2804
726.574	3590
726.689	3891
726.804	3272
726.920	3461
727.035	3873
727.150	3646
727.265	3106
727.380	4121
727.495	4641
727.610	3899
727.725	3982
727.841	3009
727.956	5218
728.071	6935
728.186	3728
728.301	2259
728.416	3279
728.531	2647
728.645	3001
728.760	3536
728.875	4784
728.990	3917
729.105	3623
729.220	3253
729.335	3517
729.449	3602
729.564	2885
729.679	2003
729.794	2318
729.908	3455
730.023	3512
730.138	2820
730.253	2524
730.367	2767
730.482	2552
730.596	2808
730.711	3202
730.826	3060
730.940	3009
731.055	2648
731.169	2141
731.284	2416
731.398	2534
731.513	3311
731.627	3390
731.742	3224
731.856	4267
731.970	2774
732.085	3171
732.199	2837
732.313	3667
732.428	6529
732.542	18754
732.656	19017
732.771	4866
732.885	2828
732.999	2211
733.113	2581
733.227	2928
733.342	2673
733.456	2610
733.570	2569
733.684	2254
733.798	2570
733.912	1901
734.026	2343
734.140	2451
734.254	2739
734.368	4435
734.482	8013
734.596	2644
734.710	2315
734.824	2194
734.938	2567
735.052	2122
735.166	3097
735.280	3140
735.393	2591
735.507	1973
735.621	3824
735.735	5621
735.849	4435
735.962	2066
736.076	2606
736.190	2718
736.303	3185
736.417	6601
736.531	1596
736.644	2494
736.758	2435
736.872	2271
736.985	2013
737.099	3078
737.212	2245
737.326	3746
737.439	2686
737.553	2308
737.666	2246
737.780	1980
737.893	1846
738.007	1753
738.120	1915
738.233	1479
738.347	2531
738.460	2099
738.573	1648
738.687	1918
738.800	2744
738.913	3136
739.026	2917
739.140	2436
739.253	2491
739.366	2630
739.479	1662
739.592	2228
739.705	2615
739.818	1772
739.932	2431
740.045	2786
740.158	2381
740.271	2515
740.384	2165
740.497	2752
740.610	2978
740.723	3760
740.836	2605
740.949	3341
741.062	3416
741.174	3530
741.287	1134
741.400	1993
741.513	2500
741.626	3699
741.739	3268
741.851	3192
741.964	1993
742.077	1764
742.189	2852
742.302	5187
742.415	4922
742.527	2476
742.640	2496
742.753	1929
742.865	1582
742.978	1854
743.090	2058
743.203	1658
743.316	996
743.428	1486
743.541	1247
743.653	1460
743.766	634
743.878	2566
743.990	2405
744.103	5134
744.215	6390
744.327	2869
744.440	2431
744.552	4303
744.664	3003
744.777	1315
744.889	1579
745.001	2037
745.113	1174
745.226	1318
745.338	1149
745.450	1625
745.562	826
745.674	1569
745.786	1791
745.898	1659
746.010	2100
746.122	1439
746.234	1543
746.347	1956
746.459	2536
746.570	1289
746.682	3715
746.794	8941
746.906	4632
747.018	1680
747.130	1465
747.242	1619
747.354	1645
747.466	2077
747.577	1004
747.689	1478
747.801	1101
747.913	1662
748.024	921
748.136	467
748.248	1497
748.359	1654
748.471	1056
748.583	1067
748.694	1039
748.806	2455
748.918	1858
749.029	2249
749.141	1952
749.252	1846
749.364	1866
749.475	4622
749.587	3189
749.698	1940
749.809	2000
749.921	1567
750.032	632
750.144	1576
750.255	1055
750.366	847
750.478	1448
750.589	1481
750.700	1158
750.811	1802
750.923	1914
751.034	4011
751.145	6044
751.256	1890
751.367	1042
751.479	1215
751.590	1006
751.701	1011
751.812	462
751.923	2173
752.034	738
752.145	1217
752.256	749
752.367	1599
752.478	973
752.589	1099
752.700	947
752.811	1062
752.922	1281
753.032	1739
753.143	1458
753.254	1457
753.365	942
753.476	1818
753.586	1011
753.697	593
753.808	1450
753.919	1366
754.029	-27
754.140	1088
754.251	1558
754.361	872
754.472	1164
754.582	1550
754.693	1793
754.804	1920
754.914	1001
755.025	723
755.135	693
755.246	1186
755.356	411
755.466	1541
755.577	1185
755.687	1451
755.798	1580
755.908	1335
756.018	1529
756.129	1044
756.239	779
756.349	866
756.460	851
756.570	1081
756.680	1395
756.790	634
756.900	1225
757.011	841
757.121	886
757.231	219
757.341	1364
757.451	1387
757.561	1300
757.671	764
757.781	1145
757.891	1619
758.001	1156
758.111	1447
758.221	1018
758.331	1401
758.441	1557
758.551	2373
758.661	2139
758.771	1156
758.880	794
758.990	2213
759.100	1012
759.210	1590
759.320	1377
759.429	1573
759.539	1679
759.649	1171
759.758	1370
759.868	1692
759.978	1478
760.087	1391
760.197	1475
760.307	1720
760.416	2019
760.526	1379
760.635	810
760.745	1762
760.854	2429
760.964	1962
761.073	2793
761.182	1322
761.292	1900
761.401	2345
761.511	2057
761.620	2783
761.729	2101
761.839	2236
761.948	2236
762.057	2063
762.166	2178
762.276	1054
762.385	2020
762.494	3056
762.603	1832
762.712	2621
762.822	2255
762.931	2637
763.040	2235
763.149	1974
763.258	2349
763.367	3093
763.476	3320
763.585	3482
763.694	3465
763.803	4129
763.912	3404
764.021	3924
764.130	3475
764.238	4266
764.347	4686
764.456	4325
764.565	4307
764.674	5723
764.783	5930
764.891	6221
765.000	7281
765.109	8364
765.217	9324
765.326	10562
765.435	13111
765.543	15864
765.652	19559
765.761	24933
765.869	35349
765.978	53462
766.086	88971
766.195	165234
766.303	344379
766.412	633184
766.520	635933
766.629	363181
766.737	151533
766.846	81761
766.954	53722
767.062	37744
767.171	27878
767.279	22097
767.387	17583
767.496	13565
767.604	11652
767.712	10120
767.820	9702
767.928	9333
768.037	9118
768.145	8277
768.253	7972
768.361	7702
768.469	7551
768.577	7798
768.685	8176
768.793	8240
768.901	8314
769.009	10387
769.117	12610
769.225	14781
769.333	22252
769.441	34694
769.549	63640
769.657	132858
769.765	330534
769.873	566092
769.981	373840
770.088	125382
770.196	54992
770.304	34012
770.412	22985
770.519	17528
770.627	12836
770.735	10649
770.842	8605
770.950	7831
771.058	8015
771.165	6556
771.273	5613
771.380	5340
771.488	4473
771.595	4506
771.703	3706
771.810	3779
771.918	3442
772.025	3305
772.133	2959
772.240	2547
772.348	3697
772.455	3295
772.562	1897
772.670	3503
772.777	2210
772.884	2201
772.991	2129
773.099	3225
773.206	1706
773.313	2300
773.420	2829
773.528	1744
773.635	2523
773.742	2326
773.849	1148
773.956	1846
774.063	1217
774.170	1833
774.277	1975
774.384	1750
774.491	1597
774.598	1906
774.705	2203
774.812	2249
774.919	1965
775.026	2389
775.133	1808
775.239	1175
775.346	1601
775.453	1870
775.560	1452
775.667	2092
775.773	847
775.880	1303
775.987	1428
776.093	1746
776.200	1469
776.307	1206
776.413	1618
776.520	694
776.627	1586
776.733	2226
776.840	447
776.946	2844
777.053	5442
777.159	16315
777.266	9798
777.372	13477
777.478	11826
777.585	6207
777.691	1885
777.798	1585
777.904	2402
778.010	2770
778.117	1776
778.223	2162
778.329	1139
778.435	1040
778.542	1577
778.648	611
778.754	353
778.860	1498
778.966	205
779.072	1351
779.178	1218
779.284	1109
779.391	1363
779.497	953
779.603	2211
779.708	2590
779.815	7074
779.920	24782
780.026	61463
780.132	13932
780.238	1524
780.344	410
780.450	2228
780.556	1111
780.661	394
780.767	939
780.873	186
780.979	1925
781.085	522
781.190	1270
781.296	671
781.402	421
781.507	-3
781.613	277
781.719	803
781.824	404
781.930	665
782.035	1304
782.141	240
782.246	1002
782.352	1402
782.457	1149
782.563	235
782.668	642
782.773	239
782.879	456
782.984	1495
783.090	578
783.195	1708
783.300	2054
783.405	214
783.511	1635
783.616	625
783.721	1270
783.826	562
783.932	529
784.037	1281
784.142	1392
784.247	1733
784.352	312
784.457	903
784.562	414
784.667	1975
784.772	694
784.877	114
784.982	767
785.087	859
785.192	1202
785.297	650
785.402	540
785.507	1295
785.611	1034
785.716	-167
785.821	792
785.926	-344
786.031	1171
786.135	594
786.240	1079
786.345	394
786.450	781
786.554	79
786.659	-264
786.763	-1038
786.868	1464
786.973	538
787.077	112
787.182	265
787.286	1193
787.391	68
787.495	101
787.600	-398
787.704	68
787.809	554
787.913	271
788.017	1112
788.122	436
788.226	631
788.330	237
788.435	-267
788.539	292
788.643	-302
788.747	470
788.852	373
788.956	47
789.060	948
789.164	232
789.268	69
789.372	797
789.476	416
789.580	0
789.684	313
789.788	345
789.892	-58
789.996	1247
790.100	716
790.204	868
790.308	37
790.412	655
790.516	713
790.620	206
790.724	564
790.828	438
790.931	-268
791.035	1292
791.139	366
791.242	-388
791.346	1001
791.450	-292
791.554	-619
791.657	-110
791.761	1373
791.864	942
791.968	-77
792.072	746
792.175	95
792.279	245
792.382	-30
792.486	677
792.589	1075
792.693	998
792.796	412
792.899	422
793.003	-160
793.106	-52
793.209	-277
793.313	1133
793.416	-13
793.519	801
793.623	1510
793.726	2193
793.829	592
793.932	910
794.035	-342
794.138	1144
794.242	896
794.345	864
794.448	1864
794.551	4845
794.654	12899
794.757	29611
794.860	7835
794.963	1591
795.066	-186
795.169	1170
795.272	445
795.375	535
795.477	46
795.580	308
795.683	-326
795.786	383
795.889	-650
795.991	1201
796.094	496
796.197	-611
796.300	816
796.402	-353
796.505	-13
796.608	513
796.710	367
796.813	1120
796.915	-506
797.018	8
797.120	-151
797.223	-225
797.326	334
797.428	-774
797.530	41
797.633	-470
797.735	765
797.838	882
797.940	1292
798.042	-752
798.145	-103
798.247	96
798.349	-870
798.452	-14
798.554	-288
798.656	-198
798.758	-297
798.860	400
798.962	-361
799.065	-242
799.167	-744
799.269	294
799.371	-272
799.473	110
799.575	495
799.677	742
799.779	745
799.881	-209
799.983	930
800.085	600
800.187	569
800.289	10
800.390	-282
800.492	353
800.594	501
800.696	-46
800.798	245
800.899	-769
801.001	-186
801.103	-791
801.205	-1218
801.306	-204
801.408	-817
801.509	-134
801.611	-187
801.713	423
801.814	-482
801.916	-751
802.017	86
802.119	-259
802.220	-279
802.322	-1158
802.423	1621
802.525	-719
802.626	-271
802.727	-561
802.829	80
802.930	-1405
803.031	891
803.133	-201
803.234	-511
803.335	83
803.436	-1120
803.538	609
803.639	-933
803.740	-423
803.841	-816
803.942	-1113
804.043	39
804.144	-77
804.245	-404
804.346	0
804.447	-891
804.548	-653
804.649	495
804.750	-77
804.851	-1264
804.952	-877
805.053	-624
805.154	-1431
805.255	-225
805.355	-936
805.456	-379
805.557	-63
805.658	-1482
805.758	-337
805.859	257
805.960	-218
806.061	-1316
806.161	-185
806.262	-495
806.362	296
806.463	-80
806.564	-706
806.664	-531
806.765	-120
806.865	-332
806.966	-331
807.066	-274
807.166	205
807.267	-400
807.367	-228
807.468	-607
807.568	-1265
807.668	-543
807.769	323
807.869	-859
807.969	-345
808.069	-637
808.170	99
808.270	-818
808.370	-465
808.470	366
808.570	-61
808.670	-378
808.770	114
808.870	-1114
808.970	-247
809.070	-583
809.170	-317
809.271	65
809.370	-1006
809.470	-766
809.570	-277
809.670	83
809.770	-266
809.870	-438
809.970	675
810.070	-159
810.169	493
810.269	-1513
810.369	781
810.469	-232
810.568	-1163
810.668	-458
810.768	-434
810.867	-542
810.967	-233
811.066	-262
811.166	-358
811.265	-370
811.365	-464
811.464	-901
811.564	410
811.663	-516
811.763	-511
811.862	-120
811.962	-177
812.061	-1042
812.160	-603
812.260	-422
812.359	380
812.458	-71
812.557	505
812.657	1468
812.756	631
812.855	-148
812.954	-93
813.053	-48
813.153	-976
813.252	-1051
813.351	589
813.450	-304
813.549	-293
813.648	352
813.747	-689
813.846	-687
813.945	-469
814.044	-617
814.143	-694
814.242	-504
814.341	-30
814.439	-188
814.538	169
814.637	-55
814.736	34
814.835	-359
814.933	-355
815.032	-490
815.131	-366
815.229	-120
815.328	243
815.427	3
815.525	-10
815.624	-795
815.722	-417
815.821	180
815.919	-326
816.018	-429
816.116	368
816.215	-479
816.313	-418
816.412	-646
816.510	760
816.609	771
816.707	-220
816.805	26
816.904	-93
817.002	223
817.100	693
817.198	689
817.296	178
817.395	522
817.493	1418
817.591	968
817.689	1669
817.787	2507
817.885	5363
817.983	11897
818.081	24312
818.179	62133
818.277	166791
818.375	203864
818.473	58588
818.571	16615
818.669	9200
818.767	8758
818.865	7707
818.963	8805
819.061	12101
819.158	22932
819.256	51692
819.354	123935
819.452	309288
819.549	274142
819.647	73070
819.745	23107
819.842	13062
819.940	7194
820.038	5106
820.135	4399
820.233	3562
820.330	2453
820.428	1743
820.525	1451
820.623	1062
820.720	477
820.818	1113
820.915	869
821.012	2011
821.110	568
821.207	1030
821.304	422
821.402	876
821.499	2209
821.596	4515
821.693	3271
821.791	1294
821.888	678
821.985	2193
822.082	2373
822.179	2040
822.276	1422
822.373	1199
822.470	-80
822.567	-91
822.664	-708
822.761	378
822.858	-701
822.955	437
823.052	172
823.149	-603
823.246	364
823.343	-272
823.440	462
823.536	-139
823.633	-532
823.730	8
823.827	-80
823.923	-122
824.020	800
824.117	163
824.213	1148
824.310	1171
824.407	-624
824.503	-737
824.600	-459
824.696	174
824.793	136
824.889	-1461
824.986	-787
825.082	-544
825.179	-111
825.275	-717
825.371	-862
825.468	-255
825.564	-644
825.660	-288
825.757	-703
825.853	-281
825.949	-526
826.045	-51
826.142	-1649
826.238	-790
826.334	-353
826.430	-1006
826.526	-840
826.622	-726
826.718	-845
826.814	-677
826.910	-446
827.006	-1171
827.102	-1270
827.198	-71
827.294	-451
827.390	-61
827.486	-679
827.582	-819
827.678	-1366
827.774	-833
827.869	-1075
827.965	810
828.061	-763
828.157	-515
828.252	-707
828.348	-1509
828.444	205
828.539	-906
828.635	-759
828.731	-468
828.826	-788
828.922	-416
829.017	-855
829.113	273
829.208	-704
829.304	-682
829.399	-81
829.495	-818
829.590	-417
829.685	-769
829.781	-548
829.876	-601
829.971	-1835
830.066	-129
830.162	-1389
830.257	-659
830.352	-1234
830.447	285
830.543	-667
830.638	-1740
830.733	477
830.828	-844
830.923	-489
831.018	-992
831.113	-272
831.208	-1176
831.303	-739
831.398	-1096
831.493	-1239
831.588	-201
831.683	-1040
831.778	-1019
831.873	-73
831.967	-245
832.062	-887
832.157	-1050
832.252	81
832.346	-761
832.441	-52
832.536	383
832.631	1047
832.725	1345
832.820	-861
832.914	-1302
833.009	-846
833.104	-1004
833.198	99
833.293	-878
833.387	-310
833.482	-825
833.576	-1028
833.670	-505
833.765	-499
833.859	-329
833.954	29
834.048	-1120
834.142	-1031
834.237	-1208
834.331	-1547
834.425	-855
834.519	-1445
834.613	-285
834.708	-711
834.802	-426
834.896	-1569
834.990	68
835.084	-394
835.178	-858
835.272	-656
835.366	-1017
835.460	-731
835.554	-335
835.648	-877
835.742	-788
835.836	-689
835.930	-1420
836.024	103
836.117	-406
836.211	-785
836.305	-94
836.399	208
836.493	-1639
836.586	-944
836.680	-1213
836.774	-1259
836.867	384
836.961	-417
837.055	-1202
837.148	-475
837.242	-784
837.335	-991
837.429	-156
837.522	-438
837.616	-1004
837.709	-315
837.803	708
837.896	-75
837.989	-556
838.083	-658
838.176	584
838.269	448
838.363	-150
838.456	-863
838.549	83
838.642	-35
838.735	1042
838.829	925
838.922	-921
839.015	-905
839.108	-1780
839.201	-822
839.294	-240
839.387	-238
839.480	-780
839.573	-703
839.666	-388
839.759	-564
839.852	-375
839.945	-1374
840.038	-80
840.131	-1297
840.223	-972
840.316	-809
840.409	-1143
840.502	-1250
840.594	178
840.687	-1616
840.780	-736
840.873	-817
840.965	-803
841.058	-386
841.150	670
841.243	-162
841.336	-308
841.428	243
841.521	-1089
841.613	-1184
841.706	-39
841.798	-335
841.890	-899
841.983	-1321
842.075	-649
842.167	-1259
842.260	-261
842.352	80
842.444	263
842.537	275
842.629	2242
842.721	-82
842.813	-73
842.905	-1144
842.997	-234
843.090	-837
843.182	-10
843.274	866
843.366	3503
843.458	7870
843.550	6270
843.642	1477
843.734	373
843.826	141
843.918	-162
844.009	-153
844.101	-531
844.193	-919
844.285	-659
844.377	-144
844.469	1781
844.560	1971
844.652	1603
844.744	272
844.835	163
844.927	-1293
845.019	-521
845.110	467
845.202	-987
845.293	-1035
845.385	-997
845.476	-405
845.568	291
845.659	-35
845.751	-656
845.842	-832
845.934	-1316
846.025	-963
846.116	-99
846.208	-1064
846.299	-627
846.390	-852
846.482	-285
846.573	-619
846.664	-168
846.755	-90
846.846	475
846.937	-1551
847.029	-776
847.120	-1125
847.211	-865
847.302	407
847.393	-1071
847.484	-605
847.575	-187
847.666	-999
847.757	-498
847.847	-500
847.938	-316
848.029	-528
848.120	-626
848.211	-849
848.302	-381
848.392	-1302
848.483	-1244
848.574	-1593
848.664	-1675
848.755	-504
848.846	-401
848.936	-828
849.027	-997
849.118	-863
849.208	-1239
849.299	-204
849.389	657
849.480	11
849.570	1671
849.661	3535
849.751	9194
849.841	5558
849.932	592
850.022	-1095
850.112	-777
850.203	-432
850.293	-968
850.383	-1205
850.474	-1784
850.564	-1123
850.654	-726
850.744	-923
850.834	-1417
850.924	-730
851.014	-806
851.104	-453
851.194	-676
851.284	-500
851.374	-419
851.464	-1155
851.554	-456
851.644	-739
851.734	-2
851.824	-432
851.914	-888
852.004	-1016
852.094	-782
852.183	-1029
852.273	-502
852.363	-719
852.452	-1181
852.542	-430
852.632	-556
852.721	-814
852.811	-1829
852.901	-929
852.990	-188
853.080	-895
853.169	-937
853.259	-369
853.348	-903
853.438	-640
853.527	-457
853.617	-249
853.706	1150
853.795	3267
853.885	8724
853.974	18281
854.063	32705
854.152	69160
854.242	42977
854.331	4136
854.420	541
854.509	-93
854.598	552
854.687	-856
854.777	312
854.866	-220
854.955	179
855.044	-1353
855.133	-1247
855.222	-24
855.311	-535
855.400	-432
855.488	-435
855.577	-977
855.666	-297
855.755	87
855.844	-458
855.933	-738
856.021	343
856.110	-967
856.199	-1195
856.288	-1346
856.376	-714
856.465	-731
856.554	-99
856.642	-510
856.731	-600
856.819	-917
856.908	-712
856.996	-1718
857.085	-900
857.173	-980
857.262	-163
857.350	-608
857.438	-1864
857.527	-1095
857.615	-1234
857.703	-557
857.792	-666
857.880	-1488
857.968	-999
858.056	-698
858.145	60
858.233	-896
858.321	-806
858.409	-585
858.497	-1116
858.585	-1613
858.673	-1022
858.761	-1731
858.849	-823
858.937	-1041
859.025	-1002
859.113	-757
859.201	-692
859.289	-221
859.377	-937
859.465	-1057
859.552	-1539
859.640	-1806
859.728	-456
859.816	-1175
859.903	-1025
859.991	-471
860.079	-311
860.166	-1228
860.254	-223
860.342	-882
860.429	-777
860.517	-1518
860.604	-470
860.692	-1100
860.779	-841
860.867	-358
860.954	-1626
861.042	-1331
861.129	-848
861.216	-1296
861.304	-1343
861.391	-728
861.478	-19
861.565	-544
861.653	-802
861.740	-1699
861.827	-476
861.914	-1146
862.001	-813
862.089	-1618
862.176	-681
862.263	-830
862.350	-880
862.437	-1158
862.524	-1419
862.611	-648
862.698	-522
862.785	67
862.871	375
862.958	-903
863.045	-549
863.132	-1599
863.219	-1249
863.306	-1531
863.392	-494
863.479	-786
863.566	-1047
863.652	-615
863.739	-1093
863.826	-779
863.912	-201
863.999	-945
864.086	-344
864.172	-760
864.259	-583
864.345	-192
864.432	-142
864.518	-1609
864.604	-517
864.691	-823
864.777	-1152
864.863	-814
864.950	-465
865.036	-1095
865.122	-241
865.209	-705
865.295	-292
865.381	-374
865.467	317
865.553	-716
865.639	-682
865.726	689
865.812	3157
865.898	8245
865.984	12526
866.070	22430
866.156	39167
866.242	13973
866.328	1043
866.414	-625
866.499	220
866.585	-24
866.671	-702
866.757	-806
866.843	-949
866.928	-480
867.014	-1326
867.100	-339
867.186	-212
867.271	-356
867.357	237
867.442	-39
867.528	-129
867.614	-1077
867.699	134
867.785	1084
867.870	1406
867.956	3220
868.041	1697
868.127	408
868.212	1718
868.297	1385
868.383	196
868.468	910
868.553	1108
868.639	1193
868.724	1200
868.809	2309
868.894	-161
868.979	-1081
869.065	-557
869.150	-1005
869.235	-545
869.320	-1636
869.405	-1226
869.490	-1281
869.575	-1100
869.660	-728
869.745	-1006
869.830	-1907
869.915	-84
870.000	-1249
870.085	-503
870.169	31
870.254	-235
870.339	-1403
870.424	-822
870.509	-608
870.593	-835
870.678	-794
870.763	-1351
870.847	-588
870.932	-669
871.016	153
871.101	359
871.186	-1474
871.270	-1148
871.355	-1089
871.439	-1397
871.523	-821
871.608	-792
871.692	-776
871.777	289
871.861	-886
871.945	-627
872.030	-1118
872.114	-709
872.198	-1793
872.282	-1086
872.367	-1294
872.451	-789
872.535	-1711
872.619	-618
872.703	-744
872.787	-924
872.871	-1617
872.955	-780
873.039	-1226
873.123	-960
873.207	-741
873.291	-844
873.375	-1078
873.459	-1168
873.543	-1066
873.627	-1545
873.711	-599
873.794	18
873.878	-994
873.962	-1228
874.045	-1053
874.129	-933
874.137	-899
874.213	-558
874.245	-603
874.296	-672
874.352	-1066
874.380	-1265
874.460	-1698
874.464	-1714
874.547	-255
874.568	-401
874.631	-879
874.676	-1112
874.714	-1286
874.784	-539
874.798	-397
874.881	-166
874.892	-228
874.965	-619
874.999	-516
875.048	-387
875.107	-260
875.131	-221
875.215	-186
875.215	-187
875.298	-1383
875.323	-1431
875.381	-1564
875.430	-1164
875.465	-901
875.538	-1491
875.548	-1557
875.631	-809
875.646	-780
875.714	-841
875.753	-892
875.798	-853
875.861	-765
875.881	-752
875.964	-869
875.968	-892
876.047	-1271
876.076	-1107
876.130	-865
876.183	-1067
876.213	-1089
876.291	-381
876.296	-350
876.379	-817
876.398	-818
876.462	-752
876.506	-779
876.545	-826
876.613	-857
876.628	-824
876.711	-409
876.721	-394
876.794	-474
876.828	-582
876.877	-655
876.935	-985
876.960	-1163
877.043	-210
877.043	-212
877.125	-381
877.150	-188
877.208	208
877.258	-254
877.291	-526
877.365	-295
877.374	-262
877.456	370
877.472	376
877.539	228
877.579	58
877.622	-112
877.687	-57
877.704	3
877.787	-577
877.794	-559
877.869	-474
877.901	-329
877.952	1
878.008	-218
878.034	-350
878.115	-489
878.117	-491
878.199	-1011
878.222	-761
878.282	-75
878.329	-334
878.364	-491
878.437	198
878.447	261
878.529	-503
878.544	-441
878.611	-50
878.651	-284
878.694	-429
878.758	-451
878.776	-489
878.858	-726
878.865	-714
878.941	-619
878.972	-816
879.023	-930
879.078	-620
879.105	-588
879.185	-374
879.187	-364
879.269	23
879.292	-188
879.351	-691
879.399	-642
879.433	-674
879.506	-373
879.516	-323
879.598	-352
879.613	-501
879.680	-1029
879.720	-605
879.762	-163
879.827	-582
879.844	-732
879.926	-467
879.933	-450
880.007	-65
880.040	-89
880.089	-153
880.147	126
880.171	222
880.253	798
880.254	796
880.335	964
880.360	1376
880.417	2479
880.467	3599
880.499	4827
880.574	8443
880.580	8415
880.662	3473
880.680	2565
880.744	508
880.787	73
880.825	-62
880.893	-382
880.907	-361
880.989	-211
881.000	-242
881.070	-422
881.106	-408
881.152	-456
881.213	-254
881.233	-256
881.315	-424
881.319	-455
881.396	-68
881.426	84
881.478	-68
881.532	-50
881.559	-56
881.639	-532
881.641	-539
881.722	-148
881.745	-231
881.803	-28
881.852	277
881.885	152
881.958	-120
881.966	-100
882.047	87
882.064	13
882.129	-353
882.171	-247
882.210	330
882.277	1436
882.291	1445
882.372	849
882.383	764
882.454	306
882.489	175
882.535	129
882.596	-151
882.616	-238
882.697	-355
882.702	-386
882.778	-539
882.808	-367
882.859	-133
882.914	136
882.940	259
883.020	-268
883.021	-266
883.102	247
883.127	366
883.183	328
883.233	84
883.264	-23
883.339	-118
883.345	-98
883.426	111
883.445	173
883.507	191
883.551	129
883.587	-64
883.657	-189
883.668	-57
883.749	456
883.763	551
883.830	137
883.869	-78
883.910	55
883.975	435
883.991	489
884.072	620
884.081	584
884.152	112
884.187	64
884.233	174
884.292	36
884.314	-25
884.394	84
884.398	82
884.475	-249
884.504	-400
884.555	-130
884.610	274
884.636	222
884.716	-583
884.716	-573
884.797	756
884.821	1048
884.877	498
884.927	1
884.958	100
885.033	376
885.038	377
885.118	196
885.139	182
885.199	431
885.244	625
885.279	429
885.350	-188
885.359	-164
885.439	281
885.456	316
885.520	267
885.561	277
885.600	165
885.667	-25
885.680	4
885.760	281
885.773	279
885.840	371
885.878	427
885.920	423
885.984	541
886.000	568
886.080	765
886.089	728
886.160	58
886.195	-84
886.240	401
886.300	902
886.320	862
886.400	755
886.406	730
886.480	875
886.511	989
886.560	980
886.616	892
886.640	960
886.720	1175
886.722	1169
886.800	611
886.827	449
886.879	420
886.932	406
886.959	554
887.038	726
887.039	737
887.119	1048
887.143	1123
887.198	858
887.248	740
887.278	748
887.354	563
887.358	571
887.437	618
887.459	649
887.517	927
887.564	1051
887.596	864
887.669	475
887.676	488
887.755	625
887.774	648
887.835	807
887.880	934
887.914	877
887.985	602
887.994	627
888.073	976
888.090	1020
888.153	703
888.195	484
888.232	648
888.300	937
888.311	976
888.391	1221
888.405	1254
888.470	822
888.510	572
888.549	785
888.615	1039
888.628	1006
888.708	878
888.720	840
888.787	978
888.825	1070
888.866	770
888.930	292
888.945	382
889.024	787
889.035	847
889.103	551
889.140	361
889.182	697
889.245	1183
889.261	1114
889.340	775
889.349	732
889.419	1390
889.454	1701
889.498	1096
889.559	254
889.577	463
889.656	1371
889.664	1457
889.735	880
889.768	600
889.814	1013
889.873	1555
889.978	1062
890.083	1163
890.187	891
890.292	1110
890.397	1353
890.501	1345
890.606	1193
890.710	1035
890.815	1123
890.919	1389
891.024	623
891.128	1057
891.233	339
891.337	1081
891.442	1316
891.546	1879
891.650	864
891.755	1857
891.859	1319
891.963	1485
892.068	1023
892.172	959
892.276	874
892.380	1874
892.484	708
892.589	545
892.693	360
892.797	1353
892.901	1645
893.005	1011
893.109	1322
893.213	639
893.317	816
893.421	1499
893.525	124
893.629	1099
893.733	139
893.837	1835
893.941	673
894.045	1066
894.148	766
894.252	1364
894.356	1152
894.460	1135
894.564	535
894.667	878
894.771	189
894.875	1330
894.978	130
895.082	782
895.186	1376
895.289	1010
895.393	971
895.496	661
895.600	579
895.703	1572
895.807	403
895.910	860
896.014	1290
896.117	374
896.221	160
896.324	1222
896.427	269
896.531	990
896.634	370
896.737	1686
896.840	259
896.944	441
897.047	224
897.150	40
897.253	920
897.356	1296
897.460	550
897.563	995
897.666	-561
897.769	996
897.872	41
897.975	752
898.078	340
898.181	944
898.284	-234
898.387	668
898.490	568
898.593	1129
898.695	523
898.798	397
898.901	808
899.004	1270
899.107	-519
899.209	1036
899.312	1008
899.415	886
899.518	19
899.620	781
899.723	-202
899.826	1734
899.928	1721
900.031	765
900.133	32
900.236	546
900.338	92
900.441	650
900.543	416
900.646	959
900.748	174
900.851	1174
900.953	1339
901.055	-158
901.158	1223
901.260	1072
901.362	600
901.465	1223
901.567	1062
901.669	1502
901.771	433
901.873	578
901.976	-322
902.078	1502
902.180	964
902.282	712
902.384	-76
902.486	200
902.588	1029
902.690	1259
902.792	788
902.894	2150
902.996	974
903.098	245
903.200	844
903.302	1109
903.404	763
903.505	44
903.607	508
903.709	1515
903.811	1492
903.913	171
904.014	544
904.116	1159
904.218	1434
904.319	1882
904.421	1772
904.523	3675
904.624	1902
904.726	1723
904.827	1085
904.929	2900
905.030	1116
905.132	1934
905.233	177
905.335	1274
905.436	692
905.537	702
905.639	672
905.740	619
905.841	1083
905.943	1389
906.044	2018
906.145	1292
906.247	1337
906.348	902
906.449	1407
906.550	895
906.651	483
906.752	374
906.854	244
906.955	590
907.056	324
907.157	93
907.258	799
907.359	670
907.460	573
907.561	659
907.662	392
907.762	756
907.863	626
907.964	1164
908.065	185
908.166	736
908.267	371
908.367	1090
908.468	992
908.569	349
908.670	787
908.770	975
908.871	857
908.971	1884
909.072	1043
909.173	818
909.273	1082
909.374	362
909.474	11
909.575	1103
909.675	500
909.776	331
909.876	62
909.977	1182
910.077	339
910.177	649
910.278	753
910.378	273
910.478	137
910.579	868
910.679	232
910.779	837
910.879	347
910.980	826
911.080	-4
911.180	622
911.280	602
911.380	1460
911.480	590
911.580	486
911.680	781
911.780	810
911.880	796
911.980	233
912.080	449
912.180	247
912.280	380
912.380	766
912.480	377
912.580	1065
912.679	712
912.779	1552
912.879	-409
912.979	449
913.078	223
913.178	-11
913.278	-55
913.377	1360
913.477	686
913.577	525
913.676	476
913.776	1599
913.875	797
913.975	519
914.074	484
914.174	475
914.273	-109
914.373	1142
914.472	113
914.572	586
914.671	172
914.770	312
914.870	384
914.969	-142
915.068	110
915.167	744
915.267	267
915.366	485
915.465	780
915.564	-32
915.663	151
915.763	579
915.862	74
915.961	1166
916.060	-150
916.159	600
916.258	77
916.357	809
916.456	1268
916.555	439
916.654	96
916.752	892
916.851	-272
916.950	-364
917.049	786
917.148	591
917.247	-12
917.345	953
917.444	-49
917.543	566
917.642	432
917.740	1212
917.839	138
917.937	722
918.036	756
918.135	-82
918.233	-479
918.332	983
918.430	285
918.529	522
918.627	-30
918.726	563
918.824	875
918.923	483
919.021	939
919.119	1163
919.218	-34
919.316	858
919.414	-624
919.512	286
919.611	-406
919.709	141
919.807	219
919.905	524
920.003	402
920.102	711
920.200	102
920.298	793
920.396	1029
920.494	332
920.592	39
920.690	850
920.788	415
920.886	513
920.984	93
921.082	1022
921.180	278
921.277	401
921.375	679
921.473	518
921.571	-123
921.669	245
921.766	-494
921.864	1174
921.962	275
922.060	783
922.157	89
922.255	121
922.352	-144
922.450	658
922.548	-422
922.645	1181
922.743	522
922.840	782
922.938	1145
923.035	853
923.133	19
923.230	668
923.327	1173
923.425	1045
923.522	847
923.619	487
923.717	986
923.814	553
923.911	-96
924.008	1732
924.106	328
924.203	508
924.300	217
924.397	631
924.494	411
924.591	918
924.688	739
924.786	582
924.883	258
924.979	1415
925.077	170
925.173	1170
925.270	515
925.367	1254
925.464	294
925.561	877
925.658	769
925.755	1235
925.852	1791
925.948	1509
926.045	2147
926.142	2255
926.239	3485
926.335	3447
926.432	2517
926.529	3662
926.625	4331
926.722	2728
926.818	1644
926.915	1238
927.011	836
927.108	527
927.204	160
927.301	1199
927.397	706
927.494	527
927.590	400
927.687	673
927.783	509
927.879	526
927.976	-250
928.072	343
928.168	-18
928.264	41
928.361	172
928.457	-403
928.553	210
928.649	426
928.745	-316
928.841	1060
928.937	634
929.033	344
929.129	-2
929.225	534
929.321	216
929.417	166
929.513	-297
929.609	96
929.705	-205
929.801	412
929.897	-344
929.993	769
930.089	225
930.184	165
930.280	746
930.376	-90
930.471	737
930.567	-52
930.663	325
930.758	3
930.854	191
930.950	185
931.045	-532
931.141	613
931.236	500
931.332	415
931.427	-862
931.523	129
931.618	-621
931.714	-185
931.809	-1273
931.905	460
932.000	184
932.095	9
932.191	-23
932.286	20
932.381	-575
932.476	120
932.572	-94
932.667	385
932.762	575
932.857	-75
932.952	-325
933.047	-159
933.142	-491
933.237	-101
933.332	359
933.427	656
933.522	-179
933.617	-232
933.712	-170
933.807	650
933.902	-686
933.997	518
934.092	-489
934.187	407
934.282	-119
934.376	167
934.471	68
934.566	28
934.661	422
934.755	229
934.850	-865
934.945	480
935.039	2
935.134	-33
935.228	344
935.323	865
935.417	186
935.512	-34
935.606	-482
935.701	-510
935.795	456
935.890	876
935.984	56
936.079	561
936.173	13
936.267	260
936.362	-661
936.456	-627
936.550	-83
936.644	230
936.738	-129
936.833	-50
936.927	-285
937.021	593
937.115	395
937.209	-3
937.303	760
937.397	90
937.491	-65
937.585	617
937.679	-479
937.773	449
937.867	420
937.961	593
938.055	-230
938.149	384
938.243	-413
938.337	155
938.430	658
938.524	1549
938.618	4073
938.712	4180
938.805	212
938.899	712
938.993	781
939.086	1635
939.180	4775
939.274	7729
939.367	1525
939.461	858
939.554	662
939.648	262
939.741	-719
939.835	-173
939.928	-115
940.022	335
940.115	263
940.208	-535
940.302	-272
940.395	-156
940.488	-512
940.582	293
940.675	-64
940.768	259
940.861	237
940.954	2
941.048	-985
941.141	68
941.234	-1333
941.327	535
941.420	1032
941.513	328
941.606	-541
941.699	-236
941.792	169
941.885	430
941.978	-1085
942.071	227
942.164	328
942.257	-477
942.349	-267
942.442	-534
942.535	-733
942.628	418
942.721	366
942.813	-860
942.906	402
942.999	-337
943.091	-294
943.184	-166
943.277	51
943.369	-81
943.462	-592
943.554	-86
943.647	-824
943.739	263
943.832	-69
943.924	-162
944.017	-3
944.109	317
944.201	142
944.294	-75
944.386	-736
944.478	-357
944.571	-234
944.663	52
944.755	2
944.847	-260
944.940	-1090
945.032	-410
945.124	-440
945.216	-215
945.308	-316
945.400	-252
945.492	264
945.584	414
945.676	-617
945.768	-164
945.860	493
945.952	1465
946.044	652
946.136	85
946.228	-840
946.320	577
946.412	-9
946.503	-400
946.595	621
946.687	-269
946.779	-1273
946.870	627
946.962	-1028
947.054	231
947.145	258
947.237	-272
947.329	90
947.420	-115
947.512	-537
947.603	-233
947.695	-189
947.786	-607
947.878	-537
947.969	561
948.061	-348
948.152	-57
948.243	-415
948.335	-606
948.426	-502
948.517	-165
948.609	210
948.700	-177
948.791	-469
948.882	175
948.973	-377
949.065	-461
949.156	-727
949.247	-247
949.338	125
949.429	-600
949.520	-1073
949.611	-50
949.702	-604
949.793	683
949.884	-824
949.975	-71
950.066	9
950.157	-535
950.247	-1042
950.338	-1257
950.429	-357
950.520	-135
950.611	-726
950.701	222
950.792	-346
950.883	622
950.973	596
951.064	-377
951.155	-184
951.245	537
951.336	-176
951.427	-918
951.517	64
951.608	356
951.698	-762
951.788	383
951.879	-566
951.969	-292
952.060	88
952.150	-366
952.240	-7
952.331	-607
952.421	166
952.511	-878
952.602	-727
952.692	-778
952.782	-839
952.872	-591
952.962	-898
953.052	-436
953.143	-1360
953.233	-132
953.323	351
953.413	-793
953.503	21
953.593	-699
953.683	-14
953.773	-456
953.863	-206
953.953	99
954.042	319
954.132	117
954.222	-985
954.312	454
954.402	-906
954.492	838
954.581	478
954.671	657
954.761	-493
954.850	629
954.940	-392
955.030	-126
955.119	-995
955.209	189
955.298	-615
955.388	-252
955.477	-41
955.567	-1023
955.656	-445
955.746	-112
955.835	-595
955.925	300
956.014	89
956.103	84
956.193	-38
956.282	384
956.371	-895
956.461	-338
956.550	-180
956.639	334
956.728	43
956.817	120
956.906	-613
956.995	388
957.085	-162
957.174	-356
957.263	-109
957.352	-496
957.441	-678
957.530	179
957.619	-279
957.708	226
957.796	-382
957.885	-288
957.974	-1333
958.063	-662
958.152	-554
958.241	-112
958.329	363
958.418	543
958.507	-190
958.596	664
958.684	245
958.773	729
958.861	173
958.950	416
959.039	720
959.127	374
959.216	941
959.304	403
959.393	148
959.481	1069
959.570	507
959.658	-31
959.746	89
959.835	754
959.923	2059
960.011	1267
960.100	404
960.188	446
960.276	-521
960.365	604
960.453	-842
960.541	-178
960.629	-302
960.717	-86
960.805	-861
960.893	-192
960.981	-1485
961.069	466
961.158	-99
961.245	-506
961.333	-178
961.421	-131
961.509	-372
961.597	16
961.685	-522
961.773	-738
961.861	-354
961.949	-695
962.036	-724
962.124	46
962.212	-1028
962.299	-159
962.387	-1144
962.475	-504
962.562	-1592
962.650	-515
962.738	-791
962.825	-789
962.913	-1101
963.000	-706
963.088	-873
963.175	-818
963.263	-284
963.350	-341
963.438	-694
963.525	73
963.612	819
963.700	2691
963.787	8698
963.874	7150
963.962	390
964.049	-409
964.136	-467
964.223	-618
964.310	-1182
964.398	-913
964.485	-863
964.572	-152
964.659	25
964.746	1428
964.833	-1114
964.920	-506
965.007	-276
965.094	-1070
965.181	-1194
965.268	-317
965.355	-1056
965.441	-826
965.528	-806
965.615	-368
965.702	57
965.789	-828
965.875	-867
965.962	216
966.049	-1247
966.136	-567
966.222	-1705
966.309	-1013
966.395	-757
966.482	-665
966.569	-844
966.655	-782
966.742	-1156
966.828	-830
966.915	-1022
967.001	-891
967.087	-1322
967.174	58
967.260	-580
967.347	477
967.433	2691
967.519	6649
967.605	2851
967.692	-259
967.778	-1171
967.864	-744
967.950	-785
968.036	-625
968.123	-647
968.209	-807
968.295	-956
968.381	181
968.467	-409
968.553	-754
968.639	-755
968.725	-937
968.811	-602
968.897	434
968.983	-914
969.069	-1417
969.154	-931
969.240	-832
969.326	-1239
969.412	-1120
969.497	-1274
969.583	-801
969.669	-964
969.755	-880
969.840	-1046
969.926	105
970.012	-1271
970.097	-597
970.183	-1077
970.268	205
970.354	-364
970.439	353
970.525	3402
970.610	959
970.696	-60
970.781	-220
970.866	-1567
970.952	-832
971.037	-1259
971.122	-29
971.208	-888
971.293	-1320
971.378	-1628
971.463	-951
971.549	-1182
971.634	-951
971.719	-1577
971.804	-684
971.889	-1071
971.974	-734
972.059	-1348
972.144	-1209
972.229	-1091
972.314	-597
972.399	-339
972.484	-1222
972.569	-759
972.654	-1005
972.739	-170
972.824	1107
972.908	85
972.993	-757
973.078	-886
973.163	-1684
973.247	-923
973.332	-1566
973.417	-614
973.501	-938
973.586	-1120
973.671	-59
973.755	-1128
973.840	-214
973.924	-1376
974.009	-1137
974.093	-1323
974.178	270
974.262	-408
974.346	1112
974.431	-334
974.515	-853
974.600	-1686
974.684	543
974.768	-1614
974.852	228
974.937	-815
975.021	-128
975.105	-1378
975.189	-841
975.273	-1576
975.358	-1440
975.442	-1098
975.526	-126
975.610	-1786
975.694	-1937
975.778	-543
975.862	-664
975.946	-2337
976.030	-773
976.114	-429
976.198	-576
976.281	-1444
976.365	-482
976.449	-596
976.533	-1368
976.617	-1199
976.700	-935
976.784	-484
976.868	-849
976.951	-104
977.035	-457
977.119	-998
977.202	-915
977.286	-1811
977.369	-801
977.453	-548
977.536	-1088
977.620	-1623
977.703	-391
977.787	-2056
977.870	-741
977.953	-861
978.037	-1182
978.120	-63
978.203	-38
978.287	758
978.370	-261
978.453	-1303
978.536	-1858
978.620	-198
978.703	107
978.786	-287
978.869	-1066
978.952	-2221
979.035	-336
979.118	-1232
979.201	-936
979.284	-1129
979.367	-858
979.450	-1112
979.533	-1358
979.616	-1306
979.699	-921
979.782	-1346
979.865	-609
979.948	-798
980.030	-1140
980.113	-908
980.196	-871
980.279	-1199
980.361	-1699
980.444	-1299
980.526	-465
980.609	-943
980.692	-485
980.774	-1178
980.857	-1578
980.939	-1986
981.022	-1364
981.104	-1733
981.187	-1063
981.269	-840
981.352	-560
981.434	-1790
981.516	-514
981.599	-1062
981.681	-638
981.763	-803
981.846	-873
981.928	-1489
982.010	-1270
982.092	-1959
982.174	-1004
982.256	-960
982.339	-1147
982.421	-368
982.503	-1219
982.585	-1311
982.667	-1932
982.749	-1451
982.831	-917
982.913	-1417
982.995	-210
983.077	-1682
983.158	-508
983.240	-1969
983.322	-647
983.404	-1390
983.486	-1063
983.568	-1457
983.649	-656
983.731	-683
983.813	-1806
983.894	-1354
983.976	-452
984.058	-2420
984.139	-703
984.221	-1528
984.302	174
984.384	-652
984.465	-1431
984.547	-1160
984.628	-1771
984.710	-501
984.791	-406
984.872	-1353
984.954	-392
985.035	-1101
985.116	-668
985.198	-1686
985.279	-627
985.360	-1350
985.441	-1319
985.522	-1512
985.604	-1760
985.685	-3008
985.766	-78
985.847	-894
985.928	-500
986.009	-1252
986.090	-1353
986.171	-1311
986.252	-520
986.333	-950
986.414	-564
986.495	-496
986.576	-877
986.656	-1692
986.737	-994
986.818	-1081
986.899	-976
986.980	-1306
987.060	-1105
987.141	-1406
987.222	-1374
987.302	-1297
987.383	-163
987.464	-1479
987.544	-377
987.625	-866
987.705	-815
987.786	-1028
987.866	-718
987.947	-1387
988.027	-1167
988.108	-1465
988.188	-774
988.268	-928
988.349	-1490
988.429	-2250
988.509	-1239
988.589	-1564
988.670	-1333
988.750	-342
988.830	-889
988.910	-742
988.990	-1139
989.070	-1622
989.151	-1300
989.231	-1667
989.311	-179
989.391	-1481
989.471	-1661
989.551	-2347
989.631	-601
989.711	-1338
989.791	-930
989.870	-1587
989.950	-536
990.030	-1315
990.110	-954
990.190	-2526
990.269	-490
990.349	-1020
990.429	-1436
990.509	-1017
990.588	-1508
990.668	-1461
990.747	-656
990.827	-1525
990.907	-603
990.986	-1602
991.066	-1566
991.145	-1919
991.225	-597
991.304	-1890
991.383	-641
991.463	-1659
991.542	-592
991.622	-2492
991.701	-581
991.780	-1659
991.859	-1180
991.939	-1550
992.018	-1232
992.097	-1148
992.176	-1305
992.256	-1561
992.335	-1625
992.414	-1315
992.493	-1524
992.572	-1271
992.651	447
992.730	-1654
992.809	-1898
992.888	-1550
992.967	-1426
993.046	-1626
993.125	-1345
993.203	-1476
993.282	-631
993.361	-1689
993.440	-735
993.519	-1995
993.597	-1631
993.676	-2083
993.755	-1462
993.834	-1292
993.912	-1910
993.991	-1509
994.069	-1032
994.148	-1440
994.226	-1296
994.305	-1604
994.384	-851
994.462	-1702
994.540	-1756
994.619	-1839
994.697	-1197
994.776	-1376
994.854	-1526
994.932	-1934
995.011	-500
995.089	-1556
995.167	-826
995.245	-1592
995.324	-1391
995.402	-976
995.480	-1070
995.558	-1771
995.636	-1654
995.714	-1991
995.792	-1183
995.870	-1716
995.948	-782
996.026	-858
996.104	-980
996.182	-1102
996.260	-1439
996.338	-440
996.416	-2346
996.494	-2034
996.572	-710
996.649	-1207
996.727	-1651
996.805	-1344
996.883	-1617
996.960	-1510
997.038	-1038
997.116	-1138
997.193	-2367
997.271	-784
997.348	-1401
997.426	-1147
997.504	-1689
997.581	-990
997.658	-1372
997.736	-1913
997.813	-1925
997.891	-520
997.968	-1374
998.046	-1592
998.123	-1063
998.200	-1547
998.277	-1627
998.355	-1477
998.432	-1170
998.509	-1580
998.586	-715
998.663	-1873
998.741	-1247
998.818	-1841
998.895	-1112
998.972	-1824
999.049	-1544
999.126	-1110
999.203	-1856
999.280	-1497
999.357	-2058
999.434	-1958
999.511	-696
999.587	-600
999.664	-1408
999.741	-1355
999.818	-1592
999.895	-2205
999.971	-2456
1000.048	-1498
1000.125	-734
1000.202	-2199
1000.278	-1569
1000.355	-705
1000.431	-1118
1000.508	-1970
1000.584	-1320
1000.661	-1689
1000.738	-1236
1000.814	-2276
1000.890	-1309
1000.967	-1029
1001.043	-1497
1001.120	-2474
1001.196	-1154
1001.272	-1832
1001.349	-1013
1001.425	-1787
1001.501	-1261
1001.577	-2675
1001.654	-730
1001.730	-1792
1001.806	-686
1001.882	-2097
1001.958	-550
1002.034	-1657
1002.110	-1392
1002.186	-1801
1002.262	-1574
1002.338	-1645
1002.414	-957
1002.490	-1258
1002.566	-1819
1002.642	-2237
1002.718	-1212
1002.794	-1411
1002.870	-1262
1002.945	-1961
1003.021	-1774
1003.097	-1815
1003.173	226
1003.248	-2372
1003.324	-1596
1003.400	-1301
1003.475	-1316
1003.551	-2023
1003.626	-1329
1003.702	-1687
1003.777	-1624
1003.853	-1379
1003.928	-1808
1004.004	-1505
1004.079	-983
1004.155	-1792
1004.230	-2295
1004.305	-1360
1004.381	-1089
1004.456	-1130
1004.531	-1676
1004.607	-1739
1004.682	-2050
1004.757	-2017
1004.832	-1836
1004.907	-1544
1004.982	-840
1005.057	-1821
1005.133	-2065
1005.208	-1531
1005.283	-1731
1005.358	-985
1005.433	-1248
1005.508	-1450
1005.583	-2032
1005.657	-2131
1005.732	-693
1005.807	-1194
1005.882	-1245
1005.957	-1199
1006.032	-2148
1006.106	-1781
1006.181	-1353
1006.256	-1374
1006.331	-1989
1006.405	-1837
1006.480	-1300
1006.554	-1452
1006.629	-1362
1006.704	-1089
1006.778	-1244
1006.853	-1443
1006.927	-1333
1007.002	-1898
1007.076	-426
1007.150	-1727
1007.225	-830
1007.299	-2249
1007.373	-1720
1007.448	-1904
1007.522	-941
1007.596	-1670
1007.671	-1493
1007.745	-932
1007.819	-1637
1007.893	-1916
1007.967	-1427
1008.041	-2332
1008.115	-1071
1008.190	-2007
1008.264	-1664
1008.338	-2973
1008.412	-1947
1008.486	-1697
1008.560	-1917
1008.633	-1546
1008.707	-1078
1008.781	-2124
1008.855	-1419
1008.929	-1527
1009.003	-3046
1009.076	-3040
1009.150	-1351
1009.224	-2504
1009.298	-1300
1009.371	-1925
1009.445	-1000
1009.519	-1115
1009.592	-1934
1009.666	-1343
1009.739	-1844
1009.813	-2628
1009.886	-1395
1009.960	-2486
1010.033	-1043
1010.107	-2263
1010.180	-2135
1010.253	-1983
1010.327	-1924
1010.400	-1901
1010.473	-1694
1010.547	-509
1010.620	-1897
1010.693	-1933
1010.766	-1893
1010.840	-982
1010.913	-1659
1010.986	-2394
1011.059	-1021
1011.132	-1519
1011.205	-672
1011.278	-1455
1011.351	-624
1011.424	-1604
1011.497	-1481
1011.570	-1530
1011.643	-1968
1011.716	-1974
1011.789	-2146
1011.862	-2360
1011.934	-1202
1012.007	-2370
1012.080	-1234
1012.153	-2877
1012.225	-1255
1012.298	-2141
1012.371	-2679
1012.443	-861
1012.516	-2009
1012.588	-1585
1012.661	-2354
1012.733	-1836
1012.806	-1457
1012.879	-2170
1012.951	-1908
1013.023	-1786
1013.096	-2137
1013.168	-2750
1013.241	-1229
1013.313	-2361
1013.385	-961
1013.458	-1438
1013.530	-1899
1013.602	-2742
1013.674	-1051
1013.746	-2127
1013.819	-2896
1013.891	-2051
1013.963	-2017
1014.035	-2288
1014.107	-1529
1014.179	-1528
1014.251	-2104
1014.323	-1425
1014.395	-1123
1014.467	-3110
1014.539	-1611
1014.611	-1865
1014.683	-646
1014.754	-2068
1014.826	-2168
1014.898	-1828
1014.970	-1974
1015.042	-1997
1015.113	-1741
1015.185	-2343
1015.257	-2316
1015.328	-2080
1015.400	-1901
1015.471	-2496
1015.543	-3021
1015.615	-1568
1015.686	-2185
1015.757	-1777
1015.829	-1183
1015.901	-1622
1015.972	-1666
1016.043	-2236
1016.115	-1571
1016.186	-1956
1016.257	-1949
1016.328	-1955
1016.400	-584
1016.471	-2664
1016.542	-1421
1016.613	-2237
1016.685	-2042
1016.756	-2221
1016.827	-1570
1016.898	-2633
1016.969	-1213
1017.040	-2228
1017.111	-2132
1017.182	-1995
1017.253	-1786
1017.324	-1656
1017.395	-1606
1017.466	-2051
1017.537	-1866
1017.608	-2189
1017.678	-1544
1017.749	-2978
1017.820	-822
1017.891	-2606
1017.961	-1775
1018.032	-2095
1018.103	-1481
1018.173	-1845
1018.244	-1649
1018.315	-1716
1018.385	-1560
1018.456	-2491
1018.526	-2089
1018.597	-2024
1018.667	-1580
1018.738	-2394
1018.808	-1371
1018.878	-2008
1018.949	-2168
1019.019	-1759
1019.089	-1851
1019.160	-2311
1019.230	-2584
1019.300	-1510
1019.371	-1918
1019.441	-2044
1019.511	-2102
1019.581	-1919
1019.651	-1522
1019.721	-2168
1019.791	-1617
1019.861	-2063
1019.931	-2102
1020.001	-2344
1020.071	-2038
1020.141	-2606
1020.211	-1738
1020.281	-2119
1020.351	-2424
1020.421	-2204
1020.491	-1235
1020.560	-1558
1020.630	-1632
1020.700	-2615
1020.770	-2122
1020.839	-1327
1020.909	-1754
1020.979	-2628
1021.048	-1093
1021.118	-2303
1021.187	-1711
1021.257	-1714
1021.326	-2065
1021.396	-2251
1021.465	-2049
1021.535	-2203
1021.604	-2098
1021.674	-2514
1021.743	-1877
1021.812	-1863
1021.882	-1545
1021.951	-1758
1022.020	-1997
1022.089	-2030
1022.159	-1777
1022.228	-2432
1022.297	-2355
1022.366	-1879
1022.435	-1804
1022.504	-2052
1022.573	-2535
1022.642	-2777
1022.711	-2100
1022.781	-2465
1022.849	-2213
1022.918	-2126
1022.987	-1878
1023.056	-1670
1023.125	-1804
1023.194	-2209
1023.263	-2017
1023.331	-1763
1023.400	-2148
1023.469	-2899
1023.538	-1801
1023.606	-2261
1023.675	-1918
1023.744	-2365
1023.812	-2018
1023.881	-2254
1023.949	-1475
1024.018	-2291
1024.086	-2505
1024.155	-2403
1024.223	-1877
1024.292	-2580
1024.360	-1929
1024.429	-2214
1024.497	-2278
1024.565	-2349
1024.634	-1877
1024.702	-2021
1024.770	-1678
1024.838	-2911
1024.907	-1932
1024.975	-2196
1025.043	-987
1025.111	-2823
1025.179	-1656
1025.247	-2092
1025.315	-2062
1025.383	-2520
1025.451	-2415
1025.519	-1817
1025.587	-1718
1025.655	-1714
1025.723	-2511
1025.791	-2299
1025.859	-2687
1025.927	-2093
1025.995	-1717
1026.062	-2840
1026.130	-2258
1026.198	-1655
1026.266	-2328
1026.333	-1798
1026.401	-1612
1026.469	-2456
1026.536	-1909
1026.604	-2047
1026.671	-2073
1026.739	-1825
1026.806	-1926
1026.874	-2944
1026.941	-1800
1027.009	-2975
1027.076	-2473
1027.144	-2077
1027.211	-2461
1027.278	-2657
1027.345	-1500
1027.413	-2028
1027.480	-1595
1027.547	-2939
1027.614	-2280
1027.682	-1988
1027.749	-2647
1027.816	-2022
1027.883	-1906
1027.950	-2064
1028.017	-2114
1028.084	-2207
1028.151	-2562
1028.218	-2820
1028.285	-2776
1028.352	-2291
1028.419	-2562
1028.486	-3353
1028.553	-1676
1028.619	-3055
1028.686	-1681
1028.753	-3060
1028.820	-2604
1028.886	-2649
1028.953	-1561
1029.020	-2769
1029.086	-2485
1029.153	-2379
1029.220	-2737
1029.286	-1950
1029.353	-1977
1029.419	-2579
1029.486	-1891
1029.552	-2289
1029.619	-1799
1029.685	-2600
1029.751	-1834
1029.818	-1295
1029.884	-2291
1029.951	-1275
1030.017	-1880
1030.083	-2477
1030.149	-2107
1030.216	-2586
1030.282	-2492
1030.348	-2006
1030.414	-2190
1030.480	-1719
1030.546	-1719
1030.612	-1600
1030.678	-1871
1030.744	-1647
1030.810	-2017
1030.876	-1790
1030.942	-2488
1031.008	-2424
1031.074	-2167
1031.140	-2727
1031.206	-1918
1031.272	-2422
1031.337	-2654
1031.403	-1881
1031.469	-2306
1031.534	-2120
1031.600	-2411
1031.666	-2158
1031.731	-2652
1031.797	-3191
1031.863	-2071
1031.928	-2803
1031.994	-2644
1032.059	-1960
1032.125	-2427
1032.190	-2674
1032.256	-2362
1032.321	-2055
1032.386	-2082
1032.452	-2375
1032.517	-1962
1032.582	-2437
1032.647	-2165
1032.713	-2363
1032.778	-1876
1032.843	-2303
1032.908	-1585
1032.974	-2204
1033.039	-2327
1033.104	-1962
1033.169	-2693
1033.234	-2622
1033.299	-1540
1033.364	-2349
1033.429	-2742
1033.494	-2587
1033.559	-2891
1033.624	-2368
1033.688	-1925
1033.753	-2900
1033.818	-1897
1033.883	-2549
1033.948	-1966
1034.013	-2571
1034.077	-2033
1034.142	-2043
1034.207	-2366
1034.271	-1800
1034.336	-1813
1034.400	-1834
1034.465	-1677
1034.530	-2107
1034.594	-1276
1034.658	-2267
1034.723	-2499
1034.787	-2408
1034.852	-1603
1034.916	-2473
1034.981	-2187
1035.045	-2012
1035.109	-1529
1035.173	-2587
1035.238	-2056
1035.302	-2652
1035.366	-1405
1035.430	-2382
1035.495	-2497
1035.559	-2837
1035.623	-2006
1035.687	-2877
1035.751	-2269
1035.815	-2522
1035.879	-1806
1035.943	-2766
1036.007	-2187
1036.071	-2326
1036.135	-2659
1036.198	-2640
1036.262	-1933
1036.326	-2456
1036.390	-2642
1036.454	-2049
1036.517	-1857
1036.581	-2382
1036.645	-1909
1036.709	-1609
1036.772	-1591
1036.836	-2124
1036.900	-2370
1036.963	-2976
1037.026	-1731
1037.090	-3146
1037.154	-2669
1037.217	-2978
1037.280	-2498
1037.344	-3007
1037.407	-2684
1037.471	-2912
1037.534	-2384
1037.597	-3173
1037.661	-1528
1037.724	-2851
1037.787	-3021
1037.850	-2592
1037.913	-1750
1037.977	-3112
1038.040	-2153
1038.103	-2602
1038.166	-1886
1038.229	-1531
1038.292	-2344
1038.355	-2017
1038.418	-1524
1038.481	-2312
1038.544	-2394
1038.607	-2417
1038.670	-1753
1038.732	-1996
1038.795	-1921
1038.858	-2758
1038.921	-1396
1038.984	-2623
1039.046	-1415
1039.109	-2547
1039.172	-1903
1039.234	-2626
1039.297	-2376
1039.360	-2705
1039.422	-3416
1039.485	-2318
1039.547	-2145
1039.610	-2236
1039.672	-3217
1039.734	-2701
1039.797	-2568
1039.859	-2122
1039.922	-1606
1039.984	-2139
1040.046	-2396
1040.109	-3416
1040.171	-2679
1040.233	-2145
1040.295	-2195
1040.358	-2058
1040.420	-2436
1040.482	-2659
1040.544	-2163
1040.606	-1715
1040.668	-2234
1040.730	-2820
1040.792	-2959
1040.854	-2130
1040.916	-1777
1040.978	-2948
1041.040	-2346
1041.102	-2582
1041.164	-2905
1041.225	-3305
1041.287	-1896
1041.349	-3193
1041.411	-2433
1041.472	-2670
1041.534	-2007
1041.596	-2379
1041.657	-2170
1041.719	-2659
1041.781	-2442
1041.842	-1538
1041.904	-1836
1041.965	-2835
1042.027	-1708
1042.088	-2445
1042.150	-2671
1042.211	-2846
1042.272	-1984
1042.334	-2803
1042.395	-1651
1042.456	-3187
1042.518	-2476
1042.579	-2745
1042.640	-2529
1042.701	-2522
1042.763	-2155
1042.824	-3346
1042.885	-2687
1042.946	-2454
1043.007	-2047
1043.068	-2580
1043.129	-2416
1043.190	-2162
1043.251	-2152
1043.312	-3169
1043.373	-1885
1043.434	-2495
1043.495	-1719
1043.556	-2212
1043.616	-1718
1043.677	-2872
1043.738	-1884
1043.799	-3057
1043.859	-2040
1043.920	-2344
1043.981	-2509
1044.041	-2844
1044.102	-2869
1044.162	-2281
1044.223	-1962
1044.284	-2535
1044.344	-2302
1044.405	-2761
1044.465	-2475
1044.525	-2641
1044.586	-2683
1044.646	-2277
1044.707	-2246
1044.767	-2023
1044.827	-1983
1044.887	-3313
1044.948	-1980
1045.008	-2091
1045.068	-2253
1045.128	-2493
1045.188	-2245
1045.249	-1626
1045.309	-1639
1045.369	-2166
1045.429	-1942
1045.489	-2386
1045.549	-1833
1045.609	-2140
1045.669	-1994
1045.729	-2701
1045.789	-1589
1045.848	-3031
1045.908	-1715
1045.968	-1928
1046.028	-1672
1046.088	-2828
1046.147	-1819
1046.207	-2147
1046.267	-2014
1046.326	-1962
1046.386	-1391
1046.446	-2013
1046.505	-849
1046.565	-1347
1046.624	-1495
1046.684	-1783
1046.743	-979
1046.803	-1007
1046.862	-254
1046.922	0
