'Start Wavelength	183.833
'End Wavelength	1047.133
'Gate Delay	5.000
'Gate Width (ms)	1.050
'Laser Output Level	0.000
'X Position	0.000
'Y Position	0.000
'Z Position	0.000
'Grid Point Number	1.000
'Shot Number	100.000
183.833	138.000
183.903	25.000
183.973	-166
184.042	852
184.112	-437
184.182	280
184.252	49
184.321	180
184.391	-291
184.461	255
184.531	-107
184.600	256
184.670	313
184.740	-335
184.809	-332
184.879	510
184.949	-187
185.018	67
185.088	-621
185.158	259
185.228	-236
185.297	648
185.367	76
185.436	-331
185.506	-174
185.576	295
185.645	-283
185.715	205
185.785	624
185.854	456
185.924	260
185.993	-69
186.063	-216
186.133	370
186.202	-503
186.272	-159
186.341	-1149
186.411	-352
186.481	221
186.550	-186
186.620	152
186.689	-17
186.759	-372
186.828	0
186.898	-340
186.967	690
187.037	83
187.106	100
187.176	-41
187.246	620
187.315	-220
187.385	-328
187.454	-1162
187.524	54
187.593	-145
187.662	653
187.732	107
187.801	322
187.871	228
187.940	24
188.010	-905
188.079	-508
188.149	-111
188.218	585
188.288	-461
188.357	281
188.426	-638
188.496	85
188.565	-84
188.635	477
188.704	-914
188.773	140
188.843	37
188.912	-284
188.981	-155
189.051	181
189.120	-120
189.190	708
189.259	8
189.328	354
189.398	-238
189.467	876
189.536	522
189.606	635
189.675	422
189.744	-293
189.813	-332
189.883	-67
189.952	4
190.021	49
190.091	690
190.160	1074
190.229	-214
190.298	97
190.368	-911
190.437	207
190.506	120
190.575	-373
190.645	-549
190.714	-308
190.783	-226
190.852	187
190.922	-269
190.991	133
191.060	-293
191.129	-328
191.198	245
191.268	554
191.337	-154
191.406	-122
191.475	-816
191.544	552
191.613	-236
191.683	19
191.752	-304
191.821	554
191.890	122
191.959	-36
192.028	-162
192.097	637
192.166	-259
192.236	21
192.305	-694
192.374	95
192.443	-172
192.512	300
192.581	923
192.650	4
192.719	-125
192.788	142
192.857	-239
192.926	286
192.995	-187
193.064	-105
193.133	-467
193.202	330
193.271	11
193.340	121
193.409	-130
193.478	-409
193.547	75
193.616	80
193.685	34
193.754	148
193.823	-466
193.892	377
193.961	-162
194.030	369
194.099	-325
194.168	337
194.237	332
194.306	-178
194.375	-118
194.444	600
194.513	928
194.582	405
194.651	-162
194.720	362
194.788	-647
194.857	-229
194.926	-339
194.995	-181
195.064	53
195.133	13
195.202	574
195.270	-646
195.339	-73
195.408	502
195.477	7
195.546	68
195.615	261
195.683	452
195.752	-396
195.821	174
195.890	174
195.959	69
196.027	-77
196.096	-340
196.165	85
196.234	359
196.303	105
196.371	-48
196.440	608
196.509	343
196.578	-227
196.646	-13
196.715	-140
196.784	496
196.853	111
196.921	435
196.990	-366
197.059	50
197.127	-882
197.196	-478
197.265	-533
197.333	456
197.402	-481
197.471	-366
197.539	-560
197.608	1129
197.677	413
197.745	-137
197.814	612
197.883	-200
197.951	384
198.020	-227
198.088	78
198.157	64
198.226	468
198.294	270
198.363	311
198.431	-50
198.500	227
198.569	646
198.637	494
198.706	565
198.774	1170
198.843	703
198.911	-492
198.980	620
199.048	-13
199.117	149
199.185	-146
199.254	90
199.322	10
199.391	-72
199.459	-586
199.528	140
199.596	-869
199.665	753
199.733	-164
199.802	223
199.870	-314
199.939	-41
200.007	112
200.076	108
200.144	-303
200.213	397
200.281	-261
200.349	-258
200.418	-378
200.486	7
200.555	259
200.623	504
200.691	71
200.760	-40
200.828	158
200.897	-293
200.965	-447
201.033	637
201.102	-298
201.170	36
201.238	-235
201.307	97
201.375	-124
201.443	-150
201.512	-142
201.580	-147
201.648	-845
201.716	60
201.785	-132
201.853	190
201.921	-196
201.990	9
202.058	-514
202.126	-5
202.194	-127
202.263	540
202.331	47
202.399	-185
202.467	260
202.536	894
202.604	-264
202.672	-358
202.740	111
202.808	478
202.877	123
202.945	74
203.013	-418
203.081	-554
203.149	-280
203.218	-195
203.286	-156
203.354	28
203.422	-227
203.490	-142
203.558	-177
203.626	600
203.695	-1021
203.763	-147
203.831	-201
203.899	-403
203.967	-263
204.035	-112
204.103	-258
204.171	-119
204.239	-138
204.307	247
204.375	-164
204.443	-404
204.512	-123
204.580	-620
204.648	-79
204.716	118
204.784	-783
204.852	-411
204.920	-629
204.988	-239
205.056	-596
205.124	30
205.192	-176
205.260	433
205.328	-44
205.396	-153
205.464	-57
205.532	268
205.600	-354
205.667	-85
205.735	1067
205.803	1160
205.871	-4
205.939	163
206.007	-543
206.075	-111
206.143	-60
206.211	-338
206.279	-102
206.347	323
206.414	-256
206.482	-149
206.550	240
206.618	58
206.686	-508
206.754	8
206.822	637
206.889	-812
206.957	413
207.025	445
207.093	-198
207.161	121
207.229	-698
207.296	-289
207.364	-386
207.432	-269
207.500	-234
207.567	-402
207.635	-1274
207.703	-62
207.771	-682
207.839	262
207.906	-537
207.974	-338
208.042	-1074
208.109	173
208.177	112
208.245	229
208.313	410
208.380	435
208.448	-820
208.516	-657
208.583	-183
208.651	-81
208.719	-446
208.786	-170
208.854	126
208.922	200
208.989	-352
209.057	321
209.125	-176
209.192	-127
209.260	91
209.327	21
209.395	378
209.463	-321
209.530	45
209.598	-35
209.665	-495
209.733	366
209.801	-420
209.868	-58
209.936	426
210.003	-326
210.071	-631
210.138	1006
210.206	-800
210.273	30
210.341	-196
210.408	-1
210.476	401
210.543	-376
210.611	177
210.678	330
210.746	-301
210.813	-6
210.881	358
210.948	259
211.016	5
211.083	-280
211.151	-67
211.218	-372
211.285	70
211.353	-92
211.420	-25
211.488	-79
211.555	-108
211.622	243
211.690	-401
211.757	350
211.825	-119
211.892	216
211.959	-68
212.027	135
212.094	121
212.161	-744
212.229	466
212.296	1576
212.363	4537
212.431	1001
212.498	-878
212.565	-45
212.633	-231
212.700	70
212.767	187
212.835	364
212.902	58
212.969	-94
213.036	107
213.104	-381
213.171	307
213.238	29
213.305	-127
213.373	-76
213.440	-473
213.507	115
213.574	368
213.641	-271
213.709	-412
213.776	918
213.843	396
213.910	312
213.977	-141
214.045	495
214.112	-193
214.179	-325
214.246	-63
214.313	-154
214.380	-151
214.447	256
214.515	966
214.582	332
214.649	-6
214.716	163
214.783	-565
214.850	-60
214.917	-101
214.984	549
215.051	-67
215.118	-269
215.185	-286
215.253	33
215.320	174
215.387	-373
215.454	-272
215.521	-50
215.588	24
215.655	329
215.722	151
215.789	-188
215.856	-425
215.923	-748
215.990	-277
216.057	88
216.124	-677
216.191	164
216.258	-104
216.325	-133
216.391	-429
216.458	-129
216.525	-266
216.592	1245
216.659	322
216.726	273
216.793	818
216.860	36
216.927	-182
216.994	-211
217.061	24
217.127	-142
217.194	-498
217.261	975
217.328	747
217.395	-218
217.462	-46
217.529	-180
217.595	-608
217.662	54
217.729	11
217.796	541
217.863	-154
217.929	-4
217.996	616
218.063	183
218.130	-786
218.196	124
218.263	-924
218.330	-633
218.397	144
218.463	-444
218.530	-417
218.597	329
218.664	344
218.730	4
218.797	254
218.864	121
218.930	-692
218.997	144
219.064	-47
219.131	535
219.197	802
219.264	466
219.331	-197
219.397	92
219.464	-496
219.530	32
219.597	-123
219.664	-405
219.730	-618
219.797	50
219.864	403
219.930	369
219.997	-53
220.063	586
220.130	-619
220.196	-332
220.263	310
220.330	364
220.396	699
220.463	327
220.529	-113
220.596	990
220.662	23
220.729	2196
220.795	1269
220.862	1481
220.928	2871
220.995	2900
221.061	2982
221.128	1946
221.194	161
221.261	346
221.327	143
221.394	82
221.460	-18
221.526	308
221.593	2799
221.659	1546
221.726	1555
221.792	2272
221.859	-298
221.925	462
221.991	504
222.058	-784
222.124	-277
222.190	202
222.257	-62
222.323	-277
222.390	-182
222.456	-78
222.522	-812
222.589	728
222.655	-56
222.721	283
222.788	-694
222.854	-446
222.920	-97
222.986	56
223.053	-770
223.119	37
223.185	-904
223.251	-454
223.318	-305
223.384	-588
223.450	-223
223.516	-439
223.583	-806
223.649	-459
223.715	-509
223.781	-283
223.848	-785
223.914	143
223.980	-414
224.046	67
224.112	-349
224.178	-208
224.245	-773
224.311	-89
224.377	-811
224.443	25
224.509	-703
224.575	-339
224.641	-1373
224.708	-277
224.774	-29
224.840	-689
224.906	-1010
224.972	-219
225.038	-505
225.104	-475
225.170	259
225.236	18
225.302	145
225.368	-1215
225.434	210
225.500	367
225.566	-189
225.632	233
225.699	-109
225.765	15
225.831	-44
225.897	207
225.963	-573
226.028	-167
226.094	-5
226.160	29
226.226	1461
226.292	3257
226.358	1078
226.424	713
226.490	-751
226.556	516
226.622	83
226.688	-198
226.754	1035
226.820	5457
226.886	3551
226.951	263
227.017	1
227.083	534
227.149	-671
227.215	3
227.281	128
227.347	-395
227.412	-445
227.478	506
227.544	509
227.610	363
227.676	-953
227.742	-511
227.807	110
227.873	-435
227.939	303
228.005	-19
228.070	-471
228.136	126
228.202	-584
228.268	-509
228.333	12
228.399	451
228.465	-203
228.531	-352
228.596	-435
228.662	471
228.728	-463
228.793	159
228.859	-1441
228.925	-9
228.990	-529
229.056	735
229.122	-462
229.187	37
229.253	-932
229.319	185
229.384	-203
229.450	-104
229.516	-1275
229.581	696
229.647	-592
229.712	1171
229.778	755
229.844	534
229.909	-543
229.975	169
230.040	549
230.106	625
230.171	550
230.237	1183
230.302	-609
230.368	-337
230.433	-681
230.499	245
230.564	-268
230.630	93
230.695	-650
230.761	-654
230.826	-131
230.892	-157
230.957	-827
231.023	538
231.088	-553
231.154	-451
231.219	-770
231.285	319
231.350	-357
231.415	19
231.481	-330
231.546	-203
231.612	-1008
231.677	-1105
231.742	-65
231.808	-110
231.873	-1381
231.938	397
232.004	422
232.069	227
232.135	-510
232.200	-61
232.265	-85
232.330	-36
232.396	-1342
232.461	-116
232.526	-537
232.592	211
232.657	121
232.722	-371
232.788	55
232.853	-630
232.918	-750
232.983	-495
233.048	-608
233.114	494
233.179	1215
233.244	625
233.309	-769
233.375	-81
233.440	-1205
233.505	-447
233.570	-146
233.635	-184
233.700	-155
233.766	297
233.831	-232
233.896	-546
233.961	232
234.026	684
234.091	-540
234.156	-289
234.222	-329
234.287	1832
234.352	928
234.417	823
234.482	415
234.547	341
234.612	-219
234.677	834
234.742	1342
234.807	307
234.872	811
234.937	-395
235.002	370
235.067	-364
235.132	-75
235.197	98
235.262	-653
235.327	1204
235.392	102
235.457	361
235.522	-385
235.587	602
235.652	-490
235.717	187
235.782	-260
235.847	1365
235.912	588
235.977	1108
236.042	219
236.107	-192
236.172	-56
236.236	439
236.301	-154
236.366	890
236.431	1374
236.496	1368
236.561	1701
236.626	8239
236.691	4094
236.755	1348
236.820	957
236.885	1605
236.950	1360
237.015	801
237.079	270
237.144	1913
237.209	6783
237.274	12424
237.339	2920
237.403	1475
237.468	1117
237.533	849
237.598	463
237.662	239
237.727	125
237.792	1639
237.856	106
237.921	-745
237.986	598
238.050	1372
238.115	3297
238.180	3528
238.245	575
238.309	896
238.374	-153
238.438	605
238.503	-302
238.568	1544
238.632	-491
238.697	351
238.762	522
238.826	1459
238.891	-208
238.955	506
239.020	-35
239.085	709
239.149	41
239.214	315
239.278	162
239.343	-495
239.407	266
239.472	3629
239.536	1461
239.601	803
239.665	-122
239.730	654
239.794	1048
239.859	2105
239.923	63
239.988	642
240.052	-155
240.117	1076
240.181	-105
240.246	11
240.310	-24
240.374	1259
240.439	2421
240.503	624
240.568	1218
240.632	1105
240.696	852
240.761	411
240.825	442
240.890	246
240.954	1053
241.018	2140
241.083	236
241.147	24
241.211	646
241.276	1320
241.340	106
241.404	391
241.469	1171
241.533	552
241.597	-30
241.661	9
241.726	139
241.790	-419
241.854	-445
241.919	931
241.983	-354
242.047	-293
242.111	245
242.175	-446
242.240	602
242.304	-817
242.368	-129
242.432	729
242.496	377
242.561	18
242.625	137
242.689	-31
242.753	-395
242.817	258
242.881	340
242.946	-617
243.010	178
243.074	87
243.138	-40
243.202	-352
243.266	-649
243.330	963
243.394	5294
243.458	12709
243.522	3169
243.586	973
243.651	128
243.715	1273
243.779	1350
243.843	1762
243.907	1071
243.971	-410
244.035	815
244.099	53
244.163	192
244.227	1148
244.291	514
244.355	81
244.419	-81
244.483	60
244.546	-586
244.610	-653
244.674	93
244.738	-76
244.802	257
244.866	419
244.930	-753
244.994	452
245.058	302
245.122	1435
245.186	-96
245.249	503
245.313	-903
245.377	919
245.441	-78
245.505	423
245.569	347
245.632	-120
245.696	1192
245.760	1364
245.824	548
245.888	67
245.951	-2
246.015	263
246.079	256
246.143	2385
246.207	3691
246.270	1659
246.334	570
246.398	780
246.461	214
246.525	515
246.589	1091
246.653	-78
246.716	11
246.780	612
246.844	600
246.907	359
246.971	171
247.035	255
247.098	1002
247.162	2494
247.226	5355
247.289	1976
247.353	555
247.416	1672
247.480	1130
247.544	1098
247.607	769
247.671	1250
247.734	1328
247.798	1374
247.861	2094
247.925	5006
247.989	1046
248.052	1025
248.116	1395
248.179	1812
248.243	9431
248.306	7633
248.370	4224
248.433	1630
248.497	2306
248.560	1794
248.624	2003
248.687	4165
248.751	9876
248.814	5010
248.877	3923
248.941	6930
249.004	10684
249.068	8743
249.131	3489
249.194	1728
249.258	2835
249.321	1765
249.385	2539
249.448	2234
249.511	1944
249.575	2549
249.638	1995
249.701	2295
249.765	2563
249.828	2304
249.891	1832
249.955	1909
250.018	4682
250.081	5836
250.145	3941
250.208	2738
250.271	2833
250.334	2551
250.398	2697
250.461	3089
250.524	4904
250.587	16443
250.651	22023
250.714	6267
250.777	5004
250.840	3384
250.903	3530
250.967	4883
251.030	7386
251.093	3826
251.156	4855
251.219	4222
251.282	6210
251.345	22815
251.409	17039
251.472	12771
251.535	39057
251.598	22983
251.661	8372
251.724	10381
251.787	11096
251.850	24919
251.913	12232
251.976	6565
252.039	4761
252.103	4330
252.166	6360
252.229	13064
252.292	14542
252.355	30752
252.418	10499
252.481	6269
252.544	4559
252.607	4477
252.670	10745
252.733	13953
252.796	31974
252.858	15300
252.921	6943
252.984	5577
253.047	4014
253.110	4029
253.173	4748
253.236	4522
253.299	3356
253.362	3118
253.425	3659
253.488	6997
253.550	3790
253.613	3286
253.676	3549
253.739	2425
253.802	2912
253.865	2218
253.928	1896
253.990	3699
254.053	5485
254.116	4727
254.179	3404
254.242	2340
254.304	2191
254.367	3032
254.430	2775
254.493	3361
254.555	5070
254.618	1779
254.681	944
254.743	1389
254.806	1504
254.869	3554
254.932	3775
254.994	1444
255.057	477
255.120	1406
255.182	21
255.245	1042
255.308	704
255.370	602
255.433	660
255.496	146
255.558	278
255.621	1324
255.683	-353
255.746	1365
255.809	-234
255.871	637
255.934	347
255.996	1001
256.059	6
256.121	1132
256.184	1886
256.246	2101
256.309	555
256.371	463
256.434	-288
256.496	98
256.559	112
256.621	866
256.684	4087
256.746	10422
256.809	2387
256.871	1395
256.934	1003
256.996	837
257.059	1122
257.121	1348
257.183	103
257.246	541
257.308	541
257.371	2874
257.433	14280
257.495	10996
257.558	3866
257.620	1952
257.683	940
257.745	928
257.807	-378
257.870	220
257.932	588
257.994	593
258.056	106
258.119	163
258.181	1204
258.243	515
258.306	514
258.368	2045
258.430	1912
258.492	3688
258.555	4151
258.617	460
258.679	882
258.741	1840
258.803	406
258.866	492
258.928	559
258.990	471
259.052	949
259.114	555
259.177	153
259.239	1569
259.301	1591
259.363	816
259.425	215
259.487	726
259.549	-294
259.611	528
259.674	696
259.736	4064
259.798	5794
259.860	10859
259.922	7217
259.984	1757
260.046	1093
260.108	658
260.170	961
260.232	59
260.294	1062
260.356	192
260.418	1200
260.480	2495
260.542	1329
260.604	4255
260.666	5315
260.728	910
260.790	1109
260.852	200
260.914	1255
260.976	714
261.038	1207
261.100	6741
261.161	4577
261.223	2006
261.285	2780
261.347	3528
261.409	349
261.471	686
261.533	-91
261.595	579
261.656	1413
261.718	3112
261.780	796
261.842	1364
261.904	314
261.966	818
262.027	459
262.089	918
262.151	795
262.213	508
262.274	1028
262.336	1434
262.398	272
262.460	1649
262.521	3694
262.583	1356
262.645	574
262.706	1694
262.768	2256
262.830	1895
262.892	900
262.953	965
263.015	8392
263.077	20452
263.138	5828
263.200	1952
263.261	65
263.323	1221
263.385	162
263.446	287
263.508	560
263.569	128
263.631	-475
263.693	220
263.754	249
263.816	-56
263.877	243
263.939	467
264.000	268
264.062	1407
264.123	1015
264.185	-138
264.246	-235
264.308	52
264.369	2402
264.431	433
264.492	-388
264.554	591
264.615	936
264.677	482
264.738	247
264.800	-801
264.861	-226
264.922	27
264.984	-889
265.045	-375
265.107	-192
265.168	4328
265.229	2464
265.291	69
265.352	-461
265.413	189
265.475	-769
265.536	-127
265.597	-167
265.659	-418
265.720	-747
265.781	-957
265.843	-1061
265.904	1196
265.965	9110
266.026	4643
266.088	139
266.149	442
266.210	269
266.271	-611
266.333	-451
266.394	-190
266.455	-1190
266.516	-518
266.577	114
266.639	694
266.700	-1002
266.761	-644
266.822	-791
266.883	437
266.944	-1007
267.005	474
267.067	-315
267.128	-59
267.189	-1860
267.250	-312
267.311	-982
267.372	-715
267.433	-1226
267.494	-195
267.555	-191
267.616	-625
267.677	-78
267.738	-1308
267.799	392
267.860	1074
267.921	-131
267.982	-61
268.043	-1137
268.104	-1059
268.165	-1520
268.226	-266
268.287	-962
268.348	16
268.409	-603
268.470	-559
268.531	-827
268.592	-466
268.653	-1358
268.714	-1100
268.775	-361
268.836	432
268.896	669
268.957	224
269.018	-620
269.079	46
269.140	-754
269.201	-937
269.262	16
269.322	226
269.383	-1242
269.444	63
269.505	512
269.565	648
269.626	-14
269.687	-71
269.748	-514
269.809	-234
269.869	-36
269.930	-96
269.991	-1144
270.051	-342
270.112	-510
270.173	-419
270.234	-528
270.294	324
270.355	-599
270.416	-566
270.476	-335
270.537	526
270.598	2569
270.658	319
270.719	-74
270.779	732
270.840	-331
270.901	-21
270.961	260
271.022	-172
271.082	799
271.143	1651
271.203	132
271.264	97
271.325	409
271.385	3059
271.446	609
271.506	518
271.567	221
271.627	-273
271.688	665
271.748	1953
271.809	11304
271.869	17770
271.930	3612
271.990	7811
272.050	15527
272.111	3774
272.171	1981
272.232	1378
272.292	9049
272.352	5558
272.413	2885
272.473	2354
272.534	2055
272.594	1621
272.654	1919
272.715	5590
272.775	1295
272.835	1778
272.896	595
272.956	1125
273.016	1514
273.077	1445
273.137	266
273.197	754
273.257	4644
273.318	12118
273.378	3766
273.438	3841
273.498	8219
273.559	3716
273.619	6182
273.679	15388
273.739	4910
273.799	2804
273.860	7362
273.920	18325
273.980	3456
274.040	2292
274.100	2537
274.160	16832
274.221	17112
274.281	12355
274.341	10735
274.401	7455
274.461	2760
274.521	2563
274.581	13292
274.641	18873
274.701	5999
274.761	2528
274.821	6196
274.882	28039
274.942	19940
275.002	11292
275.062	4097
275.122	2377
275.182	1959
275.242	2228
275.302	3821
275.362	3575
275.421	2635
275.481	11519
275.541	24805
275.601	11523
275.661	5602
275.721	3166
275.781	2098
275.841	881
275.901	1252
275.961	1204
276.021	503
276.081	2195
276.140	7628
276.200	3377
276.260	1503
276.320	1375
276.380	513
276.440	788
276.499	842
276.559	988
276.619	1299
276.679	5235
276.738	3910
276.798	1329
276.858	1389
276.918	943
276.978	186
277.037	1046
277.097	1594
277.157	6792
277.216	1591
277.276	1373
277.336	751
277.395	1186
277.455	1519
277.515	1545
277.574	3383
277.634	6476
277.694	961
277.753	9574
277.813	7276
277.873	5314
277.932	20366
277.992	7164
278.051	6271
278.111	7041
278.171	3151
278.230	7602
278.290	5382
278.349	2574
278.409	1586
278.468	457
278.528	1914
278.587	1282
278.647	1464
278.706	6214
278.766	20347
278.825	5207
278.885	2506
278.944	3096
279.004	4693
279.063	4214
279.122	2323
279.182	3058
279.241	2329
279.301	3807
279.360	6068
279.419	29236
279.479	107388
279.538	92260
279.598	20436
279.657	10350
279.716	13813
279.776	26956
279.835	9919
279.894	5629
279.953	4160
280.013	8183
280.072	13654
280.131	11534
280.191	72827
280.250	86684
280.309	17581
280.368	10803
280.428	8338
280.487	5980
280.546	4270
280.605	5543
280.664	7129
280.724	2392
280.783	1818
280.842	1795
280.901	1189
280.960	1773
281.019	1212
281.079	2203
281.138	788
281.197	2133
281.256	11715
281.315	9787
281.374	1298
281.433	941
281.492	937
281.551	1027
281.611	1082
281.670	1807
281.729	217
281.788	352
281.847	574
281.906	774
281.965	-52
282.024	21
282.083	70
282.142	319
282.201	1118
282.260	4070
282.319	3030
282.378	757
282.436	272
282.495	7844
282.554	3795
282.613	1122
282.672	840
282.731	1867
282.790	485
282.849	1488
282.908	224
282.967	803
283.025	589
283.084	1841
283.143	4806
283.202	10198
283.261	2467
283.319	1332
283.378	759
283.437	1272
283.496	1870
283.555	1313
283.613	1464
283.672	1290
283.731	1965
283.790	3463
283.848	707
283.907	1397
283.966	1173
284.024	2253
284.083	528
284.142	1969
284.201	356
284.259	2113
284.318	11398
284.376	10024
284.435	2930
284.494	2390
284.552	2539
284.611	1765
284.670	1764
284.728	2216
284.787	3113
284.845	3761
284.904	3473
284.962	4269
285.021	10049
285.079	33232
285.138	155606
285.197	151283
285.255	45387
285.314	20231
285.372	10940
285.431	8621
285.489	7598
285.547	6106
285.606	3988
285.664	3295
285.723	2344
285.781	2477
285.840	1842
285.898	1588
285.957	-111
286.015	1288
286.073	1005
286.132	1336
286.190	768
286.248	979
286.307	2321
286.365	2590
286.423	964
286.482	335
286.540	650
286.598	1500
286.657	1384
286.715	579
286.773	1190
286.832	2793
286.890	4406
286.948	1994
287.006	1095
287.064	918
287.123	1226
287.181	2331
287.239	1519
287.297	2619
287.356	4306
287.414	3304
287.472	2029
287.530	1223
287.588	1784
287.646	3331
287.704	3384
287.763	2663
287.821	2859
287.879	2977
287.937	6138
287.995	19502
288.053	99583
288.111	294844
288.169	138908
288.227	39519
288.285	19455
288.343	14129
288.401	10789
288.459	9017
288.517	6828
288.575	4508
288.633	2416
288.691	2696
288.749	2231
288.807	1616
288.865	1325
288.923	1881
288.981	776
289.039	388
289.097	289
289.155	1802
289.213	512
289.271	1290
289.329	957
289.386	2187
289.444	2771
289.502	1391
289.560	446
289.618	692
289.676	-91
289.734	611
289.791	8
289.849	838
289.907	766
289.965	305
290.022	492
290.080	871
290.138	1548
290.196	727
290.253	-413
290.311	-156
290.369	-89
290.427	-69
290.484	147
290.542	116
290.600	370
290.657	24
290.715	334
290.773	559
290.830	498
290.888	612
290.946	173
291.003	744
291.061	173
291.118	4674
291.176	9042
291.234	2912
291.291	305
291.349	826
291.406	556
291.464	-8
291.521	195
291.579	229
291.636	-179
291.694	731
291.751	2116
291.809	1338
291.866	-274
291.924	24
291.981	307
292.039	1146
292.096	-23
292.154	-123
292.211	1139
292.268	3005
292.326	3080
292.383	1906
292.441	573
292.498	1114
292.555	1424
292.613	3123
292.670	689
292.727	1262
292.785	5158
292.842	13418
292.899	8080
292.957	2193
293.014	614
293.071	966
293.129	1220
293.186	619
293.243	1410
293.300	1521
293.358	390
293.415	147
293.472	-544
293.529	2211
293.586	13360
293.644	35852
293.701	17335
293.758	5779
293.815	3123
293.872	5003
293.929	2108
293.987	2959
294.044	4850
294.101	11202
294.158	9269
294.215	3752
294.272	1711
294.329	1693
294.386	2926
294.443	1632
294.500	811
294.558	1086
294.615	1050
294.672	9202
294.729	36974
294.786	31702
294.843	12286
294.900	6917
294.957	3965
295.014	4230
295.070	2870
295.127	1463
295.184	1646
295.241	2881
295.298	14380
295.355	29335
295.412	12405
295.469	4711
295.526	7148
295.583	11363
295.640	12137
295.696	21290
295.753	8847
295.810	4109
295.867	3073
295.924	4894
295.981	4703
296.037	1933
296.094	1637
296.151	580
296.208	530
296.265	757
296.321	1196
296.378	2113
296.435	8421
296.492	16864
296.548	12912
296.605	35884
296.662	51549
296.718	19908
296.775	7344
296.832	6495
296.888	12985
296.945	28069
297.002	22179
297.058	8349
297.115	4516
297.172	9028
297.228	36547
297.285	67485
297.341	28494
297.398	8748
297.454	4226
297.511	2623
297.568	3421
297.624	2332
297.681	1643
297.737	1359
297.794	818
297.850	1172
297.907	1650
297.963	1413
298.020	4069
298.076	14943
298.133	14016
298.189	8190
298.245	15967
298.302	45779
298.358	30410
298.415	14556
298.471	9133
298.527	6696
298.584	5073
298.640	10558
298.697	28440
298.753	25358
298.809	8622
298.866	3757
298.922	2045
298.978	3233
299.035	2957
299.091	2720
299.147	1840
299.203	1858
299.260	2720
299.316	9758
299.372	40038
299.428	41376
299.485	15143
299.541	5222
299.597	3251
299.653	3734
299.710	3969
299.766	2877
299.822	6000
299.878	21302
299.934	27873
299.990	28446
300.046	50399
300.103	29258
300.159	11184
300.215	10180
300.271	10097
300.327	6196
300.383	4010
300.439	2656
300.495	1863
300.551	3497
300.607	6979
300.663	17213
300.719	25260
300.775	37075
300.831	21994
300.887	21466
300.943	17684
300.999	7607
301.055	4505
301.111	4958
301.167	4047
301.223	3275
301.279	1060
301.335	1686
301.391	653
301.447	1332
301.503	1346
301.559	4753
301.614	4503
301.670	7750
301.726	13492
301.782	11332
301.838	14412
301.894	19145
301.949	44246
302.005	129021
302.061	134054
302.117	64219
302.173	21838
302.228	11150
302.284	9820
302.340	18053
302.396	17069
302.451	15687
302.507	34573
302.563	41692
302.618	22843
302.674	9179
302.730	4763
302.785	3625
302.841	2982
302.897	5003
302.952	7388
303.008	7750
303.064	9279
303.119	11172
303.175	6553
303.230	3268
303.286	2250
303.341	1256
303.397	1048
303.453	1735
303.508	1922
303.564	3568
303.619	11984
303.675	37770
303.730	34323
303.786	14962
303.841	5215
303.897	3129
303.952	4302
304.008	6981
304.063	7822
304.118	12761
304.174	13704
304.229	10439
304.285	5961
304.340	2625
304.372	2890
304.395	3092
304.451	3106
304.463	3007
304.506	2722
304.554	2834
304.562	2865
304.617	8586
304.644	18741
304.672	29316
304.728	45346
304.735	42730
304.783	26326
304.825	13013
304.838	9068
304.894	4247
304.916	3810
304.949	3206
305.004	3456
305.006	3419
305.059	2808
305.097	1968
305.115	1601
305.170	794
305.188	1031
305.225	1576
305.278	1457
305.280	1451
305.336	1620
305.369	1820
305.391	2018
305.446	3374
305.459	3316
305.501	3088
305.550	3604
305.556	3686
305.612	8730
305.640	18226
305.667	27244
305.722	33737
305.731	32249
305.777	24717
305.821	31551
305.832	33427
305.887	35940
305.912	28359
305.942	18757
305.997	8872
306.002	8439
306.053	4353
306.092	3292
306.108	2912
306.163	2775
306.183	2551
306.218	2201
306.273	2418
306.273	2413
306.328	2313
306.364	1904
306.383	1730
306.438	2316
306.454	2403
306.493	2487
306.545	6249
306.548	6524
306.603	12114
306.635	17362
306.658	21160
306.713	19412
306.725	17329
306.768	10331
306.816	5563
306.823	4900
306.878	2326
306.906	1876
306.933	1425
306.988	1800
306.997	1813
307.043	1891
307.087	2155
307.098	2260
307.152	4371
307.177	5080
307.207	6009
307.262	6949
307.268	6737
307.317	4674
307.358	3987
307.372	3825
307.427	7359
307.448	10194
307.482	14721
307.536	17271
307.538	17012
307.591	10253
307.629	5961
307.646	4238
307.701	3562
307.719	4261
307.756	5620
307.809	10055
307.810	10158
307.865	8374
307.900	6606
307.920	5645
307.975	4631
307.990	5639
308.029	8242
308.080	21542
308.084	22820
308.139	67212
308.170	77651
308.194	84195
308.248	54059
308.261	48724
308.303	27980
308.351	16554
308.358	15277
308.412	8781
308.441	7014
308.467	5698
308.522	4410
308.531	4408
308.576	4321
308.621	3689
308.631	3564
308.686	5599
308.712	8182
308.740	11247
308.795	10005
308.802	9623
308.849	5975
308.892	3652
308.904	3271
308.959	3593
308.982	4256
309.013	4988
309.068	10324
309.072	11376
309.122	23141
309.162	49917
309.177	61133
309.231	109662
309.253	103399
309.286	85050
309.340	43458
309.343	42358
309.395	19183
309.433	11601
309.449	9373
309.504	6734
309.523	6713
309.558	6610
309.613	7288
309.613	7306
309.667	7950
309.703	7562
309.722	7014
309.776	4532
309.793	4224
309.830	3980
309.883	5442
309.885	5474
309.939	10405
309.973	11918
309.994	12702
310.048	10642
310.063	9531
310.102	5780
310.153	2676
310.157	2523
310.211	1506
310.243	1464
310.265	1412
310.320	1386
310.333	1374
310.374	952
310.423	416
310.428	425
310.483	750
310.513	838
310.537	724
310.591	721
310.603	690
310.646	607
310.693	253
310.700	225
310.754	261
310.783	382
310.808	406
310.862	382
310.873	396
310.917	436
310.963	403
310.971	410
311.025	563
311.053	566
311.079	462
311.133	449
311.143	412
311.188	194
311.233	28
311.242	101
311.296	632
311.323	875
311.350	531
311.404	-89
311.413	-204
311.458	23
311.503	344
311.512	343
311.567	407
311.593	382
311.621	292
311.675	159
311.683	137
311.729	92
311.772	121
311.783	142
311.837	236
311.862	332
311.891	400
311.945	494
311.952	515
311.999	421
312.042	360
312.053	284
312.107	-41
312.132	-181
312.222	463
312.311	483
312.401	0
312.491	566
312.581	723
312.671	-250
312.760	279
312.850	-82
312.940	-514
313.030	-44
313.119	-64
313.209	563
313.299	421
313.389	473
313.478	757
313.568	-33
313.658	13
313.747	-170
313.837	-220
313.927	257
314.016	-359
314.106	-84
314.195	198
314.285	482
314.375	-273
314.464	25
314.554	-620
314.643	-276
314.733	171
314.823	357
314.912	-252
315.002	-41
315.091	142
315.181	-195
315.270	71
315.360	79
315.449	10
315.539	266
315.628	144
315.718	97
315.807	175
315.896	1488
315.986	175
316.075	516
316.165	-31
316.254	515
316.344	863
316.433	-231
316.522	-18
316.612	195
316.701	256
316.790	-219
316.880	638
316.969	166
317.058	797
317.148	253
317.237	64
317.326	-81
317.415	-699
317.505	133
317.594	-179
317.683	-609
317.772	-267
317.862	1276
317.951	2408
318.040	605
318.129	753
318.219	932
318.308	249
318.397	726
318.486	457
318.575	414
318.664	1961
318.754	791
318.843	-591
318.932	-696
319.021	828
319.110	1357
319.199	1822
319.288	410
319.377	418
319.466	43
319.555	6
319.644	-90
319.733	372
319.822	-39
319.911	833
320.000	3012
320.089	585
320.178	320
320.267	812
320.356	-121
320.445	-185
320.534	275
320.623	-725
320.712	1220
320.801	-221
320.890	307
320.979	21
321.068	850
321.157	360
321.245	500
321.334	725
321.423	223
321.512	508
321.601	1198
321.690	521
321.779	-43
321.867	-117
321.956	618
322.045	32
322.134	33
322.222	1144
322.311	508
322.400	429
322.489	425
322.577	948
322.666	547
322.755	120
322.843	-128
322.932	1085
323.021	-93
323.110	617
323.198	211
323.287	-151
323.375	1617
323.464	2888
323.553	657
323.641	2004
323.730	453
323.819	129
323.907	1605
323.996	331
324.084	914
324.173	1808
324.261	1168
324.350	250
324.438	-195
324.527	-58
324.615	-124
324.704	4043
324.792	4374
324.881	988
324.969	123
325.058	285
325.146	-582
325.235	772
325.323	88
325.412	807
325.500	556
325.588	-579
325.677	-283
325.765	-122
325.853	-15
325.942	236
326.030	-241
326.118	-139
326.207	179
326.295	-618
326.383	-511
326.472	6
326.560	292
326.648	-40
326.737	-238
326.825	-66
326.913	408
327.001	-105
327.090	-348
327.178	917
327.266	-477
327.354	3223
327.442	1666
327.531	21
327.619	-636
327.707	260
327.795	66
327.883	141
327.971	-361
328.060	-418
328.148	-49
328.236	37
328.324	230
328.412	7
328.500	-132
328.588	545
328.676	74
328.764	88
328.852	-342
328.940	-279
329.028	-180
329.116	-647
329.204	-338
329.292	-725
329.380	-221
329.468	-12
329.556	-67
329.644	-194
329.732	-367
329.820	-59
329.908	-365
329.996	-586
330.084	78
330.172	1108
330.259	4426
330.347	1510
330.435	-105
330.523	169
330.611	777
330.699	-274
330.787	-369
330.874	-221
330.962	308
331.050	389
331.138	-243
331.226	-271
331.313	-248
331.401	-524
331.489	-222
331.577	-367
331.664	-431
331.752	-422
331.840	53
331.927	-161
332.015	-61
332.103	-111
332.190	-84
332.278	668
332.366	-533
332.453	-27
332.541	-89
332.629	-573
332.716	-662
332.804	-846
332.891	378
332.979	404
333.066	-214
333.154	-421
333.242	-281
333.329	-755
333.417	-165
333.504	407
333.592	-377
333.679	4
333.767	222
333.854	-206
333.942	67
334.029	86
334.117	1303
334.204	1885
334.291	702
334.379	349
334.466	777
334.554	316
334.641	265
334.728	-431
334.816	197
334.903	4510
334.990	1636
335.078	343
335.165	-917
335.252	-67
335.340	-1052
335.427	2074
335.514	922
335.602	-413
335.689	-241
335.776	499
335.863	-597
335.951	-530
336.038	1377
336.125	2976
336.212	236
336.299	-4
336.387	-370
336.474	-580
336.561	-652
336.648	58
336.735	-639
336.822	-561
336.910	-209
336.997	522
337.084	989
337.171	865
337.258	2211
337.345	401
337.432	-471
337.519	-337
337.606	-339
337.693	785
337.780	1298
337.867	69
337.954	630
338.041	315
338.128	-910
338.215	-57
338.302	-142
338.389	530
338.476	-256
338.563	740
338.650	-99
338.737	-317
338.824	255
338.911	-343
338.998	-576
339.085	-208
339.171	125
339.258	-522
339.345	-482
339.432	-706
339.519	60
339.606	-342
339.692	-933
339.779	-1056
339.866	-577
339.953	-263
340.040	1
340.126	-545
340.213	-241
340.300	-242
340.387	-339
340.473	-212
340.560	-753
340.647	-105
340.733	-63
340.820	-554
340.907	-265
340.993	-353
341.080	-858
341.167	-268
341.253	-486
341.340	-73
341.426	-242
341.513	-26
341.600	-323
341.686	-428
341.773	-335
341.859	-848
341.946	-271
342.032	-456
342.119	-824
342.205	-401
342.292	-668
342.378	-1221
342.465	259
342.551	-552
342.638	-227
342.724	677
342.811	-922
342.897	-456
342.984	-904
343.070	-681
343.156	-459
343.243	187
343.329	-186
343.416	-594
343.502	-802
343.588	-988
343.675	-225
343.761	-633
343.847	-229
343.934	891
344.020	5358
344.106	5118
344.193	482
344.279	231
344.365	956
344.451	420
344.538	-932
344.624	-1046
344.710	-528
344.796	-369
344.882	-69
344.969	-911
345.055	-65
345.141	-879
345.227	-153
345.313	-743
345.399	-135
345.486	-480
345.572	-493
345.658	-207
345.744	-411
345.830	-496
345.916	-495
346.002	323
346.088	-65
346.174	-327
346.260	-362
346.346	-698
346.432	-511
346.518	608
346.604	860
346.690	-771
346.776	-473
346.862	-393
346.948	-1314
347.034	234
347.120	-14
347.206	-290
347.292	-976
347.378	113
347.464	524
347.549	1848
347.635	1891
347.721	-329
347.807	-456
347.893	-922
347.979	-489
348.065	-414
348.150	-523
348.236	-523
348.322	-1500
348.408	-574
348.493	-668
348.579	-344
348.665	-669
348.751	-471
348.836	-1845
348.922	603
349.008	1671
349.094	1888
349.179	-36
349.265	-821
349.351	-1142
349.436	-534
349.522	-592
349.608	-175
349.693	132
349.779	731
349.864	-278
349.950	-22
350.036	-1413
350.121	-250
350.207	-188
350.292	-555
350.378	-785
350.463	-834
350.549	41
350.634	-393
350.720	-567
350.805	-726
350.891	-1094
350.976	-57
351.062	-737
351.147	676
351.233	-546
351.318	-254
351.404	-747
351.489	-813
351.574	-352
351.660	-633
351.745	-597
351.830	-640
351.916	-536
352.001	-1004
352.086	202
352.172	118
352.257	229
352.342	-860
352.428	-534
352.513	82
352.598	2307
352.684	73
352.769	-985
352.854	-752
352.939	7
353.024	-556
353.110	-497
353.195	-351
353.280	-413
353.365	-201
353.450	-356
353.536	-1138
353.621	-942
353.706	-972
353.791	-529
353.876	-983
353.961	116
354.046	-940
354.131	-67
354.216	-58
354.302	-298
354.387	-349
354.472	-15
354.557	-323
354.642	-539
354.727	-653
354.812	-416
354.897	-409
354.982	-645
355.067	-762
355.152	-467
355.237	-500
355.321	-259
355.406	247
355.491	-221
355.576	-152
355.661	171
355.746	485
355.831	1352
355.916	-413
356.001	-158
356.085	-1156
356.170	-396
356.255	-622
356.340	-271
356.425	273
356.509	2922
356.594	574
356.679	-627
356.764	394
356.849	-412
356.933	3880
357.018	4326
357.103	343
357.187	-433
357.272	-684
357.357	-157
357.441	-707
357.526	158
357.611	-686
357.695	-1120
357.780	20
357.865	-625
357.949	-418
358.034	2869
358.118	6918
358.203	867
358.288	-647
358.372	-602
358.457	687
358.541	1472
358.626	626
358.710	752
358.795	-625
358.879	-458
358.964	-547
359.048	61
359.133	-332
359.217	-696
359.302	-1042
359.386	-452
359.470	-631
359.555	-419
359.639	-672
359.724	-893
359.808	-72
359.892	-545
359.977	-969
360.061	-249
360.145	-1530
360.230	-548
360.314	-336
360.398	-595
360.483	-312
360.567	-259
360.651	457
360.735	-396
360.820	2557
360.904	2236
360.988	122
361.072	-663
361.157	-585
361.241	-416
361.325	-565
361.409	-871
361.493	32
361.577	-1208
361.662	-585
361.746	-239
361.830	3784
361.914	1279
361.998	-1079
362.082	-1115
362.166	-1445
362.250	171
362.334	-1208
362.418	319
362.502	-1104
362.586	-558
362.671	-1018
362.754	-1061
362.839	-798
362.922	-1028
363.006	905
363.090	3958
363.174	1284
363.258	-144
363.342	-370
363.426	113
363.510	1408
363.594	-139
363.678	-1016
363.762	-1264
363.846	214
363.929	-1187
364.013	-992
364.097	-828
364.181	-393
364.265	2502
364.349	-905
364.432	1562
364.516	-959
364.600	489
364.684	436
364.767	2588
364.851	536
364.935	-532
365.019	-946
365.102	-879
365.186	-666
365.270	627
365.353	2270
365.437	-289
365.521	-559
365.604	-1944
365.688	335
365.771	-1075
365.855	-534
365.939	-1100
366.022	-358
366.106	-1618
366.189	-1085
366.273	-721
366.357	-1127
366.440	-626
366.524	-962
366.607	-549
366.691	-537
366.774	-952
366.858	-554
366.941	-1337
367.024	-1022
367.108	-1025
367.191	-717
367.275	-1251
367.358	-1374
367.442	-712
367.525	-1258
367.608	-856
367.692	-1232
367.775	-1193
367.858	-1087
367.942	484
368.025	-107
368.108	-1439
368.192	-661
368.275	-439
368.358	-763
368.442	418
368.525	383
368.608	-534
368.691	321
368.775	268
368.858	-580
368.941	-29
369.024	-1028
369.107	-891
369.190	-1007
369.274	-1469
369.357	-135
369.440	-268
369.523	-450
369.606	-1685
369.689	-73
369.772	-1490
369.855	-964
369.939	-1230
370.022	-785
370.105	-726
370.188	358
370.271	-433
370.354	-906
370.437	-519
370.520	989
370.603	267
370.686	-1722
370.769	714
370.852	830
370.935	321
371.018	-458
371.100	-881
371.183	36
371.266	-19
371.349	-1563
371.432	-740
371.515	-555
371.598	-1028
371.681	-1099
371.763	117
371.846	-279
371.929	4706
372.012	2572
372.095	1302
372.177	1200
372.260	709
372.343	-984
372.426	-871
372.508	267
372.591	-1029
372.674	623
372.757	1367
372.839	-64
372.922	63
373.005	87
373.087	-1021
373.170	-224
373.253	876
373.335	1292
373.418	6391
373.500	4273
373.583	1224
373.666	5511
373.748	1539
373.831	-1271
373.913	-327
373.996	-552
374.078	1037
374.161	-108
374.243	109
374.326	336
374.408	81
374.491	3510
374.573	4186
374.656	-423
374.738	1222
374.821	3160
374.903	6989
374.985	1041
375.068	-181
375.150	-75
375.233	1605
375.315	815
375.397	-1220
375.480	-812
375.562	-574
375.644	-265
375.727	1926
375.809	3295
375.891	1652
375.973	-657
376.056	335
376.138	-275
376.220	-519
376.302	1709
376.385	1472
376.467	-562
376.549	-106
376.631	944
376.713	2372
376.795	-867
376.878	-909
376.960	-978
377.042	-208
377.124	-400
377.206	357
377.288	-717
377.370	-1167
377.452	-571
377.534	-568
377.616	-399
377.699	-1237
377.781	-1879
377.863	8
377.945	501
378.027	-1016
378.109	-752
378.190	-573
378.272	17
378.354	-901
378.436	-1038
378.518	-782
378.600	-541
378.682	-333
378.764	1032
378.846	-905
378.928	-83
379.010	-1139
379.091	-321
379.173	471
379.255	-1198
379.337	-1509
379.419	-540
379.501	712
379.582	-853
379.664	-741
379.746	-980
379.828	1153
379.909	34
379.991	-88
380.073	-273
380.155	-471
380.236	-713
380.318	-587
380.400	-488
380.481	-243
380.563	-658
380.645	-972
380.726	-764
380.808	-305
380.889	-900
380.971	-1600
381.053	-1433
381.134	-584
381.216	-543
381.297	302
381.379	-866
381.460	-419
381.542	3226
381.623	-424
381.705	-453
381.786	-410
381.868	-482
381.949	2609
382.031	3871
382.112	992
382.193	-1231
382.275	-4
382.356	855
382.438	4
382.519	3917
382.600	2989
382.682	950
382.763	2280
382.844	166
382.926	546
383.007	-691
383.088	-435
383.170	2204
383.251	1508
383.332	1290
383.413	1646
383.495	-46
383.576	-136
383.657	-366
383.738	2498
383.820	3783
383.901	-228
383.982	1476
384.063	2489
384.144	419
384.225	-459
384.306	-715
384.388	-452
384.469	10
384.550	-1089
384.631	-757
384.712	-1052
384.793	-767
384.874	-555
384.955	1270
385.036	-1099
385.117	-1055
385.198	298
385.279	-350
385.360	-1052
385.441	-570
385.522	338
385.603	2039
385.684	-324
385.765	-686
385.846	-76
385.927	4659
386.008	2791
386.089	-544
386.169	-597
386.250	5
386.331	324
386.412	-199
386.493	-284
386.574	112
386.654	-854
386.735	-718
386.816	-664
386.897	-966
386.977	-238
387.058	-937
387.139	-605
387.220	126
387.300	336
387.381	-757
387.462	-1030
387.542	-542
387.623	-1233
387.704	-415
387.784	2149
387.865	-296
387.946	36
388.026	-512
388.107	-2810
388.187	334
388.268	11
388.349	-950
388.429	-723
388.510	326
388.590	2948
388.671	532
388.751	230
388.832	513
388.912	-781
388.993	-1042
389.073	-611
389.154	-30
389.234	-464
389.314	-86
389.395	-826
389.475	723
389.556	-279
389.636	-225
389.716	-193
389.797	-1255
389.877	532
389.957	1546
390.038	-587
390.118	-1118
390.198	501
390.279	159
390.359	-964
390.439	649
390.519	3094
390.600	143
390.680	-1159
390.760	-604
390.840	156
390.920	-1557
391.001	-922
391.081	223
391.161	-1318
391.241	-1983
391.321	445
391.401	-941
391.481	-676
391.562	-1530
391.642	-409
391.722	-387
391.802	-612
391.882	-1154
391.962	-33
392.042	-1272
392.122	-32
392.202	-272
392.282	185
392.362	-595
392.442	-720
392.522	-1214
392.602	-173
392.682	-32
392.762	718
392.842	-1273
392.921	609
393.001	1249
393.081	-1014
393.161	597
393.241	7011
393.321	30393
393.401	8656
393.480	1083
393.560	-110
393.640	-725
393.720	-672
393.800	-1800
393.879	100
393.959	-1419
394.039	269
394.119	-1015
394.198	42
394.278	5371
394.358	20196
394.437	5356
394.517	400
394.597	-1138
394.676	-73
394.756	53
394.836	195
394.915	-1840
394.995	-394
395.075	-595
395.154	-515
395.234	-934
395.313	-179
395.393	-949
395.472	691
395.552	-1012
395.631	1417
395.711	349
395.790	1039
395.870	-543
395.949	43
396.029	6336
396.108	26525
396.188	6940
396.267	1033
396.346	-1122
396.426	-253
396.505	173
396.585	-361
396.664	465
396.743	10775
396.823	20052
396.902	4013
396.981	-2
397.061	-2
397.140	-1588
397.219	-659
397.298	-859
397.378	-1222
397.457	58
397.536	-305
397.615	-2638
397.694	644
397.774	-983
397.853	-1558
397.932	-1061
398.011	-1247
398.090	-1281
398.169	289
398.249	-670
398.328	-1
398.407	-1392
398.486	-1054
398.565	-389
398.644	-692
398.723	-1355
398.802	-212
398.881	483
398.960	733
399.039	-861
399.118	-1160
399.197	-175
399.276	162
399.355	-408
399.434	-406
399.513	-436
399.592	-1946
399.671	-635
399.750	-792
399.829	2529
399.908	256
399.986	-175
400.065	-1052
400.144	-1861
400.223	718
400.302	-850
400.380	-1310
400.459	515
400.538	367
400.617	-1533
400.696	-1172
400.774	-1155
400.853	-719
400.932	-1522
401.011	1331
401.089	-332
401.168	-681
401.247	-1424
401.325	-172
401.404	-641
401.483	-1248
401.561	189
401.640	-559
401.718	-375
401.797	-523
401.876	-327
401.954	-727
402.033	-638
402.111	-401
402.190	-1463
402.268	-199
402.347	-311
402.425	-113
402.504	-966
402.582	-250
402.661	-1182
402.739	-804
402.818	-587
402.896	-301
402.974	-575
403.053	-740
403.131	-444
403.210	232
403.288	-721
403.366	-548
403.445	-485
403.523	-692
403.601	-220
403.680	-2480
403.758	-445
403.836	-602
403.915	-768
403.993	-1001
404.071	262
404.149	-1722
404.228	-1425
404.306	131
404.384	-105
404.462	-424
404.540	4055
404.618	405
404.697	-623
404.775	-659
404.853	-1179
404.931	-1623
405.009	-413
405.087	-688
405.165	-1293
405.243	-1903
405.321	-250
405.399	-1241
405.478	-647
405.556	-630
405.634	-1578
405.712	-1726
405.790	-660
405.868	-122
405.945	-56
406.023	-1711
406.101	-1487
406.179	39
406.257	-398
406.335	994
406.413	255
406.491	-1168
406.569	-1314
406.647	-516
406.724	-528
406.802	-1105
406.880	-1118
406.958	-492
407.036	-1446
407.113	1120
407.191	142
407.269	-72
407.347	-345
407.424	-309
407.502	-566
407.580	-1042
407.658	146
407.735	-1179
407.813	-51
407.891	-595
407.968	-817
408.046	-281
408.124	-860
408.201	-714
408.279	-1610
408.356	-819
408.434	-4
408.512	-1083
408.589	-1258
408.667	-1558
408.744	-325
408.822	-542
408.899	-1138
408.977	-138
409.054	-1485
409.132	-889
409.209	-1148
409.287	-975
409.364	-865
409.441	-1123
409.519	-313
409.596	-589
409.674	-550
409.751	-1958
409.828	-471
409.906	-609
409.983	-2101
410.060	-913
410.138	-20
410.215	-1115
410.292	-1085
410.370	-1136
410.447	-1008
410.524	-1066
410.601	-714
410.678	-717
410.756	-947
410.833	-1815
410.910	-418
410.987	-992
411.064	-1262
411.142	-783
411.219	-28
411.296	-802
411.373	-581
411.450	-323
411.527	-504
411.604	-1485
411.681	-1755
411.758	-464
411.835	-935
411.913	-690
411.990	-874
412.067	-256
412.144	-607
412.221	-1241
412.298	26
412.374	-1137
412.451	-257
412.528	-997
412.605	-1855
412.682	-905
412.759	-1153
412.836	-793
412.913	-1466
412.990	-966
413.067	-106
413.143	-441
413.220	-326
413.297	-1292
413.374	226
413.451	-866
413.527	-12
413.604	-289
413.681	-2128
413.758	-335
413.834	-1043
413.911	-1313
413.988	-1878
414.065	-426
414.141	-1106
414.218	-827
414.295	-646
414.371	680
414.448	-1626
414.524	-1202
414.601	-827
414.678	-719
414.754	-1239
414.831	-921
414.907	-782
414.984	-830
415.060	-469
415.137	-648
415.213	-564
415.290	-951
415.366	-548
415.443	-965
415.519	-1036
415.596	-1851
415.672	-543
415.749	-701
415.825	-905
415.902	-123
415.978	-962
416.054	-386
416.131	-1463
416.207	-1084
416.283	-1071
416.360	-1951
416.436	-455
416.512	-944
416.589	-1327
416.665	-623
416.741	-1014
416.817	-1664
416.894	-744
416.970	-1224
417.046	80
417.122	-2103
417.198	-1477
417.275	-603
417.351	-2070
417.427	-899
417.503	-648
417.579	-1354
417.655	-893
417.731	-637
417.808	-1324
417.884	-610
417.960	-1267
418.036	-1126
418.112	-353
418.188	-1087
418.264	-378
418.340	128
418.416	-1468
418.492	-317
418.568	-997
418.644	-350
418.720	-1044
418.796	-681
418.872	-967
418.947	-1389
419.023	-1075
419.099	-136
419.175	-1167
419.251	-1206
419.327	-1192
419.403	-467
419.478	-1530
419.554	-1021
419.630	-1402
419.706	-1764
419.782	-1167
419.857	-1280
419.933	-452
420.009	-107
420.085	-583
420.160	-1217
420.236	-91
420.312	-716
420.387	-1495
420.463	-1274
420.539	-539
420.614	-1705
420.690	-560
420.766	-1469
420.841	-382
420.917	-1203
420.992	-1166
421.068	-1974
421.143	-578
421.219	-1779
421.294	-357
421.370	-1320
421.445	-400
421.521	-1004
421.596	-1042
421.672	-896
421.747	-1051
421.823	-1755
421.898	-1224
421.974	-817
422.049	-780
422.124	-1575
422.200	-1083
422.275	-498
422.350	-638
422.426	-454
422.501	1403
422.576	11887
422.652	14617
422.727	2634
422.802	483
422.878	-635
422.953	-823
423.028	-914
423.103	-419
423.178	-1587
423.254	-1092
423.329	-360
423.404	-1231
423.479	-733
423.554	-1598
423.630	-1496
423.705	-1409
423.780	-1019
423.855	-812
423.930	-578
424.005	-1139
424.080	-131
424.155	-1217
424.230	-911
424.305	-1171
424.380	-1531
424.455	-1042
424.530	-1090
424.605	-351
424.680	-841
424.755	-478
424.830	-1226
424.905	-1370
424.980	31
425.055	-462
425.130	-1321
425.204	-734
425.279	-1147
425.354	-1320
425.429	-1941
425.504	-740
425.579	-1007
425.653	-732
425.728	-95
425.803	-885
425.878	-236
425.952	-638
426.027	248
426.102	-597
426.177	-1081
426.251	-210
426.326	-1267
426.401	-796
426.475	93
426.550	-829
426.625	-973
426.699	-1138
426.774	-935
426.848	-713
426.923	-945
426.998	-551
427.072	161
427.147	401
427.221	-867
427.296	-671
427.370	-1327
427.445	-1310
427.519	-1582
427.594	-583
427.668	-1161
427.743	-1601
427.817	-927
427.892	-1622
427.966	-686
428.040	-1401
428.115	-377
428.189	416
428.263	89
428.338	-1089
428.412	-1534
428.486	-1496
428.561	-1285
428.635	-918
428.709	-1164
428.784	-752
428.858	646
428.932	-98
429.006	-920
429.080	-1081
429.155	-515
429.229	-1002
429.303	-731
429.377	-879
429.451	-718
429.526	-857
429.600	-469
429.674	-1046
429.748	-1185
429.822	224
429.896	78
429.970	-712
430.044	150
430.118	51
430.192	3054
430.266	440
430.340	-1136
430.414	-239
430.488	-764
430.562	-590
430.636	2
430.710	1721
430.784	167
430.858	-860
430.932	-1282
431.006	-426
431.080	-1748
431.153	-1690
431.227	-934
431.301	-1282
431.375	282
431.449	-1635
431.523	-344
431.596	-1795
431.670	-1216
431.744	-129
431.818	1162
431.891	-954
431.965	-499
432.039	-1269
432.112	-1044
432.186	-1328
432.260	-865
432.333	-1347
432.407	-1365
432.481	698
432.554	419
432.628	-1323
432.702	-1176
432.775	-734
432.849	-1380
432.922	-462
432.996	-1000
433.069	-1807
433.143	-658
433.216	-891
433.290	-1023
433.363	-1247
433.437	-653
433.510	-1590
433.584	-718
433.657	-1869
433.730	-900
433.804	-1807
433.877	-878
433.951	-1515
434.024	-971
434.097	-1473
434.171	-716
434.244	-1102
434.317	-1202
434.391	-1229
434.464	-1127
434.537	-1348
434.610	-878
434.684	-929
434.757	-796
434.830	-1423
434.903	-1438
434.977	-479
435.050	-1410
435.123	-577
435.196	-1085
435.269	-1238
435.342	-768
435.415	-1367
435.489	-1459
435.562	-977
435.635	-624
435.708	-1325
435.781	-1365
435.854	-707
435.927	-1147
436.000	-1955
436.073	-493
436.146	-2050
436.219	-1367
436.292	-2056
436.365	-1536
436.438	-1069
436.511	-1555
436.584	-1427
436.657	-901
436.729	-983
436.802	-1168
436.875	-1240
436.948	-971
437.021	-422
437.094	-1065
437.166	-1649
437.239	-629
437.312	-1294
437.385	-1794
437.457	-1421
437.530	-1824
437.603	-1662
437.676	-964
437.748	-1707
437.821	-2302
437.894	-1387
437.966	-1366
438.039	-1780
438.112	-1901
438.184	-813
438.257	246
438.330	1894
438.402	-597
438.475	-1211
438.547	-796
438.620	-1776
438.692	-1135
438.765	-1324
438.837	-571
438.910	-1883
438.982	-1415
439.055	-1940
439.127	-1066
439.200	-1258
439.272	-2345
439.345	-805
439.417	-772
439.489	-1237
439.562	-1401
439.634	-752
439.707	-966
439.779	-1509
439.851	-1642
439.923	-659
439.996	-1946
440.068	-1391
440.140	-1206
440.213	-1915
440.285	-1318
440.357	-620
440.429	159
440.502	-454
440.574	-1415
440.646	-413
440.718	-1851
440.790	-2077
440.862	-447
440.935	-1283
441.007	-1214
441.079	-1058
441.151	-996
441.223	-1220
441.295	-947
441.367	-1316
441.439	-440
441.511	-995
441.583	-1275
441.655	-1697
441.727	-1759
441.799	-1219
441.871	-1773
441.943	-1162
442.015	-1548
442.087	-1000
442.159	-1161
442.231	-1614
442.303	-1645
442.374	-92
442.446	-574
442.518	-290
442.590	-955
442.662	-1277
442.734	-2657
442.805	-1370
442.877	-1537
442.949	-520
443.021	-1252
443.092	-862
443.164	-1873
443.236	-1385
443.308	-1398
443.379	-388
443.451	1398
443.523	-451
443.594	-1273
443.666	-1393
443.737	-1517
443.809	-1466
443.881	-1135
443.952	-929
444.024	-1328
444.095	-777
444.167	-1469
444.238	-865
444.310	-1395
444.381	-1511
444.453	-1636
444.524	-1555
444.596	-1502
444.667	-2077
444.739	-1509
444.810	-779
444.882	-732
444.953	-1105
445.024	-1857
445.096	-1011
445.167	-1665
445.238	-1327
445.310	-916
445.381	675
445.452	1576
445.524	294
445.595	-794
445.666	-1862
445.737	102
445.809	-1969
445.880	-946
445.951	-1718
446.022	-1487
446.094	-884
446.165	-981
446.236	-1207
446.307	-1496
446.378	-1599
446.449	-1345
446.520	-1430
446.591	-1718
446.663	-1407
446.734	-1252
446.805	-254
446.876	-1553
446.947	-1428
447.018	-893
447.089	-1672
447.160	-991
447.231	-1662
447.302	-990
447.373	-1847
447.444	-1810
447.514	-1318
447.585	-1680
447.656	-1398
447.727	-1519
447.798	-1186
447.869	-1422
447.940	-1402
448.010	-1328
448.081	-906
448.152	-1305
448.223	-1722
448.294	-1596
448.364	-1596
448.435	-1188
448.506	-1402
448.577	-1283
448.647	-1623
448.718	-1279
448.789	-1559
448.859	-1552
448.930	-964
449.001	-1446
449.071	-1136
449.142	-1407
449.213	-1106
449.283	-2111
449.354	-372
449.424	-1634
449.495	-535
449.565	-948
449.636	-1210
449.706	-483
449.777	-1720
449.847	-1916
449.918	-1869
449.988	-1240
450.059	-1336
450.129	-987
450.200	-1441
450.270	-803
450.340	-1036
450.411	-1221
450.481	-1095
450.551	-1241
450.622	-1554
450.692	-1317
450.762	-1606
450.833	-803
450.903	-1805
450.973	-1680
451.043	-1276
451.114	-1322
451.184	-1406
451.254	-526
451.324	-2002
451.395	-1620
451.465	-1544
451.535	-1626
451.605	-1372
451.675	-1878
451.745	-51
451.815	-1207
451.885	-1589
451.956	-1376
452.026	-1276
452.096	-1177
452.166	-1045
452.236	-1018
452.306	-1193
452.376	-1451
452.446	-1336
452.516	-858
452.586	-1427
452.656	-1163
452.725	-586
452.795	-930
452.865	-1232
452.935	-1708
453.005	-1212
453.075	-1820
453.145	-1402
453.215	-1240
453.284	-1166
453.354	-1105
453.424	151
453.494	-415
453.564	51
453.633	-780
453.703	-1477
453.773	-1218
453.843	-1548
453.895	-1310
453.912	-1254
453.976	-1794
453.982	-1874
454.052	-1262
454.057	-1259
454.121	-1554
454.139	-1474
454.191	-1277
454.220	-1174
454.261	-1229
454.301	-1289
454.330	-1472
454.382	-1323
454.400	-1273
454.463	-478
454.469	-420
454.539	-1057
454.544	-951
454.608	49
454.625	156
454.678	284
454.707	543
454.748	167
454.788	720
454.817	764
454.869	-359
454.887	-567
454.950	11
454.956	107
455.026	1172
455.031	1361
455.095	5012
455.112	6472
455.165	13562
455.193	18216
455.234	15596
455.274	13668
455.303	9489
455.355	3620
455.373	3499
455.436	1091
455.442	860
455.512	35
455.517	26
455.581	15
455.598	-31
455.650	-36
455.679	-157
455.720	-432
455.760	-342
455.789	-296
455.841	-308
455.858	-349
455.922	-3
455.928	26
455.997	-608
456.003	-545
456.066	119
456.084	397
456.136	1400
456.165	1567
456.205	1120
456.245	1133
456.274	775
456.326	162
456.343	200
456.407	-329
456.412	-408
456.482	292
456.488	282
456.551	-144
456.569	-108
456.620	341
456.650	85
456.689	-508
456.730	-424
456.758	-228
456.811	530
456.827	816
456.892	1274
456.897	1351
456.966	3276
456.973	3520
457.035	4748
457.054	5042
457.104	2522
457.134	1199
457.173	964
457.215	778
457.242	1018
457.296	833
457.311	699
457.377	1231
457.380	1235
457.449	1119
457.457	1142
457.518	1473
457.538	1688
457.587	3536
457.619	4439
457.656	6095
457.699	8259
457.725	7050
457.780	4925
457.794	5050
457.861	5557
457.863	5679
457.932	10418
457.941	11166
458.001	12146
458.022	12418
458.070	7398
458.103	3945
458.138	3482
458.183	2808
458.207	3210
458.264	4610
458.276	5499
458.344	10587
458.345	10631
458.414	19296
458.425	20912
458.483	13577
458.506	10558
458.551	6702
458.586	3508
458.620	2743
458.667	2018
458.689	2128
458.747	2031
458.758	1951
458.826	2828
458.828	2822
458.895	2600
458.908	2589
458.964	2749
458.989	2939
459.033	3241
459.069	3357
459.101	3182
459.150	3173
459.170	3062
459.230	2284
459.239	2246
459.307	2671
459.311	2668
459.376	3126
459.391	3255
459.444	3087
459.471	3077
459.513	3101
459.552	2633
459.582	2596
459.632	3401
459.650	3489
459.713	3388
459.719	3419
459.787	3037
459.793	3062
459.856	2919
459.873	2844
459.924	3132
459.954	3407
459.993	4463
460.034	5395
460.061	5997
460.114	7234
460.130	6804
460.195	4564
460.198	4502
460.267	3297
460.275	3199
460.335	4753
460.355	5270
460.404	8362
460.436	10243
460.472	18135
460.516	27356
460.540	28638
460.596	32237
460.609	27984
460.676	4232
460.677	4237
460.745	3783
460.757	3625
460.814	3185
460.837	3099
460.882	4417
460.917	5538
460.950	5502
460.997	5366
461.019	5077
461.077	4146
461.087	4171
461.155	4455
461.158	4440
461.224	4660
461.238	4687
461.292	4095
461.318	3911
461.360	4864
461.398	5585
461.428	7607
461.478	10997
461.496	12890
461.558	19089
461.565	18220
461.633	8298
461.638	7439
461.701	6086
461.719	5694
461.769	5481
461.799	5359
461.837	5226
461.879	4986
461.905	4928
461.959	4712
461.973	5124
462.039	6703
462.042	6883
462.110	11585
462.119	12015
462.178	9969
462.199	9406
462.246	7085
462.279	5323
462.314	6008
462.359	6699
462.382	6365
462.439	5465
462.450	5434
462.518	5338
462.519	5307
462.586	5530
462.599	5599
462.654	5935
462.679	6014
462.722	7684
462.759	9166
462.790	7963
462.839	5653
462.858	5593
462.919	5796
462.926	5773
462.993	4695
462.999	4623
463.061	6271
463.078	6618
463.129	6581
463.158	6522
463.197	7246
463.238	7893
463.265	7112
463.318	5789
463.333	6012
463.398	6166
463.401	6199
463.468	6650
463.478	6686
463.536	8275
463.558	8768
463.604	11261
463.637	12926
463.672	13672
463.717	14461
463.739	16519
463.797	21817
463.807	20464
463.875	10693
463.877	10374
463.943	7212
463.957	6472
464.010	6272
464.036	6148
464.078	6246
464.116	6271
464.146	6910
464.196	7886
464.213	7732
464.275	7067
464.281	7302
464.349	9703
464.355	9902
464.416	8508
464.435	7912
464.484	9050
464.515	9820
464.551	10762
464.594	11679
464.619	11301
464.674	10383
464.686	10246
464.754	9004
464.754	9063
464.821	10431
464.833	10651
464.889	9332
464.913	8604
464.956	9158
464.992	9614
465.024	9379
465.072	8822
465.091	8770
465.152	8539
465.159	8929
465.226	11910
465.231	12058
465.294	14334
465.311	14915
465.361	14859
465.390	14639
465.429	19854
465.470	25264
465.496	21742
465.549	14101
465.563	13444
465.629	10026
465.631	10086
465.698	10080
465.708	10015
465.765	10031
465.788	9960
465.833	9886
465.867	9713
465.900	10421
465.947	11388
465.967	11381
466.026	11006
466.035	11198
466.102	12235
466.106	12225
466.169	12723
466.185	12748
466.236	12399
466.265	12125
466.304	12853
466.344	13434
466.371	14410
466.423	16118
466.438	17710
466.503	24313
466.505	24981
466.572	41029
466.582	43188
466.639	30954
466.662	25910
466.707	21381
466.741	17693
466.774	17452
466.820	16858
466.841	16890
466.900	16573
466.908	16685
466.975	16817
466.979	16727
467.042	17449
467.058	17512
467.109	17200
467.138	16872
467.176	16760
467.217	16439
467.243	16263
467.296	15641
467.310	15710
467.375	15531
467.377	15568
467.455	13195
467.534	13296
467.613	14748
467.692	19071
467.772	17118
467.851	15440
467.930	20651
468.009	41696
468.088	22285
468.167	13865
468.246	15724
468.326	15153
468.405	13247
468.484	13599
468.563	17129
468.642	18769
468.721	13070
468.800	13616
468.879	14708
468.958	20809
469.037	12248
469.116	12175
469.195	9867
469.274	12665
469.353	12070
469.432	11627
469.511	10958
469.590	14385
469.669	15912
469.748	17803
469.827	12141
469.905	11485
469.984	12702
470.063	14469
470.142	17722
470.221	16480
470.300	14586
470.378	12619
470.457	12351
470.536	17034
470.615	16153
470.694	12110
470.772	16516
470.851	23632
470.930	10274
471.008	10328
471.087	9953
471.166	9451
471.245	10389
471.323	10158
471.402	10199
471.480	10882
471.559	10790
471.638	9860
471.716	10299
471.795	10957
471.873	9027
471.952	10615
472.031	12807
472.109	12872
472.188	9633
472.266	8749
472.345	8148
472.423	9942
472.502	10836
472.580	13094
472.659	12418
472.737	11985
472.815	9473
472.894	11680
472.972	11705
473.051	9480
473.129	10398
473.207	11356
473.286	11518
473.364	13506
473.443	16705
473.521	23052
473.599	12077
473.677	10647
473.756	14932
473.834	13506
473.912	10172
473.991	12399
474.069	16728
474.147	15852
474.225	8465
474.303	10431
474.382	12382
474.460	10080
474.538	10653
474.616	12173
474.694	11594
474.772	11002
474.851	9808
474.929	11130
475.007	12378
475.085	13123
475.163	13767
475.241	20001
475.319	11595
475.397	11409
475.475	10534
475.553	15140
475.631	26865
475.709	26426
475.787	26556
475.865	10507
475.943	10614
476.021	14768
476.099	15684
476.177	10172
476.255	9868
476.333	11558
476.410	14024
476.488	15836
476.566	9541
476.644	10983
476.722	9694
476.800	10600
476.877	9217
476.955	10202
477.033	11846
477.111	11851
477.189	8837
477.266	8414
477.344	7730
477.422	9443
477.499	8512
477.577	8949
477.655	10916
477.732	9627
477.810	10019
477.888	9401
477.965	9280
478.043	10321
478.121	14064
478.198	20667
478.276	9999
478.353	8700
478.431	8424
478.508	12542
478.586	9506
478.664	10573
478.741	12570
478.819	13321
478.896	7595
478.974	9857
479.051	11701
479.128	11085
479.206	7442
479.283	9158
479.361	8179
479.438	9530
479.516	9104
479.593	9566
479.670	9157
479.748	10291
479.825	13837
479.902	9890
479.980	8882
480.057	8861
480.134	9405
480.211	10608
480.289	11438
480.366	18896
480.443	10936
480.520	8264
480.598	9312
480.675	10074
480.752	9468
480.829	10759
480.906	9111
480.984	10372
481.061	10214
481.138	8235
481.215	7042
481.292	10546
481.369	9629
481.446	10624
481.523	7757
481.600	8720
481.677	8887
481.754	9337
481.831	15391
481.908	15601
481.985	9735
482.062	11622
482.139	17230
482.216	22591
482.293	9286
482.370	9499
482.447	8636
482.524	8778
482.601	9819
482.678	8563
482.755	8387
482.832	8045
482.908	7940
482.985	9659
483.062	10414
483.139	9417
483.216	9279
483.293	9786
483.369	8971
483.446	11217
483.523	7961
483.600	9459
483.676	11070
483.753	11448
483.830	16525
483.906	33253
483.983	21030
484.060	21974
484.136	21653
484.213	17781
484.290	14904
484.366	13712
484.443	13971
484.519	16177
484.596	14935
484.673	16849
484.749	14627
484.826	13474
484.902	14690
484.979	15403
485.055	14164
485.132	13777
485.208	14403
485.285	16351
485.361	21123
485.437	34366
485.514	17962
485.590	15698
485.667	16210
485.743	21852
485.819	38130
485.896	16480
485.972	13810
486.049	13772
486.125	12884
486.201	15586
486.277	15793
486.354	15683
486.430	16752
486.506	18960
486.583	19023
486.659	27375
486.735	21086
486.811	30262
486.887	44998
486.964	80440
487.040	65960
487.116	30034
487.192	14629
487.268	15756
487.344	16994
487.420	20187
487.497	23070
487.573	43517
487.649	103142
487.725	58365
487.801	20540
487.877	16935
487.953	18199
488.029	17848
488.105	15294
488.181	17520
488.257	22308
488.333	42872
488.409	24424
488.485	15068
488.561	14735
488.637	15003
488.712	21010
488.788	24955
488.864	53153
488.940	122369
489.016	113150
489.092	19869
489.168	12812
489.243	13322
489.319	11173
489.395	11588
489.471	11881
489.547	11600
489.622	11892
489.698	13751
489.774	25637
489.849	40590
489.925	14212
490.001	11765
490.076	13510
490.152	24079
490.228	17667
490.303	12112
490.379	9552
490.455	9905
490.530	9886
490.606	11598
490.681	10677
490.757	12703
490.833	15855
490.908	15727
490.984	13720
491.059	12859
491.135	17963
491.210	29494
491.286	13290
491.361	13863
491.436	12007
491.512	15343
491.587	19975
491.663	34607
491.738	85622
491.814	81954
491.889	191708
491.964	55289
492.040	19089
492.115	11563
492.190	11722
492.266	15151
492.341	12258
492.416	10654
492.491	9251
492.567	12009
492.642	16961
492.717	14349
492.792	12834
492.868	13207
492.943	13201
493.018	17217
493.093	27181
493.168	84550
493.243	254058
493.318	62137
493.394	13759
493.469	10494
493.544	11449
493.619	15328
493.694	24487
493.769	19292
493.844	11941
493.919	9309
493.994	9337
494.069	9991
494.144	8076
494.219	8126
494.294	9481
494.369	10243
494.444	11065
494.519	12195
494.594	8218
494.669	9800
494.744	10506
494.818	9652
494.893	9625
494.968	10385
495.043	9397
495.118	11175
495.193	12008
495.267	15240
495.342	17859
495.417	24280
495.492	58773
495.566	237965
495.641	203097
495.716	20759
495.791	10541
495.865	11908
495.940	10604
496.015	12094
496.089	11947
496.164	10799
496.239	10337
496.313	13284
496.388	14221
496.462	20085
496.537	13307
496.612	14486
496.686	15179
496.761	14069
496.835	13623
496.910	15286
496.984	12742
497.059	14159
497.133	18801
497.208	18527
497.282	17411
497.357	22849
497.431	19016
497.505	21692
497.580	24487
497.654	32664
497.729	35757
497.803	38080
497.877	48207
497.952	124672
498.026	293122
498.100	72773
498.175	50055
498.249	44682
498.323	36446
498.397	38455
498.472	26867
498.546	23670
498.620	23689
498.694	27355
498.768	35617
498.843	47074
498.917	168286
498.991	140053
499.065	16919
499.139	14176
499.213	17340
499.287	16967
499.362	15605
499.436	14822
499.510	16875
499.584	20238
499.658	25298
499.732	72571
499.806	168011
499.880	27141
499.954	24859
500.028	30823
500.102	19091
500.176	14265
500.250	14978
500.324	20141
500.397	40715
500.471	68542
500.545	122491
500.619	61219
500.693	13437
500.767	12081
500.841	14431
500.914	11547
500.988	16791
501.062	29213
501.136	28778
501.210	64254
501.283	127258
501.357	31563
501.431	29295
501.505	24126
501.578	9164
501.652	15285
501.726	15838
501.799	29179
501.873	38855
501.947	12985
502.020	18558
502.094	39659
502.167	36230
502.241	15457
502.315	35089
502.388	28349
502.462	14906
502.535	13181
502.609	11176
502.682	11693
502.756	7051
502.829	7542
502.903	8763
502.976	7772
503.050	7745
503.123	7953
503.196	7779
503.270	9913
503.343	18226
503.417	59970
503.490	65720
503.563	19240
503.637	25867
503.710	37831
503.783	28467
503.857	50816
503.930	36282
504.003	57310
504.076	29553
504.150	13599
504.223	12417
504.296	9414
504.369	8348
504.443	6661
504.516	7586
504.589	7166
504.662	8655
504.735	10081
504.808	21395
504.881	15141
504.954	8765
505.028	16760
505.101	9483
505.174	9443
505.247	7227
505.320	8890
505.393	11207
505.466	16390
505.539	12321
505.612	8436
505.685	6471
505.758	9422
505.831	5587
505.904	8644
505.977	6503
506.049	8333
506.122	8006
506.195	11045
506.268	35568
506.341	49548
506.414	11787
506.487	7643
506.559	7122
506.632	9312
506.705	13910
506.778	11823
506.851	8411
506.923	5520
506.996	10342
507.069	9850
507.141	6595
507.214	7646
507.287	13345
507.360	11136
507.432	7199
507.505	7864
507.577	6037
507.650	7693
507.723	12506
507.795	17123
507.868	9097
507.940	7843
508.013	7906
508.086	5196
508.158	11482
508.231	8260
508.303	6089
508.376	6436
508.448	6669
508.520	8641
508.593	9935
508.665	6652
508.738	7505
508.810	5579
508.883	7425
508.955	8354
509.027	5745
509.100	5894
509.172	4521
509.244	5621
509.317	4898
509.389	6449
509.461	8040
509.534	10078
509.606	7335
509.678	10928
509.750	11235
509.822	7175
509.895	6765
509.967	6595
510.039	8605
510.111	9089
510.183	8903
510.255	7428
510.328	8234
510.400	10711
510.472	7759
510.544	9966
510.616	13952
510.688	8252
510.760	7275
510.832	10915
510.904	12080
510.976	7965
511.048	6523
511.120	8069
511.192	9728
511.264	6457
511.336	5327
511.408	7387
511.480	6225
511.552	6013
511.624	6704
511.695	6845
511.767	6626
511.839	8718
511.911	11635
511.983	7393
512.055	7761
512.126	8055
512.198	12207
512.270	12004
512.342	12321
512.414	10442
512.485	8502
512.557	8969
512.629	9064
512.700	7514
512.772	8241
512.844	6969
512.915	6734
512.987	9522
513.059	8952
513.130	12393
513.202	21281
513.273	12327
513.345	7611
513.416	8271
513.488	8754
513.560	12874
513.631	10801
513.703	15179
513.774	43002
513.845	24008
513.917	7744
513.988	8244
514.060	10028
514.131	14117
514.203	9152
514.274	6361
514.345	12900
514.417	13222
514.488	7262
514.560	10438
514.631	13405
514.702	10904
514.773	14487
514.845	11096
514.916	10148
514.987	10717
515.059	14519
515.130	11484
515.201	17354
515.272	13940
515.343	9700
515.414	9674
515.486	8267
515.557	7971
515.628	6332
515.699	7794
515.770	8502
515.841	7978
515.912	9169
515.983	10277
516.055	15427
516.126	16841
516.197	11929
516.268	11665
516.339	15673
516.410	20780
516.481	36558
516.552	130579
516.622	179489
516.693	22033
516.764	22773
516.835	19494
516.906	25816
516.977	49145
517.048	102147
517.119	333844
517.190	106580
517.260	33788
517.331	9617
517.402	9631
517.473	9113
517.544	8446
517.614	10821
517.685	9761
517.756	11946
517.827	14879
517.897	17896
517.968	25890
518.039	35273
518.109	79023
518.180	341483
518.250	369100
518.321	31428
518.392	12782
518.462	14979
518.533	14399
518.603	18749
518.674	32639
518.745	53003
518.815	23132
518.886	15135
518.956	24592
519.027	36821
519.097	54868
519.168	47834
519.238	12627
519.309	15846
519.379	19257
519.449	11029
519.520	6649
519.590	7106
519.660	7158
519.731	8261
519.801	7312
519.871	6923
519.942	7416
520.012	7257
520.082	12606
520.153	6991
520.223	5469
520.293	7828
520.363	5084
520.434	10424
520.504	7656
520.574	6205
520.644	10006
520.714	14428
520.784	11535
520.855	33302
520.925	37208
520.995	7394
521.065	6820
521.135	5055
521.205	6184
521.275	6570
521.345	9441
521.415	11567
521.485	12876
521.555	8443
521.625	9432
521.695	6751
521.765	7311
521.835	6798
521.905	5752
521.975	5779
522.045	5529
522.115	7211
522.185	9019
522.254	13600
522.324	19553
522.394	12588
522.464	18775
522.534	63481
522.603	58203
522.673	8483
522.743	6961
522.813	10080
522.883	10421
522.952	8995
523.022	10785
523.092	25834
523.161	68780
523.231	14257
523.301	6315
523.370	6504
523.440	4748
523.509	5160
523.579	5202
523.649	4059
523.718	5535
523.788	4887
523.857	4825
523.927	4537
523.996	4784
524.066	5600
524.135	9006
524.205	3808
524.274	3447
524.344	4527
524.413	4843
524.483	3958
524.552	5158
524.621	3791
524.691	5612
524.760	3982
524.830	4728
524.899	7506
524.968	5366
525.038	5209
525.107	5345
525.176	5381
525.245	4274
525.315	5239
525.384	4945
525.453	6076
525.522	6474
525.591	5165
525.661	6118
525.730	7306
525.799	9668
525.868	14353
525.937	20686
526.006	55375
526.076	79246
526.145	31770
526.214	33543
526.283	60524
526.352	60100
526.421	129272
526.490	53313
526.559	33047
526.628	24956
526.697	39195
526.766	130090
526.835	265882
526.904	228445
526.973	27290
527.042	9432
527.110	8190
527.179	11093
527.248	5536
527.317	7074
527.386	4361
527.455	4475
527.523	3839
527.592	4980
527.661	2990
527.730	5731
527.799	4804
527.867	3401
527.936	6081
528.005	11888
528.074	11201
528.142	8473
528.211	19118
528.280	9096
528.348	5770
528.417	3157
528.485	4546
528.554	4689
528.623	3591
528.691	3656
528.760	3080
528.828	3901
528.897	2122
528.965	3700
529.034	2963
529.102	2258
529.171	3573
529.239	3673
529.308	3144
529.376	2838
529.445	5806
529.513	3457
529.581	4674
529.650	6047
529.718	4466
529.786	3890
529.855	3209
529.923	3556
529.992	5138
530.060	8242
530.128	7520
530.196	4043
530.265	3183
530.333	3183
530.401	3244
530.469	1773
530.537	3794
530.606	5425
530.674	3589
530.742	3105
530.810	3598
530.878	3822
530.946	4719
531.014	3880
531.083	3784
531.151	3422
531.219	3415
531.287	3829
531.355	1990
531.423	3953
531.491	5266
531.559	3734
531.627	2836
531.695	4654
531.763	3647
531.831	3638
531.898	3753
531.966	4571
532.034	6167
532.102	6292
532.170	8466
532.238	23276
532.306	33133
532.374	9278
532.441	9022
532.509	11549
532.577	26534
532.645	106982
532.712	66731
532.780	9268
532.848	5060
532.916	4589
532.983	3089
533.051	4113
533.119	4827
533.186	4467
533.254	3793
533.322	3389
533.389	3541
533.457	4113
533.524	4579
533.592	4652
533.659	4575
533.727	3616
533.794	8097
533.862	14607
533.930	13070
533.997	11713
534.064	4490
534.132	4543
534.199	5060
534.267	4205
534.334	4686
534.402	4067
534.469	3327
534.536	5000
534.604	5974
534.671	8373
534.738	17172
534.806	49547
534.873	13880
534.940	5417
535.008	4294
535.075	4008
535.142	4382
535.209	4942
535.276	3801
535.344	3337
535.411	2680
535.478	3541
535.545	3089
535.612	4928
535.679	4155
535.747	3558
535.814	3731
535.881	3144
535.948	3900
536.015	4141
536.082	3849
536.149	4453
536.216	6324
536.283	8702
536.350	11319
536.417	5996
536.484	9045
536.551	12019
536.618	12399
536.685	8373
536.752	9535
536.818	17416
536.885	19352
536.952	31959
537.019	70696
537.086	10075
537.153	3250
537.219	4952
537.286	3835
537.353	3402
537.420	2414
537.487	4953
537.553	5245
537.620	5004
537.687	3185
537.753	3504
537.820	5010
537.887	5271
537.953	4233
538.020	4635
538.087	7651
538.153	16665
538.220	18106
538.286	4640
538.353	3997
538.419	3929
538.486	3154
538.553	3734
538.619	2863
538.685	4463
538.752	4806
538.818	5439
538.885	4172
538.951	4683
539.018	4807
539.084	4819
539.150	7022
539.217	9268
539.283	3434
539.350	5663
539.416	7153
539.482	9330
539.549	29022
539.615	24097
539.681	4871
539.747	4532
539.814	3796
539.880	6676
539.946	5624
540.012	5780
540.078	5434
540.145	7252
540.211	15186
540.277	24119
540.343	15371
540.409	32372
540.475	29070
540.541	4080
540.607	3819
540.673	4140
540.740	5805
540.806	5886
540.872	8515
540.937	11993
541.004	7087
541.069	4261
541.135	5187
541.201	6387
541.267	8261
541.333	14960
541.399	14420
541.465	6637
541.531	2840
541.597	4091
541.663	3566
541.728	3082
541.794	2611
541.860	4137
541.926	3929
541.992	4568
542.057	4803
542.123	8447
542.189	12437
542.255	21988
542.320	11823
542.386	4747
542.452	4467
542.517	4317
542.583	4040
542.648	5857
542.714	8342
542.780	21398
542.845	41461
542.911	6991
542.976	3362
543.042	4706
543.107	3689
543.173	6003
543.238	8744
543.304	21958
543.369	10501
543.435	3856
543.500	2600
543.566	4255
543.631	1407
543.697	3338
543.762	2004
543.827	3037
543.893	1977
543.958	3577
544.023	2645
544.089	3841
544.154	3665
544.219	3285
544.284	6250
544.350	9060
544.415	7954
544.480	12202
544.545	36964
544.610	15170
544.676	4436
544.741	3448
544.806	2936
544.871	4175
544.936	3508
545.001	3845
545.066	4277
545.132	5195
545.197	4691
545.262	6129
545.327	11433
545.392	22250
545.457	20726
545.522	3681
545.587	4450
545.652	2755
545.717	4093
545.781	3548
545.846	3799
545.911	4025
545.976	4964
546.041	4721
546.106	5420
546.171	8573
546.236	6164
546.300	4524
546.365	2498
546.430	4304
546.495	5074
546.559	5708
546.624	3478
546.689	3977
546.754	3466
546.818	3906
546.883	3905
546.948	5153
547.012	4504
547.077	6328
547.142	6622
547.206	6903
547.271	7488
547.335	7093
547.400	6718
547.464	8673
547.529	9487
547.594	7750
547.658	6713
547.722	5689
547.787	5649
547.852	6663
547.916	7484
547.980	8695
548.045	7004
548.109	6314
548.174	6374
548.238	6199
548.302	4806
548.367	5066
548.431	5704
548.495	6508
548.560	6579
548.624	7642
548.688	8700
548.752	7144
548.817	5501
548.881	8076
548.945	5658
549.009	5121
549.073	5282
549.138	5689
549.202	8339
549.266	6163
549.330	6303
549.394	6353
549.458	6349
549.522	7661
549.586	9129
549.650	10246
549.715	7992
549.779	5113
549.843	7871
549.907	7369
549.971	9913
550.034	8907
550.098	7378
550.162	7934
550.226	8371
550.290	8457
550.354	7794
550.418	9109
550.482	8644
550.546	12360
550.609	8824
550.673	9296
550.737	9154
550.801	10067
550.865	9742
550.928	11847
550.992	12058
551.056	17034
551.120	24015
551.183	17023
551.247	13737
551.311	17566
551.374	11894
551.438	9095
551.502	8273
551.565	6934
551.629	7380
551.692	8318
551.756	7168
551.819	7567
551.883	5871
551.946	7947
552.010	6535
552.073	7387
552.137	6816
552.200	7454
552.264	6636
552.327	6622
552.391	7631
552.454	7459
552.517	7456
552.581	7080
552.644	9231
552.708	13214
552.771	11251
552.834	8059
552.897	7811
552.961	8569
553.024	8385
553.087	6714
553.151	7166
553.214	7604
553.277	10125
553.340	12712
553.403	27808
553.466	15999
553.530	7983
553.593	7362
553.656	7057
553.719	5897
553.782	7315
553.845	6402
553.908	5414
553.971	7064
554.034	5942
554.097	6529
554.160	8183
554.223	7505
554.286	5897
554.349	7693
554.412	5700
554.475	6016
554.538	6553
554.601	6890
554.664	5587
554.727	5157
554.789	4636
554.852	5683
554.915	4855
554.978	6167
555.041	5166
555.104	6361
555.166	6687
555.229	6364
555.292	5603
555.354	7446
555.417	5848
555.480	4936
555.542	4221
555.605	5144
555.668	4626
555.730	5363
555.793	5135
555.856	5288
555.918	4676
555.981	4623
556.043	4117
556.106	5783
556.168	6132
556.231	6215
556.293	5174
556.356	6076
556.418	7595
556.481	6261
556.543	5358
556.606	4497
556.668	5558
556.730	6220
556.793	8224
556.855	9848
556.918	5629
556.980	5409
557.042	5852
557.104	10963
557.167	14455
557.229	6279
557.291	3553
557.354	4545
557.416	4985
557.478	7920
557.540	4959
557.602	3103
557.664	4035
557.727	5479
557.789	4010
557.851	5128
557.913	6348
557.975	12485
558.037	26831
558.099	28339
558.161	5845
558.223	7291
558.285	8533
558.347	10848
558.409	13842
558.471	19631
558.533	35272
558.595	41080
558.657	60210
558.719	169379
558.781	149010
558.843	34476
558.905	33776
558.966	11707
559.028	10597
559.090	12399
559.152	18801
559.214	31398
559.275	78023
559.337	112724
559.399	19035
559.461	10462
559.522	12918
559.584	17269
559.646	31338
559.707	81980
559.769	41679
559.831	11131
559.892	12804
559.954	24885
560.015	35445
560.077	17328
560.139	32200
560.200	19775
560.262	4325
560.323	3844
560.385	3077
560.446	2290
560.508	2082
560.569	2626
560.631	3146
560.692	3372
560.753	2255
560.815	2980
560.876	2338
560.937	3433
560.999	4174
561.060	4531
561.122	2942
561.183	3694
561.244	5566
561.305	6781
561.367	10892
561.428	26785
561.489	13021
561.550	3113
561.612	2941
561.673	3711
561.734	2676
561.795	2928
561.856	1560
561.917	3594
561.978	2378
562.039	2573
562.101	3333
562.162	2951
562.223	3788
562.284	4899
562.345	6924
562.406	3520
562.467	2513
562.528	2095
562.589	1003
562.649	2538
562.710	2050
562.771	3054
562.832	2240
562.893	3058
562.954	2942
563.015	3489
563.076	2387
563.136	2066
563.197	1471
563.258	3855
563.319	3176
563.380	2998
563.440	4075
563.501	3318
563.562	2647
563.622	3077
563.683	2513
563.744	4275
563.804	2350
563.865	2364
563.926	2473
563.986	3086
564.047	3247
564.107	2736
564.168	3222
564.229	4341
564.289	5880
564.350	2906
564.410	3351
564.471	3329
564.531	2708
564.591	2849
564.652	2714
564.712	3790
564.773	3212
564.833	3719
564.893	3019
564.954	3697
565.014	2669
565.074	2147
565.135	3403
565.195	1854
565.255	3372
565.316	3573
565.376	2845
565.436	4802
565.496	2818
565.557	3141
565.617	3262
565.677	3243
565.737	7730
565.797	4444
565.857	3492
565.917	4551
565.978	4713
566.038	4415
566.098	6585
566.158	7406
566.218	3595
566.278	4930
566.338	3890
566.398	5027
566.458	5538
566.518	4444
566.578	4269
566.638	6227
566.698	5335
566.757	5723
566.817	5363
566.877	5493
566.937	5264
566.997	5668
567.057	5131
567.116	6539
567.176	5873
567.236	6868
567.296	7275
567.355	7356
567.415	7488
567.475	7118
567.535	6124
567.594	7202
567.654	6434
567.714	8607
567.773	8712
567.833	10023
567.892	11898
567.952	15062
568.012	19047
568.071	25493
568.131	36258
568.190	39709
568.250	34493
568.309	30864
568.369	28578
568.428	27170
568.488	28875
568.547	34484
568.607	41870
568.666	56844
568.725	71048
568.785	61160
568.844	48380
568.903	36781
568.963	30066
569.022	25322
569.081	19262
569.141	17236
569.200	13941
569.259	12901
569.318	10598
569.378	9804
569.437	8050
569.496	7979
569.555	7188
569.614	6793
569.673	6119
569.732	5908
569.792	5405
569.851	5655
569.910	5654
569.969	4724
570.028	5488
570.087	4197
570.146	5562
570.205	4794
570.264	3668
570.323	3871
570.382	4273
570.441	5027
570.500	4367
570.559	2904
570.618	3014
570.676	5112
570.735	4469
570.794	5254
570.853	4242
570.912	3378
570.971	2698
571.029	2749
571.088	2088
571.147	2649
571.206	4196
571.264	2672
571.323	2177
571.382	3610
571.440	2406
571.499	2141
571.558	2231
571.616	2180
571.675	3733
571.733	1710
571.792	946
571.851	2226
571.909	1487
571.968	1700
572.026	2569
572.085	1133
572.143	2042
572.202	2598
572.260	1138
572.319	1712
572.377	1156
572.435	3134
572.494	1323
572.552	3219
572.611	2232
572.669	2105
572.727	1440
572.786	1957
572.844	1465
572.902	1787
572.960	1148
573.019	2254
573.077	1700
573.135	2238
573.193	1725
573.251	1879
573.310	1407
573.368	1593
573.426	1312
573.484	3056
573.542	1419
573.600	1523
573.658	1838
573.716	1985
573.774	2539
573.832	2620
573.891	2044
573.948	1103
574.006	1393
574.064	1804
574.122	1288
574.180	1488
574.238	1761
574.296	2204
574.354	1395
574.412	1461
574.470	1005
574.528	1004
574.585	1101
574.643	1935
574.701	1121
574.759	1318
574.817	494
574.874	1180
574.932	606
574.990	1215
575.047	1686
575.105	1979
575.163	1743
575.221	2827
575.278	1167
575.336	1883
575.393	1197
575.451	1516
575.509	1801
575.566	2027
575.624	1327
575.681	2375
575.739	971
575.796	2242
575.854	962
575.911	1465
575.969	2389
576.026	2308
576.083	2029
576.141	3346
576.198	3316
576.256	1812
576.313	2234
576.370	1828
576.428	1548
576.485	2310
576.542	2094
576.599	1181
576.657	1670
576.714	2750
576.771	1874
576.828	725
576.886	1677
576.943	2693
577.000	714
577.057	1988
577.114	1723
577.171	3079
577.228	1973
577.286	2019
577.343	1354
577.400	1060
577.457	2002
577.514	1578
577.571	1522
577.628	1501
577.685	1862
577.742	2481
577.799	1808
577.855	2184
577.912	1558
577.969	3071
578.026	2397
578.083	3118
578.140	1635
578.197	2220
578.254	2525
578.310	1724
578.367	2192
578.424	2362
578.481	1327
578.537	2369
578.594	1897
578.651	1534
578.707	1541
578.764	1655
578.821	1714
578.877	1036
578.934	1482
578.991	1864
579.047	2057
579.104	1911
579.160	1123
579.217	1604
579.273	1847
579.330	2309
579.387	276
579.443	1248
579.499	1145
579.556	2038
579.612	1598
579.669	2408
579.725	2327
579.782	1096
579.838	1139
579.894	1638
579.951	1648
580.007	2843
580.063	3166
580.120	2672
580.176	2433
580.232	2057
580.288	2595
580.345	2410
580.401	1513
580.457	2304
580.513	1384
580.569	1501
580.619	1383
580.625	1371
580.682	2116
580.692	1944
580.738	1208
580.765	1170
580.794	1138
580.838	1014
580.850	981
580.906	2251
580.911	2178
580.962	1529
580.984	1727
581.018	2030
581.057	1495
581.074	1288
581.130	2061
581.130	2069
581.186	738
581.203	741
581.242	780
581.276	1328
581.298	1669
581.349	790
581.354	709
581.410	1341
581.422	1451
581.466	1832
581.494	1752
581.522	1716
581.567	2255
581.577	2367
581.633	1070
581.640	996
581.689	534
581.713	467
581.745	367
581.786	746
581.801	907
581.857	1880
581.859	1847
581.912	1076
581.932	996
581.968	929
582.004	1080
582.024	1119
582.077	827
582.080	819
582.135	1441
582.150	1333
582.191	1012
582.223	1232
582.247	1473
582.296	1166
582.302	1105
582.358	1472
582.368	1383
582.414	1249
582.441	1512
582.469	1646
582.514	1360
582.525	1352
582.581	1248
582.587	1304
582.636	1481
582.659	1478
582.692	1583
582.732	1227
582.747	1074
582.803	783
582.805	804
582.858	1715
582.877	2051
582.914	2463
582.950	1450
582.969	1011
583.023	1624
583.025	1655
583.080	2332
583.095	2167
583.135	1704
583.168	1363
583.191	1064
583.240	1105
583.246	1137
583.302	1123
583.313	1329
583.357	2024
583.385	1645
583.412	1395
583.458	1194
583.468	1095
583.523	712
583.531	599
583.578	256
583.603	769
583.634	1228
583.676	1418
583.689	1541
583.744	1358
583.748	1374
583.799	1274
583.820	1098
583.854	1124
583.893	1914
583.910	2161
583.965	1022
583.965	1018
584.020	999
584.038	1042
584.075	1078
584.110	1316
584.130	1493
584.183	895
584.185	856
584.240	1164
584.255	1179
584.296	1486
584.328	1628
584.351	1582
584.400	787
584.406	736
584.461	1706
584.472	1693
584.516	1349
584.545	1126
584.571	1083
584.617	1808
584.626	1911
584.681	1346
584.689	1312
584.736	1317
584.762	1253
584.791	1013
584.834	888
584.846	1000
584.900	2781
584.906	2767
584.955	2077
584.978	2050
585.010	2164
585.051	1777
585.065	1656
585.120	2969
585.123	2945
585.175	2529
585.195	3080
585.230	4029
585.267	4611
585.284	4923
585.339	4250
585.340	4246
585.394	4209
585.412	4837
585.449	6476
585.484	7857
585.503	8557
585.556	11524
585.558	11653
585.613	20738
585.628	21322
585.667	22728
585.700	13330
585.722	7459
585.772	4717
585.777	4364
585.831	3133
585.845	2836
585.886	2814
585.917	2582
585.941	2118
585.989	1588
585.995	1607
586.050	2310
586.061	2426
586.104	2325
586.133	2162
586.159	2332
586.205	2582
586.213	2528
586.268	2221
586.277	2161
586.322	2436
586.349	2637
586.377	2490
586.421	2186
586.431	2238
586.486	2567
586.493	2763
586.540	3885
586.565	3385
586.595	2951
586.637	3452
586.649	3427
586.703	2560
586.709	2524
586.758	2478
586.781	2399
586.812	2214
586.853	2603
586.866	2866
586.921	3062
586.925	3088
586.975	2820
586.996	2612
587.029	2632
587.068	2822
587.083	2756
587.138	2700
587.140	2702
587.192	3223
587.212	3420
587.246	3381
587.284	3379
587.300	3462
587.355	3292
587.356	3306
587.409	3714
587.427	3692
587.463	3962
587.499	4631
587.517	4674
587.571	4547
587.571	4542
587.625	4766
587.643	4991
587.679	5191
587.715	5592
587.733	5876
587.786	6421
587.787	6413
587.841	6596
587.858	6852
587.895	7661
587.930	8441
587.949	8823
588.001	9883
588.003	9912
588.057	11891
588.073	12455
588.111	13523
588.145	14989
588.165	15985
588.217	19418
588.219	19505
588.273	23229
588.288	24503
588.327	28163
588.360	32582
588.381	34973
588.431	43669
588.435	44083
588.489	55872
588.503	60335
588.542	71217
588.575	84483
588.596	93095
588.646	121512
588.650	123018
588.704	162414
588.718	177370
588.757	218521
588.789	266054
588.811	296828
588.861	363536
588.865	367843
588.919	349709
588.932	323876
588.972	240209
589.004	192213
589.026	149195
589.075	106387
589.080	102450
589.133	79100
589.147	76130
589.187	73617
589.218	78388
589.241	82133
589.290	98867
589.294	99712
589.348	127495
589.361	139269
589.401	170830
589.433	211642
589.455	240262
589.504	250184
589.508	249712
589.562	161910
589.576	148162
589.615	89132
589.647	70737
589.669	54571
589.718	29885
589.722	28716
589.776	19525
589.790	17699
589.829	13972
589.861	11841
589.883	10925
589.932	10016
589.936	9802
589.989	7284
590.004	6862
590.043	6677
590.075	6573
590.096	6027
590.146	5079
590.149	5025
590.203	5009
590.218	5047
590.256	4358
590.289	3540
590.309	3516
590.360	3854
590.362	3786
590.416	3319
590.431	3120
590.469	3267
590.503	3432
590.522	3190
590.574	2610
590.575	2581
590.629	2655
590.645	2570
590.682	2149
590.716	2163
590.735	2415
590.787	2736
590.788	2707
590.841	1931
590.859	1646
590.894	1929
590.930	2343
590.947	2106
591.000	1205
591.001	1216
591.053	1544
591.072	1616
591.106	1295
591.143	1150
591.159	1336
591.212	1828
591.214	1867
591.265	1682
591.285	1554
591.318	1487
591.356	1505
591.371	1376
591.424	875
591.427	870
591.477	1295
591.498	1464
591.530	953
591.569	397
591.583	576
591.636	1270
591.640	1344
591.689	720
591.711	503
591.741	1119
591.782	1892
591.794	1698
591.847	954
591.853	876
591.900	1125
591.924	1296
591.953	1029
591.995	629
592.005	687
592.058	1121
592.066	1197
592.111	578
592.137	256
592.164	495
592.208	976
592.216	915
592.269	573
592.279	533
592.322	815
592.350	1023
592.374	585
592.421	-195
592.427	-138
592.479	533
592.491	707
592.532	761
592.562	814
592.585	832
592.633	894
592.704	-602
592.775	580
592.846	300
592.916	687
592.987	6
593.058	1430
593.128	-126
593.199	770
593.270	296
593.341	584
593.411	-53
593.482	715
593.553	-41
593.623	1333
593.694	230
593.764	1196
593.835	271
593.906	1805
593.976	572
594.047	377
594.117	569
594.188	808
594.258	331
594.329	986
594.399	-143
594.470	398
594.540	425
594.611	1053
594.681	-320
594.751	477
594.822	651
594.892	787
594.963	150
595.033	958
595.103	-158
595.174	491
595.244	838
595.314	2046
595.384	-303
595.455	480
595.525	701
595.595	705
595.665	133
595.736	483
595.806	571
595.876	530
595.946	-700
596.016	282
596.087	72
596.157	1153
596.227	-247
596.297	393
596.367	79
596.437	1086
596.507	230
596.577	1226
596.647	60
596.717	1198
596.787	-19
596.857	571
596.927	433
596.997	1363
597.067	416
597.137	1235
597.207	-198
597.277	789
597.347	491
597.417	1376
597.487	498
597.557	1132
597.626	667
597.696	766
597.766	630
597.836	1574
597.906	-193
597.975	1016
598.045	-8
598.115	1054
598.185	-15
598.254	625
598.324	524
598.394	1104
598.464	640
598.533	783
598.603	-50
598.672	133
598.742	318
598.812	908
598.881	-309
598.951	1039
599.020	562
599.090	530
599.159	194
599.229	1337
599.299	-341
599.368	640
599.437	188
599.507	623
599.576	347
599.646	338
599.715	-46
599.785	652
599.854	235
599.924	630
599.993	-422
600.062	-108
600.132	143
600.201	770
600.270	816
600.340	839
600.409	139
600.478	814
600.547	435
600.617	1370
600.686	-420
600.755	-58
600.824	-90
600.894	567
600.963	-486
601.032	-573
601.101	-774
601.170	-435
601.239	-1138
601.308	848
601.378	-736
601.447	115
601.516	45
601.585	-78
601.654	192
601.723	387
601.792	-551
601.861	629
601.930	32
601.999	559
602.068	-91
602.137	282
602.206	-501
602.275	204
602.343	-343
602.412	872
602.481	-53
602.550	448
602.619	-174
602.688	498
602.756	-6
602.825	-411
602.894	948
602.963	168
603.032	184
603.100	-71
603.169	-318
603.238	531
603.307	440
603.375	814
603.444	354
603.513	857
603.581	-609
603.650	369
603.719	51
603.787	-486
603.856	-976
603.924	-328
603.993	-300
604.061	358
604.130	173
604.198	352
604.267	-267
604.335	588
604.404	-411
604.472	-187
604.541	-830
604.609	854
604.678	-217
604.746	104
604.815	-938
604.883	1293
604.951	168
605.020	-40
605.088	-276
605.156	922
605.225	389
605.293	388
605.361	-48
605.429	728
605.498	303
605.566	915
605.634	-240
605.702	273
605.771	-348
605.839	1040
605.907	390
605.975	437
606.043	157
606.111	1102
606.180	-225
606.248	205
606.316	81
606.384	33
606.452	123
606.520	509
606.588	-226
606.656	667
606.724	-236
606.792	605
606.860	-67
606.928	-300
606.996	240
607.064	530
607.132	-353
607.200	267
607.267	-424
607.335	581
607.403	-360
607.471	288
607.539	-306
607.607	999
607.674	99
607.742	751
607.810	-216
607.878	853
607.946	-147
608.013	-411
608.081	44
608.149	385
608.216	-356
608.284	888
608.352	-111
608.419	37
608.487	342
608.555	266
608.622	54
608.690	320
608.757	177
608.825	1599
608.893	-88
608.960	679
609.028	186
609.095	1166
609.163	-284
609.230	178
609.298	304
609.365	35
609.432	475
609.500	342
609.567	-302
609.635	1563
609.702	146
609.769	299
609.837	7
609.904	358
609.971	-233
610.039	662
610.106	-278
610.173	837
610.241	1990
610.308	2324
610.375	887
610.442	409
610.509	-474
610.577	907
610.644	-164
610.711	329
610.778	331
610.845	920
610.912	-476
610.980	335
611.047	-652
611.114	731
611.181	-47
611.248	270
611.315	663
611.382	577
611.449	-193
611.516	1444
611.583	493
611.650	199
611.717	383
611.784	747
611.851	-695
611.918	756
611.984	363
612.051	1473
612.118	2830
612.185	5870
612.252	4603
612.319	1353
612.386	210
612.452	313
612.519	-527
612.586	1308
612.653	447
612.719	1105
612.786	-163
612.853	669
612.919	-474
612.986	1164
613.053	-143
613.120	-395
613.186	-626
613.253	1395
613.319	-89
613.386	-34
613.453	-143
613.519	377
613.586	-393
613.652	290
613.719	-77
613.785	914
613.852	-127
613.918	747
613.985	147
614.051	247
614.118	643
614.184	559
614.250	-718
614.317	573
614.383	610
614.449	-670
614.516	-467
614.582	480
614.648	-579
614.715	967
614.781	-15
614.847	639
614.914	-921
614.980	-267
615.046	-428
615.112	828
615.179	-385
615.245	112
615.311	-334
615.377	347
615.443	10
615.509	345
615.575	-67
615.642	551
615.708	-96
615.774	759
615.840	-598
615.906	721
615.972	63
616.038	1555
616.104	3216
616.170	6951
616.236	6800
616.302	2055
616.368	-343
616.434	101
616.500	-526
616.565	216
616.631	-307
616.697	-67
616.763	-521
616.829	73
616.895	1091
616.961	1530
617.026	-487
617.092	178
617.158	-354
617.224	-275
617.289	-740
617.355	214
617.421	-1607
617.487	854
617.552	-674
617.618	681
617.684	-1582
617.749	1636
617.815	-879
617.880	270
617.946	-904
618.012	-130
618.077	-1117
618.143	134
618.208	-356
618.274	695
618.339	-463
618.405	-514
618.470	-137
618.536	-470
618.601	-483
618.667	163
618.732	-355
618.798	-487
618.863	-1003
618.928	-723
618.994	-713
619.059	237
619.124	-5
619.190	727
619.255	-699
619.320	-369
619.386	-891
619.451	-294
619.516	-212
619.581	-405
619.647	-1091
619.712	-235
619.777	-204
619.842	-247
619.907	-909
619.972	-292
620.038	-614
620.103	123
620.168	-760
620.233	-83
620.298	-501
620.363	79
620.428	-1383
620.493	-269
620.558	-839
620.623	-13
620.688	-633
620.753	-431
620.818	-659
620.883	-684
620.948	-580
621.013	-473
621.078	-86
621.143	-808
621.207	982
621.272	129
621.337	-159
621.402	471
621.467	-452
621.532	-953
621.596	-405
621.661	48
621.726	-1119
621.791	-52
621.855	-1003
621.920	-35
621.985	-273
622.049	-61
622.114	-485
622.179	73
622.243	-593
622.308	6
622.373	138
622.437	-395
622.502	-1247
622.566	-227
622.631	-1216
622.695	360
622.760	-862
622.824	92
622.889	-856
622.953	143
623.018	-31
623.082	309
623.147	-961
623.211	130
623.276	-328
623.340	315
623.404	-686
623.469	-261
623.533	219
623.597	221
623.662	-1547
623.726	-516
623.790	-726
623.854	33
623.919	-366
623.983	142
624.047	-410
624.111	-554
624.176	-1166
624.240	-531
624.304	271
624.368	-366
624.432	-724
624.496	222
624.560	-517
624.625	-614
624.689	-586
624.753	645
624.817	-687
624.881	-422
624.945	-1369
625.009	-476
625.073	-937
625.137	-458
625.201	-122
625.265	-147
625.329	-843
625.393	-165
625.456	144
625.520	-103
625.584	-951
625.648	298
625.712	-74
625.776	285
625.839	192
625.903	-568
625.967	-1442
626.031	1421
626.095	-27
626.158	77
626.222	-1090
626.286	-647
626.349	-747
626.413	-1080
626.477	292
626.540	82
626.604	-533
626.668	601
626.731	-520
626.795	-154
626.858	-382
626.922	-665
626.986	-1099
627.049	-867
627.113	-1110
627.176	9
627.240	-1037
627.303	-19
627.366	-1414
627.430	152
627.493	-578
627.557	-1138
627.620	-396
627.684	-317
627.747	-669
627.810	-593
627.874	-686
627.937	-1018
628.000	22
628.064	-150
628.127	-1787
628.190	-620
628.253	-632
628.317	-502
628.380	-920
628.443	-680
628.506	-1112
628.569	-99
628.632	-1141
628.696	-380
628.759	-1296
628.822	-632
628.885	-828
628.948	263
629.011	-749
629.074	-872
629.137	-1246
629.200	-676
629.263	-322
629.326	-910
629.389	-578
629.452	-1155
629.515	-788
629.578	-123
629.641	-1309
629.704	-360
629.767	-1305
629.830	-325
629.892	-1273
629.955	-832
630.018	-62
630.081	-1115
630.144	-842
630.207	-1668
630.269	-887
630.332	-1054
630.395	-1530
630.458	121
630.520	-1816
630.583	438
630.646	-733
630.708	-641
630.771	-1355
630.834	-630
630.896	-1009
630.959	-758
631.021	-1835
631.084	-917
631.146	-1251
631.209	-879
631.272	-1162
631.334	180
631.397	-1636
631.459	-1043
631.522	-1353
631.584	-731
631.646	-1407
631.709	-195
631.771	-1523
631.834	-1079
631.896	-945
631.958	-1073
632.021	-1085
632.083	-1116
632.145	-1070
632.208	-1420
632.270	-1171
632.332	-952
632.395	-2082
632.457	-41
632.519	-774
632.581	-241
632.643	-882
632.706	-460
632.768	-1486
632.830	-796
632.892	-1170
632.954	-978
633.016	-1459
633.078	-927
633.141	-1731
633.203	119
633.265	-1111
633.327	-947
633.389	-1491
633.451	-576
633.513	-1402
633.575	-652
633.637	-1088
633.698	-861
633.760	-1149
633.822	-685
633.884	-1549
633.946	-1080
634.008	-1426
634.070	411
634.132	-1076
634.193	-1187
634.255	-1267
634.317	-1319
634.379	-744
634.441	-1220
634.502	-1848
634.564	-525
634.626	-1799
634.687	-327
634.749	-627
634.811	-452
634.873	-1494
634.934	-244
634.996	-1525
635.057	-888
635.119	-1346
635.181	-530
635.242	-1559
635.304	-2608
635.365	-514
635.427	-453
635.488	-1423
635.550	-1248
635.611	-1393
635.673	-2538
635.734	-150
635.796	-922
635.857	-1906
635.918	-902
635.980	-1342
636.041	-650
636.102	-1771
636.164	-272
636.225	-1020
636.286	-1454
636.348	-1044
636.409	-965
636.470	-1975
636.531	-544
636.593	-2058
636.654	-191
636.715	-1689
636.776	-777
636.838	-1586
636.899	-183
636.960	-1281
637.021	-710
637.082	-2183
637.143	-720
637.204	-1963
637.265	-913
637.326	-873
637.387	-655
637.448	-1666
637.509	-767
637.570	-1481
637.631	48
637.692	-1531
637.753	-1818
637.814	-1794
637.875	-495
637.936	-760
637.997	-1533
638.058	-2016
638.119	172
638.179	-1968
638.240	-443
638.301	-1585
638.362	-797
638.423	-1253
638.483	156
638.544	-1990
638.605	-675
638.666	-2876
638.726	-689
638.787	-1586
638.848	-1283
638.908	-1035
638.969	-417
639.030	-1351
639.090	-1536
639.151	-2921
639.211	-903
639.272	-1245
639.332	-194
639.393	-1920
639.453	-1317
639.514	-1574
639.574	-550
639.635	-1870
639.695	-564
639.756	-1857
639.816	-686
639.877	-1502
639.937	41
639.997	-1639
640.058	-646
640.118	-1406
640.178	256
640.239	-741
640.299	-956
640.359	-1115
640.420	-998
640.480	-1109
640.540	-863
640.600	-1406
640.661	-1214
640.721	-2306
640.781	-687
640.841	-1655
640.901	-381
640.961	-1744
641.021	-923
641.082	-2870
641.142	-927
641.202	-583
641.262	-1213
641.322	-46
641.382	-1303
641.442	-1774
641.502	-584
641.562	-966
641.622	9
641.682	-824
641.742	-532
641.802	-1232
641.861	93
641.921	-1573
641.981	-564
642.041	-2006
642.101	-582
642.161	-1592
642.221	-82
642.280	-1084
642.340	-735
642.400	-1998
642.460	-284
642.519	-1781
642.579	-682
642.639	-1084
642.698	-2611
642.758	-114
642.818	-1021
642.877	-1880
642.937	-386
642.997	-819
643.056	-583
643.116	-1908
643.175	-546
643.235	-1634
643.294	-1253
643.354	-1556
643.414	-544
643.473	-1581
643.532	-495
643.592	-1493
643.651	-1658
643.711	-531
643.770	103
643.830	-23
643.889	3247
643.948	631
644.008	-809
644.067	-1559
644.126	-1118
644.186	-1792
644.245	-415
644.304	-2621
644.363	910
644.423	-2073
644.482	-954
644.541	-968
644.600	-1362
644.659	-661
644.719	-1597
644.778	-879
644.837	-1408
644.896	-544
644.955	-444
645.014	-1783
645.073	-1165
645.132	-1582
645.191	-767
645.250	-2161
645.309	31
645.368	-2169
645.427	-174
645.486	-2078
645.545	-433
645.604	-2036
645.663	-565
645.722	-1465
645.781	-340
645.840	-1451
645.898	-890
645.957	-746
646.016	-1176
646.075	-676
646.134	50
646.192	558
646.251	1306
646.310	-1602
646.369	-1256
646.427	-1721
646.486	-1181
646.545	-1169
646.603	220
646.662	-1663
646.721	-668
646.779	-1874
646.838	-1801
646.896	-1275
646.955	-558
647.014	-1225
647.072	-1109
647.131	-959
647.189	-464
647.248	-1667
647.306	-488
647.365	-1291
647.423	-1923
647.481	331
647.540	-2261
647.598	-1813
647.657	-1207
647.715	-1094
647.773	-1240
647.832	-568
647.890	-1958
647.948	-2425
648.007	-732
648.065	-2503
648.123	-1191
648.181	-328
648.240	-1381
648.298	-1855
648.356	-1631
648.414	-1414
648.472	-706
648.531	-2157
648.589	-734
648.647	-1940
648.705	-1001
648.763	-2014
648.821	-935
648.879	-1719
648.937	-559
648.995	-1570
649.053	-1354
649.111	-1414
649.169	-453
649.227	-1274
649.285	-1365
649.343	-462
649.401	11
649.459	-749
649.516	-459
649.574	-2975
649.632	-50
649.690	-900
649.748	-1420
649.806	-2613
649.863	-233
649.921	-1037
649.979	-1823
650.037	-1733
650.094	-1794
650.152	-1325
650.210	-1204
650.268	-1348
650.325	-858
650.383	-2120
650.440	-1486
650.498	-467
650.556	-1078
650.613	-1324
650.671	-672
650.728	-1833
650.786	-1206
650.843	-1697
650.901	-1768
650.958	-1036
651.016	-1084
651.073	-1774
651.131	-884
651.188	-2112
651.246	-1141
651.303	-2487
651.360	-344
651.418	-1381
651.475	-1642
651.532	-2487
651.590	-440
651.647	-2979
651.704	-1219
651.762	-1308
651.819	-1325
651.876	-2443
651.933	-994
651.990	-1552
652.048	-2453
652.105	-2348
652.162	-774
652.219	-1427
652.276	-572
652.333	-729
652.390	-2127
652.448	-1599
652.505	-1092
652.562	-1200
652.619	-1211
652.676	-1455
652.733	-506
652.790	-772
652.847	-2254
652.904	-1462
652.961	-1625
653.017	-2341
653.074	-327
653.131	-2025
653.188	-1413
653.245	-2100
653.302	-1195
653.359	-2157
653.415	-587
653.472	-2097
653.529	-1331
653.586	-2018
653.642	-1367
653.699	-1272
653.756	-1152
653.813	-1804
653.869	-809
653.926	-2402
653.983	-1433
654.039	-2292
654.096	-1082
654.152	-1303
654.209	-2500
654.266	-944
654.322	-2300
654.379	-1201
654.435	-907
654.492	-1500
654.548	-1267
654.605	-2509
654.661	-1058
654.717	-1189
654.774	-1481
654.830	-1322
654.887	-1173
654.943	-1584
655.000	-1237
655.056	-1288
655.112	-610
655.168	-1805
655.225	-1382
655.281	-1506
655.337	-1831
655.394	-2163
655.450	-1651
655.506	-1301
655.562	-1032
655.618	-788
655.675	-2216
655.731	-1523
655.787	-1253
655.843	-1331
655.899	-2117
655.955	-1495
656.011	-1253
656.067	-2815
656.123	-149
656.179	-1788
656.235	136
656.291	-2528
656.347	-869
656.403	-1763
656.459	-1347
656.515	-1343
656.571	-1795
656.627	-2236
656.683	-1182
656.739	-1171
656.795	-1452
656.850	-2436
656.906	-1020
656.962	-1058
657.018	-1784
657.074	-2248
657.129	-1675
657.185	-1117
657.241	-1377
657.297	-2571
657.352	-203
657.408	-2398
657.464	-434
657.519	-1608
657.575	-1206
657.630	-1708
657.686	-660
657.742	-2121
657.797	-1275
657.853	-1560
657.908	-46
657.964	-2323
658.019	-1411
658.075	-1189
658.130	-932
658.186	-2249
658.241	-569
658.297	-2363
658.352	-1730
658.407	-1232
658.463	-1484
658.518	-1947
658.573	-437
658.629	-1598
658.684	-776
658.739	-396
658.795	-1401
658.850	-1871
658.905	-1391
658.960	-516
659.016	-1480
659.071	-1107
659.126	-966
659.181	-1983
659.236	176
659.291	-1256
659.346	-1412
659.401	-1491
659.457	-673
659.512	-2270
659.567	-112
659.622	-1752
659.677	-842
659.732	-2222
659.787	-1276
659.842	-1377
659.897	-1352
659.952	-1190
660.007	-1736
660.061	-2076
660.116	-1186
660.171	-2078
660.226	-556
660.281	-733
660.336	-1645
660.391	-826
660.445	-1214
660.500	-1113
660.555	-952
660.610	-2438
660.664	-470
660.719	-1807
660.774	-494
660.828	-1840
660.883	-909
660.938	-2015
660.992	-1693
661.047	-1126
661.101	-959
661.156	-1917
661.211	-1412
661.265	-2021
661.320	-1115
661.374	-1731
661.429	-1565
661.483	-1384
661.538	-1618
661.592	-2435
661.647	-1410
661.701	-1609
661.755	-1763
661.810	-1007
661.864	-1606
661.919	-1738
661.973	-521
662.027	-1759
662.081	-2241
662.136	-1928
662.190	-1306
662.244	-1374
662.299	-2023
662.353	-979
662.407	-1459
662.461	-1999
662.515	-841
662.569	-2476
662.624	-451
662.678	-1616
662.732	-1416
662.786	-2095
662.840	-993
662.894	-1180
662.948	-857
663.002	-1934
663.056	-668
663.110	-2504
663.164	-1589
663.218	-1750
663.272	-888
663.326	-1646
663.380	-1964
663.434	-1322
663.488	-1490
663.542	-1566
663.595	-666
663.649	-2829
663.703	-925
663.757	-1926
663.811	-1843
663.864	-2028
663.918	-225
663.972	-3177
664.026	-1664
664.079	-1817
664.133	-729
664.187	-1480
664.240	-1245
664.294	-2460
664.348	-1574
664.401	-1263
664.455	-523
664.508	-2062
664.562	-1073
664.615	-1673
664.669	-1203
664.722	-2287
664.776	-1153
664.829	-2034
664.883	-1182
664.936	-2209
664.990	-1349
665.043	-1652
665.097	-1816
665.150	-1037
665.203	-2247
665.257	-2113
665.310	-1389
665.363	-2077
665.417	-743
665.470	-1936
665.523	-1253
665.576	-1555
665.630	-980
665.683	-1911
665.736	-1101
665.789	-1709
665.842	-1680
665.895	-1849
665.949	-803
666.002	-2106
666.055	-1736
666.108	-1431
666.161	-882
666.214	-2307
666.267	-1298
666.320	-2089
666.373	-1656
666.426	-2494
666.479	-1679
666.532	-1457
666.585	-1187
666.638	-2526
666.691	-2447
666.744	-2327
666.796	-1165
666.849	-2751
666.902	-925
666.955	-2280
667.008	-1200
667.060	-2405
667.113	-821
667.166	-1865
667.219	-684
667.271	-1359
667.324	-999
667.377	-2018
667.430	-948
667.482	-2424
667.535	-788
667.587	-1965
667.640	-1401
667.693	-1902
667.745	-1694
667.798	-1430
667.850	-1745
667.903	-1775
667.955	-1460
668.008	-1963
668.060	-881
668.113	-1794
668.165	-1402
668.218	-1495
668.270	-1698
668.322	-2504
668.375	-1348
668.427	-1645
668.479	-1607
668.532	-1919
668.584	-1198
668.636	-2622
668.689	-443
668.741	-2410
668.793	-1338
668.845	-2291
668.898	-776
668.950	-1792
669.002	-1252
669.054	-2396
669.106	-1745
669.158	-1691
669.211	-1267
669.263	-2343
669.315	-1004
669.367	-1397
669.419	-1827
669.471	-1597
669.523	-766
669.575	-1664
669.627	-1554
669.679	-2562
669.731	-1312
669.783	-1406
669.835	-1101
669.886	-2029
669.938	-1157
669.990	-1747
670.042	-2241
670.094	-1757
670.146	-882
670.197	-1647
670.249	-916
670.301	-2202
670.353	-684
670.404	-1169
670.456	-1032
670.508	-1315
670.560	-1011
670.611	-1620
670.663	-450
670.715	2
670.766	1096
670.818	-77
670.869	-331
670.921	-1433
670.972	-1214
671.024	-2190
671.075	-1892
671.127	-1851
671.178	-1741
671.230	-2177
671.281	-1120
671.333	-2469
671.384	-1272
671.436	-1885
671.487	-392
671.538	-2006
671.590	-953
671.641	-1664
671.692	-1911
671.744	-2159
671.795	-570
671.846	-1212
671.897	-1403
671.949	-2346
672.000	-1130
672.051	-1358
672.102	-872
672.153	-2368
672.204	-1412
672.256	-1272
672.307	-338
672.358	-1652
672.409	-692
672.460	-1651
672.511	-1400
672.562	-2036
672.613	-1492
672.664	-2495
672.715	-1709
672.766	-1785
672.817	-996
672.868	-1949
672.919	-937
672.970	-2396
673.021	-1347
673.071	-2275
673.122	-677
673.173	-1870
673.224	-1201
673.275	-1653
673.326	-1545
673.376	-1579
673.427	-1877
673.478	-2565
673.528	-765
673.579	-1978
673.630	-1819
673.680	-2389
673.731	-1118
673.782	-3266
673.832	-1228
673.883	-1748
673.934	-1702
673.984	-1633
674.035	-1363
674.085	-2335
674.136	-1501
674.186	-2143
674.237	-1062
674.287	-2208
674.338	-1653
674.388	-2023
674.438	-2090
674.489	-1331
674.539	-1025
674.589	-1919
674.640	-1209
674.690	-1532
674.740	-1797
674.791	-1851
674.841	-1747
674.891	-1428
674.942	-1612
674.992	-1751
675.042	-1065
675.092	-2324
675.142	-538
675.193	-1986
675.243	-1759
675.293	-2067
675.343	-2210
675.393	-1764
675.443	-1705
675.493	-1680
675.543	-1503
675.593	-2291
675.643	-977
675.693	-1334
675.743	-1261
675.793	-1786
675.843	-1307
675.893	-2295
675.943	-462
675.993	-2390
676.043	-1570
676.093	-1323
676.142	-1680
676.192	-2075
676.242	-1212
676.292	-1816
676.341	-862
676.391	-2580
676.441	-1413
676.491	-1974
676.540	-1085
676.590	-1951
676.640	-1434
676.689	-1949
676.739	-1822
676.789	-1468
676.838	-1489
676.888	-2232
676.937	-1880
676.987	-2249
677.037	-1555
677.086	-2718
677.136	-1198
677.185	-1926
677.235	-1777
677.284	-2094
677.333	-1428
677.383	-1501
677.432	-2218
677.482	-2319
677.531	-1436
677.580	-3033
677.630	-1674
677.679	-2393
677.728	-1691
677.778	-1679
677.827	-1438
677.876	-1863
677.925	-947
677.975	-2129
678.024	-1143
678.073	-2871
678.122	-816
678.171	-2239
678.220	-1846
678.269	-1648
678.319	-1860
678.368	-1857
678.417	-1669
678.466	-1723
678.515	-1387
678.564	-1864
678.613	-1372
678.662	-3222
678.711	-1776
678.760	-2860
678.809	-1263
678.857	-2304
678.906	-1748
678.955	-2177
679.004	-1771
679.053	-2664
679.102	-1721
679.151	-2151
679.199	-2148
679.248	-2383
679.297	-1956
679.346	-2737
679.394	-1786
679.443	-2036
679.492	-1950
679.540	-1836
679.589	-713
679.638	-2482
679.686	-1720
679.735	-1614
679.784	-1701
679.832	-2095
679.881	-1636
679.929	-2341
679.978	-1945
680.026	-2207
680.075	-1468
680.123	-2703
680.172	-2337
680.220	-2185
680.268	-1607
680.317	-1895
680.365	-2168
680.414	-2610
680.462	-1186
680.510	-1689
680.559	-1940
680.607	-1771
680.655	-2030
680.703	-2435
680.752	-1041
680.800	-2218
680.848	-1468
680.896	-2604
680.945	-637
680.993	-2333
681.041	-2107
681.089	-1996
681.137	-1594
681.185	-1905
681.233	-1663
681.281	-1764
681.308	-1112
681.329	-596
681.377	-2711
681.425	-1312
681.430	-1359
681.473	-1879
681.521	-1312
681.552	-1713
681.569	-1958
681.617	-1042
681.665	-1722
681.674	-1717
681.713	-1735
681.761	-1738
681.796	-1481
681.809	-1400
681.857	-1258
681.904	-1209
681.918	-1269
681.952	-1462
682.000	-1412
682.039	-1880
682.048	-1986
682.096	-1425
682.143	-1454
682.161	-1355
682.191	-1226
682.239	-2174
682.283	-1119
682.286	-1045
682.334	-1759
682.382	-1428
682.405	-1377
682.430	-1336
682.477	-1361
682.525	-1910
682.527	-1892
682.572	-1664
682.620	-1003
682.648	-1009
682.667	-1029
682.715	-1132
682.763	-1030
682.770	-1145
682.810	-1757
682.857	-1246
682.892	-1438
682.905	-1504
682.952	-604
683.000	-1494
683.014	-1436
683.047	-1378
683.095	-900
683.135	-882
683.142	-874
683.190	-479
683.237	-1207
683.257	-1219
683.284	-1284
683.332	-695
683.379	-1797
683.379	-1791
683.426	-932
683.473	-1398
683.501	-911
683.521	-572
683.568	-1725
683.615	-821
683.622	-879
683.662	-1197
683.709	-495
683.744	-1109
683.757	-1337
683.804	-336
683.851	-837
683.865	-717
683.898	-475
683.945	-1256
683.987	-951
683.992	-923
684.039	-1723
684.086	-724
684.109	-891
684.133	-1015
684.180	-874
684.227	-1040
684.230	-1012
684.274	-715
684.321	-204
684.352	-693
684.368	-959
684.415	-937
684.462	-762
684.473	-989
684.509	-1681
684.556	-463
684.595	-580
684.603	-594
684.649	-8
684.696	-580
684.716	-244
684.743	103
684.790	-1794
684.837	-732
684.838	-729
684.883	-399
684.930	-601
684.959	-891
684.977	-1106
685.023	-516
685.070	-753
685.081	-604
685.117	-30
685.164	-537
685.202	1
685.210	100
685.257	-360
685.303	676
685.324	147
685.350	-553
685.396	569
685.443	-392
685.445	-405
685.490	-654
685.536	-564
685.566	-53
685.583	255
685.629	-261
685.675	-119
685.688	-77
685.722	-92
685.768	-86
685.809	-581
685.815	-624
685.861	3
685.908	-94
685.930	43
685.954	170
686.000	-285
686.047	3
686.052	-54
686.093	-477
686.139	552
686.173	-127
686.185	-383
686.232	-375
686.278	-396
686.294	-195
686.324	205
686.370	19
686.416	252
686.416	261
686.463	-9
686.509	637
686.537	572
686.555	557
686.601	158
686.647	43
686.658	51
686.693	21
686.739	-805
686.779	180
686.785	348
686.831	-321
686.877	904
686.900	409
686.923	-153
686.969	384
687.015	-661
687.022	-529
687.061	512
687.107	-140
687.143	927
687.153	1174
687.199	134
687.245	320
687.264	-35
687.291	-406
687.336	62
687.382	-330
687.385	-316
687.428	53
687.474	148
687.506	50
687.520	-15
687.565	92
687.611	359
687.627	234
687.657	80
687.702	391
687.748	-388
687.748	-391
687.794	795
687.839	266
687.869	945
687.885	1183
687.931	-1
687.976	332
687.990	173
688.022	-30
688.067	-68
688.111	-205
688.113	-201
688.158	314
688.204	-149
688.233	80
688.249	288
688.295	-160
688.340	528
688.354	498
688.386	416
688.431	563
688.474	367
688.477	359
688.522	880
688.567	500
688.595	372
688.613	385
688.658	143
688.703	743
688.716	660
688.749	458
688.794	1030
688.837	240
688.839	223
688.884	611
688.930	27
688.958	765
688.975	1113
689.020	421
689.065	562
689.079	303
689.110	-31
689.155	702
689.200	632
689.201	642
689.246	1284
689.291	895
689.321	649
689.336	528
689.381	451
689.426	837
689.442	601
689.471	305
689.516	968
689.561	634
689.562	633
689.606	714
689.651	593
689.683	433
689.696	489
689.741	68
689.785	985
689.804	991
689.830	860
689.875	1058
689.920	347
689.925	384
689.965	844
690.010	565
690.046	451
690.054	457
690.099	467
690.144	937
690.166	662
690.189	386
690.233	771
690.278	622
690.287	733
690.323	1231
690.367	926
690.408	887
690.412	908
690.457	936
690.501	1289
690.528	1042
690.546	768
690.590	692
690.635	264
690.649	310
690.680	848
690.724	733
690.769	1622
690.770	1615
690.813	1273
690.857	735
690.890	343
690.902	352
690.946	719
690.991	567
691.011	723
691.035	971
691.080	1092
691.124	1795
691.132	1779
691.168	1643
691.213	1693
691.252	1731
691.257	1729
691.301	1399
691.346	1453
691.373	1369
691.390	1375
691.434	553
691.478	1164
691.493	1000
691.522	740
691.567	940
691.611	371
691.614	372
691.655	1004
691.699	1075
691.734	1523
691.743	1555
691.787	1010
691.831	1061
691.855	991
691.875	1131
691.919	1231
691.964	1379
691.975	1449
692.008	1503
692.052	1340
692.096	1502
692.096	1483
692.139	1120
692.183	1882
692.216	2070
692.227	2021
692.271	1438
692.315	666
692.337	819
692.359	1289
692.403	1030
692.447	1363
692.457	1364
692.490	1330
692.534	1611
692.577	1493
692.578	1511
692.622	1684
692.666	1667
692.698	1727
692.709	1714
692.753	1388
692.797	1490
692.818	1256
692.840	1155
692.884	1414
692.928	1500
692.938	1490
692.971	1571
693.015	1555
693.059	1960
693.059	1941
693.102	1634
693.146	1420
693.179	1068
693.189	1012
693.233	1490
693.276	1140
693.299	1276
693.320	1538
693.363	1412
693.407	1759
693.420	1705
693.450	1552
693.493	2008
693.537	1642
693.540	1650
693.580	2044
693.624	1992
693.660	1869
693.667	1896
693.710	2084
693.753	2350
693.780	2315
693.797	2423
693.840	3062
693.883	3396
693.901	3537
693.926	3632
693.970	3580
694.013	3883
694.021	3855
694.056	3274
694.099	2903
694.141	1847
694.142	1853
694.185	1985
694.229	1481
694.261	1564
694.272	1687
694.315	1504
694.358	1901
694.381	1821
694.401	1813
694.444	2327
694.487	2120
694.501	2167
694.530	2212
694.573	2157
694.616	2243
694.621	2211
694.659	1913
694.702	1603
694.741	1236
694.745	1260
694.787	1462
694.830	1384
694.862	1503
694.873	1522
694.916	1257
694.959	1444
694.982	1335
695.002	1404
695.044	1788
695.087	1872
695.102	1904
695.130	1775
695.172	1552
695.215	1421
695.222	1331
695.258	1247
695.301	1780
695.342	1651
695.343	1667
695.386	1735
695.428	1737
695.462	1934
695.471	1993
695.514	1735
695.556	1776
695.582	1612
695.599	1551
695.641	1576
695.684	1439
695.701	1493
695.726	1820
695.769	1897
695.811	2403
695.821	2414
695.854	2227
695.896	2288
695.938	2101
695.941	2073
695.981	2130
696.023	2004
696.061	2271
696.065	2298
696.108	1869
696.150	1746
696.181	1468
696.192	1504
696.235	1854
696.277	1861
696.301	2072
696.319	2174
696.361	1884
696.404	2090
696.421	1995
696.446	1926
696.488	2083
696.530	1942
696.541	1963
696.572	2249
696.614	2337
696.656	2544
696.660	2523
696.698	2327
696.740	2336
696.780	2084
696.783	2104
696.825	2285
696.867	2210
696.900	2279
696.909	2324
696.951	2174
696.992	2324
697.020	2261
697.034	2145
697.076	1924
697.118	1495
697.139	1325
697.160	1434
697.202	1599
697.244	1797
697.259	1792
697.286	1816
697.327	2038
697.369	2056
697.379	2071
697.411	2133
697.453	2093
697.494	2145
697.499	2120
697.536	2195
697.578	2304
697.618	2293
697.620	2317
697.661	2401
697.703	2294
697.738	2361
697.744	2400
697.786	2349
697.828	2414
697.858	2314
697.869	2320
697.911	2418
697.952	2410
697.977	2439
697.994	2429
698.035	2236
698.077	2128
698.097	1998
698.118	2010
698.160	2115
698.201	2167
698.216	2161
698.243	2182
698.284	2162
698.325	2215
698.336	2177
698.367	2175
698.408	2281
698.449	2288
698.455	2271
698.491	2286
698.532	2256
698.573	2273
698.575	2251
698.614	2256
698.656	2297
698.694	2255
698.697	2257
698.738	1927
698.779	1567
698.814	1256
698.820	1358
698.862	1904
698.903	2437
698.933	2815
698.944	2850
698.985	2898
699.026	2936
699.053	2946
699.067	2886
699.172	2274
699.292	2113
699.411	2764
699.530	2462
699.650	1782
699.769	2243
699.889	2836
700.008	1318
700.127	2538
700.246	2831
700.366	2842
700.485	1444
700.604	2436
700.723	2631
700.843	3028
700.962	2350
701.081	2683
701.200	1615
701.319	1973
701.438	1577
701.557	2313
701.676	1959
701.796	2319
701.915	1989
702.034	2670
702.153	520
702.272	2569
702.391	1547
702.509	2016
702.628	1480
702.747	1587
702.866	1773
702.985	1000
703.104	1830
703.223	2099
703.342	1759
703.460	1106
703.579	1596
703.698	2364
703.817	1759
703.935	2283
704.054	1182
704.173	1810
704.292	2346
704.410	2322
704.529	1664
704.648	1955
704.766	1249
704.885	2210
705.003	1479
705.122	2272
705.240	965
705.359	2018
705.477	2783
705.596	4076
705.714	2699
705.833	2458
705.951	2339
706.070	4298
706.188	2485
706.307	3281
706.425	2005
706.543	2705
706.662	2026
706.780	2631
706.898	2773
707.016	2818
707.135	2756
707.253	2867
707.371	2109
707.489	2740
707.608	1962
707.726	2771
707.844	2571
707.962	2607
708.080	2473
708.198	2439
708.316	2003
708.434	2957
708.552	2069
708.670	2197
708.788	3663
708.906	4188
709.024	2563
709.142	3282
709.260	2707
709.378	2890
709.496	2674
709.614	3380
709.732	3485
709.850	3318
709.968	3395
710.085	3078
710.203	2801
710.321	3096
710.439	3783
710.556	3357
710.674	2846
710.792	2916
710.910	2558
711.027	3406
711.145	2752
711.263	3150
711.380	2762
711.498	2743
711.615	1772
711.733	3263
711.851	2455
711.968	3263
712.086	2158
712.203	2145
712.321	2359
712.438	3482
712.555	4405
712.673	5131
712.790	3941
712.908	3631
713.025	2563
713.142	3676
713.260	3774
713.377	3727
713.494	3741
713.612	4108
713.729	3278
713.846	3670
713.963	3192
714.081	4499
714.198	3254
714.315	4289
714.432	3568
714.549	4051
714.666	4627
714.783	12684
714.901	28108
715.018	5130
715.135	3188
715.252	3498
715.369	2813
715.486	3398
715.603	2856
715.720	3113
715.837	2961
715.953	3854
716.070	3027
716.187	2866
716.304	2485
716.421	2625
716.538	3228
716.655	2619
716.771	3310
716.888	3159
717.005	3125
717.122	2873
717.238	2084
717.355	2592
717.472	2869
717.589	2753
717.705	1860
717.822	2330
717.938	1977
718.055	2646
718.172	2518
718.288	1228
718.405	1765
718.521	1936
718.638	2326
718.754	3181
718.871	2869
718.987	2264
719.104	2104
719.220	1708
719.336	2017
719.453	2547
719.569	2036
719.685	2355
719.802	2551
719.918	2693
720.034	3080
720.151	4253
720.267	11474
720.383	5233
720.499	1962
720.616	2428
720.732	2148
720.848	3015
720.964	5565
721.080	4648
721.196	1944
721.312	2182
721.428	1577
721.544	2564
721.660	2913
721.776	2617
721.892	1619
722.008	1663
722.124	1902
722.240	2170
722.356	1942
722.472	2303
722.588	1793
722.704	1368
722.820	1809
722.936	1199
723.051	2205
723.167	2146
723.283	1633
723.399	1959
723.515	1745
723.630	1458
723.746	637
723.862	2285
723.977	1321
724.093	1678
724.209	1971
724.324	2704
724.440	2529
724.555	3846
724.671	1693
724.786	1237
724.902	1089
725.017	1317
725.133	1897
725.248	3716
725.364	1778
725.479	1540
725.595	1077
725.710	2045
725.826	1300
725.941	1656
726.056	1371
726.172	1275
726.287	1110
726.402	2080
726.517	859
726.633	1367
726.748	944
726.863	961
726.978	1193
727.093	1523
727.208	1295
727.324	796
727.439	797
727.554	1292
727.669	358
727.784	555
727.899	435
728.014	951
728.129	1269
728.244	1481
728.359	-98
728.474	1177
728.589	754
728.704	771
728.819	394
728.934	635
729.049	862
729.163	1827
729.278	718
729.393	1564
729.508	828
729.622	553
729.737	356
729.852	999
729.967	486
730.081	1717
730.196	384
730.311	678
730.425	609
730.540	785
730.655	1140
730.769	924
730.884	1287
730.998	722
731.113	351
731.227	957
731.342	619
731.456	333
731.571	1143
731.685	735
731.800	497
731.914	2434
732.028	473
732.143	1535
732.257	354
732.371	1401
732.486	995
732.600	3573
732.714	4987
732.829	1018
732.943	978
733.057	1217
733.171	732
733.285	971
733.399	124
733.514	60
733.628	249
733.742	872
733.856	705
733.970	-144
734.084	14
734.198	960
734.312	102
734.426	973
734.540	1440
734.654	728
734.768	332
734.882	692
734.996	520
735.109	813
735.223	604
735.337	1253
735.451	323
735.565	1282
735.679	-52
735.792	1083
735.906	923
736.020	1078
736.134	900
736.247	428
736.361	1497
736.475	1899
736.588	1014
736.702	889
736.815	150
736.929	273
737.043	-176
737.156	814
737.270	241
737.383	566
737.497	476
737.610	481
737.723	244
737.837	509
737.950	276
738.064	562
738.177	-377
738.290	346
738.404	917
738.517	1674
738.630	-217
738.744	811
738.857	-169
738.970	605
739.083	228
739.197	878
739.310	-61
739.423	1117
739.536	155
739.649	198
739.762	248
739.875	584
739.988	1000
740.102	432
740.215	-372
740.328	-41
740.441	-279
740.553	722
740.667	704
740.779	224
740.892	155
741.005	891
741.118	-29
741.231	588
741.344	31
741.457	16
741.569	-331
741.682	763
741.795	74
741.908	321
742.020	-313
742.133	779
742.246	-485
742.358	-23
742.471	-2
742.584	394
742.696	-34
742.809	133
742.922	73
743.034	1068
743.147	561
743.259	85
743.372	695
743.484	569
743.597	-93
743.709	-81
743.822	390
743.934	1355
744.046	201
744.159	912
744.271	428
744.383	650
744.496	648
744.608	1029
744.720	334
744.832	240
744.945	-445
745.057	885
745.169	-185
745.281	575
745.393	697
745.506	-110
745.618	386
745.730	22
745.842	269
745.954	384
746.066	-308
746.178	128
746.290	-121
746.402	822
746.514	574
746.626	14
746.738	-603
746.850	671
746.962	582
747.074	83
747.185	-264
747.297	480
747.409	-480
747.521	195
747.633	-609
747.744	534
747.856	-540
747.968	309
748.080	-259
748.191	-139
748.303	293
748.414	90
748.526	-56
748.638	-137
748.749	-27
748.861	508
748.972	170
749.084	843
749.195	-5
749.307	-79
749.418	-298
749.530	418
749.641	-401
749.753	36
749.864	-231
749.975	899
750.087	467
750.198	436
750.310	-79
750.421	-442
750.532	-519
750.643	285
750.755	-160
750.866	545
750.977	201
751.088	96
751.199	251
751.310	-174
751.422	181
751.533	-368
751.644	-199
751.755	491
751.866	461
751.977	-317
752.088	-148
752.199	334
752.310	-1465
752.421	378
752.532	143
752.643	-341
752.753	-356
752.864	77
752.975	3
753.086	-112
753.197	-352
753.308	326
753.418	-180
753.529	2
753.640	-724
753.751	603
753.861	-51
753.972	-405
754.083	-379
754.193	-522
754.304	-377
754.415	-164
754.525	-317
754.636	349
754.746	-530
754.857	284
754.967	-355
755.078	-48
755.188	-404
755.299	-370
755.409	-208
755.520	484
755.630	41
755.740	1273
755.851	116
755.961	-586
756.071	-302
756.182	507
756.292	-69
756.402	-183
756.512	-448
756.623	-189
756.733	-426
756.843	-37
756.953	93
757.063	260
757.173	-64
757.283	335
757.393	-390
757.504	358
757.614	-470
757.724	-303
757.834	-728
757.944	468
758.053	257
758.164	283
758.273	-22
758.383	1215
758.493	-177
758.603	-135
758.713	117
758.823	439
758.932	145
759.042	114
759.152	-1147
759.262	-159
759.372	-74
759.481	130
759.591	-275
759.701	-486
759.810	16
759.920	42
760.029	-585
760.139	905
760.249	488
760.358	-62
760.468	-66
760.577	-9
760.687	488
760.796	398
760.906	-760
761.015	-49
761.124	448
761.234	308
761.343	522
761.453	-35
761.562	-346
761.671	288
761.781	24
761.890	-549
761.999	-268
762.108	594
762.218	354
762.327	-133
762.436	35
762.545	413
762.654	-716
762.763	655
762.872	83
762.982	-75
763.091	-524
763.200	-106
763.309	-437
763.418	17
763.527	142
763.635	336
763.744	133
763.853	797
763.962	-62
764.071	166
764.180	-575
764.289	751
764.398	-980
764.506	52
764.615	-749
764.724	119
764.833	-357
764.941	-451
765.050	-185
765.159	-34
765.268	146
765.376	611
765.485	415
765.593	1999
765.702	942
765.810	1477
765.919	2230
766.028	4083
766.136	6654
766.245	16143
766.353	38964
766.461	117829
766.570	190796
766.678	69027
766.787	17592
766.895	8551
767.003	5144
767.112	4413
767.220	2909
767.328	2702
767.437	1114
767.545	1103
767.653	761
767.761	1754
767.870	341
767.978	601
768.086	307
768.194	560
768.302	549
768.410	353
768.518	251
768.626	217
768.734	965
768.842	1187
768.950	533
769.058	1525
769.166	1299
769.274	1525
769.382	1419
769.490	3419
769.598	5610
769.706	13868
769.813	41941
769.921	135070
770.029	100851
770.137	16530
770.245	5468
770.352	3298
770.460	1709
770.568	1545
770.675	1160
770.783	910
770.891	1657
770.998	1006
771.106	14
771.213	1222
771.321	-616
771.428	1000
771.536	-332
771.643	438
771.751	540
771.858	198
771.966	469
772.073	141
772.181	432
772.288	1008
772.395	3
772.503	619
772.610	-704
772.717	809
772.825	421
772.932	187
773.039	-926
773.146	457
773.253	146
773.361	786
773.468	-300
773.575	-631
773.682	-536
773.789	758
773.896	-402
774.003	-346
774.110	-214
774.217	562
774.324	-327
774.431	331
774.538	-486
774.645	199
774.752	-240
774.859	43
774.966	-700
775.073	-136
775.179	276
775.286	-127
775.393	-123
775.500	-274
775.607	-229
775.713	598
775.820	-17
775.927	283
776.033	-408
776.140	94
776.247	-827
776.353	198
776.460	-54
776.566	-238
776.673	569
776.779	767
776.886	-1074
776.992	1052
777.099	-17
777.205	595
777.312	-393
777.418	428
777.524	509
777.631	651
777.737	-523
777.843	368
777.950	-8
778.056	97
778.162	-151
778.268	62
778.375	-14
778.481	357
778.587	412
778.693	372
778.799	-654
778.906	411
779.012	-563
779.118	437
779.224	-68
779.330	-533
779.436	-326
779.542	59
779.648	741
779.754	-363
779.860	92
779.966	1806
780.071	4105
780.177	1683
780.283	-323
780.389	-442
780.495	209
780.601	-508
780.706	-949
780.812	-354
780.918	-604
781.024	46
781.129	-929
781.235	-23
781.341	-617
781.446	-993
781.552	7
781.657	40
781.763	231
781.869	-33
781.974	-200
782.080	-201
782.185	-373
782.291	-171
782.396	-652
782.501	-589
782.607	-603
782.712	-269
782.818	-1012
782.923	-861
783.028	-129
783.134	231
783.239	-670
783.344	-73
783.449	69
783.555	-51
783.660	-501
783.765	-280
783.870	-190
783.975	253
784.080	26
784.185	238
784.291	-688
784.396	-556
784.501	-808
784.606	-343
784.711	203
784.816	-802
784.921	-700
785.026	-225
785.130	-1041
785.235	514
785.340	-570
785.445	359
785.550	-293
785.655	-602
785.760	-214
785.864	15
785.969	-468
786.074	-631
786.178	-655
786.283	400
786.388	146
786.492	-2
786.597	-515
786.702	-326
786.806	-1114
786.911	23
787.015	295
787.120	-590
787.224	-757
787.329	-128
787.433	-369
787.538	-350
787.642	-655
787.747	-776
787.851	-1261
787.955	-1160
788.060	103
788.164	-38
788.268	-1382
788.372	-573
788.477	-1464
788.581	-520
788.685	-1243
788.789	-979
788.894	-503
788.998	52
789.102	212
789.206	-20
789.310	-1671
789.414	46
789.518	-836
789.622	-397
789.726	-311
789.830	81
789.934	-611
790.038	-19
790.142	-1061
790.246	-391
790.350	-303
790.454	-153
790.557	-786
790.661	-106
790.765	-470
790.869	-534
790.973	-1000
791.076	171
791.180	-659
791.284	-353
791.388	-1135
791.491	-125
791.595	-659
791.698	-834
791.802	-856
791.906	222
792.009	-177
792.113	-651
792.216	-706
792.320	-118
792.423	-100
792.527	-338
792.630	-410
792.733	492
792.837	-975
792.940	495
793.043	-355
793.147	-1218
793.250	-984
793.353	369
793.457	-563
793.560	-93
793.663	-448
793.766	-118
793.869	-446
793.973	-21
794.076	-919
794.179	311
794.282	-639
794.385	-289
794.488	-576
794.591	-751
794.694	653
794.797	2266
794.900	700
795.003	-366
795.106	-309
795.209	469
795.312	-335
795.415	-63
795.517	-743
795.620	-20
795.723	-1405
795.826	-167
795.929	-1337
796.031	461
796.134	-313
796.237	-967
796.339	11
796.442	-465
796.545	-744
796.647	-174
796.750	-293
796.852	-632
796.955	-1088
797.057	-120
797.160	-1143
797.262	-37
797.365	-967
797.467	-761
797.570	-579
797.672	76
797.775	-518
797.877	489
797.979	244
798.082	-454
798.184	-1151
798.286	-46
798.388	-1530
798.491	-328
798.593	-934
798.695	-770
798.797	53
798.899	-563
799.001	-598
799.104	-580
799.206	-1192
799.308	137
799.410	-275
799.512	403
799.614	-1423
799.716	-266
799.818	-762
799.920	-1631
800.021	-463
800.123	-676
800.225	-1220
800.327	-678
800.429	-134
800.531	-854
800.633	-378
800.734	-785
800.836	-528
800.938	-1464
801.039	-411
801.141	353
801.243	-528
801.344	-491
801.446	-519
801.548	-445
801.649	-715
801.751	-93
801.852	-1372
801.954	-379
802.055	-1007
802.157	-686
802.258	-875
802.360	-1820
802.461	-119
802.563	-297
802.664	-326
802.765	870
802.867	-712
802.968	-1317
803.069	86
803.170	-620
803.272	-970
803.373	-933
803.474	-794
803.575	-196
803.676	-1994
803.777	-699
803.879	-1228
803.980	-174
804.081	-1505
804.182	-702
804.283	-828
804.384	116
804.485	-810
804.586	-89
804.687	-345
804.788	-338
804.888	-764
804.989	-729
805.090	-477
805.191	-673
805.292	-514
805.393	-722
805.493	-1197
805.594	-1163
805.695	-1496
805.796	-386
805.896	-523
805.997	-265
806.098	-1066
806.198	-394
806.299	-1054
806.399	-900
806.500	-816
806.601	-967
806.701	-800
806.802	-1471
806.902	-205
807.002	-894
807.103	-1019
807.203	100
807.304	-589
807.404	-661
807.504	-333
807.605	-597
807.705	-762
807.805	37
807.906	-1444
808.006	-805
808.106	154
808.206	-393
808.306	-284
808.406	191
808.507	-949
808.607	-1016
808.707	-546
808.807	-641
808.907	-1438
809.007	-611
809.107	-950
809.207	-706
809.307	-900
809.407	-921
809.507	-839
809.607	-1028
809.706	-659
809.806	-216
809.906	-281
810.006	-310
810.106	-627
810.205	-503
810.305	-2333
810.405	799
810.505	-833
810.604	-153
810.704	-1070
810.804	-992
810.903	-343
811.003	-1226
811.102	-132
811.202	-387
811.301	-535
811.401	-1494
811.500	-1459
811.600	-429
811.699	-1139
811.799	-1108
811.898	-764
811.997	-455
812.097	-871
812.196	-825
812.295	-1857
812.395	-882
812.494	-445
812.593	-376
812.692	-460
812.792	-740
812.891	-1223
812.990	-525
813.089	-16
813.188	-938
813.287	-1624
813.386	-480
813.485	-683
813.584	-1128
813.683	-1022
813.782	-214
813.881	-1443
813.980	-1455
814.079	-1275
814.178	-348
814.277	21
814.376	-597
814.475	-1062
814.574	-615
814.672	-1110
814.771	-587
814.870	-758
814.969	-1299
815.067	-1073
815.166	-1037
815.265	-772
815.363	-511
815.462	-1307
815.560	-266
815.659	-827
815.758	-1212
815.856	-794
815.955	-353
816.053	-895
816.152	-207
816.250	-873
816.348	-1107
816.447	-436
816.545	-578
816.644	-402
816.742	-252
816.840	-775
816.938	-931
817.037	-75
817.135	-499
817.233	-1204
817.331	-1063
817.430	-223
817.528	-526
817.626	-1070
817.724	-172
817.822	-164
817.920	613
818.018	1504
818.116	4420
818.214	10367
818.312	33343
818.410	39748
818.508	6576
818.606	1497
818.704	635
818.802	153
818.900	816
818.997	67
819.095	1311
819.193	2823
819.291	8950
819.389	23743
819.486	70512
819.584	56418
819.682	8702
819.779	1235
819.877	969
819.975	36
820.072	-291
820.170	-256
820.267	390
820.365	-544
820.462	115
820.560	-924
820.657	-173
820.755	-1442
820.852	-963
820.949	-1337
821.047	-35
821.144	-1280
821.241	-558
821.339	-1071
821.436	-885
821.533	-992
821.631	489
821.728	-1204
821.825	-265
821.922	-947
822.019	49
822.116	-1576
822.214	-346
822.311	-1011
822.408	-658
822.505	-1621
822.602	-923
822.699	-1762
822.796	215
822.893	-2031
822.990	151
823.086	-916
823.183	-675
823.280	-1019
823.377	-245
823.474	-992
823.571	-671
823.667	-1558
823.764	-602
823.861	-1503
823.958	5
824.054	50
824.151	-639
824.248	-1651
824.344	-419
824.441	-978
824.537	-292
824.634	-1103
824.731	-1532
824.827	-1112
824.924	-610
825.020	-460
825.116	-1283
825.213	-713
825.309	-1374
825.406	-1404
825.502	-563
825.598	-1235
825.695	-1326
825.791	-523
825.887	-758
825.983	-1300
826.080	-491
826.176	-1176
826.272	-536
826.368	-240
826.464	-1729
826.560	-529
826.656	-803
826.753	-1054
826.849	-804
826.945	-958
827.041	-729
827.137	-2288
827.233	-635
827.328	-1201
827.424	-536
827.520	-461
827.616	-1296
827.712	-2197
827.808	-402
827.904	-1476
827.999	273
828.095	-2186
828.191	-810
828.287	-970
828.382	-1196
828.478	-97
828.574	-1527
828.669	-1767
828.765	-179
828.860	-797
828.956	-989
829.051	-1375
829.147	-337
829.242	-1090
829.338	-893
829.433	-220
829.529	-1404
829.624	-684
829.720	-1381
829.815	-893
829.910	-1401
830.005	-992
830.101	82
830.196	-1308
830.291	-1110
830.386	-753
830.482	216
830.577	-1231
830.672	-1129
830.767	-1221
830.862	-784
830.957	-198
831.052	-956
831.147	-1530
831.242	-1554
831.337	-1059
831.432	-1110
831.527	-1213
831.622	-1038
831.717	-1865
831.812	-567
831.907	-1689
832.002	-349
832.097	-1583
832.191	-1395
832.286	-977
832.381	-682
832.476	-963
832.570	-384
832.665	-213
832.760	-100
832.854	-1607
832.949	-1359
833.044	-983
833.138	-899
833.233	-734
833.327	-976
833.422	-1627
833.516	-1380
833.611	-1767
833.705	-1185
833.799	-1283
833.894	-1254
833.988	-765
834.083	-876
834.177	-1014
834.271	-1412
834.365	-1236
834.460	-997
834.554	-2476
834.648	-685
834.742	-2329
834.836	-1439
834.931	-1467
835.025	-1048
835.119	-1383
835.213	-870
835.307	-1219
835.401	-1437
835.495	-1220
835.589	-664
835.683	-1839
835.777	-1528
835.871	-1415
835.965	-1273
836.059	-1152
836.152	-525
836.246	-1788
836.340	-1127
836.434	-662
836.528	-1899
836.621	-1020
836.715	-1353
836.809	-1036
836.902	-481
836.996	-1292
837.090	-1391
837.183	-1516
837.277	-1467
837.370	-1365
837.464	-1686
837.557	-1552
837.651	-1723
837.744	-1642
837.838	-830
837.931	-917
838.025	-784
838.118	-1094
838.211	-1128
838.305	-881
838.398	17
838.491	-1507
838.584	-643
838.678	-1077
838.771	-59
838.864	-1449
838.957	-1029
839.050	-1313
839.144	-469
839.237	-1133
839.330	-733
839.423	-1148
839.516	-1510
839.609	-533
839.702	-546
839.795	-1440
839.888	-950
839.981	-1408
840.073	-758
840.166	-1848
840.259	-407
840.352	-1323
840.445	-1287
840.538	-1873
840.630	-1028
840.723	-2566
840.816	-894
840.909	-1364
841.001	-1020
841.094	-654
841.186	-152
841.279	-1182
841.372	-248
841.464	-1329
841.557	-1367
841.649	-2298
841.742	-882
841.834	-1644
841.927	-993
842.019	-2430
842.111	-842
842.204	-1188
842.296	-429
842.388	-1095
842.481	-775
842.573	-1084
842.665	-273
842.758	-1049
842.850	-435
842.942	-1962
843.034	-826
843.126	-1414
843.218	-1178
843.310	-1604
843.402	1114
843.495	1591
843.587	1185
843.679	-342
843.771	-1205
843.862	-1765
843.954	-559
844.046	-2018
844.138	-1354
844.230	-1483
844.322	-1837
844.414	-1663
844.505	-339
844.597	-991
844.689	-1336
844.781	-814
844.872	-869
844.964	-1295
845.056	-1897
845.147	-1599
845.239	-548
845.331	-832
845.422	-978
845.514	-1481
845.605	-1153
845.697	-1192
845.788	-342
845.880	-1700
845.971	-1629
846.063	-1235
846.154	-477
846.245	-1740
846.337	-919
846.428	-1505
846.519	-706
846.610	-1114
846.702	-1007
846.793	-1321
846.884	-782
846.975	-1661
847.066	-1293
847.158	-1092
847.249	-1941
847.340	-999
847.431	-1717
847.522	-1139
847.613	-821
847.704	-1268
847.795	-919
847.886	-1319
847.977	-749
848.068	-1829
848.158	-1017
848.249	-2239
848.340	-1100
848.431	-2216
848.522	-546
848.612	-1855
848.703	-1642
848.794	-509
848.885	-596
848.975	-1758
849.066	-736
849.157	-1180
849.247	-1504
849.338	-1538
849.428	-583
849.519	-416
849.609	-536
849.700	791
849.790	4964
849.881	1584
849.971	-1711
850.061	-2280
850.152	-432
850.242	-1358
850.332	-1107
850.423	-1629
850.513	-1863
850.603	-2089
850.693	-958
850.784	-1665
850.874	-1359
850.964	-2080
851.054	-1231
851.144	-2672
851.234	-1212
851.324	-1266
851.414	-987
851.505	-1614
851.595	-1164
851.684	-1436
851.774	-282
851.864	-1598
851.954	-1202
852.044	-1588
852.134	-1034
852.224	-1409
852.314	-665
852.403	-1213
852.493	-1397
852.583	-1756
852.673	-1565
852.762	-1074
852.852	-1622
852.942	-1754
853.031	-1540
853.121	-1421
853.210	-1652
853.300	-1119
853.389	-1979
853.479	-1652
853.568	-1142
853.658	-1147
853.747	-190
853.837	68
853.926	3790
854.015	9688
854.105	17174
854.194	37863
854.283	17559
854.373	291
854.462	-1280
854.551	-1635
854.640	-374
854.729	-1465
854.819	-704
854.908	-1489
854.997	-166
855.086	-2189
855.175	-820
855.264	-1433
855.353	-1722
855.442	-836
855.531	-1205
855.620	-890
855.709	-1536
855.798	-792
855.887	-649
855.975	-2188
856.064	-1486
856.153	-1315
856.242	-1529
856.331	-1813
856.419	-1253
856.508	-1948
856.597	-1821
856.685	-2449
856.774	-1197
856.863	-1153
856.951	-771
857.040	-1967
857.128	-1541
857.217	-1859
857.305	-1935
857.394	-798
857.482	-1186
857.571	-1506
857.659	-928
857.747	-1085
857.836	-1227
857.924	-1692
858.012	-1866
858.101	-1660
858.189	-969
858.277	-2035
858.365	-1396
858.454	-1025
858.542	-1336
858.630	-2512
858.718	-729
858.806	-2132
858.894	-1290
858.982	-1966
859.070	-1480
859.158	-1506
859.246	-1292
859.334	-1717
859.422	-1345
859.510	-1459
859.598	-246
859.686	-2183
859.773	-1497
859.861	-1274
859.949	-855
860.037	-2307
860.125	-1123
860.212	-583
860.300	-922
860.388	-1690
860.475	-739
860.563	-2198
860.651	-1036
860.738	-2226
860.826	-1386
860.913	-2071
861.001	-1504
861.088	-1170
861.176	-1444
861.263	-963
861.350	-1011
861.438	-1487
861.525	-1051
861.612	-1232
861.700	-560
861.787	-1316
861.874	-1028
861.962	-1152
862.049	-1769
862.136	-1226
862.223	-955
862.310	-1459
862.397	-686
862.484	-1416
862.572	-1602
862.659	-1465
862.746	-666
862.833	-1213
862.920	-552
863.007	-1590
863.094	-1449
863.180	-1163
863.267	-1133
863.354	-1871
863.441	-372
863.528	-1873
863.615	-1429
863.701	-983
863.788	-1448
863.875	-1724
863.961	-1063
864.048	-1882
864.135	-1775
864.221	-1986
864.308	-1376
864.395	-2109
864.481	-1329
864.568	-1851
864.654	-2564
864.741	-665
864.827	-1243
864.914	-1154
865.000	-944
865.086	-1855
865.173	-933
865.259	-440
865.345	-811
865.432	-1054
865.518	-584
865.604	-757
865.690	-791
865.776	-401
865.863	2270
865.949	3818
866.035	6753
866.121	12803
866.207	23634
866.293	6188
866.379	-787
866.465	-1553
866.551	-995
866.637	-1026
866.723	-820
866.809	-1318
866.895	-367
866.981	-1418
867.066	-1089
867.152	-1474
867.238	-1438
867.324	-735
867.409	-1238
867.495	-998
867.581	-849
867.667	-1267
867.752	-651
867.838	-835
867.923	-522
868.009	-1773
868.094	-878
868.180	-995
868.266	-1678
868.351	-1501
868.436	-1555
868.522	-1159
868.607	-99
868.693	-1221
868.778	-513
868.863	-1546
868.949	-983
869.034	-1789
869.119	-1064
869.204	-1860
869.290	-2000
869.375	-1928
869.460	-752
869.545	-1999
869.630	-1243
869.715	-1280
869.800	-1505
869.885	-2008
869.970	-1763
870.055	-1795
870.140	-949
870.225	-1555
870.310	-1012
870.395	-1773
870.480	-460
870.565	-1454
870.650	-836
870.734	-1457
870.819	-1374
870.904	-2148
870.989	-1186
871.073	-1141
871.158	-1775
871.243	-1172
871.327	-970
871.412	-969
871.496	-1535
871.581	-1226
871.665	-666
871.750	-1059
871.834	-2101
871.919	-1610
872.003	-1425
872.088	-1542
872.172	-905
872.257	-1342
872.341	-987
872.425	-1788
872.509	-1189
872.594	-1177
872.678	-1286
872.762	-2744
872.846	-1151
872.930	-1215
873.015	-1047
873.099	-2006
873.183	-1461
873.267	-676
873.351	-1183
873.435	-1876
873.519	-1127
873.603	-1666
873.687	-1877
873.771	-1854
873.855	-1014
873.938	-1095
874.022	-1961
874.106	-2057
874.190	-1175
874.274	-1809
874.358	-1873
874.383	-1819
874.441	-1696
874.490	-1436
874.525	-1253
874.598	-1494
874.609	-1535
874.692	-867
874.705	-867
874.776	-894
874.813	-897
874.859	-916
874.920	-1087
874.943	-1145
875.027	-1484
875.028	-1489
875.110	-1978
875.135	-1875
875.194	-1647
875.243	-1752
875.277	-1855
875.350	-848
875.361	-696
875.444	-1256
875.457	-1323
875.527	-1753
875.565	-1609
875.611	-1387
875.672	-1538
875.694	-1607
875.778	-2084
875.780	-2057
875.861	-1050
875.887	-1302
875.944	-1886
875.994	-1281
876.027	-870
876.101	-1944
876.111	-2078
876.194	-712
876.209	-867
876.277	-1570
876.316	-1485
876.360	-1366
876.423	-1261
876.443	-1235
876.526	-884
876.530	-891
876.610	-1170
876.637	-1184
876.693	-1116
876.745	-1473
876.776	-1747
876.852	-1231
876.859	-1171
876.942	-1480
876.959	-1506
877.025	-1736
877.066	-1290
877.108	-787
877.173	-783
877.190	-787
877.273	-1218
877.280	-1166
877.356	-526
877.387	-505
877.439	-562
877.494	-907
877.522	-1035
877.601	-810
877.605	-806
877.688	-1117
877.708	-1082
877.770	-973
877.815	-436
877.853	11
877.922	-1131
877.936	-1352
878.018	-1381
878.029	-1376
878.101	-1377
878.136	-1117
878.184	-630
878.242	-1040
878.266	-1271
878.349	-1099
878.349	-1101
878.431	-1398
878.456	-1268
878.514	-692
878.563	-1036
878.596	-1362
878.670	-1348
878.679	-1364
878.761	-1068
878.776	-1033
878.844	-708
878.883	-825
878.926	-923
878.990	-1119
879.008	-1206
879.091	-965
879.097	-949
879.173	-895
879.203	-1112
879.255	-1333
879.310	-961
879.338	-734
879.417	-1025
879.420	-1041
879.502	-806
879.523	-697
879.584	-586
879.630	-1024
879.667	-1158
879.736	-1461
879.749	-1566
879.831	-408
879.843	-469
879.913	-681
879.949	-841
879.995	-1041
880.056	-1136
880.077	-1219
880.159	-938
880.162	-951
880.241	-1154
880.269	-1014
880.323	-558
880.375	-429
880.405	-520
880.482	-906
880.487	-915
880.569	-579
880.588	-564
880.651	-338
880.694	-339
880.733	-266
880.801	195
880.815	136
880.896	-1029
880.907	-1032
880.978	-683
881.013	-723
881.060	-696
881.120	-752
881.142	-775
881.224	-882
881.226	-883
881.305	-1168
881.332	-1270
881.387	-1017
881.438	-688
881.469	-588
881.545	-734
881.550	-764
881.632	-615
881.651	-834
881.713	-1208
881.757	-743
881.795	-400
881.863	-235
881.876	-218
881.958	-669
881.969	-663
882.039	-582
882.075	-359
882.121	-59
882.181	-274
882.202	-358
882.284	-766
882.287	-768
882.365	-551
882.393	-411
882.446	-198
882.499	-31
882.528	-41
882.605	-405
882.609	-419
882.690	-861
882.711	-963
882.771	-1017
882.817	-980
882.853	-932
882.923	-681
882.934	-641
883.015	-787
883.029	-686
883.096	-551
883.135	-897
883.177	-1164
883.241	-1177
883.258	-1035
883.339	-538
883.347	-482
883.420	-63
883.453	-2
883.501	-384
883.558	-911
883.583	-918
883.663	-265
883.664	-269
883.744	-576
883.770	-594
883.825	-586
883.876	-579
883.906	-514
883.981	-465
883.987	-465
884.068	-393
884.087	-388
884.149	-656
884.193	-805
884.230	-583
884.298	-350
884.310	-367
884.391	-312
884.404	-346
884.472	-478
884.510	-401
884.552	-319
884.615	-547
884.633	-634
884.714	-778
884.721	-790
884.794	-299
884.826	-182
884.875	-408
884.932	-641
884.956	-616
885.036	-321
885.037	-328
885.117	-772
885.143	-765
885.197	-586
885.248	-531
885.278	-525
885.354	-619
885.358	-606
885.439	-451
885.459	-344
885.519	-26
885.565	72
885.599	141
885.670	241
885.680	208
885.760	-293
885.775	-329
885.840	-225
885.881	-237
885.921	-327
885.986	-386
886.001	-313
886.081	-258
886.091	-216
886.161	213
886.196	371
886.241	140
886.302	-215
886.322	-205
886.402	-276
886.407	-274
886.482	-465
886.512	-580
886.562	-537
886.617	-491
886.642	-329
886.722	60
886.722	56
886.802	95
886.828	3
886.882	-269
886.933	-397
886.962	-318
887.038	-375
887.042	-370
887.122	-38
887.143	-60
887.202	198
887.248	549
887.281	219
887.353	-528
887.361	-494
887.441	-247
887.458	-219
887.521	-203
887.563	-114
887.601	-53
887.668	-46
887.680	-48
887.760	-186
887.773	-190
887.840	-183
887.878	-165
887.919	-76
887.983	-67
887.999	-31
888.079	231
888.088	240
888.158	315
888.193	393
888.238	347
888.297	169
888.317	62
888.397	-250
888.402	-280
888.476	-32
888.507	81
888.556	420
888.612	742
888.635	542
888.715	-78
888.717	-98
888.794	-86
888.821	-92
888.873	254
888.926	543
888.953	480
889.031	404
889.032	408
889.111	295
889.135	268
889.190	453
889.240	602
889.270	436
889.345	-1
889.349	12
889.428	200
889.449	246
889.507	-247
889.554	-653
889.586	-472
889.658	-50
889.665	-61
889.744	-186
889.763	-213
889.824	-124
889.867	-60
889.903	56
889.972	286
890.076	305
890.181	-331
890.285	248
890.390	-333
890.494	407
890.599	-634
890.703	-306
890.807	184
890.912	930
891.016	-325
891.120	-21
891.224	83
891.329	147
891.433	-58
891.537	726
891.641	205
891.745	-115
891.849	-679
891.953	593
892.058	453
892.162	686
892.266	117
892.370	159
892.474	152
892.578	-610
892.682	-194
892.786	134
892.889	-282
892.993	245
893.097	-429
893.201	-784
893.305	-403
893.409	1173
893.512	81
893.616	-86
893.720	-623
893.824	-517
893.927	182
894.031	741
894.135	-207
894.238	630
894.342	-30
894.445	377
894.549	44
894.652	22
894.756	34
894.859	247
894.963	19
895.066	-426
895.170	228
895.273	-361
895.377	-657
895.480	0
895.583	470
895.687	138
895.790	-655
895.893	-681
895.997	452
896.100	-100
896.203	-386
896.306	-540
896.409	-24
896.513	-118
896.616	19
896.719	-302
896.822	-202
896.925	-254
897.028	273
897.131	795
897.234	-913
897.337	478
897.440	-1037
897.543	282
897.646	-163
897.749	-122
897.852	179
897.954	553
898.057	29
898.160	-405
898.263	318
898.366	319
898.468	-181
898.571	272
898.674	-448
898.776	-440
898.879	-1027
898.982	-26
899.084	410
899.187	-257
899.290	267
899.392	-1319
899.495	137
899.597	29
899.700	44
899.802	269
899.904	-27
900.007	447
900.109	157
900.212	224
900.314	155
900.416	-94
900.519	-209
900.621	-106
900.723	50
900.826	-280
900.928	43
901.030	61
901.132	-363
901.234	-208
901.336	-546
901.439	146
901.541	-135
901.643	-47
901.745	270
901.847	180
901.949	-43
902.051	320
902.153	2
902.255	-529
902.357	304
902.459	-203
902.560	-286
902.662	505
902.764	-507
902.866	-643
902.968	494
903.070	-95
903.171	-593
903.273	271
903.375	-15
903.477	243
903.578	-523
903.680	-779
903.781	-241
903.883	137
903.985	-1090
904.086	95
904.188	-526
904.289	-468
904.391	374
904.492	78
904.594	-42
904.695	385
904.796	127
904.898	667
904.999	-310
905.100	-71
905.202	195
905.303	484
905.404	366
905.506	1
905.607	-170
905.708	-58
905.809	160
905.910	-484
906.012	-658
906.113	-918
906.214	-821
906.315	30
906.416	-515
906.517	-346
906.618	423
906.719	-1008
906.820	242
906.921	-139
907.022	1
907.123	-421
907.224	-733
907.325	-1134
907.425	26
907.526	-378
907.627	-541
907.728	-334
907.828	-608
907.929	20
908.030	-871
908.131	510
908.231	-80
908.332	-374
908.433	-901
908.533	218
908.634	-371
908.734	-445
908.835	-279
908.935	-169
909.036	88
909.136	-932
909.237	-499
909.337	-239
909.438	-568
909.538	-591
909.638	-281
909.739	445
909.839	49
909.939	-80
910.040	-320
910.140	567
910.240	-685
910.340	-358
910.440	-548
910.541	-117
910.641	-111
910.741	108
910.841	-125
910.941	-96
911.041	-675
911.141	-610
911.241	-619
911.341	-97
911.441	-318
911.541	-629
911.641	-522
911.741	-506
911.841	-242
911.941	-271
912.040	-854
912.140	-3
912.240	-361
912.340	-218
912.440	-1265
912.539	-1454
912.639	-641
912.739	54
912.838	-219
912.938	-94
913.038	-116
913.137	-223
913.237	-951
913.336	-1005
913.436	-993
913.535	-1124
913.635	-230
913.734	-694
913.834	-103
913.933	-280
914.033	183
914.132	151
914.231	-654
914.331	-195
914.430	-568
914.529	-468
914.629	-442
914.728	-1213
914.827	-633
914.926	91
915.025	-253
915.125	-555
915.224	-596
915.323	-720
915.422	-23
915.521	-621
915.620	-734
915.719	-237
915.818	-519
915.917	209
916.016	-129
916.115	-1172
916.214	-1307
916.313	-674
916.412	-1076
916.510	-1276
916.609	-327
916.708	-744
916.807	-1009
916.906	-373
917.004	-379
917.103	-999
917.202	-1124
917.301	-978
917.399	-507
917.498	-557
917.596	-1408
917.695	-355
917.794	-1028
917.892	-182
917.991	-464
918.089	387
918.188	-870
918.286	-135
918.384	-978
918.483	-751
918.581	-186
918.680	-417
918.778	-997
918.876	-712
918.975	-433
919.073	-794
919.171	-959
919.269	-850
919.368	-791
919.466	-637
919.564	-1072
919.662	-631
919.760	-930
919.858	-700
919.956	-1223
920.054	130
920.153	-1647
920.251	-175
920.349	-744
920.446	-1119
920.544	-645
920.642	-189
920.740	-537
920.838	-447
920.936	-538
921.034	-990
921.132	-788
921.229	-673
921.327	413
921.425	-1125
921.523	-189
921.620	106
921.718	-720
921.816	36
921.913	-889
922.011	-130
922.109	-390
922.206	-1094
922.304	-977
922.401	-146
922.499	-474
922.596	-484
922.694	-92
922.791	-797
922.888	-492
922.986	-626
923.083	-73
923.181	-129
923.278	-273
923.375	51
923.473	-449
923.570	-9
923.667	-220
923.764	-843
923.861	-123
923.959	-835
924.056	-415
924.153	0
924.250	-240
924.347	227
924.444	-309
924.541	-488
924.638	24
924.735	-457
924.832	-840
924.929	-785
925.026	-212
925.123	-214
925.220	-102
925.317	269
925.414	-411
925.510	-42
925.607	-690
925.704	184
925.801	-635
925.897	-12
925.994	-502
926.091	-265
926.187	504
926.284	-247
926.381	-417
926.477	118
926.574	327
926.670	198
926.767	627
926.863	-248
926.960	38
927.056	-181
927.153	-325
927.249	-170
927.346	-287
927.442	-333
927.538	-539
927.635	-846
927.731	-977
927.827	-335
927.924	-127
928.020	-344
928.116	-700
928.212	-676
928.308	-700
928.404	-13
928.501	-406
928.597	-722
928.693	-222
928.789	-63
928.885	-729
928.981	-1163
929.077	44
929.173	-236
929.269	-169
929.365	-200
929.461	-784
929.557	-200
929.652	-513
929.748	-739
929.844	-234
929.940	-612
930.036	-735
930.131	-761
930.227	-507
930.323	-997
930.419	-492
930.514	-37
930.610	-328
930.705	-606
930.801	-497
930.897	-381
930.992	-895
931.088	-843
931.183	-475
931.279	-181
931.374	-20
931.470	-624
931.565	-1252
931.660	-815
931.756	-837
931.851	-1051
931.946	-644
932.042	-47
932.137	-1192
932.232	-999
932.327	85
932.423	-622
932.518	-511
932.613	-500
932.708	-301
932.803	-556
932.898	-390
932.994	-303
933.089	-249
933.184	-202
933.279	-778
933.374	-1042
933.469	-367
933.563	-801
933.658	-585
933.753	-435
933.848	-661
933.943	-883
934.038	-1321
934.133	190
934.227	-403
934.322	7
934.417	-1950
934.512	-350
934.606	-230
934.701	-1391
934.796	-419
934.890	-633
934.985	-688
935.079	-208
935.174	-565
935.269	-250
935.363	-901
935.458	-1201
935.552	-1267
935.646	-937
935.741	-1417
935.835	-730
935.930	-1344
936.024	-840
936.118	-1060
936.213	-993
936.307	-1110
936.401	-200
936.496	-1520
936.590	-671
936.684	-509
936.778	-1353
936.872	-861
936.966	-989
937.060	-685
937.155	-907
937.249	-522
937.343	-1348
937.437	-685
937.531	-584
937.625	-685
937.719	-112
937.813	-732
937.906	-1327
938.000	-797
938.094	-971
938.188	-590
938.282	-261
938.376	-892
938.469	-718
938.563	-625
938.657	71
938.751	-919
938.844	-171
938.938	-8
939.032	-626
939.125	-1254
939.219	-478
939.312	-191
939.406	595
939.500	-298
939.593	-202
939.686	-1305
939.780	-883
939.873	-802
939.967	-110
940.060	-1345
940.154	-603
940.247	-529
940.340	-1248
940.434	-1155
940.527	-26
940.620	-1538
940.713	-1367
940.806	-1167
940.900	-540
940.993	-971
941.086	-783
941.179	-751
941.272	-924
941.365	-251
941.458	601
941.551	800
941.644	-513
941.737	-1378
941.830	-515
941.923	-1358
942.016	-515
942.109	-924
942.202	-691
942.295	-1331
942.388	-123
942.480	-1366
942.573	-1097
942.666	-1638
942.759	-894
942.851	-813
942.944	-566
943.037	-500
943.129	-702
943.222	-1307
943.315	-761
943.407	-980
943.500	-822
943.592	-1802
943.685	-1290
943.777	-1471
943.870	-375
943.962	-881
944.055	-1611
944.147	-1653
944.239	-1009
944.332	-904
944.424	-655
944.516	-1203
944.609	-1742
944.701	-1245
944.793	-1506
944.885	-1406
944.977	-718
945.070	-1680
945.162	-889
945.254	-779
945.346	-513
945.438	-414
945.530	-599
945.622	-827
945.714	-1282
945.806	-1509
945.898	-49
945.990	-749
946.082	-538
946.174	-1154
946.266	-738
946.358	-661
946.449	-868
946.541	-864
946.633	-678
946.725	-420
946.816	-605
946.908	-912
947.000	-1039
947.091	-1308
947.183	61
947.275	-989
947.366	-669
947.458	-1095
947.549	-320
947.641	-1196
947.732	-706
947.824	-1580
947.915	-1486
948.007	-1345
948.098	-1211
948.190	-1029
948.281	-839
948.372	-935
948.464	-1370
948.555	-1740
948.646	-1551
948.737	-1234
948.829	-1319
948.920	-1516
949.011	-1067
949.102	-643
949.193	-1181
949.284	-1370
949.376	-1545
949.467	-1410
949.558	-1755
949.649	-401
949.740	-1127
949.831	-1218
949.922	-484
950.013	-1025
950.104	-865
950.194	-999
950.285	-1344
950.376	-1530
950.467	-775
950.558	-1493
950.649	-562
950.739	-1470
950.830	-1229
950.921	-1619
951.011	-1147
951.102	-1184
951.193	-1327
951.283	-1971
951.374	-814
951.464	-1213
951.555	-1469
951.646	-1542
951.736	-1281
951.826	-1051
951.917	-1339
952.007	-1120
952.098	-1979
952.188	-1717
952.279	-719
952.369	-1079
952.459	-1986
952.549	-719
952.640	-1584
952.730	-1561
952.820	-1588
952.910	-1387
953.001	-1929
953.091	-1985
953.181	-1152
953.271	-2052
953.361	-1066
953.451	-938
953.541	-1460
953.631	-1326
953.721	-1428
953.811	-1092
953.901	-1033
953.991	-1053
954.081	-1222
954.171	-1668
954.261	-969
954.350	-930
954.440	-1585
954.530	-1886
954.620	-1821
954.710	-1689
954.799	-1699
954.889	-2235
954.979	-1038
955.068	-2045
955.158	-1907
955.248	-1471
955.337	-1975
955.427	-1786
955.516	-1072
955.606	-1184
955.695	-1310
955.785	-1228
955.874	-105
955.964	-1573
956.053	-1238
956.142	-1813
956.232	-2190
956.321	-1076
956.410	-1187
956.500	-1275
956.589	-1405
956.678	-1380
956.767	-443
956.856	-1736
956.946	-909
957.035	-1618
957.124	-744
957.213	-1809
957.302	-1738
957.391	-1503
957.480	-953
957.569	-1769
957.658	-962
957.747	-1904
957.836	-1327
957.925	-1717
958.014	-1576
958.103	-1750
958.192	-1887
958.280	-1220
958.369	-1366
958.458	-1373
958.547	-1239
958.635	-1195
958.724	-1312
958.813	-1789
958.901	-995
958.990	-1783
959.079	-1258
959.167	-1176
959.256	-2170
959.344	-757
959.433	-1088
959.521	-1231
959.610	-1773
959.698	-1691
959.787	-928
959.875	-2005
959.964	-1620
960.052	-831
960.140	-1400
960.228	-1372
960.317	-1710
960.405	-2054
960.493	-1567
960.581	-1993
960.670	-1891
960.758	-1788
960.846	-838
960.934	-1797
961.022	-2183
961.110	-2221
961.198	-789
961.286	-1857
961.374	-1268
961.462	-1835
961.550	-1546
961.638	-1355
961.726	-975
961.814	-1440
961.902	-1843
961.990	-1983
962.078	-1615
962.165	-1568
962.253	-1041
962.341	-2270
962.429	-1845
962.516	-1651
962.604	-1459
962.692	-1669
962.779	-1413
962.867	-878
962.955	-1623
963.042	-1349
963.130	-1080
963.217	-1490
963.305	-1489
963.392	-2428
963.480	-1277
963.567	-1981
963.654	-1132
963.742	-1524
963.829	-620
963.917	562
964.004	73
964.091	-1647
964.178	-2064
964.266	-1501
964.353	-2001
964.440	-1856
964.527	-903
964.614	-1662
964.701	-1230
964.789	-1813
964.876	-1010
964.963	-890
965.050	-1522
965.137	-1787
965.224	-1368
965.311	-1802
965.398	-1561
965.485	-1768
965.571	-2176
965.658	-2569
965.745	-1541
965.832	-2686
965.919	-1707
966.006	-1335
966.092	-1572
966.179	-2020
966.266	-1348
966.352	-1538
966.439	-1188
966.526	-1461
966.612	-1862
966.699	-2168
966.786	-2216
966.872	-1994
966.959	-1291
967.045	-1555
967.132	-1114
967.218	-2112
967.304	-1552
967.391	-2234
967.477	-1200
967.564	-1092
967.650	-829
967.736	-592
967.822	-1746
967.909	-1610
967.995	-1894
968.081	-1467
968.167	-1293
968.254	-1566
968.340	-1452
968.426	-1601
968.512	-1242
968.598	-1336
968.684	-2085
968.770	-1022
968.856	-2263
968.942	-1767
969.028	-278
969.114	-2147
969.200	-1639
969.286	-1780
969.372	-1806
969.457	-2282
969.543	-1599
969.629	-1682
969.715	-1334
969.801	-717
969.886	-1976
969.972	-1553
970.058	-1539
970.143	-2260
970.229	-1615
970.315	-1724
970.400	-1622
970.486	-1962
970.571	-1854
970.657	-1194
970.742	-1287
970.828	-1824
970.913	-1394
970.999	-1978
971.084	-1152
971.169	-2052
971.255	-959
971.340	-2057
971.425	-1541
971.511	-2254
971.596	-2256
971.681	-1434
971.766	-974
971.852	-2097
971.937	-2156
972.022	-1140
972.107	-694
972.192	-1619
972.277	-1238
972.362	-1475
972.447	-1548
972.532	-1746
972.617	-1725
972.702	-676
972.787	-1824
972.872	-1827
972.957	-1426
973.042	-1572
973.126	-1325
973.211	-2109
973.296	-1695
973.381	-1977
973.466	-2265
973.550	-791
973.635	-1780
973.720	-2217
973.804	-1724
973.889	-1024
973.973	-1347
974.058	-1039
974.143	-1336
974.227	-2079
974.312	-519
974.396	-1578
974.481	-1176
974.565	-1362
974.649	-1940
974.734	-584
974.818	-1160
974.902	-1480
974.987	-1826
975.071	-2079
975.155	-1295
975.240	-1494
975.324	-342
975.408	-1936
975.492	-1567
975.576	-3042
975.660	-1119
975.744	-1766
975.829	-2504
975.913	-1871
975.997	-1466
976.081	-2472
976.165	-824
976.249	-1624
976.333	-1847
976.416	-2443
976.500	-556
976.584	-2466
976.668	-1352
976.752	-1718
976.836	-1828
976.919	-1365
977.003	-1435
977.087	-1442
977.171	-1501
977.254	-1489
977.338	-1937
977.422	-1274
977.505	-1999
977.589	-1589
977.672	-2234
977.756	-1692
977.839	-1770
977.923	-1752
978.006	-493
978.090	-1362
978.173	-1943
978.257	-1089
978.340	-966
978.423	-1271
978.507	-685
978.590	-1344
978.673	-1862
978.756	-631
978.840	-1139
978.923	-1612
979.006	-2576
979.089	-1994
979.172	-889
979.255	-979
979.338	-2314
979.422	-1520
979.505	-1562
979.588	-1351
979.671	-2385
979.754	-1602
979.836	-1265
979.919	-1292
980.002	-1617
980.085	-1418
980.168	-1930
980.251	-1776
980.334	-1506
980.416	-1216
980.499	-1923
980.582	-1954
980.665	-1531
980.747	-1958
980.830	-1509
980.912	-1427
980.995	-2287
981.078	-1591
981.160	-1350
981.243	-2185
981.325	-1723
981.408	-1659
981.490	-2565
981.573	-1998
981.655	-1964
981.738	-1655
981.820	-1701
981.902	-2299
981.984	-1506
982.067	-1651
982.149	-2436
982.231	-2444
982.314	-1385
982.396	-1910
982.478	-1385
982.560	-2285
982.642	-1379
982.724	-1778
982.807	-1571
982.888	-1866
982.971	-1473
983.053	-2330
983.135	-1240
983.216	-2259
983.298	-684
983.380	-2899
983.462	-1399
983.544	-1192
983.626	-1751
983.708	-1207
983.790	-1555
983.871	-2008
983.953	-2647
984.035	-1892
984.117	-1674
984.198	-1290
984.280	-1327
984.362	-1034
984.443	-1725
984.525	-1597
984.606	-2156
984.688	-2175
984.769	-1853
984.851	-1165
984.932	-2178
985.014	-1576
985.095	-1606
985.177	-1463
985.258	-2224
985.339	-1560
985.421	-1100
985.502	-2068
985.583	-1613
985.664	-1667
985.746	-1508
985.827	-2699
985.908	-668
985.989	-1111
986.070	-1307
986.151	-2092
986.232	-1507
986.313	-2170
986.395	-1872
986.476	-1596
986.557	-1514
986.637	-2383
986.718	-1005
986.799	-1997
986.880	-1497
986.961	-1967
987.042	-1566
987.123	-1898
987.204	-1103
987.284	-2122
987.365	-2131
987.446	-3559
987.526	-1598
987.607	-1692
987.688	-1705
987.768	-1461
987.849	-1184
987.930	-1510
988.010	-2064
988.091	-2037
988.171	-1668
988.252	-1755
988.332	-1838
988.413	-1879
988.493	-1433
988.573	-1725
988.654	-1608
988.734	-2218
988.814	-2481
988.895	-1359
988.975	-1888
989.055	-1480
989.135	-1741
989.216	-1682
989.296	-1894
989.376	-2273
989.456	-1862
989.536	-1165
989.616	-2260
989.696	-1815
989.776	-1447
989.856	-1247
989.936	-2258
990.016	-2693
990.096	-1465
990.176	-1153
990.256	-1578
990.336	-2097
990.416	-1919
990.495	-1685
990.575	-1730
990.655	-895
990.735	-1340
990.814	-1575
990.894	-1954
990.974	-1572
991.053	-1462
991.133	-1480
991.213	-2068
991.292	-2099
991.372	-1501
991.451	-1987
991.531	-1568
991.610	-2075
991.690	-1941
991.769	-1614
991.849	-1882
991.928	-2705
992.007	-947
992.087	-1708
992.166	-2116
992.245	-1297
992.324	-777
992.404	-1450
992.483	-2041
992.562	-1281
992.641	-2227
992.720	-1164
992.799	-1597
992.879	-2616
992.958	-1644
993.037	-1859
993.116	-2475
993.195	-1453
993.274	-2271
993.353	-2140
993.432	-1764
993.510	-2116
993.589	-1325
993.668	-2550
993.747	-1543
993.826	-2176
993.904	-1547
993.983	-1536
994.062	-1197
994.141	-1090
994.219	-1554
994.298	-2050
994.377	-1523
994.455	-2877
994.534	-2636
994.612	-1491
994.691	-2302
994.769	-2616
994.848	-1785
994.926	-1807
995.005	-1566
995.083	-1821
995.161	-1145
995.240	-2563
995.318	-1235
995.397	-2106
995.475	-2325
995.553	-1379
995.631	-969
995.710	-2077
995.788	-1855
995.866	-2283
995.944	-1068
996.022	-1729
996.100	-1441
996.178	-2701
996.256	-1890
996.334	-1418
996.412	-1727
996.490	-1880
996.568	-2276
996.646	-2525
996.724	-1134
996.802	-2154
996.880	-1836
996.958	-1327
997.036	-2216
997.113	-1345
997.191	-1960
997.269	-2076
997.346	-2751
997.424	-1504
997.502	-1832
997.579	-1438
997.657	-1975
997.735	-1500
997.812	-852
997.890	-2411
997.967	-2697
998.045	-861
998.122	-1740
998.200	-1360
998.277	-1618
998.354	-1924
998.432	-2686
998.509	-1098
998.586	-2063
998.664	-2005
998.741	-1346
998.818	-1525
998.896	-1365
998.973	-2168
999.050	-1310
999.127	-1898
999.204	-868
999.281	-1589
999.358	-1765
999.435	-2394
999.512	-1708
999.589	-1724
999.666	-1419
999.743	-2415
999.820	-2223
999.897	-1609
999.974	-1197
1000.051	-2002
1000.128	-2070
1000.205	-1542
1000.281	-1413
1000.358	-2933
1000.435	-2710
1000.512	-1612
1000.588	-1838
1000.665	-2160
1000.741	-1465
1000.818	-1631
1000.895	-1708
1000.971	-2193
1001.048	-1513
1001.124	-2582
1001.201	-1441
1001.277	-2313
1001.354	-1633
1001.430	-2287
1001.507	-849
1001.583	-1260
1001.659	-2722
1001.736	-2097
1001.812	-1271
1001.888	-1965
1001.964	-2513
1002.041	-2187
1002.117	-2040
1002.193	-1005
1002.269	-2259
1002.345	-2286
1002.421	-1619
1002.497	-2617
1002.573	-1722
1002.649	-1696
1002.725	-1982
1002.801	-2268
1002.877	-1288
1002.953	-1742
1003.029	-1493
1003.105	-1944
1003.181	-2080
1003.257	-2529
1003.333	-1749
1003.408	-1618
1003.484	-2323
1003.560	-1315
1003.636	-2126
1003.711	-1676
1003.787	-1763
1003.862	-1366
1003.938	-1972
1004.014	-2148
1004.089	-2046
1004.165	-1718
1004.240	-1906
1004.316	-2149
1004.391	-2857
1004.467	-1886
1004.542	-2576
1004.617	-2010
1004.693	-1685
1004.768	-1730
1004.844	-1050
1004.919	-2116
1004.994	-1547
1005.069	-2026
1005.145	-1082
1005.220	-2756
1005.295	-1970
1005.370	-1659
1005.445	-2038
1005.520	-1932
1005.595	-1612
1005.670	-1611
1005.745	-2354
1005.820	-1962
1005.895	-1600
1005.970	-1829
1006.045	-1505
1006.120	-1522
1006.195	-1539
1006.270	-2339
1006.345	-1911
1006.419	-2158
1006.494	-2070
1006.569	-1821
1006.644	-1849
1006.718	-1850
1006.793	-1854
1006.868	-2385
1006.942	-2172
1007.017	-2285
1007.092	-2142
1007.166	-2078
1007.241	-2281
1007.315	-2211
1007.390	-2326
1007.464	-2218
1007.539	-3019
1007.613	-2137
1007.687	-1837
1007.762	-1874
1007.836	-2262
1007.910	-2438
1007.984	-1951
1008.059	-1607
1008.133	-2023
1008.207	-2852
1008.281	-1125
1008.356	-2430
1008.430	-2105
1008.504	-2898
1008.578	-2316
1008.652	-2585
1008.726	-2479
1008.800	-2390
1008.874	-2438
1008.948	-1877
1009.022	-2244
1009.096	-1343
1009.170	-2054
1009.244	-2081
1009.317	-1513
1009.391	-2919
1009.465	-867
1009.539	-2461
1009.613	-1119
1009.686	-1673
1009.760	-2883
1009.834	-1809
1009.907	-2064
1009.981	-3061
1010.054	-1247
1010.128	-2041
1010.201	-1826
1010.275	-1724
1010.349	-1355
1010.422	-2902
1010.495	-2375
1010.569	-1802
1010.642	-1742
1010.716	-1583
1010.789	-1785
1010.862	-1765
1010.936	-2576
1011.009	-1457
1011.082	-2176
1011.155	-2618
1011.229	-1772
1011.302	-2760
1011.375	-1186
1011.448	-1534
1011.521	-1871
1011.594	-2314
1011.667	-1816
1011.740	-2249
1011.813	-2099
1011.886	-2803
1011.959	-1982
1012.032	-2030
1012.105	-1739
1012.178	-2701
1012.251	-2000
1012.324	-1748
1012.396	-2061
1012.469	-3233
1012.542	-2593
1012.614	-1836
1012.687	-2023
1012.760	-2654
1012.833	-2829
1012.905	-2930
1012.978	-1754
1013.050	-2070
1013.123	-1465
1013.195	-1820
1013.268	-2150
1013.340	-2594
1013.413	-1797
1013.485	-2551
1013.558	-2195
1013.630	-2107
1013.702	-1894
1013.775	-3063
1013.847	-1872
1013.919	-2607
1013.992	-2990
1014.064	-2221
1014.136	-2547
1014.208	-2529
1014.280	-2084
1014.353	-2429
1014.425	-1495
1014.497	-2301
1014.569	-2210
1014.641	-1969
1014.713	-1987
1014.785	-3296
1014.857	-1858
1014.929	-1807
1015.001	-2855
1015.072	-2139
1015.144	-3237
1015.216	-1832
1015.288	-1739
1015.360	-2392
1015.431	-2259
1015.503	-1519
1015.575	-2211
1015.647	-2339
1015.718	-2714
1015.790	-2563
1015.861	-1657
1015.933	-1490
1016.005	-2288
1016.076	-2307
1016.148	-2599
1016.219	-1974
1016.291	-1698
1016.362	-1822
1016.433	-2431
1016.505	-2014
1016.576	-1947
1016.647	-2663
1016.719	-2262
1016.790	-1685
1016.861	-2598
1016.932	-1853
1017.004	-2213
1017.075	-2644
1017.146	-2477
1017.217	-1704
1017.288	-2129
1017.359	-1994
1017.430	-2438
1017.502	-2002
1017.573	-2533
1017.644	-2420
1017.714	-2189
1017.785	-2622
1017.856	-1965
1017.927	-1837
1017.998	-2807
1018.069	-2752
1018.140	-2307
1018.210	-2470
1018.281	-2126
1018.352	-2514
1018.423	-2825
1018.493	-2313
1018.564	-1090
1018.635	-1854
1018.705	-2458
1018.776	-2245
1018.846	-1335
1018.917	-1965
1018.987	-2226
1019.058	-2111
1019.128	-2089
1019.199	-2226
1019.269	-2611
1019.340	-2217
1019.410	-2427
1019.480	-2052
1019.551	-2639
1019.621	-2265
1019.691	-2108
1019.761	-2583
1019.832	-2158
1019.902	-1791
1019.972	-2491
1020.042	-2059
1020.112	-2484
1020.182	-2553
1020.252	-2065
1020.322	-2461
1020.392	-2537
1020.462	-2127
1020.532	-2575
1020.602	-2132
1020.672	-1358
1020.742	-2320
1020.812	-2300
1020.882	-1812
1020.952	-2971
1021.021	-2439
1021.091	-2366
1021.161	-2500
1021.230	-2040
1021.300	-2780
1021.370	-2249
1021.440	-2239
1021.509	-1914
1021.579	-2397
1021.648	-2179
1021.718	-2190
1021.787	-2846
1021.857	-1625
1021.926	-2320
1021.996	-2024
1022.065	-2094
1022.134	-3055
1022.204	-2411
1022.273	-2609
1022.342	-2464
1022.412	-1840
1022.481	-2717
1022.550	-2339
1022.619	-1898
1022.689	-2121
1022.758	-2837
1022.827	-2276
1022.896	-2587
1022.965	-1979
1023.034	-2338
1023.103	-2966
1023.172	-1886
1023.241	-2492
1023.310	-1837
1023.379	-2542
1023.448	-2190
1023.517	-2382
1023.586	-2665
1023.654	-2847
1023.723	-1605
1023.792	-2781
1023.861	-2371
1023.929	-2919
1023.998	-2532
1024.067	-1917
1024.135	-2952
1024.204	-2568
1024.273	-2276
1024.341	-1774
1024.410	-2616
1024.478	-2728
1024.547	-1886
1024.615	-2341
1024.684	-1959
1024.752	-2606
1024.820	-2059
1024.889	-2168
1024.957	-1946
1025.026	-2137
1025.094	-1905
1025.162	-3219
1025.230	-2197
1025.299	-3436
1025.367	-1936
1025.435	-2600
1025.503	-2461
1025.571	-2558
1025.639	-2455
1025.707	-1958
1025.776	-2363
1025.844	-1878
1025.912	-2934
1025.979	-1946
1026.047	-2116
1026.115	-2515
1026.183	-2231
1026.251	-2970
1026.319	-2416
1026.387	-2311
1026.454	-1480
1026.522	-2236
1026.590	-2963
1026.658	-2361
1026.725	-1960
1026.793	-2343
1026.861	-1783
1026.928	-3303
1026.996	-2823
1027.064	-2402
1027.131	-2437
1027.199	-1537
1027.266	-2305
1027.334	-2045
1027.401	-3118
1027.468	-2091
1027.536	-2072
1027.603	-1971
1027.671	-2617
1027.738	-2704
1027.805	-2717
1027.872	-1842
1027.940	-2728
1028.007	-2950
1028.074	-2130
1028.141	-2327
1028.208	-2334
1028.275	-2346
1028.342	-2684
1028.409	-2591
1028.477	-2342
1028.544	-3347
1028.610	-2790
1028.678	-2706
1028.744	-2217
1028.811	-2140
1028.878	-2543
1028.945	-2032
1029.012	-1781
1029.079	-2155
1029.146	-2904
1029.212	-2202
1029.279	-2320
1029.346	-2227
1029.412	-2602
1029.479	-2009
1029.546	-2338
1029.612	-3569
1029.679	-2020
1029.745	-2236
1029.812	-1833
1029.878	-2641
1029.945	-2678
1030.011	-1505
1030.078	-3059
1030.144	-2124
1030.210	-2196
1030.277	-2660
1030.343	-2863
1030.409	-3429
1030.476	-2281
1030.542	-2100
1030.608	-2432
1030.674	-2107
1030.740	-2991
1030.807	-2465
1030.873	-2392
1030.939	-2691
1031.005	-2947
1031.071	-3155
1031.137	-2189
1031.203	-2168
1031.269	-2490
1031.335	-3323
1031.401	-2056
1031.467	-2538
1031.533	-2060
1031.598	-3022
1031.664	-2317
1031.730	-2881
1031.796	-1325
1031.861	-3327
1031.927	-2173
1031.993	-2411
1032.058	-2085
1032.124	-3234
1032.190	-2247
1032.255	-2589
1032.321	-2045
1032.386	-2516
1032.452	-2488
1032.518	-2867
1032.583	-2778
1032.648	-2535
1032.714	-2429
1032.779	-2818
1032.844	-2412
1032.910	-2768
1032.975	-2877
1033.040	-2890
1033.106	-2367
1033.171	-2923
1033.236	-1863
1033.301	-2552
1033.366	-2888
1033.432	-2520
1033.496	-2556
1033.562	-2453
1033.627	-2910
1033.692	-2542
1033.757	-2121
1033.822	-2583
1033.887	-2121
1033.952	-3308
1034.016	-2746
1034.081	-2929
1034.146	-2476
1034.211	-2486
1034.276	-2533
1034.340	-2241
1034.405	-1915
1034.470	-1756
1034.535	-1799
1034.599	-1648
1034.664	-2923
1034.729	-2639
1034.793	-2815
1034.858	-1529
1034.922	-1876
1034.987	-2329
1035.051	-2230
1035.116	-2894
1035.180	-2014
1035.245	-1975
1035.309	-2623
1035.373	-2113
1035.437	-2993
1035.502	-1992
1035.566	-2538
1035.630	-1978
1035.695	-2612
1035.759	-2099
1035.823	-2183
1035.887	-3349
1035.951	-2576
1036.015	-2753
1036.079	-2291
1036.143	-2296
1036.208	-1777
1036.271	-3172
1036.336	-2739
1036.399	-2412
1036.463	-2921
1036.527	-2222
1036.591	-1891
1036.655	-2297
1036.719	-2667
1036.783	-2001
1036.846	-1774
1036.910	-2195
1036.974	-2201
1037.037	-2489
1037.101	-2402
1037.165	-2033
1037.228	-2683
1037.292	-2491
1037.355	-2661
1037.419	-2414
1037.483	-2694
1037.546	-2184
1037.609	-2586
1037.673	-3545
1037.736	-2039
1037.800	-2875
1037.863	-2659
1037.926	-2323
1037.990	-1737
1038.053	-2538
1038.116	-2685
1038.179	-1950
1038.243	-2871
1038.306	-2566
1038.369	-2196
1038.432	-1579
1038.495	-3021
1038.558	-2222
1038.621	-2786
1038.684	-2897
1038.747	-2244
1038.810	-1951
1038.873	-2179
1038.936	-1495
1038.999	-2420
1039.062	-1959
1039.125	-2389
1039.188	-2349
1039.250	-2704
1039.313	-2342
1039.376	-2184
1039.438	-2829
1039.501	-2920
1039.564	-2665
1039.627	-1911
1039.689	-1949
1039.752	-2684
1039.814	-2100
1039.877	-2481
1039.939	-2174
1040.002	-2451
1040.064	-2496
1040.127	-2654
1040.189	-2951
1040.251	-2980
1040.314	-2291
1040.376	-2785
1040.438	-2472
1040.501	-2318
1040.563	-2531
1040.625	-2449
1040.687	-2447
1040.750	-1953
1040.812	-2711
1040.874	-1948
1040.936	-2509
1040.998	-2494
1041.060	-2331
1041.122	-2485
1041.184	-2519
1041.246	-1340
1041.308	-2716
1041.370	-2667
1041.432	-3273
1041.494	-2246
1041.555	-2710
1041.617	-2272
1041.679	-2011
1041.741	-2636
1041.802	-2274
1041.864	-2723
1041.926	-3156
1041.987	-2485
1042.049	-2557
1042.111	-2252
1042.172	-2282
1042.234	-1789
1042.295	-3056
1042.357	-1773
1042.418	-1861
1042.480	-2002
1042.541	-2477
1042.603	-1949
1042.664	-3045
1042.725	-2078
1042.786	-2055
1042.848	-2514
1042.909	-2173
1042.970	-2355
1043.031	-2551
1043.093	-3030
1043.154	-2376
1043.215	-1800
1043.276	-1846
1043.337	-2799
1043.398	-2514
1043.459	-1726
1043.520	-2159
1043.581	-2586
1043.642	-2580
1043.703	-2347
1043.764	-1626
1043.825	-1842
1043.886	-2314
1043.947	-1824
1044.007	-1829
1044.068	-2025
1044.129	-2210
1044.189	-1603
1044.250	-2033
1044.311	-2466
1044.371	-2405
1044.432	-2397
1044.493	-1813
1044.553	-2129
1044.614	-2470
1044.674	-1465
1044.735	-1850
1044.795	-2044
1044.856	-2580
1044.916	-1308
1044.976	-2334
1045.037	-2172
1045.097	-2030
1045.157	-1834
1045.218	-1965
1045.278	-2032
1045.338	-1917
1045.398	-1957
1045.458	-1272
1045.519	-1410
1045.579	-2032
1045.639	-1716
1045.699	-3120
1045.759	-1830
1045.819	-1845
1045.879	-2166
1045.939	-1243
1045.999	-1886
1046.059	-1965
1046.119	-766
1046.179	-1289
1046.238	-1872
1046.298	-1254
1046.358	-1698
1046.418	-1964
1046.477	-1318
1046.537	-1653
1046.597	-1858
1046.656	-1683
1046.716	-1778
1046.776	-1694
1046.835	-851
1046.895	-1403
1046.954	-644
1047.014	-394
1047.073	-1134
1047.133	0
