'Start Wavelength	183.833
'End Wavelength	1047.133
'Gate Delay	5.000
'Gate Width (ms)	1.050
'Laser Output Level	0.000
'X Position	0.000
'Y Position	0.000
'Z Position	0.000
'Grid Point Number	1.000
'Shot Number	100.000
183.833	556.000
183.903	33.000
183.973	466
184.042	146
184.112	17
184.182	-647
184.252	159
184.321	-2
184.391	316
184.461	455
184.531	-141
184.600	153
184.670	60
184.740	302
184.809	258
184.879	-265
184.949	193
185.018	-70
185.088	-63
185.158	282
185.228	226
185.297	272
185.367	-527
185.436	-574
185.506	41
185.576	-476
185.645	1116
185.715	319
185.785	973
185.854	491
185.924	443
185.993	-606
186.063	21
186.133	-375
186.202	479
186.272	-285
186.341	-333
186.411	-289
186.481	595
186.550	710
186.620	568
186.689	-163
186.759	1066
186.828	-571
186.898	-83
186.967	746
187.037	731
187.106	55
187.176	300
187.246	470
187.315	-103
187.385	357
187.454	494
187.524	715
187.593	644
187.662	400
187.732	313
187.801	412
187.871	954
187.940	56
188.010	130
188.079	7
188.149	895
188.218	638
188.288	500
188.357	5
188.426	-64
188.496	492
188.565	624
188.635	56
188.704	1262
188.773	395
188.843	846
188.912	187
188.981	256
189.051	76
189.120	-583
189.190	306
189.259	84
189.328	-364
189.398	726
189.467	159
189.536	694
189.606	883
189.675	-75
189.744	54
189.813	-81
189.883	204
189.952	1256
190.021	1956
190.091	2347
190.160	170
190.229	306
190.298	-467
190.368	-174
190.437	213
190.506	1031
190.575	-130
190.645	-428
190.714	-148
190.783	522
190.852	-475
190.922	932
190.991	-21
191.060	502
191.129	-255
191.198	102
191.268	24
191.337	242
191.406	433
191.475	140
191.544	183
191.613	615
191.683	-544
191.752	266
191.821	-158
191.890	-42
191.959	103
192.028	1010
192.097	-126
192.166	663
192.236	189
192.305	6
192.374	429
192.443	300
192.512	-527
192.581	193
192.650	-31
192.719	603
192.788	-402
192.857	389
192.926	417
192.995	198
193.064	661
193.133	346
193.202	502
193.271	581
193.340	-35
193.409	1034
193.478	729
193.547	1194
193.616	1300
193.685	1112
193.754	889
193.823	678
193.892	248
193.961	367
194.030	-193
194.099	512
194.168	-451
194.237	432
194.306	13
194.375	-414
194.444	1048
194.513	420
194.582	62
194.651	719
194.720	156
194.788	666
194.857	537
194.926	602
194.995	752
195.064	609
195.133	178
195.202	1045
195.270	295
195.339	-96
195.408	276
195.477	136
195.546	823
195.615	138
195.683	1370
195.752	285
195.821	7
195.890	1165
195.959	1096
196.027	647
196.096	824
196.165	-1
196.234	784
196.303	674
196.371	-236
196.440	932
196.509	454
196.578	728
196.646	-594
196.715	415
196.784	140
196.853	936
196.921	261
196.990	441
197.059	271
197.127	708
197.196	438
197.265	546
197.333	-205
197.402	445
197.471	-309
197.539	640
197.608	1173
197.677	3389
197.745	479
197.814	2954
197.883	1707
197.951	2874
198.020	1296
198.088	716
198.157	1210
198.226	3539
198.294	554
198.363	586
198.431	272
198.500	2633
198.569	2519
198.637	563
198.706	807
198.774	3901
198.843	2489
198.911	407
198.980	579
199.048	499
199.117	698
199.185	316
199.254	399
199.322	487
199.391	504
199.459	-123
199.528	616
199.596	669
199.665	-22
199.733	1353
199.802	894
199.870	664
199.939	83
200.007	425
200.076	983
200.144	543
200.213	-718
200.281	1144
200.349	900
200.418	1394
200.486	320
200.555	978
200.623	-43
200.691	189
200.760	436
200.828	727
200.897	204
200.965	-202
201.033	103
201.102	1073
201.170	-343
201.238	865
201.307	821
201.375	446
201.443	640
201.512	705
201.580	859
201.648	666
201.716	271
201.785	1295
201.853	831
201.921	770
201.990	540
202.058	414
202.126	-349
202.194	589
202.263	754
202.331	286
202.399	11
202.467	786
202.536	5462
202.604	2643
202.672	167
202.740	326
202.808	368
202.877	857
202.945	1031
203.013	456
203.081	341
203.149	56
203.218	94
203.286	538
203.354	361
203.422	227
203.490	-143
203.558	959
203.626	203
203.695	-219
203.763	490
203.831	-157
203.899	888
203.967	798
204.035	554
204.103	-90
204.171	537
204.239	588
204.307	1059
204.375	324
204.443	-327
204.512	154
204.580	790
204.648	325
204.716	440
204.784	551
204.852	725
204.920	821
204.988	657
205.056	532
205.124	-26
205.192	682
205.260	-85
205.328	644
205.396	7
205.464	766
205.532	861
205.600	840
205.667	339
205.735	3130
205.803	4507
205.871	161
205.939	1195
206.007	867
206.075	328
206.143	362
206.211	478
206.279	287
206.347	-402
206.414	685
206.482	-234
206.550	157
206.618	513
206.686	489
206.754	1281
206.822	714
206.889	61
206.957	653
207.025	721
207.093	297
207.161	149
207.229	471
207.296	537
207.364	442
207.432	397
207.500	664
207.567	97
207.635	805
207.703	287
207.771	249
207.839	28
207.906	1103
207.974	25
208.042	615
208.109	396
208.177	1257
208.245	1494
208.313	1061
208.380	2630
208.448	1182
208.516	47
208.583	1856
208.651	982
208.719	356
208.786	284
208.854	1013
208.922	510
208.989	883
209.057	1
209.125	1166
209.192	85
209.260	668
209.327	1115
209.395	1662
209.463	272
209.530	69
209.598	323
209.665	540
209.733	745
209.801	1473
209.868	811
209.936	864
210.003	816
210.071	980
210.138	288
210.206	1687
210.273	574
210.341	1289
210.408	676
210.476	927
210.543	1380
210.611	1252
210.678	572
210.746	845
210.813	1211
210.881	1629
210.948	546
211.016	1264
211.083	921
211.151	876
211.218	1928
211.285	856
211.353	657
211.420	1587
211.488	581
211.555	1345
211.622	-118
211.690	825
211.757	696
211.825	1537
211.892	877
211.959	869
212.027	1343
212.094	1546
212.161	1169
212.229	3031
212.296	5511
212.363	18923
212.431	5837
212.498	2327
212.565	1508
212.633	280
212.700	1006
212.767	875
212.835	539
212.902	825
212.969	659
213.036	1056
213.104	1001
213.171	1068
213.238	1071
213.305	1291
213.373	1280
213.440	691
213.507	596
213.574	1323
213.641	592
213.709	-116
213.776	1429
213.843	1330
213.910	1500
213.977	1002
214.045	953
214.112	1277
214.179	365
214.246	565
214.313	767
214.380	741
214.447	1618
214.515	1263
214.582	1110
214.649	1219
214.716	695
214.783	706
214.850	1002
214.917	1834
214.984	2367
215.051	1969
215.118	1591
215.185	992
215.253	1200
215.320	1294
215.387	842
215.454	837
215.521	-127
215.588	317
215.655	463
215.722	2472
215.789	1122
215.856	1084
215.923	1415
215.990	1906
216.057	1525
216.124	1733
216.191	896
216.258	1414
216.325	829
216.391	2063
216.458	1095
216.525	1739
216.592	4477
216.659	3923
216.726	2251
216.793	2551
216.860	2068
216.927	1511
216.994	683
217.061	2401
217.127	704
217.194	2441
217.261	3055
217.328	4029
217.395	2749
217.462	1594
217.529	533
217.595	70
217.662	2096
217.729	5039
217.796	2990
217.863	1465
217.929	845
217.996	364
218.063	680
218.130	194
218.196	170
218.263	770
218.330	645
218.397	-74
218.463	1204
218.530	1887
218.597	4685
218.664	4924
218.730	1890
218.797	1339
218.864	984
218.930	587
218.997	106
219.064	2365
219.131	3730
219.197	1998
219.264	44
219.331	781
219.397	-284
219.464	426
219.530	3055
219.597	1909
219.664	638
219.730	1220
219.797	569
219.864	890
219.930	2252
219.997	6014
220.063	2927
220.130	1614
220.196	653
220.263	1628
220.330	2552
220.396	6543
220.463	3027
220.529	1305
220.596	1829
220.662	2590
220.729	9673
220.795	6003
220.862	5570
220.928	12852
220.995	13216
221.061	12945
221.128	9848
221.194	3075
221.261	1662
221.327	1654
221.394	1436
221.460	1101
221.526	1889
221.593	14006
221.659	6449
221.726	8429
221.792	5462
221.859	2090
221.925	1629
221.991	1809
222.058	978
222.124	2603
222.190	1970
222.257	936
222.323	388
222.390	1025
222.456	163
222.522	427
222.589	776
222.655	971
222.721	949
222.788	1310
222.854	353
222.920	653
222.986	551
223.053	668
223.119	756
223.185	476
223.251	-122
223.318	587
223.384	38
223.450	621
223.516	372
223.583	68
223.649	601
223.715	542
223.781	379
223.848	609
223.914	139
223.980	883
224.046	159
224.112	316
224.178	952
224.245	642
224.311	556
224.377	572
224.443	143
224.509	737
224.575	-49
224.641	151
224.708	94
224.774	239
224.840	848
224.906	1193
224.972	163
225.038	990
225.104	1066
225.170	488
225.236	521
225.302	1100
225.368	989
225.434	872
225.500	1186
225.566	1123
225.632	987
225.699	1419
225.765	1544
225.831	2122
225.897	3051
225.963	2169
226.028	1647
226.094	1666
226.160	2637
226.226	8326
226.292	15983
226.358	6181
226.424	3326
226.490	2238
226.556	1231
226.622	2415
226.688	3643
226.754	5540
226.820	24319
226.886	18705
226.951	4438
227.017	3052
227.083	2511
227.149	2785
227.215	1193
227.281	1081
227.347	1902
227.412	2121
227.478	5979
227.544	6039
227.610	2478
227.676	1387
227.742	1125
227.807	1206
227.873	1414
227.939	1801
228.005	1060
228.070	421
228.136	35
228.202	935
228.268	1600
228.333	3090
228.399	1912
228.465	487
228.531	-214
228.596	1409
228.662	3113
228.728	1598
228.793	1191
228.859	586
228.925	1066
228.990	615
229.056	909
229.122	1318
229.187	1096
229.253	1140
229.319	773
229.384	2160
229.450	110
229.516	501
229.581	1766
229.647	2235
229.712	6961
229.778	6751
229.844	2633
229.909	2963
229.975	2966
230.040	1909
230.106	2564
230.171	2224
230.237	4102
230.302	3853
230.368	1770
230.433	1356
230.499	1403
230.564	906
230.630	747
230.695	875
230.761	-107
230.826	3594
230.892	1264
230.957	934
231.023	1068
231.088	1391
231.154	1232
231.219	2997
231.285	2890
231.350	646
231.415	639
231.481	1568
231.546	809
231.612	1054
231.677	519
231.742	1649
231.808	1508
231.873	894
231.938	3834
232.004	3694
232.069	1059
232.135	1392
232.200	607
232.265	1935
232.330	887
232.396	1423
232.461	1058
232.526	1087
232.592	2146
232.657	4047
232.722	2739
232.788	2200
232.853	1026
232.918	1460
232.983	1215
233.048	3453
233.114	2925
233.179	5940
233.244	6290
233.309	2483
233.375	1023
233.440	1594
233.505	1073
233.570	1794
233.635	583
233.700	4480
233.766	4259
233.831	2614
233.896	2187
233.961	2676
234.026	1703
234.091	2375
234.156	2414
234.222	4268
234.287	15275
234.352	11281
234.417	5921
234.482	4377
234.547	2957
234.612	2903
234.677	3487
234.742	14186
234.807	7629
234.872	3100
234.937	2476
235.002	2301
235.067	2303
235.132	2613
235.197	1859
235.262	1495
235.327	2221
235.392	3281
235.457	2703
235.522	1932
235.587	1638
235.652	1689
235.717	3036
235.782	3121
235.847	7069
235.912	7964
235.977	7984
236.042	3194
236.107	3656
236.172	3321
236.236	2016
236.301	3015
236.366	5474
236.431	9116
236.496	4363
236.561	7557
236.626	34274
236.691	19954
236.755	7068
236.820	6340
236.885	4380
236.950	3781
237.015	4069
237.079	5008
237.144	8708
237.209	35403
237.274	58804
237.339	19940
237.403	7763
237.468	6713
237.533	4540
237.598	3739
237.662	2480
237.727	4217
237.792	6977
237.856	6920
237.921	3430
237.986	7059
238.050	6656
238.115	21411
238.180	16297
238.245	9080
238.309	5468
238.374	4509
238.438	4451
238.503	2816
238.568	3345
238.632	3498
238.697	2396
238.762	9706
238.826	10164
238.891	6329
238.955	4644
239.020	3542
239.085	3157
239.149	2319
239.214	3216
239.278	3022
239.343	2357
239.407	4702
239.472	20648
239.536	14323
239.601	4968
239.665	3202
239.730	5269
239.794	14182
239.859	16911
239.923	6060
239.988	3364
240.052	2159
240.117	3076
240.181	2207
240.246	2694
240.310	2863
240.374	12018
240.439	18668
240.503	5364
240.568	10195
240.632	10172
240.696	3899
240.761	1662
240.825	1384
240.890	3144
240.954	11718
241.018	17742
241.083	7644
241.147	2934
241.211	5242
241.276	9809
241.340	4735
241.404	2546
241.469	3962
241.533	2528
241.597	2673
241.661	2941
241.726	3831
241.790	2709
241.854	2812
241.919	2531
241.983	2639
242.047	2142
242.111	2485
242.175	2167
242.240	3272
242.304	2583
242.368	2988
242.432	2426
242.496	2556
242.561	1732
242.625	2336
242.689	1551
242.753	2561
242.817	2448
242.881	2495
242.946	2961
243.010	2895
243.074	2727
243.138	2229
243.202	2570
243.266	3123
243.330	3884
243.394	19172
243.458	50890
243.522	12782
243.586	5944
243.651	3256
243.715	3698
243.779	5879
243.843	7738
243.907	9531
243.971	4874
244.035	3494
244.099	2275
244.163	4317
244.227	6920
244.291	6496
244.355	4258
244.419	4073
244.483	2842
244.546	2070
244.610	2103
244.674	4188
244.738	2713
244.802	3052
244.866	1775
244.930	1644
244.994	1374
245.058	3708
245.122	4620
245.186	4225
245.249	3686
245.313	3139
245.377	2549
245.441	2360
245.505	3026
245.569	3991
245.632	3336
245.696	10353
245.760	5099
245.824	3609
245.888	2220
245.951	3386
246.015	3838
246.079	4942
246.143	15465
246.207	24723
246.270	8477
246.334	5295
246.398	5822
246.461	8643
246.525	5442
246.589	4645
246.653	4472
246.716	5221
246.780	5630
246.844	7970
246.907	4077
246.971	3504
247.035	4202
247.098	4481
247.162	14246
247.226	36281
247.289	12621
247.353	6533
247.416	10217
247.480	6194
247.544	4913
247.607	5965
247.671	3725
247.734	4520
247.798	5077
247.861	14954
247.925	30283
247.989	8679
248.052	4273
248.116	6079
248.179	10151
248.243	55536
248.306	46608
248.370	32976
248.433	10260
248.497	8428
248.560	11170
248.624	13745
248.687	21610
248.751	55387
248.814	23592
248.877	27833
248.941	39226
249.004	68152
249.068	50501
249.131	16475
249.194	9882
249.258	13479
249.321	9173
249.385	7008
249.448	6051
249.511	8252
249.575	11826
249.638	8261
249.701	6157
249.765	6575
249.828	7626
249.891	6550
249.955	6168
250.018	23067
250.081	25060
250.145	10691
250.208	7895
250.271	8857
250.334	7033
250.398	6160
250.461	8086
250.524	12747
250.587	64230
250.651	89798
250.714	25476
250.777	15208
250.840	9628
250.903	9463
250.967	17050
251.030	34422
251.093	14729
251.156	14067
251.219	11243
251.282	17239
251.345	89459
251.409	67531
251.472	40500
251.535	161225
251.598	85754
251.661	29647
251.724	41652
251.787	41701
251.850	101095
251.913	43818
251.976	16452
252.039	13016
252.103	12987
252.166	26352
252.229	62614
252.292	59777
252.355	132448
252.418	44110
252.481	21238
252.544	14957
252.607	16469
252.670	49414
252.733	57782
252.796	127286
252.858	68057
252.921	34284
252.984	18851
253.047	13533
253.110	10615
253.173	16437
253.236	11110
253.299	13336
253.362	10899
253.425	12483
253.488	30913
253.550	16808
253.613	17660
253.676	16590
253.739	7890
253.802	12044
253.865	8997
253.928	8775
253.990	21143
254.053	31582
254.116	19115
254.179	15163
254.242	8115
254.304	15332
254.367	15165
254.430	13426
254.493	20965
254.555	34072
254.618	14671
254.681	9175
254.743	7558
254.806	8579
254.869	25369
254.932	22875
254.994	8587
255.057	7333
255.120	4350
255.182	4092
255.245	5559
255.308	3607
255.370	3311
255.433	4099
255.496	3394
255.558	3726
255.621	3927
255.683	2555
255.746	3234
255.809	2795
255.871	3095
255.934	2851
255.996	3329
256.059	2968
256.121	5594
256.184	15082
256.246	9596
256.309	9359
256.371	6052
256.434	4458
256.496	3589
256.559	4227
256.621	6874
256.684	18657
256.746	45185
256.809	13250
256.871	6143
256.934	6169
256.996	6258
257.059	5179
257.121	3762
257.183	4004
257.246	3706
257.308	4415
257.371	11328
257.433	66197
257.495	53419
257.558	39895
257.620	17008
257.683	8931
257.745	9230
257.807	5002
257.870	4992
257.932	4081
257.994	3344
258.056	4020
258.119	5872
258.181	10956
258.243	6284
258.306	6132
258.368	18308
258.430	15244
258.492	23941
258.555	26982
258.617	6265
258.679	7049
258.741	9042
258.803	5773
258.866	4200
258.928	4883
258.990	4535
259.052	6580
259.114	7839
259.177	6190
259.239	8085
259.301	28567
259.363	13420
259.425	6004
259.487	5077
259.549	5162
259.611	4646
259.674	6188
259.736	23152
259.798	36618
259.860	60049
259.922	38608
259.984	10331
260.046	6808
260.108	5488
260.170	5566
260.232	4273
260.294	5737
260.356	4004
260.418	6662
260.480	20834
260.542	18417
260.604	31105
260.666	36812
260.728	9596
260.790	8675
260.852	6056
260.914	6116
260.976	6026
261.038	7847
261.100	35994
261.161	28804
261.223	8153
261.285	19898
261.347	23455
261.409	7375
261.471	6238
261.533	4407
261.595	5237
261.656	11933
261.718	24534
261.780	9439
261.842	6375
261.904	5785
261.966	5765
262.027	5440
262.089	9903
262.151	7398
262.213	4698
262.274	13284
262.336	9565
262.398	5643
262.460	12722
262.521	24242
262.583	7812
262.645	5154
262.706	8153
262.768	23876
262.830	9522
262.892	6512
262.953	7382
263.015	44437
263.077	90881
263.138	23878
263.200	11790
263.261	6963
263.323	4912
263.385	4443
263.446	4556
263.508	11775
263.569	6370
263.631	3163
263.693	2007
263.754	2831
263.816	1776
263.877	2231
263.939	1559
264.000	2778
264.062	4525
264.123	3488
264.185	1832
264.246	2065
264.308	6056
264.369	8247
264.431	2537
264.492	2110
264.554	2429
264.615	4034
264.677	2898
264.738	2731
264.800	1559
264.861	1545
264.922	925
264.984	1863
265.045	1610
265.107	3215
265.168	21617
265.229	14540
265.291	3698
265.352	2874
265.413	2240
265.475	1157
265.536	2148
265.597	1902
265.659	224
265.720	1921
265.781	1382
265.843	1074
265.904	5350
265.965	39261
266.026	20750
266.088	6094
266.149	4709
266.210	1917
266.271	1562
266.333	2180
266.394	2301
266.455	1992
266.516	1242
266.577	6690
266.639	9083
266.700	2993
266.761	1568
266.822	1841
266.883	1768
266.944	1560
267.005	2971
267.067	1791
267.128	892
267.189	1644
267.250	2807
267.311	1821
267.372	514
267.433	1586
267.494	1194
267.555	1333
267.616	228
267.677	1043
267.738	922
267.799	6860
267.860	13072
267.921	3489
267.982	2929
268.043	1777
268.104	2478
268.165	2180
268.226	591
268.287	1422
268.348	2146
268.409	2655
268.470	1536
268.531	1347
268.592	366
268.653	1243
268.714	1634
268.775	2713
268.836	7861
268.896	9247
268.957	3218
269.018	1187
269.079	1715
269.140	1254
269.201	2595
269.262	1667
269.322	1351
269.383	2193
269.444	3141
269.505	4169
269.565	5382
269.626	2976
269.687	2106
269.748	1814
269.809	3244
269.869	4523
269.930	1633
269.991	1573
270.051	1653
270.112	2285
270.173	1356
270.234	1593
270.294	2195
270.355	2994
270.416	894
270.476	2662
270.537	6114
270.598	13902
270.658	4765
270.719	2530
270.779	4420
270.840	3712
270.901	2745
270.961	3311
271.022	3487
271.082	6396
271.143	6510
271.203	3685
271.264	2907
271.325	4507
271.385	16072
271.446	6740
271.506	3663
271.567	4138
271.627	3156
271.688	4254
271.748	11419
271.809	54841
271.869	72348
271.930	17382
271.990	35143
272.050	63042
272.111	15206
272.171	8345
272.232	10763
272.292	45595
272.352	19973
272.413	12853
272.473	9901
272.534	11370
272.594	7503
272.654	11297
272.715	21401
272.775	8231
272.835	6292
272.896	5288
272.956	4478
273.016	9223
273.077	6347
273.137	5267
273.197	5548
273.257	25405
273.318	49404
273.378	16218
273.438	17658
273.498	36942
273.559	15253
273.619	30361
273.679	63498
273.739	20070
273.799	11256
273.860	34377
273.920	63920
273.980	14218
274.040	9265
274.100	13442
274.160	69033
274.221	58359
274.281	48021
274.341	47071
274.401	26379
274.461	11979
274.521	12387
274.581	54868
274.641	71871
274.701	25292
274.761	12111
274.821	30236
274.882	104897
274.942	81843
275.002	40050
275.062	14809
275.122	9425
275.182	8489
275.242	10986
275.302	16878
275.362	13298
275.421	10828
275.481	42981
275.541	92238
275.601	40529
275.661	18980
275.721	11336
275.781	6888
275.841	5152
275.901	7109
275.961	6006
276.021	5643
276.081	10785
276.140	27459
276.200	11133
276.260	8696
276.320	6118
276.380	7004
276.440	4422
276.499	4431
276.559	4125
276.619	7161
276.679	20389
276.738	15556
276.798	6447
276.858	9308
276.918	6211
276.978	5173
277.037	5418
277.097	9043
277.157	24804
277.216	10273
277.276	6596
277.336	5185
277.395	6208
277.455	5999
277.515	7076
277.574	27709
277.634	44611
277.694	15997
277.753	53220
277.813	37665
277.873	41567
277.932	121655
277.992	37068
278.051	36345
278.111	43312
278.171	18925
278.230	53183
278.290	31450
278.349	14764
278.409	9620
278.468	8547
278.528	8691
278.587	7017
278.647	8693
278.706	27037
278.766	66311
278.825	18815
278.885	12795
278.944	14346
279.004	40729
279.063	41691
279.122	16192
279.182	14200
279.241	15923
279.301	19279
279.360	38732
279.419	156905
279.479	471071
279.538	383686
279.598	99096
279.657	55371
279.716	100523
279.776	168947
279.835	53625
279.894	30177
279.953	24470
280.013	47548
280.072	75828
280.131	60598
280.191	320830
280.250	341121
280.309	80530
280.368	47262
280.428	33854
280.487	22207
280.546	18758
280.605	23871
280.664	26142
280.724	12142
280.783	9780
280.842	8620
280.901	7957
280.960	7330
281.019	6583
281.079	7013
281.138	7184
281.197	9168
281.256	40663
281.315	26083
281.374	8909
281.433	6698
281.492	6910
281.551	5489
281.611	5872
281.670	5578
281.729	5605
281.788	4007
281.847	4770
281.906	4353
281.965	3287
282.024	3422
282.083	3973
282.142	2952
282.201	4635
282.260	15458
282.319	9499
282.378	4402
282.436	6602
282.495	22555
282.554	11640
282.613	4329
282.672	4209
282.731	5141
282.790	5231
282.849	4676
282.908	2884
282.967	2484
283.025	3664
283.084	6123
283.143	14618
283.202	28688
283.261	8006
283.319	4570
283.378	4244
283.437	4373
283.496	8089
283.555	6361
283.613	4345
283.672	3627
283.731	9430
283.790	10022
283.848	4016
283.907	4757
283.966	7438
284.024	8171
284.083	4980
284.142	5149
284.201	4987
284.259	8021
284.318	32940
284.376	25597
284.435	8888
284.494	10816
284.552	8759
284.611	7958
284.670	8984
284.728	10047
284.787	16169
284.845	15333
284.904	15106
284.962	21074
285.021	42215
285.079	147641
285.138	568285
285.197	493877
285.255	152408
285.314	71563
285.372	44361
285.431	30557
285.489	23656
285.547	18195
285.606	13603
285.664	11204
285.723	9265
285.781	9310
285.840	7458
285.898	5406
285.957	4928
286.015	4360
286.073	3967
286.132	4045
286.190	5531
286.248	4381
286.307	7972
286.365	6557
286.423	3721
286.482	3782
286.540	3267
286.598	5160
286.657	4360
286.715	3913
286.773	5039
286.832	7082
286.890	10508
286.948	4590
287.006	3990
287.064	3031
287.123	4418
287.181	6701
287.239	5258
287.297	5836
287.356	13013
287.414	6703
287.472	5013
287.530	4102
287.588	4047
287.646	5246
287.704	6898
287.763	4210
287.821	4822
287.879	7019
287.937	10296
287.995	28540
288.053	171153
288.111	524596
288.169	188113
288.227	51631
288.285	30092
288.343	21297
288.401	17290
288.459	12211
288.517	9553
288.575	7274
288.633	5894
288.691	4407
288.749	4253
288.807	3745
288.865	4036
288.923	4675
288.981	3072
289.039	2549
289.097	2990
289.155	3407
289.213	4212
289.271	4056
289.329	3906
289.386	6208
289.444	6469
289.502	3526
289.560	2310
289.618	1388
289.676	2125
289.734	2225
289.791	2240
289.849	2970
289.907	3751
289.965	2108
290.022	2507
290.080	2693
290.138	3053
290.196	1860
290.253	723
290.311	1171
290.369	1223
290.427	-363
290.484	877
290.542	1012
290.600	2177
290.657	1944
290.715	3001
290.773	1642
290.830	3794
290.888	1985
290.946	2295
291.003	1707
291.061	2120
291.118	9507
291.176	20502
291.234	5118
291.291	2163
291.349	2294
291.406	2391
291.464	1779
291.521	2778
291.579	1508
291.636	1031
291.694	2942
291.751	6030
291.809	3127
291.866	2060
291.924	2415
291.981	3071
292.039	2379
292.096	1740
292.154	2086
292.211	3067
292.268	7311
292.326	8661
292.383	5486
292.441	4041
292.498	4754
292.555	5736
292.613	8024
292.670	6133
292.727	5128
292.785	17040
292.842	41321
292.899	18764
292.957	6056
293.014	3992
293.071	2914
293.129	3052
293.186	4053
293.243	13628
293.300	10375
293.358	4399
293.415	2977
293.472	4692
293.529	9867
293.586	49685
293.644	97283
293.701	34666
293.758	15255
293.815	14410
293.872	26741
293.929	18595
293.987	9654
294.044	13980
294.101	19694
294.158	14354
294.215	5772
294.272	4529
294.329	5318
294.386	9448
294.443	7001
294.500	3978
294.558	2373
294.615	4372
294.672	21033
294.729	81521
294.786	49488
294.843	35166
294.900	33619
294.957	16901
295.014	9548
295.070	5751
295.127	5133
295.184	5166
295.241	7376
295.298	34201
295.355	60951
295.412	20510
295.469	7930
295.526	9141
295.583	11438
295.640	22810
295.696	41542
295.753	14296
295.810	6141
295.867	5873
295.924	8847
295.981	8714
296.037	4126
296.094	2817
296.151	2970
296.208	2493
296.265	1358
296.321	3130
296.378	5132
296.435	21460
296.492	33623
296.548	22216
296.605	76355
296.662	99864
296.718	30895
296.775	12516
296.832	12834
296.888	27164
296.945	56613
297.002	37798
297.058	13779
297.115	9265
297.172	16893
297.228	82535
297.285	132575
297.341	42358
297.398	15160
297.454	9129
297.511	6685
297.568	6598
297.624	5645
297.681	4074
297.737	3763
297.794	2302
297.850	4015
297.907	3221
297.963	2929
298.020	9637
298.076	31448
298.133	26105
298.189	12839
298.245	31090
298.302	94057
298.358	52486
298.415	29863
298.471	24764
298.527	16972
298.584	10793
298.640	16437
298.697	40338
298.753	26927
298.809	10290
298.866	5480
298.922	5169
298.978	5791
299.035	3847
299.091	3727
299.147	4222
299.203	2925
299.260	5448
299.316	19353
299.372	85144
299.428	74400
299.485	25142
299.541	10252
299.597	8153
299.653	9795
299.710	10139
299.766	6112
299.822	12084
299.878	45817
299.934	48218
299.990	52222
300.046	101325
300.103	46120
300.159	20098
300.215	21655
300.271	20079
300.327	9964
300.383	6495
300.439	4700
300.495	4871
300.551	6337
300.607	21519
300.663	37772
300.719	50247
300.775	69560
300.831	37017
300.887	40673
300.943	29053
300.999	11151
301.055	8753
301.111	8246
301.167	6924
301.223	4188
301.279	4072
301.335	2900
301.391	2102
301.447	3622
301.503	4695
301.559	9192
301.614	8008
301.670	15533
301.726	24471
301.782	16622
301.838	27289
301.894	30303
301.949	85890
302.005	252695
302.061	232149
302.117	93202
302.173	35077
302.228	20308
302.284	19524
302.340	32705
302.396	27177
302.451	25249
302.507	66952
302.563	70742
302.618	33190
302.674	13118
302.730	7567
302.785	5432
302.841	5320
302.897	7146
302.952	12423
303.008	11952
303.064	15738
303.119	17420
303.175	8842
303.230	4384
303.286	3282
303.341	3662
303.397	3186
303.453	2495
303.508	3384
303.564	6670
303.619	22283
303.675	75605
303.730	55427
303.786	20527
303.841	9593
303.897	6350
303.952	10339
304.008	12952
304.063	11968
304.118	21409
304.174	20565
304.229	15866
304.285	7946
304.340	4909
304.372	5060
304.395	5183
304.451	5306
304.463	5119
304.506	4518
304.554	5888
304.562	6144
304.617	15008
304.644	36034
304.672	58040
304.728	83756
304.735	77516
304.783	36806
304.825	19476
304.838	14293
304.894	8017
304.916	7110
304.949	6040
305.004	4775
305.006	4764
305.059	4902
305.097	3562
305.115	2931
305.170	2576
305.188	2587
305.225	2669
305.278	3482
305.280	3527
305.336	3493
305.369	4012
305.391	4339
305.446	5511
305.459	5572
305.501	5867
305.550	5824
305.556	5855
305.612	14874
305.640	32435
305.667	49321
305.722	55615
305.731	52739
305.777	36770
305.821	57071
305.832	62720
305.887	63811
305.912	49186
305.942	28917
305.997	12887
306.002	12297
306.053	8063
306.092	5749
306.108	4949
306.163	4845
306.183	4172
306.218	3121
306.273	3629
306.273	3611
306.328	2694
306.364	3178
306.383	3473
306.438	2633
306.454	2968
306.493	3730
306.545	7662
306.548	7983
306.603	17690
306.635	28144
306.658	35874
306.713	30838
306.725	27558
306.768	14313
306.816	7167
306.823	6285
306.878	3757
306.906	3363
306.933	3412
306.988	3074
306.997	3076
307.043	2659
307.087	2572
307.098	2662
307.152	4047
307.177	4666
307.207	5323
307.262	5363
307.268	5271
307.317	4486
307.358	4987
307.372	5112
307.427	7104
307.448	11389
307.482	19382
307.536	25391
307.538	25049
307.591	14049
307.629	8972
307.646	6761
307.701	4636
307.719	4978
307.756	6502
307.809	10003
307.810	10080
307.865	7769
307.900	6816
307.920	6151
307.975	5597
307.990	6840
308.029	11315
308.080	31542
308.084	34168
308.139	117008
308.170	129269
308.194	131544
308.248	75079
308.261	70437
308.303	44264
308.351	24248
308.358	22896
308.412	13113
308.441	10118
308.467	8118
308.522	5647
308.531	5370
308.576	4693
308.621	4686
308.631	4750
308.686	6486
308.712	8513
308.740	10964
308.795	10025
308.802	9835
308.849	6861
308.892	5385
308.904	5330
308.959	5684
308.982	7560
309.013	10396
309.068	19339
309.072	20901
309.122	42629
309.162	89287
309.177	114167
309.231	215535
309.253	208319
309.286	157035
309.340	80440
309.343	78460
309.395	38438
309.433	18396
309.449	15943
309.504	12066
309.523	11900
309.558	13391
309.613	21744
309.613	21802
309.667	28542
309.703	26506
309.722	22492
309.776	13075
309.793	11040
309.830	9307
309.883	10756
309.885	10913
309.939	22357
309.973	26115
309.994	26956
310.048	22212
310.063	20737
310.102	12629
310.153	5417
310.157	5223
310.211	3856
310.243	3073
310.265	2635
310.320	1910
310.333	1709
310.374	1671
310.423	1793
310.428	1729
310.483	1374
310.513	1132
310.537	1211
310.591	1452
310.603	1474
310.646	1188
310.693	792
310.700	741
310.754	655
310.783	490
310.808	424
310.862	438
310.873	439
310.917	499
310.963	830
310.971	886
311.025	1228
311.053	1241
311.079	1273
311.133	1449
311.143	1469
311.188	1182
311.233	951
311.242	919
311.296	867
311.323	822
311.350	823
311.404	773
311.413	780
311.458	636
311.503	499
311.512	507
311.567	581
311.593	690
311.621	1052
311.675	1529
311.683	1621
311.729	1420
311.772	1256
311.783	1196
311.837	864
311.862	751
311.891	788
311.945	846
311.952	866
311.999	784
312.042	733
312.053	676
312.107	456
312.132	367
312.222	1148
312.311	843
312.401	641
312.491	620
312.581	1857
312.671	824
312.760	114
312.850	-315
312.940	874
313.030	891
313.119	892
313.209	143
313.299	214
313.389	487
313.478	787
313.568	498
313.658	822
313.747	-251
313.837	77
313.927	533
314.016	674
314.106	146
314.195	552
314.285	840
314.375	1277
314.464	200
314.554	359
314.643	403
314.733	595
314.823	548
314.912	125
315.002	1045
315.091	1308
315.181	627
315.270	1352
315.360	1145
315.449	639
315.539	536
315.628	834
315.718	1380
315.807	4410
315.896	9005
315.986	2222
316.075	1799
316.165	1766
316.254	1152
316.344	550
316.433	774
316.522	376
316.612	1704
316.701	1184
316.790	639
316.880	689
316.969	20
317.058	407
317.148	678
317.237	652
317.326	421
317.415	-149
317.505	1274
317.594	714
317.683	625
317.772	1581
317.862	7315
317.951	15871
318.040	3881
318.129	3424
318.219	1174
318.308	3658
318.397	4504
318.486	3913
318.575	3862
318.664	4493
318.754	817
318.843	1134
318.932	330
319.021	805
319.110	3751
319.199	7511
319.288	5244
319.377	2128
319.466	298
319.555	980
319.644	2948
319.733	2968
319.822	3
319.911	4777
320.000	9754
320.089	2432
320.178	89
320.267	744
320.356	866
320.445	1130
320.534	728
320.623	656
320.712	732
320.801	19
320.890	831
320.979	1725
321.068	2389
321.157	3814
321.245	2761
321.334	2916
321.423	5875
321.512	2129
321.601	2282
321.690	2557
321.779	1201
321.867	1714
321.956	3482
322.045	1252
322.134	2676
322.222	6901
322.311	2646
322.400	1196
322.489	3712
322.577	9509
322.666	2232
322.755	4164
322.843	3127
322.932	1988
323.021	1176
323.110	1872
323.198	-72
323.287	1640
323.375	3617
323.464	7569
323.553	2912
323.641	6949
323.730	2362
323.819	1361
323.907	5053
323.996	2080
324.084	618
324.173	3414
324.261	1878
324.350	1533
324.438	1965
324.527	1166
324.615	512
324.704	2651
324.792	3354
324.881	1505
324.969	544
325.058	874
325.146	614
325.235	2187
325.323	1605
325.412	1564
325.500	60
325.588	519
325.677	-475
325.765	656
325.853	536
325.942	701
326.030	629
326.118	-252
326.207	158
326.295	-178
326.383	-339
326.472	1819
326.560	1489
326.648	-509
326.737	-832
326.825	224
326.913	-355
327.001	629
327.090	649
327.178	720
327.266	515
327.354	2209
327.442	1473
327.531	-177
327.619	-21
327.707	-165
327.795	-17
327.883	613
327.971	-221
328.060	-97
328.148	-83
328.236	312
328.324	-5
328.412	860
328.500	585
328.588	1639
328.676	3515
328.764	1108
328.852	-220
328.940	636
329.028	147
329.116	676
329.204	1332
329.292	199
329.380	-483
329.468	25
329.556	-440
329.644	129
329.732	-342
329.820	347
329.908	-260
329.996	211
330.084	90
330.172	6528
330.259	12656
330.347	3632
330.435	987
330.523	1757
330.611	4583
330.699	1418
330.787	59
330.874	366
330.962	241
331.050	-431
331.138	-604
331.226	-359
331.313	-819
331.401	1192
331.489	259
331.577	-169
331.664	191
331.752	-372
331.840	-331
331.927	-130
332.015	147
332.103	403
332.190	375
332.278	1685
332.366	707
332.453	-120
332.541	-179
332.629	94
332.716	290
332.804	-126
332.891	865
332.979	1573
333.066	224
333.154	1559
333.242	1930
333.329	-113
333.417	132
333.504	769
333.592	1697
333.679	3124
333.767	902
333.854	-678
333.942	47
334.029	1567
334.117	3855
334.204	6913
334.291	1356
334.379	1508
334.466	1338
334.554	418
334.641	62
334.728	212
334.816	1647
334.903	12812
334.990	8786
335.078	2523
335.165	-679
335.252	720
335.340	287
335.427	5406
335.514	2320
335.602	-171
335.689	-365
335.776	418
335.863	103
335.951	870
336.038	4425
336.125	12629
336.212	5777
336.299	1398
336.387	793
336.474	467
336.561	194
336.648	1091
336.735	327
336.822	279
336.910	-76
336.997	2707
337.084	6819
337.171	7157
337.258	6158
337.345	1272
337.432	246
337.519	67
337.606	-335
337.693	3199
337.780	3182
337.867	1226
337.954	691
338.041	1639
338.128	-515
338.215	742
338.302	2192
338.389	3855
338.476	624
338.563	2931
338.650	1126
338.737	778
338.824	747
338.911	1071
338.998	-96
339.085	-960
339.171	-319
339.258	1724
339.345	367
339.432	1302
339.519	441
339.606	-628
339.692	349
339.779	-184
339.866	416
339.953	1012
340.040	-297
340.126	534
340.213	189
340.300	-173
340.387	76
340.473	2
340.560	235
340.647	1955
340.733	5022
340.820	430
340.907	14
340.993	396
341.080	-80
341.167	307
341.253	1335
341.340	1710
341.426	423
341.513	160
341.600	-29
341.686	518
341.773	1394
341.859	956
341.946	-171
342.032	-729
342.119	-173
342.205	673
342.292	100
342.378	308
342.465	786
342.551	346
342.638	3444
342.724	3960
342.811	929
342.897	271
342.984	-1112
343.070	-900
343.156	-321
343.243	-277
343.329	48
343.416	-142
343.502	-99
343.588	70
343.675	-26
343.761	100
343.847	-415
343.934	4876
344.020	45793
344.106	41771
344.193	3493
344.279	3208
344.365	13521
344.451	4845
344.538	948
344.624	939
344.710	-269
344.796	-232
344.882	-858
344.969	128
345.055	192
345.141	-48
345.227	102
345.313	-18
345.399	48
345.486	-697
345.572	-478
345.658	-266
345.744	-491
345.830	101
345.916	-93
346.002	137
346.088	-539
346.174	-164
346.260	68
346.346	-81
346.432	-28
346.518	11415
346.604	13858
346.690	569
346.776	-413
346.862	-582
346.948	-1338
347.034	219
347.120	438
347.206	-7
347.292	-1322
347.378	1020
347.464	10634
347.549	21717
347.635	13346
347.721	4220
347.807	77
347.893	-467
347.979	-954
348.065	-162
348.150	-95
348.236	-147
348.322	-390
348.408	218
348.493	-725
348.579	58
348.665	-506
348.751	1071
348.836	-495
348.922	2059
349.008	18956
349.094	12640
349.179	349
349.265	-179
349.351	-121
349.436	272
349.522	-198
349.608	-157
349.693	3110
349.779	9928
349.864	670
349.950	-228
350.036	-148
350.121	-126
350.207	-1076
350.292	-610
350.378	-592
350.463	-101
350.549	-272
350.634	271
350.720	93
350.805	-94
350.891	-737
350.976	-174
351.062	120
351.147	610
351.233	21
351.318	4638
351.404	3687
351.489	423
351.574	-1028
351.660	59
351.745	-283
351.830	-167
351.916	44
352.001	845
352.086	6306
352.172	2221
352.257	-102
352.342	-124
352.428	414
352.513	3456
352.598	10848
352.684	1935
352.769	236
352.854	-442
352.939	258
353.024	-732
353.110	143
353.195	1717
353.280	787
353.365	399
353.450	-202
353.536	-499
353.621	1118
353.706	678
353.791	91
353.876	51
353.961	-583
354.046	1250
354.131	2467
354.216	1271
354.302	-593
354.387	-261
354.472	-488
354.557	-70
354.642	-168
354.727	1863
354.812	1015
354.897	-305
354.982	-799
355.067	-1012
355.152	-1185
355.237	-413
355.321	-229
355.406	1859
355.491	3909
355.576	459
355.661	1058
355.746	3188
355.831	11433
355.916	2670
356.001	-180
356.085	-447
356.170	-417
356.255	-441
356.340	579
356.425	5782
356.509	29813
356.594	8626
356.679	-205
356.764	902
356.849	1484
356.933	29422
357.018	43024
357.103	4695
357.187	695
357.272	551
357.357	978
357.441	497
357.526	335
357.611	-392
357.695	230
357.780	2601
357.865	3028
357.949	2197
358.034	25993
358.118	52370
358.203	6252
358.288	728
358.372	456
358.457	8950
358.541	14443
358.626	9574
358.710	7730
358.795	396
358.879	1136
358.964	784
359.048	-943
359.133	90
359.217	401
359.302	2185
359.386	854
359.470	973
359.555	-301
359.639	-537
359.724	-582
359.808	422
359.892	-740
359.977	-1101
360.061	5
360.145	-128
360.230	430
360.314	927
360.398	-117
360.483	3411
360.567	2308
360.651	4558
360.735	1782
360.820	23373
360.904	20591
360.988	3657
361.072	335
361.157	239
361.241	-480
361.325	53
361.409	-378
361.493	446
361.577	73
361.662	770
361.746	3985
361.830	33364
361.914	15661
361.998	943
362.082	1447
362.166	1595
362.250	965
362.334	2942
362.418	3839
362.502	550
362.586	75
362.671	-556
362.754	-603
362.839	1114
362.922	574
363.006	13525
363.090	39543
363.174	20081
363.258	1687
363.342	443
363.426	1948
363.510	7659
363.594	1941
363.678	802
363.762	-43
363.846	1005
363.929	-755
364.013	1437
364.097	8
364.181	2868
364.265	9976
364.349	9928
364.432	19027
364.516	4102
364.600	2029
364.684	10032
364.767	30622
364.851	6115
364.935	1911
365.019	1080
365.102	1664
365.186	379
365.270	4393
365.353	7033
365.437	-104
365.521	-567
365.604	-1030
365.688	923
365.771	-741
365.855	-715
365.939	-249
366.022	646
366.106	-1279
366.189	-941
366.273	329
366.357	155
366.440	-47
366.524	-146
366.607	-344
366.691	-697
366.774	-725
366.858	-155
366.941	705
367.024	435
367.108	19
367.191	698
367.275	-551
367.358	-1031
367.442	-63
367.525	-914
367.608	88
367.692	-142
367.775	1202
367.858	1224
367.942	12724
368.025	5457
368.108	-109
368.192	1111
368.275	1880
368.358	822
368.442	791
368.525	1871
368.608	1573
368.691	11074
368.775	6042
368.858	343
368.941	1014
369.024	638
369.107	-660
369.190	-447
369.274	-865
369.357	982
369.440	-71
369.523	310
369.606	-1656
369.689	1029
369.772	-444
369.855	-256
369.939	-851
370.022	388
370.105	-243
370.188	1414
370.271	398
370.354	1182
370.437	3709
370.520	20592
370.603	7399
370.686	1539
370.769	5226
370.852	12231
370.935	11107
371.018	1754
371.100	-627
371.183	805
371.266	-12
371.349	-870
371.432	-726
371.515	-7
371.598	570
371.681	1195
371.763	1176
371.846	3563
371.929	39965
372.012	28658
372.095	4494
372.177	13004
372.260	15133
372.343	2081
372.426	1561
372.508	1783
372.591	828
372.674	8631
372.757	13806
372.839	2069
372.922	3108
373.005	3129
373.087	772
373.170	2074
373.253	11133
373.335	15550
373.418	45446
373.500	37184
373.583	10831
373.666	46652
373.748	17472
373.831	1505
373.913	451
373.996	1230
374.078	4155
374.161	1772
374.243	5165
374.326	11429
374.408	4767
374.491	34749
374.573	37691
374.656	4750
374.738	14675
374.821	30452
374.903	50523
374.985	16313
375.068	1522
375.150	763
375.233	5534
375.315	3892
375.397	295
375.480	-295
375.562	290
375.644	141
375.727	14733
375.809	33739
375.891	6792
375.973	1074
376.056	1461
376.138	423
376.220	689
376.302	18231
376.385	19206
376.467	2628
376.549	2266
376.631	10110
376.713	17551
376.795	1555
376.878	-714
376.960	101
377.042	-391
377.124	-327
377.206	-324
377.288	-600
377.370	-186
377.452	-419
377.534	-296
377.616	-420
377.699	-1263
377.781	-646
377.863	-860
377.945	-332
378.027	-1063
378.109	-43
378.190	-689
378.272	130
378.354	-573
378.436	-1003
378.518	-611
378.600	1028
378.682	2802
378.764	8673
378.846	528
378.928	994
379.010	537
379.091	240
379.173	-185
379.255	-232
379.337	388
379.419	6845
379.501	8678
379.582	433
379.664	-6
379.746	2244
379.828	8733
379.909	10652
379.991	3373
380.073	62
380.155	-724
380.236	-829
380.318	-1089
380.400	-174
380.481	567
380.563	329
380.645	1252
380.726	-29
380.808	252
380.889	-213
380.971	-1283
381.053	-364
381.134	160
381.216	4047
381.297	6114
381.379	1250
381.460	5239
381.542	27429
381.623	7924
381.705	537
381.786	201
381.868	1664
381.949	21878
382.031	38555
382.112	7775
382.193	29
382.275	2206
382.356	12525
382.438	17686
382.519	33159
382.600	22095
382.682	10342
382.763	19934
382.844	17961
382.926	22689
383.007	4797
383.088	9602
383.170	61791
383.251	32440
383.332	17542
383.413	22676
383.495	3651
383.576	1942
383.657	6725
383.738	58079
383.820	79475
383.901	13551
383.982	20680
384.063	24061
384.144	4807
384.225	533
384.306	1048
384.388	-402
384.469	151
384.550	365
384.631	47
384.712	787
384.793	-192
384.874	1333
384.955	9817
385.036	2743
385.117	-211
385.198	727
385.279	372
385.360	202
385.441	-74
385.522	5490
385.603	19960
385.684	4074
385.765	514
385.846	2942
385.927	35581
386.008	18697
386.089	528
386.169	369
386.250	575
386.331	-243
386.412	572
386.493	6224
386.574	2786
386.654	-616
386.735	-191
386.816	229
386.897	-653
386.977	358
387.058	-54
387.139	1891
387.220	7912
387.300	2214
387.381	999
387.462	196
387.542	971
387.623	50
387.704	5028
387.784	21977
387.865	10755
387.946	1102
388.026	-367
388.107	-1775
388.187	790
388.268	817
388.349	-282
388.429	1220
388.510	6668
388.590	27931
388.671	11578
388.751	4789
388.832	4902
388.912	614
388.993	-819
389.073	-244
389.154	-431
389.234	-910
389.314	432
389.395	-1247
389.475	5827
389.556	6400
389.636	1224
389.716	1146
389.797	459
389.877	7194
389.957	11429
390.038	1024
390.118	-442
390.198	4170
390.279	6092
390.359	633
390.439	4481
390.519	8997
390.600	4234
390.680	1198
390.760	305
390.840	-800
390.920	-900
391.001	-1321
391.081	533
391.161	-780
391.241	-1038
391.321	250
391.401	370
391.481	-201
391.562	-1244
391.642	552
391.722	448
391.802	817
391.882	357
391.962	8217
392.042	2785
392.122	1187
392.202	6416
392.282	8483
392.362	938
392.442	813
392.522	-103
392.602	1384
392.682	5343
392.762	11606
392.842	4008
392.921	7792
393.001	15346
393.081	5117
393.161	10177
393.241	65409
393.321	204363
393.401	71794
393.480	11486
393.560	4163
393.640	2076
393.720	807
393.800	-207
393.879	1188
393.959	1004
394.039	646
394.119	1072
394.198	1905
394.278	25009
394.358	96576
394.437	25129
394.517	2103
394.597	693
394.676	517
394.756	3319
394.836	2757
394.915	88
394.995	433
395.075	149
395.154	-195
395.234	-206
395.313	70
395.393	-1317
395.472	855
395.552	1537
395.631	5576
395.711	3898
395.790	3947
395.870	1419
395.949	2913
396.029	33326
396.108	121100
396.188	34987
396.267	4338
396.346	2334
396.426	384
396.505	2443
396.585	2796
396.664	8936
396.743	77244
396.823	138581
396.902	35633
396.981	5594
397.061	2119
397.140	-263
397.219	571
397.298	3578
397.378	1885
397.457	-168
397.536	168
397.615	-2310
397.694	1051
397.774	148
397.853	-1257
397.932	-615
398.011	-172
398.090	1083
398.169	1743
398.249	-430
398.328	-80
398.407	-125
398.486	-899
398.565	54
398.644	-1129
398.723	-835
398.802	-956
398.881	1657
398.960	3329
399.039	-418
399.118	-1054
399.197	-1050
399.276	-120
399.355	-762
399.434	-1403
399.513	-443
399.592	-1639
399.671	207
399.750	902
399.829	4721
399.908	802
399.986	-961
400.065	-1811
400.144	-1589
400.223	139
400.302	-747
400.380	-1176
400.459	3959
400.538	1648
400.617	-1203
400.696	-488
400.774	-931
400.853	-903
400.932	-428
401.011	-258
401.089	-657
401.168	-341
401.247	-730
401.325	-749
401.404	-143
401.483	-687
401.561	-509
401.640	-1023
401.718	232
401.797	-1186
401.876	-616
401.954	-610
402.033	-417
402.111	-357
402.190	-215
402.268	-705
402.347	-644
402.425	-83
402.504	-1508
402.582	-40
402.661	-1059
402.739	-911
402.818	407
402.896	473
402.974	9385
403.053	14382
403.131	2763
403.210	8385
403.288	10885
403.366	8046
403.445	6154
403.523	-419
403.601	-576
403.680	-1888
403.758	-2
403.836	-1217
403.915	-564
403.993	-1364
404.071	1226
404.149	-678
404.228	-1044
404.306	-350
404.384	761
404.462	6629
404.540	26818
404.618	4612
404.697	-25
404.775	85
404.853	-113
404.931	-1384
405.009	-1122
405.087	-767
405.165	-188
405.243	-1254
405.321	-41
405.399	-1490
405.478	280
405.556	-35
405.634	-477
405.712	-1114
405.790	428
405.868	-114
405.945	-241
406.023	-1504
406.101	-1564
406.179	329
406.257	7195
406.335	14889
406.413	2943
406.491	-497
406.569	-168
406.647	-745
406.724	-154
406.802	-1342
406.880	-895
406.958	406
407.036	701
407.113	13700
407.191	4409
407.269	54
407.347	-382
407.424	-736
407.502	-966
407.580	-381
407.658	1328
407.735	3112
407.813	1237
407.891	-298
407.968	-892
408.046	-1079
408.124	-795
408.201	334
408.279	-286
408.356	-764
408.434	-176
408.512	-596
408.589	-1467
408.667	-744
408.744	-954
408.822	-675
408.899	-1520
408.977	-395
409.054	-1259
409.132	-871
409.209	-239
409.287	-495
409.364	-239
409.441	-278
409.519	69
409.596	-752
409.674	-313
409.751	190
409.828	288
409.906	266
409.983	-1014
410.060	-747
410.138	431
410.215	-1090
410.292	-334
410.370	-708
410.447	-499
410.524	-1036
410.601	403
410.678	47
410.756	-635
410.833	-1361
410.910	381
410.987	-264
411.064	-495
411.142	567
411.219	-345
411.296	-1113
411.373	-1032
411.450	-469
411.527	-199
411.604	-1575
411.681	-815
411.758	101
411.835	-1196
411.913	-1668
411.990	-854
412.067	-887
412.144	-526
412.221	-670
412.298	-526
412.374	-1554
412.451	-888
412.528	-1332
412.605	-939
412.682	-3
412.759	-91
412.836	-686
412.913	-1216
412.990	-1086
413.067	-12
413.143	2326
413.220	1625
413.297	-1547
413.374	571
413.451	-1034
413.527	2
413.604	-431
413.681	-1278
413.758	-65
413.834	-621
413.911	-1262
413.988	-1846
414.065	-1242
414.141	-723
414.218	-144
414.295	3020
414.371	4065
414.448	-740
414.524	-1103
414.601	-672
414.678	-625
414.754	-1001
414.831	-1034
414.907	-460
414.984	-1057
415.060	-680
415.137	-653
415.213	-202
415.290	-474
415.366	197
415.443	-1281
415.519	-363
415.596	-622
415.672	-134
415.749	-1797
415.825	-1170
415.902	-246
415.978	-445
416.054	-244
416.131	-1451
416.207	-1379
416.283	-324
416.360	-1117
416.436	-485
416.512	-1160
416.589	-762
416.665	-1534
416.741	-1097
416.817	-1411
416.894	-810
416.970	-406
417.046	-61
417.122	-643
417.198	-816
417.275	-1037
417.351	-1578
417.427	-1000
417.503	-1135
417.579	-1300
417.655	-1107
417.731	-1112
417.808	-1438
417.884	-868
417.960	-641
418.036	-1468
418.112	219
418.188	-1144
418.264	-324
418.340	377
418.416	-1156
418.492	-803
418.568	-451
418.644	-749
418.720	-223
418.796	-115
418.872	-731
418.947	-1320
419.023	-746
419.099	-326
419.175	-1311
419.251	-684
419.327	-750
419.403	-707
419.478	-647
419.554	-353
419.630	-316
419.706	-698
419.782	788
419.857	-151
419.933	-223
420.009	-1072
420.085	1061
420.160	3047
420.236	1283
420.312	-617
420.387	-863
420.463	-674
420.539	-249
420.614	-1657
420.690	76
420.766	-1989
420.841	438
420.917	-1118
420.992	-747
421.068	-1342
421.143	-878
421.219	-1193
421.294	-160
421.370	-1181
421.445	814
421.521	541
421.596	318
421.672	132
421.747	401
421.823	-1006
421.898	338
421.974	-206
422.049	551
422.124	-145
422.200	703
422.275	1884
422.350	2547
422.426	6236
422.501	23158
422.576	105666
422.652	123049
422.727	33662
422.802	8279
422.878	3670
422.953	1423
423.028	311
423.103	834
423.178	-401
423.254	-520
423.329	-76
423.404	-49
423.479	760
423.554	383
423.630	-333
423.705	-268
423.780	-611
423.855	-120
423.930	-655
424.005	-413
424.080	-887
424.155	-1011
424.230	-1785
424.305	-348
424.380	-1228
424.455	-474
424.530	-975
424.605	-1600
424.680	-1132
424.755	-569
424.830	-780
424.905	-642
424.980	2378
425.055	2287
425.130	-1170
425.204	-218
425.279	-1780
425.354	301
425.429	-1240
425.504	-896
425.579	-1907
425.653	-1815
425.728	-955
425.803	-515
425.878	-930
425.952	900
426.027	2381
426.102	68
426.177	-621
426.251	-389
426.326	-1570
426.401	-437
426.475	-914
426.550	-1091
426.625	-341
426.699	-1440
426.774	-922
426.848	-679
426.923	-1123
426.998	564
427.072	6834
427.147	9323
427.221	592
427.296	-504
427.370	-1199
427.445	-275
427.519	-1385
427.594	-322
427.668	-1058
427.743	-1075
427.817	-635
427.892	-1423
427.966	-1110
428.040	-1155
428.115	-13
428.189	7016
428.263	14864
428.338	1743
428.412	-777
428.486	-511
428.561	-895
428.635	-569
428.709	-1019
428.784	843
428.858	12610
428.932	7517
429.006	1116
429.080	-924
429.155	-1235
429.229	-920
429.303	-491
429.377	741
429.451	-773
429.526	-324
429.600	-1159
429.674	-1417
429.748	956
429.822	10575
429.896	6847
429.970	1307
430.044	1337
430.118	6538
430.192	31666
430.266	10423
430.340	-938
430.414	-159
430.488	935
430.562	1129
430.636	3789
430.710	24351
430.784	11122
430.858	-41
430.932	-1213
431.006	-725
431.080	-805
431.153	-1496
431.227	-1512
431.301	-1637
431.375	332
431.449	-945
431.523	-1020
431.596	-1148
431.670	-852
431.744	3984
431.818	15361
431.891	2549
431.965	-1118
432.039	-1062
432.112	-796
432.186	-986
432.260	-1016
432.333	-919
432.407	-987
432.481	7797
432.554	9614
432.628	912
432.702	-974
432.775	-1444
432.849	-1255
432.922	-655
432.996	-1676
433.069	-1062
433.143	-793
433.216	-1047
433.290	-1601
433.363	-1805
433.437	-829
433.510	-1572
433.584	-1272
433.657	-1802
433.730	-581
433.804	-1605
433.877	-1078
433.951	-1244
434.024	-1177
434.097	-878
434.171	-985
434.244	-614
434.317	-2051
434.391	-849
434.464	-1211
434.537	-812
434.610	-1464
434.684	-1082
434.757	-1326
434.830	-1472
434.903	-967
434.977	-1353
435.050	-1510
435.123	-1086
435.196	-307
435.269	-942
435.342	-1557
435.415	-1086
435.489	-334
435.562	-1314
435.635	-1144
435.708	-1125
435.781	-831
435.854	-488
435.927	-1323
436.000	-1451
436.073	-869
436.146	-1754
436.219	-1279
436.292	-1834
436.365	-1228
436.438	-819
436.511	-1119
436.584	-546
436.657	-1804
436.729	-1302
436.802	-1496
436.875	-833
436.948	-1799
437.021	-1376
437.094	-1402
437.166	-1562
437.239	-688
437.312	-766
437.385	-1065
437.457	-1291
437.530	-530
437.603	-839
437.676	-1519
437.748	-630
437.821	-458
437.894	652
437.966	-456
438.039	-735
438.112	-1793
438.184	103
438.257	11497
438.330	16224
438.402	1462
438.475	-430
438.547	-1237
438.620	-1113
438.692	-281
438.765	-1286
438.837	-740
438.910	-1291
438.982	-643
439.055	-1516
439.127	-858
439.200	-1637
439.272	-2240
439.345	-1271
439.417	-1361
439.489	-1288
439.562	-1752
439.634	-222
439.707	-1861
439.779	-1664
439.851	-1096
439.923	-894
439.996	-1185
440.068	-762
440.140	-1615
440.213	-1440
440.285	-1009
440.357	3602
440.429	9791
440.502	989
440.574	-1353
440.646	143
440.718	-855
440.790	-319
440.862	-446
440.935	-1446
441.007	-1348
441.079	-247
441.151	-1721
441.223	-980
441.295	-1709
441.367	-493
441.439	2576
441.511	554
441.583	-861
441.655	-1131
441.727	-2137
441.799	-1004
441.871	-1361
441.943	-1148
442.015	-1801
442.087	-1039
442.159	-739
442.231	-1245
442.303	-1352
442.374	99
442.446	6429
442.518	9048
442.590	489
442.662	298
442.734	-1429
442.805	-1281
442.877	-1098
442.949	-1083
443.021	-972
443.092	-830
443.164	-1514
443.236	-778
443.308	-253
443.379	7798
443.451	28386
443.523	15750
443.594	991
443.666	-1149
443.737	-1539
443.809	-1527
443.881	-1331
443.952	-761
444.024	-1922
444.095	-101
444.167	-1504
444.238	-782
444.310	-2037
444.381	-1259
444.453	-1374
444.524	-667
444.596	-1315
444.667	-681
444.739	-825
444.810	-981
444.882	-1339
444.953	-477
445.024	-1176
445.096	-226
445.167	-1119
445.238	-18
445.310	1273
445.381	22439
445.452	33896
445.524	14145
445.595	4971
445.666	547
445.737	-349
445.809	-1147
445.880	-1192
445.951	-1592
446.022	-1478
446.094	-153
446.165	-704
446.236	-1268
446.307	-1632
446.378	-1189
446.449	-1450
446.520	-1071
446.591	-1489
446.663	-228
446.734	-1172
446.805	-1635
446.876	-1199
446.947	-1471
447.018	-1306
447.089	-823
447.160	-1350
447.231	-1176
447.302	-1516
447.373	-1215
447.444	-1801
447.514	-1160
447.585	-1741
447.656	-1380
447.727	-1584
447.798	-611
447.869	-1621
447.940	-1382
448.010	-1716
448.081	-1026
448.152	-1108
448.223	-1303
448.294	-1389
448.364	-815
448.435	-1249
448.506	-868
448.577	-1493
448.647	-1381
448.718	-1833
448.789	-1283
448.859	-1189
448.930	-688
449.001	-1171
449.071	-1235
449.142	-1524
449.213	-1470
449.283	-1534
449.354	-891
449.424	-1677
449.495	-1779
449.565	-843
449.636	-1624
449.706	-894
449.777	-916
449.847	-1525
449.918	-1776
449.988	-1416
450.059	-1368
450.129	-1204
450.200	-1077
450.270	-1163
450.340	-1787
450.411	-1298
450.481	-1162
450.551	-2052
450.622	-1569
450.692	-1204
450.762	-1338
450.833	-1439
450.903	-1362
450.973	-1825
451.043	-1134
451.114	-2260
451.184	-1732
451.254	-759
451.324	-586
451.395	-1491
451.465	-817
451.535	-1368
451.605	-1904
451.675	-1984
451.745	-486
451.815	-909
451.885	-1356
451.956	-1833
452.026	-1072
452.096	-1301
452.166	-970
452.236	-738
452.306	-1137
452.376	-2150
452.446	-1315
452.516	-1549
452.586	-422
452.656	-512
452.725	-634
452.795	-1041
452.865	-1367
452.935	-1759
453.005	-1011
453.075	-1654
453.145	-1358
453.215	-251
453.284	-243
453.354	-235
453.424	489
453.494	265
453.564	564
453.633	-1755
453.703	-1334
453.773	-2034
453.843	-713
453.895	-1459
453.912	-1725
453.976	-970
453.982	-923
454.052	-1829
454.057	-1777
454.121	-1529
454.139	-1546
454.191	-1616
454.220	-1457
454.261	-1374
454.301	-1386
454.330	-1439
454.382	-1204
454.400	-1142
454.463	-1508
454.469	-1565
454.539	-1142
454.544	-1110
454.608	-1144
454.625	-1007
454.678	-546
454.707	-278
454.748	-246
454.788	294
454.817	323
454.869	-244
454.887	-381
454.950	-1093
454.956	-1154
455.026	-1209
455.031	-1087
455.095	-204
455.112	-84
455.165	248
455.193	885
455.234	1100
455.274	700
455.303	308
455.355	326
455.373	385
455.436	-178
455.442	-332
455.512	13
455.517	-56
455.581	-882
455.598	-835
455.650	-661
455.679	-745
455.720	-766
455.760	-778
455.789	-908
455.841	-559
455.858	-463
455.922	-737
455.928	-763
455.997	-291
456.003	-222
456.066	250
456.084	234
456.136	544
456.165	836
456.205	589
456.245	441
456.274	282
456.326	104
456.343	91
456.407	-270
456.412	-312
456.482	-4
456.488	58
456.551	174
456.569	22
456.620	30
456.650	112
456.689	-65
456.730	-39
456.758	48
456.811	95
456.827	160
456.892	272
456.897	317
456.966	1992
456.973	2248
457.035	3662
457.054	3801
457.104	1605
457.134	457
457.173	351
457.215	469
457.242	606
457.296	505
457.311	460
457.377	457
457.380	447
457.449	986
457.457	1036
457.518	1753
457.538	2053
457.587	4132
457.619	5110
457.656	6657
457.699	9626
457.725	8441
457.780	5783
457.794	6166
457.861	7049
457.863	7194
457.932	12730
457.941	13627
458.001	13187
458.022	13474
458.070	8989
458.103	5207
458.138	5082
458.183	4354
458.207	4596
458.264	6407
458.276	7430
458.344	12214
458.345	12262
458.414	23602
458.425	25673
458.483	15842
458.506	12352
458.551	9520
458.586	4992
458.620	3230
458.667	2107
458.689	2027
458.747	1668
458.758	1595
458.826	2253
458.828	2250
458.895	1908
458.908	2074
458.964	2866
458.989	2928
459.033	3325
459.069	3468
459.101	3191
459.150	3513
459.170	3566
459.230	3053
459.239	2943
459.307	2504
459.311	2463
459.376	3090
459.391	3269
459.444	3088
459.471	3147
459.513	3274
459.552	2862
459.582	2881
459.632	3296
459.650	3254
459.713	3215
459.719	3204
459.787	2752
459.793	2751
459.856	3014
459.873	2958
459.924	2833
459.954	2959
459.993	4126
460.034	5069
460.061	5791
460.114	6949
460.130	6269
460.195	4060
460.198	4010
460.267	3265
460.275	3101
460.335	4438
460.355	4685
460.404	4788
460.436	5130
460.472	7522
460.516	10326
460.540	10575
460.596	11246
460.609	10049
460.676	3959
460.677	3970
460.745	3403
460.757	3271
460.814	3218
460.837	3247
460.882	4623
460.917	5858
460.950	6157
460.997	6363
461.019	5530
461.077	3277
461.087	3349
461.155	4197
461.158	4179
461.224	3373
461.238	3356
461.292	3341
461.318	3214
461.360	3790
461.398	4294
461.428	4971
461.478	6254
461.496	6750
461.558	8079
461.565	7832
461.633	4920
461.638	4683
461.701	5677
461.719	5693
461.769	5282
461.799	5523
461.837	4908
461.879	3767
461.905	3703
461.959	3911
461.973	4137
462.039	4772
462.042	4826
462.110	5804
462.119	5858
462.178	5816
462.199	5955
462.246	5734
462.279	5299
462.314	6094
462.359	7187
462.382	6527
462.439	4875
462.450	4877
462.518	4754
462.519	4729
462.586	4777
462.599	4784
462.654	5223
462.679	5308
462.722	6070
462.759	6801
462.790	5968
462.839	4407
462.858	4634
462.919	5691
462.926	5625
462.993	4254
462.999	4136
463.061	5785
463.078	6202
463.129	5639
463.158	5309
463.197	5722
463.238	6057
463.265	5638
463.318	4813
463.333	5119
463.398	6201
463.401	6213
463.468	5817
463.478	5717
463.536	7370
463.558	7928
463.604	10019
463.637	11478
463.672	10286
463.717	8556
463.739	8944
463.797	9948
463.807	9705
463.875	7547
463.877	7450
463.943	6603
463.957	6412
464.010	6017
464.036	5778
464.078	6092
464.116	6262
464.146	6955
464.196	7950
464.213	7702
464.275	6799
464.281	6921
464.349	8025
464.355	8072
464.416	7817
464.435	7709
464.484	9689
464.515	10937
464.551	11381
464.594	11714
464.619	10616
464.674	7846
464.686	7738
464.754	6869
464.754	6914
464.821	7843
464.833	7917
464.889	6531
464.913	5961
464.956	6884
464.992	7455
465.024	7898
465.072	8503
465.091	8355
465.152	7865
465.159	8191
465.226	10715
465.231	10837
465.294	14051
465.311	14828
465.361	10976
465.390	8657
465.429	10383
465.470	12142
465.496	11035
465.549	8538
465.563	8456
465.629	7885
465.631	7925
465.698	7666
465.708	7579
465.765	7860
465.788	7929
465.833	8049
465.867	8039
465.900	8512
465.947	9106
465.967	8758
466.026	7540
466.035	7759
466.102	9117
466.106	9144
466.169	8531
466.185	8304
466.236	8395
466.265	8390
466.304	8654
466.344	8817
466.371	9912
466.423	11918
466.438	12698
466.503	15770
466.505	16220
466.572	27125
466.582	28595
466.639	23234
466.662	20973
466.707	17540
466.741	14680
466.774	15216
466.820	15789
466.841	15281
466.900	13491
466.908	13398
466.975	12003
466.979	11853
467.042	12274
467.058	12294
467.109	12298
467.138	12195
467.176	12097
467.217	11867
467.243	11274
467.296	9870
467.310	9901
467.375	9748
467.377	9795
467.455	9348
467.534	10074
467.613	11962
467.692	19247
467.772	17327
467.851	11126
467.930	11434
468.009	18949
468.088	11282
468.167	10042
468.246	12419
468.326	15010
468.405	11138
468.484	8812
468.563	9312
468.642	9559
468.721	9326
468.800	10711
468.879	11206
468.958	15601
469.037	9277
469.116	10516
469.195	7241
469.274	10828
469.353	8782
469.432	9766
469.511	9124
469.590	12185
469.669	11034
469.748	13969
469.827	11827
469.905	13101
469.984	16171
470.063	27447
470.142	47857
470.221	33334
470.300	20069
470.378	14962
470.457	14767
470.536	19804
470.615	16408
470.694	12516
470.772	15469
470.851	16471
470.930	9381
471.008	7806
471.087	8135
471.166	7746
471.245	8421
471.323	9104
471.402	7971
471.480	7854
471.559	8731
471.638	8026
471.716	6975
471.795	9395
471.873	7879
471.952	7754
472.031	11725
472.109	10560
472.188	7750
472.266	8010
472.345	6781
472.423	8728
472.502	9862
472.580	16952
472.659	11476
472.737	11996
472.815	8249
472.894	10114
472.972	9462
473.051	8740
473.129	9170
473.207	10530
473.286	10944
473.364	11588
473.443	17886
473.521	27413
473.599	11290
473.677	9420
473.756	11495
473.834	10018
473.912	9683
473.991	11218
474.069	11232
474.147	11533
474.225	7811
474.303	9672
474.382	11059
474.460	10801
474.538	9440
474.616	10259
474.694	9521
474.772	9444
474.851	9543
474.929	9999
475.007	10269
475.085	11993
475.163	20667
475.241	42486
475.319	14753
475.397	9441
475.475	8829
475.553	12171
475.631	13892
475.709	13430
475.787	14433
475.865	11251
475.943	16216
476.021	30697
476.099	31799
476.177	11037
476.255	9225
476.333	13879
476.410	26833
476.488	28913
476.566	10269
476.644	11661
476.722	8940
476.800	8371
476.877	7131
476.955	8528
477.033	9069
477.111	10047
477.189	7818
477.266	8653
477.344	6904
477.422	8820
477.499	8395
477.577	7010
477.655	8291
477.732	8363
477.810	8605
477.888	8608
477.965	8735
478.043	13219
478.121	29189
478.198	49563
478.276	10525
478.353	8969
478.431	9088
478.508	14049
478.586	9489
478.664	10023
478.741	13081
478.819	14995
478.896	7797
478.974	8943
479.051	8328
479.128	9079
479.206	6797
479.283	7343
479.361	7612
479.438	8573
479.516	7912
479.593	8178
479.670	7565
479.748	8667
479.825	11740
479.902	9929
479.980	8759
480.057	7339
480.134	8274
480.211	9603
480.289	8723
480.366	12518
480.443	8421
480.520	8657
480.598	8115
480.675	9387
480.752	8110
480.829	10745
480.906	10361
480.984	8314
481.061	7232
481.138	7815
481.215	6594
481.292	8787
481.369	5931
481.446	8466
481.523	7681
481.600	8751
481.677	7001
481.754	8268
481.831	9770
481.908	11717
481.985	10635
482.062	17353
482.139	42763
482.216	55943
482.293	11480
482.370	9499
482.447	9032
482.524	9073
482.601	9719
482.678	7619
482.755	7748
482.832	9107
482.908	8125
482.985	9896
483.062	10055
483.139	10303
483.216	9275
483.293	9633
483.369	8010
483.446	9936
483.523	7442
483.600	8283
483.676	9974
483.753	9562
483.830	11767
483.906	16765
483.983	13970
484.060	14729
484.136	14368
484.213	13742
484.290	12451
484.366	10424
484.443	11760
484.519	13983
484.596	11983
484.673	12771
484.749	12309
484.826	11621
484.902	12604
484.979	12667
485.055	12446
485.132	12596
485.208	13548
485.285	16088
485.361	17167
485.437	23071
485.514	16289
485.590	16598
485.667	17881
485.743	26187
485.819	47846
485.896	18897
485.972	13531
486.049	15343
486.125	14661
486.201	16561
486.277	17062
486.354	16670
486.430	15787
486.506	16213
486.583	16138
486.659	19697
486.735	17354
486.811	25007
486.887	42974
486.964	107275
487.040	84596
487.116	32392
487.192	12974
487.268	13418
487.344	17541
487.420	20019
487.497	22947
487.573	51591
487.649	130999
487.725	61272
487.801	17251
487.877	15009
487.953	18866
488.029	17206
488.105	11859
488.181	12602
488.257	14077
488.333	22285
488.409	17650
488.485	16004
488.561	13890
488.637	15386
488.712	23396
488.788	27339
488.864	69174
488.940	162891
489.016	147712
489.092	19734
489.168	10148
489.243	11139
489.319	8903
489.395	8716
489.471	9695
489.547	9233
489.622	7747
489.698	10584
489.774	14289
489.849	18083
489.925	10250
490.001	10065
490.076	12931
490.152	28796
490.228	18588
490.303	10543
490.379	8227
490.455	8382
490.530	8305
490.606	10956
490.681	10440
490.757	13055
490.833	17320
490.908	16252
490.984	12596
491.059	10267
491.135	11771
491.210	16367
491.286	10964
491.361	13420
491.436	11447
491.512	15619
491.587	21701
491.663	44209
491.738	115399
491.814	101941
491.889	260268
491.964	65277
492.040	14046
492.115	12065
492.190	19783
492.266	24216
492.341	11099
492.416	9005
492.491	7879
492.567	11077
492.642	11916
492.717	9788
492.792	9642
492.868	10112
492.943	7526
493.018	8934
493.093	10573
493.168	21048
493.243	35104
493.318	17677
493.394	11369
493.469	9471
493.544	9854
493.619	14383
493.694	25892
493.769	22788
493.844	11931
493.919	9549
493.994	8061
494.069	8693
494.144	7242
494.219	8401
494.294	8196
494.369	9930
494.444	10266
494.519	11933
494.594	7541
494.669	8785
494.744	10002
494.818	10701
494.893	8581
494.968	9625
495.043	10356
495.118	11508
495.193	12266
495.267	15643
495.342	19968
495.417	28859
495.492	77227
495.566	329490
495.641	269416
495.716	20889
495.791	9226
495.865	9927
495.940	8862
496.015	9413
496.089	9544
496.164	8482
496.239	8000
496.313	10326
496.388	13238
496.462	22171
496.537	10785
496.612	13100
496.686	11386
496.761	9336
496.835	11660
496.910	10962
496.984	8327
497.059	9950
497.133	12835
497.208	13017
497.282	10684
497.357	12509
497.431	9705
497.505	11616
497.580	12290
497.654	15644
497.729	18770
497.803	16681
497.877	20556
497.952	48069
498.026	107839
498.100	50296
498.175	40154
498.249	33681
498.323	23620
498.397	31834
498.472	13965
498.546	10813
498.620	10238
498.694	14397
498.768	16836
498.843	19281
498.917	60739
498.991	54539
499.065	9167
499.139	10813
499.213	13478
499.287	13472
499.362	10375
499.436	9826
499.510	10787
499.584	11792
499.658	13471
499.732	30175
499.806	61270
499.880	15667
499.954	20045
500.028	40979
500.102	22597
500.176	13510
500.250	12837
500.324	20575
500.397	48496
500.471	68238
500.545	54243
500.619	30580
500.693	11189
500.767	9661
500.841	9442
500.914	10268
500.988	14637
501.062	26423
501.136	16632
501.210	26372
501.283	50646
501.357	28917
501.431	15057
501.505	14165
501.578	10559
501.652	28038
501.726	25817
501.799	16600
501.873	19757
501.947	13105
502.020	17049
502.094	25822
502.167	17353
502.241	11173
502.315	16286
502.388	14359
502.462	10999
502.535	15658
502.609	13499
502.682	11624
502.756	6315
502.829	7798
502.903	7700
502.976	7430
503.050	6148
503.123	7158
503.196	6835
503.270	6648
503.343	10311
503.417	25174
503.490	26050
503.563	11539
503.637	13884
503.710	18266
503.783	18721
503.857	27055
503.930	40231
504.003	71249
504.076	32405
504.150	11619
504.223	9865
504.296	8802
504.369	5862
504.443	6866
504.516	6609
504.589	7114
504.662	10339
504.735	11069
504.808	25868
504.881	15579
504.954	8922
505.028	16930
505.101	7487
505.174	7629
505.247	6573
505.320	8165
505.393	10303
505.466	16234
505.539	11644
505.612	8965
505.685	4447
505.758	8381
505.831	4927
505.904	7700
505.977	6214
506.049	6074
506.122	6386
506.195	6959
506.268	17042
506.341	28715
506.414	10529
506.487	6521
506.559	7344
506.632	9075
506.705	14947
506.778	11930
506.851	6636
506.923	6541
506.996	8379
507.069	10590
507.141	7704
507.214	8477
507.287	17636
507.360	14600
507.432	6865
507.505	8922
507.577	6732
507.650	7728
507.723	14895
507.795	17560
507.868	7135
507.940	7052
508.013	6525
508.086	5362
508.158	10470
508.231	8127
508.303	5259
508.376	4947
508.448	5936
508.520	4795
508.593	6426
508.665	5969
508.738	6354
508.810	5089
508.883	9285
508.955	9399
509.027	5043
509.100	4947
509.172	4875
509.244	5038
509.317	4882
509.389	5833
509.461	7220
509.534	10740
509.606	8254
509.678	12522
509.750	12425
509.822	6155
509.895	6376
509.967	5246
510.039	5816
510.111	7393
510.183	6714
510.255	6426
510.328	6276
510.400	7720
510.472	6053
510.544	10650
510.616	14747
510.688	7875
510.760	7151
510.832	11138
510.904	12818
510.976	6643
511.048	5217
511.120	5901
511.192	6044
511.264	5861
511.336	4560
511.408	6320
511.480	5423
511.552	4070
511.624	5416
511.695	5984
511.767	5493
511.839	6087
511.911	6394
511.983	6919
512.055	7618
512.126	6875
512.198	10256
512.270	10243
512.342	15402
512.414	12536
512.485	8452
512.557	8967
512.629	8658
512.700	6806
512.772	7288
512.844	6897
512.915	5942
512.987	9397
513.059	9355
513.130	14241
513.202	30753
513.273	16348
513.345	8890
513.416	9046
513.488	8661
513.560	15077
513.631	13662
513.703	18020
513.774	57246
513.845	30376
513.917	7194
513.988	9081
514.060	12258
514.131	14318
514.203	7309
514.274	6061
514.345	9346
514.417	6758
514.488	5961
514.560	8890
514.631	11741
514.702	11272
514.773	10819
514.845	8270
514.916	8464
514.987	8228
515.059	9230
515.130	6820
515.201	8651
515.272	7084
515.343	6048
515.414	6787
515.486	6629
515.557	6588
515.628	5965
515.699	7987
515.770	9845
515.841	8996
515.912	9707
515.983	11890
516.055	21493
516.126	26313
516.197	17030
516.268	19756
516.339	27774
516.410	40856
516.481	80455
516.552	345352
516.622	398661
516.693	48517
516.764	55574
516.835	42321
516.906	57645
516.977	111763
517.048	293386
517.119	1102545
517.190	272291
517.260	34889
517.331	16002
517.402	15876
517.473	14523
517.544	13776
517.614	15478
517.685	18127
517.756	23781
517.827	31626
517.897	41418
517.968	67371
518.039	99954
518.109	236875
518.180	1104718
518.250	1143243
518.321	81091
518.392	25943
518.462	21277
518.533	19540
518.603	21840
518.674	40345
518.745	70303
518.815	27342
518.886	18292
518.956	30464
519.027	46641
519.097	56403
519.168	26561
519.238	12163
519.309	17688
519.379	23955
519.449	13518
519.520	8189
519.590	8103
519.660	7834
519.731	9970
519.801	7892
519.871	6109
519.942	7026
520.012	7343
520.082	15670
520.153	6848
520.223	5217
520.293	9794
520.363	6041
520.434	10920
520.504	8732
520.574	6232
520.644	10704
520.714	19984
520.784	8579
520.855	13784
520.925	14793
520.995	6058
521.065	5616
521.135	4261
521.205	5721
521.275	5794
521.345	12276
521.415	13170
521.485	14873
521.555	10068
521.625	11392
521.695	4701
521.765	5623
521.835	4571
521.905	5226
521.975	4910
522.045	3923
522.115	5934
522.185	7223
522.254	8757
522.324	12524
522.394	12589
522.464	21998
522.534	81272
522.603	73011
522.673	10347
522.743	8512
522.813	12545
522.883	12108
522.952	8998
523.022	13210
523.092	34695
523.161	95359
523.231	15003
523.301	6368
523.370	7486
523.440	6478
523.509	4510
523.579	4893
523.649	3825
523.718	5082
523.788	3809
523.857	4859
523.927	4267
523.996	4674
524.066	6675
524.135	9165
524.205	3928
524.274	3895
524.344	4171
524.413	5208
524.483	3769
524.552	4324
524.621	3264
524.691	4800
524.760	3608
524.830	4114
524.899	7756
524.968	4500
525.038	5441
525.107	4266
525.176	4094
525.245	5021
525.315	5253
525.384	5309
525.453	4252
525.522	4930
525.591	4687
525.661	6465
525.730	6901
525.799	11801
525.868	15157
525.937	23721
526.006	69507
526.076	100088
526.145	39273
526.214	39652
526.283	75499
526.352	72979
526.421	157625
526.490	64105
526.559	40592
526.628	28635
526.697	43399
526.766	153107
526.835	323548
526.904	282558
526.973	29420
527.042	10542
527.110	9173
527.179	13216
527.248	7024
527.317	7627
527.386	4655
527.455	6229
527.523	4049
527.592	4822
527.661	3573
527.730	5396
527.799	4500
527.867	4707
527.936	7622
528.005	15937
528.074	14782
528.142	9947
528.211	24039
528.280	11424
528.348	5536
528.417	3158
528.485	4750
528.554	4951
528.623	2988
528.691	4265
528.760	2287
528.828	4557
528.897	2644
528.965	4004
529.034	3895
529.102	3992
529.171	5117
529.239	4590
529.308	3171
529.376	2067
529.445	5049
529.513	2336
529.581	3466
529.650	5914
529.718	3977
529.786	4355
529.855	4368
529.923	4058
529.992	4771
530.060	10718
530.128	10249
530.196	4940
530.265	3645
530.333	3394
530.401	3874
530.469	2472
530.537	4193
530.606	6189
530.674	2972
530.742	4670
530.810	4482
530.878	4271
530.946	4794
531.014	3404
531.083	4416
531.151	3130
531.219	2810
531.287	4366
531.355	2987
531.423	4720
531.491	6339
531.559	5627
531.627	2880
531.695	5216
531.763	3514
531.831	4916
531.898	4175
531.966	5544
532.034	7154
532.102	6792
532.170	10191
532.238	33048
532.306	45274
532.374	10728
532.441	10285
532.509	13207
532.577	31334
532.645	129625
532.712	80633
532.780	10293
532.848	5766
532.916	4765
532.983	4500
533.051	5453
533.119	5945
533.186	5480
533.254	3400
533.322	3819
533.389	3894
533.457	4393
533.524	4003
533.592	5220
533.659	5194
533.727	4685
533.794	8951
533.862	19242
533.930	16588
533.997	14344
534.064	3525
534.132	5039
534.199	4739
534.267	4782
534.334	4738
534.402	4901
534.469	3904
534.536	5940
534.604	6165
534.671	9341
534.738	20656
534.806	63891
534.873	16843
534.940	5308
535.008	4295
535.075	4021
535.142	5354
535.209	6079
535.276	3968
535.344	4159
535.411	2630
535.478	3722
535.545	4036
535.612	4908
535.679	4198
535.747	4254
535.814	3166
535.881	3305
535.948	4133
536.015	5447
536.082	4641
536.149	5550
536.216	6933
536.283	10781
536.350	17489
536.417	10599
536.484	10697
536.551	16563
536.618	20061
536.685	9941
536.752	11224
536.818	25324
536.885	27088
536.952	38715
537.019	86054
537.086	12903
537.153	4923
537.219	5905
537.286	3275
537.353	3766
537.420	2790
537.487	4234
537.553	4559
537.620	7476
537.687	4149
537.753	3913
537.820	4628
537.887	6459
537.953	3737
538.020	6823
538.087	10203
538.153	24155
538.220	28724
538.286	6030
538.353	5028
538.419	4472
538.486	3423
538.553	4738
538.619	2935
538.685	4752
538.752	4879
538.818	6874
538.885	4270
538.951	5984
539.018	5890
539.084	7851
539.150	9904
539.217	11901
539.283	4415
539.350	5659
539.416	6893
539.482	10222
539.549	34839
539.615	27987
539.681	6400
539.747	6046
539.814	6386
539.880	8679
539.946	8434
540.012	8023
540.078	6848
540.145	9796
540.211	19992
540.277	37452
540.343	18683
540.409	39220
540.475	34671
540.541	4632
540.607	4717
540.673	4744
540.740	6327
540.806	7558
540.872	8273
540.937	18116
541.004	9309
541.069	5423
541.135	5885
541.201	8224
541.267	10442
541.333	21784
541.399	23797
541.465	6972
541.531	4562
541.597	4311
541.663	3868
541.728	3285
541.794	4036
541.860	4803
541.926	4632
541.992	6130
542.057	4760
542.123	10464
542.189	15366
542.255	34470
542.320	16636
542.386	5784
542.452	5292
542.517	5187
542.583	5694
542.648	6612
542.714	8288
542.780	24678
542.845	49782
542.911	8145
542.976	3589
543.042	4219
543.107	5139
543.173	7502
543.238	9232
543.304	26126
543.369	12184
543.435	4437
543.500	1944
543.566	5121
543.631	2539
543.697	3753
543.762	2523
543.827	3893
543.893	2557
543.958	4246
544.023	2545
544.089	5433
544.154	4094
544.219	5303
544.284	7323
544.350	13570
544.415	10220
544.480	15606
544.545	43417
544.610	17786
544.676	3880
544.741	3460
544.806	2713
544.871	4056
544.936	3117
545.001	4588
545.066	4319
545.132	5084
545.197	5273
545.262	7831
545.327	12449
545.392	30090
545.457	26041
545.522	3979
545.587	3935
545.652	2983
545.717	3283
545.781	3441
545.846	3090
545.911	4350
545.976	5668
546.041	4647
546.106	8189
546.171	10910
546.236	7610
546.300	4885
546.365	2924
546.430	4858
546.495	5718
546.559	6106
546.624	3182
546.689	4743
546.754	5270
546.818	5204
546.883	5143
546.948	6563
547.012	4650
547.077	8617
547.142	7845
547.206	9477
547.271	9206
547.335	8772
547.400	9410
547.464	12920
547.529	14514
547.594	9231
547.658	7324
547.722	8603
547.787	8661
547.852	9137
547.916	9172
547.980	11745
548.045	9533
548.109	8664
548.174	9409
548.238	9769
548.302	7183
548.367	7768
548.431	8625
548.495	8497
548.560	9347
548.624	10694
548.688	11254
548.752	9412
548.817	7334
548.881	8449
548.945	6345
549.009	8104
549.073	8089
549.138	8344
549.202	10775
549.266	8918
549.330	8584
549.394	9749
549.458	8555
549.522	10993
549.586	12719
549.650	14731
549.715	12432
549.779	10002
549.843	11747
549.907	12269
549.971	11684
550.034	12342
550.098	10650
550.162	10340
550.226	9547
550.290	11030
550.354	11422
550.418	14283
550.482	13413
550.546	18136
550.609	13674
550.673	13454
550.737	12737
550.801	14667
550.865	14026
550.928	17392
550.992	17727
551.056	20661
551.120	26756
551.183	25258
551.247	16787
551.311	17874
551.374	14955
551.438	13470
551.502	12756
551.565	11817
551.629	12008
551.692	11945
551.756	10609
551.819	11103
551.883	10370
551.946	11305
552.010	11230
552.073	11614
552.137	11350
552.200	10436
552.264	10861
552.327	11108
552.391	12635
552.454	12616
552.517	13749
552.581	14342
552.644	19947
552.708	36703
552.771	27456
552.834	14112
552.897	12323
552.961	12005
553.024	10013
553.087	10220
553.151	10587
553.214	10228
553.277	10482
553.340	11651
553.403	13354
553.466	12317
553.530	10934
553.593	10845
553.656	10576
553.719	10133
553.782	10386
553.845	10638
553.908	8722
553.971	10500
554.034	8756
554.097	9611
554.160	10531
554.223	11042
554.286	10127
554.349	11476
554.412	8638
554.475	10142
554.538	10669
554.601	10716
554.664	9587
554.727	8643
554.789	7937
554.852	7874
554.915	7360
554.978	9510
555.041	8638
555.104	9332
555.166	8514
555.229	9121
555.292	7642
555.354	10437
555.417	8045
555.480	7820
555.542	6484
555.605	8625
555.668	7053
555.730	8506
555.793	7151
555.856	7404
555.918	7026
555.981	7789
556.043	6862
556.106	8937
556.168	8170
556.231	8994
556.293	7274
556.356	8610
556.418	8991
556.481	8057
556.543	8143
556.606	6766
556.668	8335
556.730	9136
556.793	11015
556.855	16019
556.918	6822
556.980	8533
557.042	8776
557.104	16863
557.167	21509
557.229	8196
557.291	6063
557.354	6395
557.416	6261
557.478	10604
557.540	5706
557.602	4601
557.664	4722
557.727	6311
557.789	6296
557.851	6442
557.913	8512
557.975	15140
558.037	35877
558.099	35424
558.161	7546
558.223	8113
558.285	9369
558.347	12413
558.409	16564
558.471	25300
558.533	47949
558.595	51033
558.657	72033
558.719	218795
558.781	192120
558.843	42540
558.905	42892
558.966	14519
559.028	12459
559.090	15048
559.152	21944
559.214	38543
559.275	100056
559.337	144155
559.399	22654
559.461	13825
559.522	14779
559.584	20867
559.646	38106
559.707	107138
559.769	54526
559.831	12904
559.892	13635
559.954	30342
560.015	44890
560.077	20485
560.139	40876
560.200	26994
560.262	4344
560.323	5590
560.385	3130
560.446	2879
560.508	2400
560.569	3899
560.631	2637
560.692	3224
560.753	2434
560.815	3104
560.876	2837
560.937	3310
560.999	3388
561.060	4358
561.122	3522
561.183	4983
561.244	7724
561.305	9143
561.367	15603
561.428	38739
561.489	17269
561.550	3969
561.612	4316
561.673	3141
561.734	2857
561.795	3824
561.856	1739
561.917	3662
561.978	2367
562.039	2877
562.101	3658
562.162	2422
562.223	4234
562.284	6697
562.345	7253
562.406	4124
562.467	2771
562.528	2788
562.589	1351
562.649	4184
562.710	1279
562.771	3004
562.832	2327
562.893	2589
562.954	2580
563.015	2971
563.076	1099
563.136	2635
563.197	1627
563.258	3806
563.319	2890
563.380	2153
563.440	2927
563.501	2520
563.562	2988
563.622	4092
563.683	2960
563.744	3077
563.804	1451
563.865	2458
563.926	1926
563.986	3558
564.047	2428
564.107	2518
564.168	2516
564.229	2835
564.289	3225
564.350	2237
564.410	1995
564.471	2888
564.531	1203
564.591	2156
564.652	1890
564.712	3021
564.773	1008
564.833	3303
564.893	1740
564.954	4064
565.014	1887
565.074	2444
565.135	2316
565.195	2103
565.255	2054
565.316	3170
565.376	2567
565.436	3407
565.496	2895
565.557	2790
565.617	2824
565.677	3566
565.737	7197
565.797	4458
565.857	1803
565.917	3546
565.978	3279
566.038	3041
566.098	4147
566.158	5608
566.218	1760
566.278	3283
566.338	1675
566.398	2847
566.458	2851
566.518	3019
566.578	2649
566.638	3697
566.698	2695
566.757	3038
566.817	2294
566.877	3358
566.937	2014
566.997	3496
567.057	2502
567.116	2755
567.176	2418
567.236	3976
567.296	2802
567.355	3645
567.415	2788
567.475	3446
567.535	2986
567.594	3173
567.654	2872
567.714	3460
567.773	3529
567.833	4305
567.892	4539
567.952	4489
568.012	4921
568.071	8374
568.131	11962
568.190	13526
568.250	8609
568.309	9611
568.369	8501
568.428	7690
568.488	7351
568.547	10265
568.607	10778
568.666	17668
568.725	23837
568.785	17395
568.844	11220
568.903	8132
568.963	6357
569.022	6107
569.081	4383
569.141	4614
569.200	3328
569.259	4309
569.318	2163
569.378	2966
569.437	1110
569.496	2100
569.555	2418
569.614	3362
569.673	3018
569.732	1968
569.792	1387
569.851	1815
569.910	2651
569.969	2618
570.028	3191
570.087	1582
570.146	1953
570.205	3106
570.264	2241
570.323	2606
570.382	2782
570.441	3514
570.500	3020
570.559	2673
570.618	2778
570.676	4749
570.735	3848
570.794	4478
570.853	3281
570.912	2943
570.971	2339
571.029	2911
571.088	2330
571.147	1168
571.206	1876
571.264	1262
571.323	-239
571.382	2074
571.440	1366
571.499	2208
571.558	1890
571.616	2212
571.675	2331
571.733	2196
571.792	2049
571.851	1292
571.909	1577
571.968	2072
572.026	1318
572.085	1529
572.143	1219
572.202	2278
572.260	690
572.319	1173
572.377	1634
572.435	2064
572.494	1302
572.552	2943
572.611	1554
572.669	1421
572.727	1179
572.786	1288
572.844	401
572.902	1569
572.960	1006
573.019	2079
573.077	1360
573.135	1236
573.193	1080
573.251	1168
573.310	1109
573.368	1455
573.426	1424
573.484	1459
573.542	1292
573.600	1535
573.658	1083
573.716	1643
573.774	1088
573.832	2106
573.891	1103
573.948	1360
574.006	1185
574.064	1847
574.122	951
574.180	1567
574.238	1033
574.296	1337
574.354	830
574.412	1363
574.470	428
574.528	1285
574.585	930
574.643	1828
574.701	871
574.759	1123
574.817	1102
574.874	1292
574.932	361
574.990	1332
575.047	694
575.105	1530
575.163	1521
575.221	2823
575.278	102
575.336	2761
575.393	2038
575.451	1269
575.509	549
575.566	1273
575.624	1242
575.681	1517
575.739	398
575.796	2024
575.854	182
575.911	1613
575.969	1657
576.026	1596
576.083	1619
576.141	3158
576.198	3109
576.256	1489
576.313	643
576.370	892
576.428	1792
576.485	1052
576.542	-595
576.599	553
576.657	368
576.714	944
576.771	1057
576.828	708
576.886	968
576.943	1549
577.000	380
577.057	1031
577.114	1972
577.171	1178
577.228	874
577.286	1561
577.343	1447
577.400	1586
577.457	1636
577.514	995
577.571	274
577.628	708
577.685	320
577.742	2046
577.799	696
577.855	1040
577.912	111
577.969	1468
578.026	1239
578.083	1587
578.140	817
578.197	499
578.254	789
578.310	900
578.367	948
578.424	2303
578.481	-140
578.537	1370
578.594	1002
578.651	1907
578.707	-264
578.764	501
578.821	137
578.877	1285
578.934	-466
578.991	945
579.047	849
579.104	1391
579.160	16
579.217	797
579.273	760
579.330	583
579.387	-618
579.443	1667
579.499	1069
579.556	844
579.612	1462
579.669	1539
579.725	1253
579.782	543
579.838	478
579.894	1270
579.951	101
580.007	1088
580.063	647
580.120	464
580.176	540
580.232	997
580.288	1077
580.345	1786
580.401	176
580.457	1345
580.513	738
580.569	1234
580.619	602
580.625	516
580.682	714
580.692	599
580.738	80
580.765	487
580.794	929
580.838	452
580.850	314
580.906	1353
580.911	1360
580.962	1531
580.984	1356
581.018	1096
581.057	687
581.074	506
581.130	1577
581.130	1585
581.186	-297
581.203	145
581.242	1171
581.276	393
581.298	-88
581.349	406
581.354	437
581.410	516
581.422	756
581.466	1746
581.494	1072
581.522	443
581.567	1330
581.577	1518
581.633	899
581.640	840
581.689	508
581.713	508
581.745	449
581.786	258
581.801	206
581.857	839
581.859	829
581.912	597
581.932	148
581.968	-634
582.004	432
582.024	966
582.077	382
582.080	349
582.135	122
582.150	273
582.191	858
582.223	454
582.247	107
582.296	513
582.302	551
582.358	630
582.368	561
582.414	451
582.441	862
582.469	1140
582.514	484
582.525	370
582.581	1445
582.587	1362
582.636	519
582.659	427
582.692	357
582.732	581
582.747	674
582.803	1022
582.805	1019
582.858	1109
582.877	932
582.914	475
582.950	245
582.969	141
583.023	1319
583.025	1368
583.080	1364
583.095	1124
583.135	536
583.168	670
583.191	650
583.240	552
583.246	571
583.302	361
583.313	434
583.357	509
583.385	249
583.412	123
583.458	299
583.468	302
583.523	905
583.531	897
583.578	1043
583.603	838
583.634	501
583.676	646
583.689	658
583.744	1003
583.748	986
583.799	1023
583.820	879
583.854	527
583.893	518
583.910	498
583.965	273
583.965	277
584.020	916
584.038	1010
584.075	1051
584.110	712
584.130	550
584.183	221
584.185	199
584.240	377
584.255	397
584.296	648
584.328	873
584.351	955
584.400	740
584.406	707
584.461	307
584.472	430
584.516	945
584.545	956
584.571	882
584.617	987
584.626	1051
584.681	1257
584.689	1242
584.736	1070
584.762	1020
584.791	923
584.834	921
584.846	926
584.900	1567
584.906	1525
584.955	1111
584.978	1301
585.010	1720
585.051	1572
585.065	1427
585.120	1763
585.123	1752
585.175	1632
585.195	1818
585.230	2327
585.267	2538
585.284	2651
585.339	4612
585.340	4611
585.394	4696
585.412	5548
585.449	7322
585.484	8865
585.503	9823
585.556	13996
585.558	14171
585.613	28084
585.628	28521
585.667	31498
585.700	20208
585.722	12690
585.772	11648
585.777	10937
585.831	5270
585.845	3984
585.886	3550
585.917	2718
585.941	2213
585.989	2099
585.995	2120
586.050	1999
586.061	2104
586.104	2382
586.133	2121
586.159	1923
586.205	1799
586.213	1738
586.268	1641
586.277	1572
586.322	1646
586.349	1922
586.377	2140
586.421	1915
586.431	1794
586.486	1385
586.493	1442
586.540	2152
586.565	1997
586.595	1791
586.637	2190
586.649	2235
586.703	1562
586.709	1565
586.758	1888
586.781	1860
586.812	1735
586.853	2117
586.866	2265
586.921	1664
586.925	1724
586.975	2498
586.996	2164
587.029	1639
587.068	1991
587.083	2145
587.138	2035
587.140	2063
587.192	2611
587.212	2542
587.246	2651
587.284	3071
587.300	3053
587.355	2577
587.356	2567
587.409	2533
587.427	2698
587.463	2947
587.499	2937
587.517	3068
587.571	3329
587.571	3330
587.625	3687
587.643	3758
587.679	3818
587.715	4100
587.733	4217
587.786	3747
587.787	3737
587.841	4119
587.858	4161
587.895	4796
587.930	5333
587.949	5632
588.001	6448
588.003	6466
588.057	7667
588.073	7828
588.111	8451
588.145	9612
588.165	10129
588.217	10933
588.219	11022
588.273	14478
588.288	15305
588.327	17500
588.360	20170
588.381	21880
588.431	27418
588.435	27726
588.489	35077
588.503	37236
588.542	43074
588.575	51016
588.596	56586
588.646	75484
588.650	76735
588.704	103781
588.718	114423
588.757	146534
588.789	183004
588.811	214377
588.861	359332
588.865	373264
588.919	433224
588.932	405360
588.972	311516
589.004	317595
589.026	256003
589.075	153004
589.080	147638
589.133	84690
589.147	69603
589.187	62846
589.218	60920
589.241	63281
589.290	71782
589.294	72635
589.348	93671
589.361	101630
589.401	129994
589.433	181121
589.455	227557
589.504	293464
589.508	301341
589.562	259893
589.576	272226
589.615	198637
589.647	158969
589.669	122462
589.718	41612
589.722	40313
589.776	23591
589.790	19361
589.829	15651
589.861	12794
589.883	11980
589.932	10084
589.936	9950
589.989	8153
590.004	7658
590.043	7124
590.075	6849
590.096	6681
590.146	5938
590.149	5904
590.203	5665
590.218	5514
590.256	5211
590.289	4931
590.309	4850
590.360	4742
590.362	4722
590.416	4346
590.431	4217
590.469	4510
590.503	4783
590.522	4576
590.574	3923
590.575	3931
590.629	4257
590.645	4305
590.682	4359
590.716	4657
590.735	4483
590.787	3473
590.788	3471
590.841	3337
590.859	3261
590.894	3886
590.930	4570
590.947	4427
591.000	3777
591.001	3766
591.053	3853
591.072	3959
591.106	4039
591.143	4050
591.159	4083
591.212	3993
591.214	3996
591.265	4291
591.285	4271
591.318	4070
591.356	3886
591.371	3823
591.424	3515
591.427	3507
591.477	3988
591.498	4058
591.530	3841
591.569	3764
591.583	3736
591.636	3395
591.640	3374
591.689	3554
591.711	3585
591.741	3535
591.782	3529
591.794	3517
591.847	3369
591.853	3355
591.900	3608
591.924	3719
591.953	4000
591.995	4458
592.005	4312
592.058	3404
592.066	3275
592.111	3518
592.137	3648
592.164	3730
592.208	3857
592.216	3842
592.269	3729
592.279	3702
592.322	4206
592.350	4540
592.374	4227
592.421	3638
592.427	3622
592.479	3481
592.491	3456
592.532	3973
592.562	4339
592.585	4265
592.633	4074
592.704	3627
592.775	3836
592.846	3394
592.916	3785
592.987	3922
593.058	4238
593.128	3935
593.199	3889
593.270	4190
593.341	4020
593.411	3277
593.482	4155
593.553	4260
593.623	3705
593.694	3435
593.764	4013
593.835	4085
593.906	3629
593.976	4430
594.047	4183
594.117	4657
594.188	4326
594.258	5365
594.329	4858
594.399	4438
594.470	4974
594.540	5280
594.611	4764
594.681	4836
594.751	4041
594.822	4966
594.892	4535
594.963	4812
595.033	5331
595.103	4112
595.174	4354
595.244	5526
595.314	5235
595.384	5124
595.455	5914
595.525	5943
595.595	6046
595.665	6006
595.736	5734
595.806	6140
595.876	5719
595.946	5920
596.016	5841
596.087	6210
596.157	6940
596.227	6724
596.297	6235
596.367	6568
596.437	7841
596.507	7709
596.577	7699
596.647	7435
596.717	7904
596.787	7795
596.857	7673
596.927	7972
596.997	7640
597.067	8276
597.137	7898
597.207	8242
597.277	8917
597.347	8162
597.417	8189
597.487	8260
597.557	7675
597.626	8607
597.696	8638
597.766	8647
597.836	7331
597.906	8346
597.975	7313
598.045	7254
598.115	7761
598.185	8324
598.254	9251
598.324	10216
598.394	10668
598.464	9396
598.533	9019
598.603	8439
598.672	8084
598.742	8600
598.812	8537
598.881	8944
598.951	8273
599.020	8451
599.090	9315
599.159	9348
599.229	8328
599.299	8962
599.368	9294
599.437	9078
599.507	7972
599.576	8001
599.646	7637
599.715	7755
599.785	8019
599.854	7529
599.924	7324
599.993	7741
600.062	7949
600.132	8015
600.201	7344
600.270	9983
600.340	10126
600.409	9718
600.478	10381
600.547	9784
600.617	9097
600.686	7423
600.755	6787
600.824	6293
600.894	5888
600.963	6384
601.032	6038
601.101	5801
601.170	5193
601.239	5901
601.308	5866
601.378	5630
601.447	6525
601.516	6066
601.585	5956
601.654	5713
601.723	5391
601.792	6154
601.861	5975
601.930	6798
601.999	6522
602.068	6030
602.137	6201
602.206	6158
602.275	6233
602.343	6028
602.412	6879
602.481	6391
602.550	6771
602.619	6889
602.688	7805
602.756	6933
602.825	7139
602.894	7119
602.963	7292
603.032	7382
603.100	6680
603.169	7892
603.238	7377
603.307	7344
603.375	8070
603.444	7547
603.513	7724
603.581	7585
603.650	7751
603.719	7630
603.787	8123
603.856	7919
603.924	7811
603.993	8662
604.061	8267
604.130	9198
604.198	9646
604.267	9586
604.335	8988
604.404	10208
604.472	9859
604.541	10449
604.609	9733
604.678	10788
604.746	11275
604.815	10184
604.883	10682
604.951	10472
605.020	10768
605.088	10901
605.156	10890
605.225	10756
605.293	11942
605.361	11178
605.429	11145
605.498	12145
605.566	11492
605.634	12669
605.702	13280
605.771	13633
605.839	14080
605.907	12232
605.975	12931
606.043	12547
606.111	12631
606.180	12565
606.248	13020
606.316	11647
606.384	12252
606.452	12749
606.520	12130
606.588	12923
606.656	12380
606.724	12488
606.792	11407
606.860	10780
606.928	9493
606.996	8957
607.064	8976
607.132	8560
607.200	9297
607.267	9985
607.335	9469
607.403	9812
607.471	9940
607.539	9707
607.607	10607
607.674	7822
607.742	8489
607.810	8620
607.878	8371
607.946	7711
608.013	8467
608.081	8095
608.149	8769
608.216	9250
608.284	9970
608.352	9708
608.419	9163
608.487	9494
608.555	8276
608.622	9999
608.690	10162
608.757	10561
608.825	11379
608.893	11317
608.960	11145
609.028	9908
609.095	10417
609.163	9442
609.230	9154
609.298	7493
609.365	8495
609.432	9182
609.500	10231
609.567	11884
609.635	13922
609.702	14391
609.769	13879
609.837	10661
609.904	8881
609.971	7782
610.039	9482
610.106	10994
610.173	14200
610.241	26935
610.308	21114
610.375	11007
610.442	8026
610.509	9353
610.577	8888
610.644	8429
610.711	8326
610.778	10032
610.845	9373
610.912	10120
610.980	11328
611.047	10385
611.114	11240
611.181	10580
611.248	10681
611.315	11577
611.382	11408
611.449	10973
611.516	12001
611.583	11687
611.650	11964
611.717	11677
611.784	12130
611.851	12135
611.918	13433
611.984	14709
612.051	18515
612.118	29067
612.185	55879
612.252	45866
612.319	16310
612.386	13638
612.452	13018
612.519	12694
612.586	13548
612.653	13452
612.719	14046
612.786	14101
612.853	11440
612.919	12252
612.986	12312
613.053	12257
613.120	10627
613.186	9976
613.253	11343
613.319	10687
613.386	10350
613.453	10509
613.519	10506
613.586	10710
613.652	11882
613.719	10641
613.785	10897
613.852	10617
613.918	10706
613.985	10972
614.051	11008
614.118	11500
614.184	10966
614.250	9943
614.317	11192
614.383	10760
614.449	10173
614.516	10039
614.582	10733
614.648	10394
614.715	10520
614.781	10430
614.847	10056
614.914	10298
614.980	9429
615.046	10142
615.112	10287
615.179	10111
615.245	10193
615.311	10117
615.377	10089
615.443	10583
615.509	10073
615.575	10980
615.642	10594
615.708	10021
615.774	11056
615.840	12358
615.906	12690
615.972	15639
616.038	19525
616.104	32037
616.170	62725
616.236	62351
616.302	17972
616.368	14200
616.434	11007
616.500	11386
616.565	12009
616.631	13184
616.697	11661
616.763	12210
616.829	13130
616.895	19614
616.961	20650
617.026	12027
617.092	9371
617.158	10592
617.224	9564
617.289	8686
617.355	8883
617.421	7583
617.487	8727
617.552	8315
617.618	7862
617.684	7690
617.749	9283
617.815	7947
617.880	7092
617.946	8062
618.012	8183
618.077	8263
618.143	7991
618.208	7691
618.274	8614
618.339	8295
618.405	6986
618.470	7059
618.536	6483
618.601	6708
618.667	5973
618.732	6039
618.798	5379
618.863	6213
618.928	5385
618.994	5266
619.059	6535
619.124	6327
619.190	6188
619.255	5365
619.320	5840
619.386	5761
619.451	5660
619.516	5549
619.581	5353
619.647	5366
619.712	5551
619.777	5420
619.842	5731
619.907	5007
619.972	5018
620.038	4874
620.103	5106
620.168	4378
620.233	5321
620.298	5594
620.363	5214
620.428	5361
620.493	6182
620.558	6066
620.623	6130
620.688	5814
620.753	5411
620.818	6077
620.883	5395
620.948	6375
621.013	5952
621.078	6064
621.143	4762
621.207	7117
621.272	5785
621.337	4958
621.402	5872
621.467	6121
621.532	6233
621.596	5148
621.661	5305
621.726	5976
621.791	6254
621.855	5620
621.920	5674
621.985	5620
622.049	6325
622.114	4874
622.179	6035
622.243	5105
622.308	5395
622.373	7304
622.437	5851
622.502	5317
622.566	5927
622.631	5595
622.695	6725
622.760	5372
622.824	5797
622.889	5946
622.953	6061
623.018	6824
623.082	7088
623.147	5395
623.211	5916
623.276	6205
623.340	6050
623.404	5156
623.469	5117
623.533	6300
623.597	5203
623.662	5752
623.726	4543
623.790	4375
623.854	4936
623.919	4530
623.983	4945
624.047	5266
624.111	4990
624.176	5329
624.240	4372
624.304	4817
624.368	4587
624.432	5025
624.496	5022
624.560	5620
624.625	5088
624.689	5377
624.753	4705
624.817	5328
624.881	5024
624.945	5194
625.009	3851
625.073	4343
625.137	4035
625.201	4880
625.265	5570
625.329	4525
625.393	5234
625.456	4734
625.520	4482
625.584	4994
625.648	5858
625.712	5037
625.776	5140
625.839	5243
625.903	4457
625.967	2923
626.031	4713
626.095	4903
626.158	4205
626.222	3104
626.286	2695
626.349	2233
626.413	2371
626.477	2903
626.540	2423
626.604	2879
626.668	3283
626.731	2312
626.795	2664
626.858	1856
626.922	2493
626.986	2492
627.049	1886
627.113	1743
627.176	2788
627.240	3011
627.303	2426
627.366	2661
627.430	1694
627.493	2296
627.557	1716
627.620	2211
627.684	2020
627.747	1500
627.810	1281
627.874	2686
627.937	1258
628.000	2458
628.064	1208
628.127	479
628.190	1537
628.253	1409
628.317	919
628.380	1292
628.443	1112
628.506	1586
628.569	1556
628.632	955
628.696	1357
628.759	893
628.822	665
628.885	442
628.948	741
629.011	999
629.074	606
629.137	966
629.200	464
629.263	1276
629.326	366
629.389	159
629.452	154
629.515	709
629.578	243
629.641	473
629.704	388
629.767	217
629.830	1069
629.892	553
629.955	-356
630.018	803
630.081	243
630.144	1067
630.207	-54
630.269	897
630.332	104
630.395	-2
630.458	-94
630.520	17
630.583	403
630.646	288
630.708	-310
630.771	-379
630.834	416
630.896	385
630.959	-26
631.021	-333
631.084	-381
631.146	326
631.209	624
631.272	-61
631.334	423
631.397	380
631.459	122
631.522	473
631.584	3
631.646	326
631.709	201
631.771	548
631.834	357
631.896	831
631.958	135
632.021	850
632.083	-381
632.145	952
632.208	-192
632.270	-447
632.332	-599
632.395	-429
632.457	494
632.519	56
632.581	551
632.643	-224
632.706	509
632.768	-678
632.830	-601
632.892	116
632.954	409
633.016	578
633.078	284
633.141	-141
633.203	-305
633.265	-154
633.327	-233
633.389	-695
633.451	-132
633.513	33
633.575	-544
633.637	-142
633.698	337
633.760	323
633.822	315
633.884	415
633.946	-60
634.008	100
634.070	-277
634.132	463
634.193	-159
634.255	463
634.317	-785
634.379	351
634.441	218
634.502	-460
634.564	-177
634.626	-280
634.687	112
634.749	548
634.811	264
634.873	-246
634.934	817
634.996	-82
635.057	-62
635.119	-541
635.181	-99
635.242	990
635.304	-731
635.365	441
635.427	-66
635.488	-25
635.550	-157
635.611	-504
635.673	-1528
635.734	716
635.796	-685
635.857	977
635.918	-844
635.980	622
636.041	-340
636.102	-55
636.164	480
636.225	460
636.286	-1165
636.348	564
636.409	200
636.470	62
636.531	-3
636.593	-432
636.654	220
636.715	522
636.776	-70
636.838	-1046
636.899	386
636.960	-330
637.021	-473
637.082	-119
637.143	255
637.204	-967
637.265	-168
637.326	-545
637.387	-137
637.448	-283
637.509	162
637.570	-284
637.631	-516
637.692	-1040
637.753	-372
637.814	213
637.875	-691
637.936	-168
637.997	-808
638.058	-197
638.119	-440
638.179	-554
638.240	-528
638.301	202
638.362	-77
638.423	-855
638.483	329
638.544	-1266
638.605	-565
638.666	-1262
638.726	110
638.787	-433
638.848	9
638.908	-593
638.969	-595
639.030	-120
639.090	-610
639.151	-1101
639.211	-273
639.272	-664
639.332	213
639.393	-520
639.453	-1306
639.514	-786
639.574	-45
639.635	-582
639.695	-9
639.756	-1323
639.816	-733
639.877	-1011
639.937	502
639.997	283
640.058	-1118
640.118	-1254
640.178	-927
640.239	-771
640.299	-338
640.359	-577
640.420	-1121
640.480	-380
640.540	-435
640.600	-900
640.661	-350
640.721	-2279
640.781	754
640.841	-1603
640.901	67
640.961	-610
641.021	-287
641.082	-532
641.142	-885
641.202	-984
641.262	-1673
641.322	68
641.382	-1323
641.442	-830
641.502	-1352
641.562	-339
641.622	-112
641.682	-524
641.742	-242
641.802	-552
641.861	-540
641.921	-1187
641.981	-126
642.041	-134
642.101	-534
642.161	-1185
642.221	-818
642.280	-368
642.340	-468
642.400	-997
642.460	-155
642.519	-717
642.579	-527
642.639	-309
642.698	-2207
642.758	763
642.818	-896
642.877	-1176
642.937	-80
642.997	-590
643.056	-731
643.116	-1772
643.175	204
643.235	-521
643.294	-1188
643.354	-872
643.414	-395
643.473	-19
643.532	4
643.592	-638
643.651	649
643.711	2951
643.770	5377
643.830	10561
643.889	29346
643.948	14074
644.008	402
644.067	-134
644.126	-697
644.186	-319
644.245	287
644.304	-1492
644.363	35
644.423	-468
644.482	-22
644.541	-974
644.600	-1082
644.659	-58
644.719	-1332
644.778	81
644.837	-252
644.896	1451
644.955	4512
645.014	2251
645.073	-685
645.132	-1050
645.191	-267
645.250	-1843
645.309	217
645.368	-890
645.427	129
645.486	-1273
645.545	277
645.604	-1053
645.663	-478
645.722	-1397
645.781	-768
645.840	-633
645.898	-766
645.957	390
646.016	-768
646.075	1983
646.134	4074
646.192	9657
646.251	22925
646.310	5439
646.369	-284
646.427	-736
646.486	-1064
646.545	-756
646.603	-605
646.662	-99
646.721	-330
646.779	-1508
646.838	-2155
646.896	-1086
646.955	-333
647.014	-216
647.072	41
647.131	1415
647.189	2019
647.248	-1628
647.306	-367
647.365	-605
647.423	-1854
647.481	251
647.540	-2270
647.598	-857
647.657	-975
647.715	-469
647.773	-1649
647.832	-1198
647.890	-2177
647.948	-1089
648.007	-612
648.065	-2641
648.123	-1134
648.181	394
648.240	-1153
648.298	-1341
648.356	-1645
648.414	-826
648.472	-1143
648.531	-541
648.589	-1366
648.647	-1664
648.705	-918
648.763	-1580
648.821	-1505
648.879	-1045
648.937	-1196
648.995	-1609
649.053	-972
649.111	-1475
649.169	1570
649.227	806
649.285	2306
649.343	8030
649.401	8875
649.459	568
649.516	84
649.574	-1595
649.632	-639
649.690	-623
649.748	-1088
649.806	-2150
649.863	66
649.921	1037
649.979	317
650.037	-48
650.094	-2339
650.152	-1429
650.210	-2144
650.268	-1686
650.325	-765
650.383	-1519
650.440	-1979
650.498	-306
650.556	-1043
650.613	-1138
650.671	-1601
650.728	-1644
650.786	-1692
650.843	-1560
650.901	-1701
650.958	-947
651.016	-283
651.073	-1103
651.131	-2037
651.188	-2645
651.246	-1345
651.303	-1480
651.360	-1246
651.418	-1924
651.475	-1466
651.532	-2005
651.590	-844
651.647	-1991
651.704	-841
651.762	-1843
651.819	-788
651.876	-1905
651.933	-985
651.990	-1109
652.048	-2640
652.105	-1655
652.162	-1673
652.219	-2369
652.276	-1189
652.333	-1696
652.390	-2296
652.448	-1374
652.505	-2400
652.562	-1505
652.619	-1527
652.676	-1311
652.733	-994
652.790	-1533
652.847	-2260
652.904	-1765
652.961	-2478
653.017	-1965
653.074	-541
653.131	-1582
653.188	-2036
653.245	-1973
653.302	-1483
653.359	-1814
653.415	-1562
653.472	-2277
653.529	-838
653.586	-1949
653.642	-1437
653.699	-1183
653.756	-1756
653.813	-1387
653.869	-909
653.926	-1985
653.983	-2565
654.039	-1518
654.096	-1467
654.152	-495
654.209	-2361
654.266	-1535
654.322	-2266
654.379	-1712
654.435	-1049
654.492	-1780
654.548	-1681
654.605	-1740
654.661	-1187
654.717	-1642
654.774	-888
654.830	-1028
654.887	-1182
654.943	-1431
655.000	-719
655.056	-1616
655.112	-1092
655.168	-2081
655.225	-2150
655.281	-1813
655.337	-1618
655.394	-1528
655.450	-1471
655.506	-1230
655.562	-1399
655.618	-545
655.675	-1858
655.731	-1496
655.787	-1701
655.843	-201
655.899	-1773
655.955	-817
656.011	-1308
656.067	-1910
656.123	-1016
656.179	-1633
656.235	-574
656.291	-2280
656.347	-763
656.403	-2802
656.459	-1866
656.515	-1967
656.571	-1407
656.627	-1504
656.683	-1448
656.739	-1286
656.795	-1785
656.850	-1698
656.906	-1326
656.962	-791
657.018	-1764
657.074	-1401
657.129	-1299
657.185	-1526
657.241	-931
657.297	-2121
657.352	-1385
657.408	-1687
657.464	-730
657.519	-1520
657.575	-2328
657.630	-1684
657.686	-1912
657.742	-2884
657.797	-1139
657.853	-1912
657.908	-1211
657.964	-1475
658.019	-1955
658.075	-1738
658.130	-894
658.186	-2724
658.241	-492
658.297	-1783
658.352	-2208
658.407	-1390
658.463	-2726
658.518	-1326
658.573	-1023
658.629	-1822
658.684	-1941
658.739	-1629
658.795	-2005
658.850	-1376
658.905	-2344
658.960	-1344
659.016	-1677
659.071	-2022
659.126	-2059
659.181	-2392
659.236	-915
659.291	-1001
659.346	-1215
659.401	-1673
659.457	-1676
659.512	-1585
659.567	-1258
659.622	-1634
659.677	-1797
659.732	-2944
659.787	-1387
659.842	-2162
659.897	-1503
659.952	-1474
660.007	-1477
660.061	-1879
660.116	-1729
660.171	-2135
660.226	-1009
660.281	-734
660.336	-2187
660.391	-1395
660.445	-2303
660.500	-1672
660.555	-1389
660.610	-1924
660.664	-1109
660.719	-1624
660.774	-2123
660.828	-1466
660.883	-1608
660.938	-1790
660.992	-2609
661.047	-2295
661.101	-1295
661.156	-1259
661.211	-2713
661.265	-1390
661.320	-1453
661.374	-1684
661.429	-1944
661.483	-1219
661.538	-1240
661.592	-2642
661.647	-2035
661.701	-1539
661.755	-1510
661.810	-1013
661.864	-1561
661.919	-2023
661.973	-997
662.027	-2471
662.081	-1956
662.136	-2445
662.190	-1705
662.244	-1099
662.299	-1785
662.353	-1202
662.407	-1956
662.461	-1975
662.515	-1070
662.569	-1887
662.624	-816
662.678	-2204
662.732	-1932
662.786	-1822
662.840	-1382
662.894	-1779
662.948	-2002
663.002	-2272
663.056	-1418
663.110	-1825
663.164	-1296
663.218	-2048
663.272	-995
663.326	-1576
663.380	-2288
663.434	-2093
663.488	-2176
663.542	-1621
663.595	-2055
663.649	-2308
663.703	-1138
663.757	-1721
663.811	-2245
663.864	-1586
663.918	-1285
663.972	-2060
664.026	-1618
664.079	-1825
664.133	-1224
664.187	-1738
664.240	-1255
664.294	-2191
664.348	-1590
664.401	-1368
664.455	-1030
664.508	-2430
664.562	-1496
664.615	-1652
664.669	-2252
664.722	-1765
664.776	-1564
664.829	-1514
664.883	-2313
664.936	-2872
664.990	-1733
665.043	-1514
665.097	-2416
665.150	-1189
665.203	-2158
665.257	-1800
665.310	-1784
665.363	-2542
665.417	-1368
665.470	-1613
665.523	-2492
665.576	-2595
665.630	-2043
665.683	-1812
665.736	-2026
665.789	-1384
665.842	-2002
665.895	-2053
665.949	-1982
666.002	-1680
666.055	-2064
666.108	-1410
666.161	-1321
666.214	-1759
666.267	-1076
666.320	-826
666.373	-1192
666.426	-1610
666.479	-2723
666.532	-1786
666.585	-2170
666.638	-1429
666.691	-2064
666.744	-1571
666.796	-2334
666.849	-1768
666.902	-1631
666.955	-2221
667.008	-2738
667.060	-2305
667.113	-1710
667.166	-1888
667.219	-1739
667.271	-2148
667.324	-1917
667.377	-1829
667.430	-1586
667.482	-1403
667.535	-1311
667.587	-2312
667.640	-1773
667.693	-2268
667.745	-2032
667.798	-996
667.850	-1756
667.903	-2639
667.955	-2335
668.008	-2846
668.060	-1598
668.113	-1821
668.165	-1512
668.218	-2114
668.270	-1567
668.322	-1980
668.375	-1930
668.427	-798
668.479	-2189
668.532	-2012
668.584	-2250
668.636	-2176
668.689	-1224
668.741	-2900
668.793	-1174
668.845	-2683
668.898	-1804
668.950	-1911
669.002	-2068
669.054	-2573
669.106	-2327
669.158	-1588
669.211	-1831
669.263	-1484
669.315	-1116
669.367	-1702
669.419	-2408
669.471	-2056
669.523	-1954
669.575	-1971
669.627	-2315
669.679	-1980
669.731	-2306
669.783	-1859
669.835	-2502
669.886	-1906
669.938	-1896
669.990	-2253
670.042	-2442
670.094	-1765
670.146	-1957
670.197	-1729
670.249	-2352
670.301	-2568
670.353	-1670
670.404	-1451
670.456	-1714
670.508	-1343
670.560	-968
670.611	268
670.663	1702
670.715	5367
670.766	13279
670.818	10574
670.869	221
670.921	-854
670.972	-1840
671.024	-1604
671.075	-1167
671.127	-1915
671.178	-2268
671.230	-1855
671.281	-1718
671.333	-911
671.384	-2249
671.436	-1979
671.487	-2043
671.538	-1881
671.590	-1182
671.641	-533
671.692	-1809
671.744	-784
671.795	261
671.846	-1121
671.897	-1523
671.949	-2318
672.000	-1958
672.051	-1463
672.102	-1372
672.153	-1891
672.204	-739
672.256	-1693
672.307	-1412
672.358	-2026
672.409	-1435
672.460	-1225
672.511	-2318
672.562	-2441
672.613	-2562
672.664	-2102
672.715	-1877
672.766	-1574
672.817	-1578
672.868	-2326
672.919	-2026
672.970	-1684
673.021	-2077
673.071	-1953
673.122	-1583
673.173	-1944
673.224	-1802
673.275	-1781
673.326	-1654
673.376	-1065
673.427	-2951
673.478	-2409
673.528	-1480
673.579	-1717
673.630	-1990
673.680	-994
673.731	-2257
673.782	-1626
673.832	-1502
673.883	-2500
673.934	-2536
673.984	-1949
674.035	-2166
674.085	-2148
674.136	-1915
674.186	-1847
674.237	-1895
674.287	-2123
674.338	-2031
674.388	-1740
674.438	-2594
674.489	-1939
674.539	-2340
674.589	-2713
674.640	-1395
674.690	-1550
674.740	-2041
674.791	-2438
674.841	-1714
674.891	-2348
674.942	-2186
674.992	-1983
675.042	-2190
675.092	-1807
675.142	-1630
675.193	-2212
675.243	-1878
675.293	-2293
675.343	-1687
675.393	-1790
675.443	-1692
675.493	-1611
675.543	-1641
675.593	-2298
675.643	-1454
675.693	-2287
675.743	-2074
675.793	-1002
675.843	-2482
675.893	-2599
675.943	-1764
675.993	-1787
676.043	-1740
676.093	-1825
676.142	-2612
676.192	-1405
676.242	-1927
676.292	-2112
676.341	-2307
676.391	-2517
676.441	-1553
676.491	-2394
676.540	-2491
676.590	-1820
676.640	-2419
676.689	-1868
676.739	-1977
676.789	-1936
676.838	-2116
676.888	-2668
676.937	-2179
676.987	-2197
677.037	-1774
677.086	-2225
677.136	-2191
677.185	-2947
677.235	-2221
677.284	-1995
677.333	-2216
677.383	-2000
677.432	-2542
677.482	-2040
677.531	-1891
677.580	-2877
677.630	-1846
677.679	-1901
677.728	-1953
677.778	-2033
677.827	-2095
677.876	-2263
677.925	-2012
677.975	-2087
678.024	-1939
678.073	-2079
678.122	-2598
678.171	-2258
678.220	-2358
678.269	-2193
678.319	-2488
678.368	-2130
678.417	-1927
678.466	-1925
678.515	-2397
678.564	-2562
678.613	-2411
678.662	-2459
678.711	-2590
678.760	-1748
678.809	-1116
678.857	-2325
678.906	-2608
678.955	-1606
679.004	-1705
679.053	-2140
679.102	-1884
679.151	-1825
679.199	-1787
679.248	-1553
679.297	-1921
679.346	-2459
679.394	-2836
679.443	-1838
679.492	-2240
679.540	-1723
679.589	-2881
679.638	-1987
679.686	-1862
679.735	-1924
679.784	-1956
679.832	-1635
679.881	-2283
679.929	-1937
679.978	-2482
680.026	-2242
680.075	-1704
680.123	-3142
680.172	-2140
680.220	-2072
680.268	-2279
680.317	-2499
680.365	-2784
680.414	-2220
680.462	-2817
680.510	-1621
680.559	-2659
680.607	-1597
680.655	-1975
680.703	-2915
680.752	-2023
680.800	-2689
680.848	-1923
680.896	-2113
680.945	-2181
680.993	-2079
681.041	-2489
681.089	-2069
681.137	-1759
681.185	-2554
681.233	-1920
681.281	-1490
681.308	-1581
681.329	-1665
681.377	-2514
681.425	-2010
681.430	-1970
681.473	-1688
681.521	-2244
681.552	-2003
681.569	-1878
681.617	-2354
681.665	-1660
681.674	-1679
681.713	-1832
681.761	-1929
681.796	-1841
681.809	-1813
681.857	-1470
681.904	-2581
681.918	-2356
681.952	-1803
682.000	-1535
682.039	-2320
682.048	-2492
682.096	-1701
682.143	-1437
682.161	-1579
682.191	-1869
682.239	-1865
682.283	-2138
682.286	-2164
682.334	-1855
682.382	-2058
682.405	-1905
682.430	-1767
682.477	-1195
682.525	-2076
682.527	-2061
682.572	-1886
682.620	-1814
682.648	-1740
682.667	-1719
682.715	-1705
682.763	-2165
682.770	-2042
682.810	-1439
682.857	-1892
682.892	-1961
682.905	-1995
682.952	-1482
683.000	-2441
683.014	-2343
683.047	-2158
683.095	-634
683.135	-1084
683.142	-1157
683.190	-1405
683.237	-1456
683.257	-1238
683.284	-986
683.332	-1176
683.379	-865
683.379	-860
683.426	-640
683.473	-1957
683.501	-1602
683.521	-1337
683.568	-747
683.615	-1160
683.622	-1233
683.662	-1675
683.709	-1047
683.744	-1625
683.757	-1838
683.804	-1125
683.851	-1598
683.865	-1493
683.898	-1244
683.945	-1256
683.987	-949
683.992	-921
684.039	-983
684.086	-1000
684.109	-991
684.133	-998
684.180	-626
684.227	-243
684.230	-271
684.274	-660
684.321	-353
684.352	-1033
684.368	-1387
684.415	-552
684.462	-898
684.473	-906
684.509	-984
684.556	-597
684.595	-466
684.603	-432
684.649	-961
684.696	-1172
684.716	-523
684.743	300
684.790	-780
684.837	-498
684.838	-489
684.883	-125
684.930	-602
684.959	-575
684.977	-535
685.023	-759
685.070	-138
685.081	-207
685.117	-540
685.164	-600
685.202	-534
685.210	-510
685.257	-91
685.303	-497
685.324	-703
685.350	-961
685.396	-1035
685.443	-698
685.445	-662
685.490	238
685.536	-624
685.566	-433
685.583	-367
685.629	-273
685.675	-791
685.688	-697
685.722	-366
685.768	-311
685.809	177
685.815	242
685.861	-58
685.908	-401
685.930	-330
685.954	-264
686.000	-439
686.047	-50
686.052	-115
686.093	-589
686.139	13
686.173	-431
686.185	-581
686.232	67
686.278	-341
686.294	-404
686.324	-440
686.370	-220
686.416	15
686.416	22
686.463	-63
686.509	543
686.537	159
686.555	-38
686.601	-154
686.647	885
686.658	683
686.693	2
686.739	-121
686.779	-75
686.785	-54
686.831	44
686.877	-142
686.900	-8
686.923	100
686.969	31
687.015	160
687.022	101
687.061	-232
687.107	-131
687.143	-125
687.153	-78
687.199	606
687.245	526
687.264	489
687.291	335
687.336	360
687.382	178
687.385	178
687.428	493
687.474	662
687.506	600
687.520	532
687.565	546
687.611	207
687.627	290
687.657	529
687.702	678
687.748	517
687.748	509
687.794	560
687.839	570
687.869	631
687.885	681
687.931	716
687.976	850
687.990	694
688.022	385
688.067	535
688.111	820
688.113	836
688.158	785
688.204	560
688.233	505
688.249	539
688.295	233
688.340	617
688.354	576
688.386	535
688.431	761
688.474	1104
688.477	1125
688.522	419
688.567	664
688.595	444
688.613	405
688.658	875
688.703	1375
688.716	1312
688.749	984
688.794	952
688.837	916
688.839	935
688.884	809
688.930	541
688.958	809
688.975	959
689.020	799
689.065	673
689.079	738
689.110	888
689.155	650
689.200	686
689.201	702
689.246	719
689.291	1083
689.321	1195
689.336	1205
689.381	1236
689.426	893
689.442	829
689.471	780
689.516	1050
689.561	701
689.562	692
689.606	895
689.651	943
689.683	1078
689.696	1148
689.741	1101
689.785	913
689.804	846
689.830	777
689.875	1068
689.920	786
689.925	814
689.965	1186
690.010	1180
690.046	1220
690.054	1235
690.099	1114
690.144	1336
690.166	1039
690.189	800
690.233	799
690.278	1041
690.287	1003
690.323	989
690.367	1116
690.408	937
690.412	939
690.457	975
690.501	1592
690.528	1693
690.546	1700
690.590	1038
690.635	1105
690.649	969
690.680	885
690.724	1129
690.769	1460
690.770	1443
690.813	1303
690.857	1185
690.890	1295
690.902	1411
690.946	865
690.991	1461
691.011	1520
691.035	1631
691.080	1600
691.124	1782
691.132	1849
691.168	2245
691.213	1953
691.252	1823
691.257	1807
691.301	1727
691.346	1809
691.373	1301
691.390	1087
691.434	1508
691.478	1560
691.493	1600
691.522	1743
691.567	1545
691.611	1601
691.614	1583
691.655	1634
691.699	1716
691.734	1692
691.743	1718
691.787	2087
691.831	1815
691.855	1917
691.875	1988
691.919	1774
691.964	1821
691.975	1863
692.008	2137
692.052	1831
692.096	1891
692.096	1870
692.139	2325
692.183	2140
692.216	2022
692.227	1995
692.271	1941
692.315	2038
692.337	1997
692.359	2003
692.403	1952
692.447	1552
692.457	1550
692.490	1791
692.534	1837
692.577	2237
692.578	2263
692.622	2083
692.666	2280
692.698	2317
692.709	2332
692.753	2064
692.797	1858
692.818	1968
692.840	2178
692.884	1959
692.928	1949
692.938	2003
692.971	2325
693.015	2206
693.059	2555
693.059	2531
693.102	2198
693.146	1976
693.179	1712
693.189	1755
693.233	1764
693.276	1906
693.299	2109
693.320	2335
693.363	2322
693.407	2342
693.420	2392
693.450	2465
693.493	2328
693.537	2348
693.540	2336
693.580	2503
693.624	2189
693.660	2084
693.667	2101
693.710	2404
693.753	2049
693.780	2104
693.797	2380
693.840	2943
693.883	3335
693.901	3601
693.926	3783
693.970	3625
694.013	3892
694.021	3854
694.056	3273
694.099	2572
694.141	1918
694.142	1946
694.185	2024
694.229	2084
694.261	2220
694.272	2245
694.315	2324
694.358	2191
694.381	2240
694.401	2378
694.444	2373
694.487	2492
694.501	2460
694.530	2499
694.573	2627
694.616	2796
694.621	2764
694.659	2613
694.702	2717
694.741	2632
694.745	2666
694.787	2685
694.830	2826
694.862	3001
694.873	3050
694.916	2901
694.959	2698
694.982	2655
695.002	2733
695.044	2776
695.087	2790
695.102	2776
695.130	2837
695.172	2771
695.215	2983
695.222	2955
695.258	2802
695.301	2557
695.342	2306
695.343	2342
695.386	2849
695.428	2934
695.462	3087
695.471	3095
695.514	2999
695.556	2821
695.582	2836
695.599	3024
695.641	3115
695.684	3342
695.701	3427
695.726	3598
695.769	3724
695.811	3906
695.821	3933
695.854	3860
695.896	3569
695.938	3364
695.941	3321
695.981	3249
696.023	2992
696.061	2808
696.065	2863
696.108	3164
696.150	3468
696.181	3571
696.192	3649
696.235	3833
696.277	4093
696.301	4194
696.319	4220
696.361	4186
696.404	4218
696.421	4136
696.446	4067
696.488	3952
696.530	3875
696.541	3821
696.572	3816
696.614	3863
696.656	3665
696.660	3628
696.698	3637
696.740	3540
696.780	3366
696.783	3383
696.825	3243
696.867	3050
696.900	2748
696.909	2795
696.951	3024
696.992	3253
697.020	3313
697.034	3391
697.076	3676
697.118	3733
697.139	3822
697.160	3869
697.202	3752
697.244	3760
697.259	3726
697.286	3782
697.327	3765
697.369	3785
697.379	3769
697.411	3898
697.453	3899
697.494	3951
697.499	3915
697.536	3953
697.578	4061
697.618	4113
697.620	4147
697.661	4063
697.703	4003
697.738	3898
697.744	4004
697.786	4455
697.828	4923
697.858	5231
697.869	5298
697.911	5334
697.952	5407
697.977	5411
697.994	5303
698.035	4865
698.077	4492
698.097	4269
698.118	4328
698.160	4373
698.201	4411
698.216	4387
698.243	4464
698.284	4534
698.325	4584
698.336	4564
698.367	4748
698.408	4938
698.449	5082
698.455	5070
698.491	4980
698.532	4776
698.573	4579
698.575	4531
698.614	4581
698.656	4562
698.694	4505
698.697	4557
698.738	4812
698.779	5079
698.814	5260
698.820	5301
698.862	5299
698.903	5293
698.933	5239
698.944	5213
698.985	4970
699.026	4721
699.053	4530
699.067	4566
699.172	4592
699.292	4132
699.411	4925
699.530	4870
699.650	5295
699.769	4341
699.889	4838
700.008	4592
700.127	5877
700.246	4978
700.366	4813
700.485	5190
700.604	4046
700.723	4738
700.843	4490
700.962	4734
701.081	4546
701.200	4921
701.319	5030
701.438	4217
701.557	4358
701.676	4903
701.796	4220
701.915	4378
702.034	4154
702.153	4279
702.272	4522
702.391	4583
702.509	4977
702.628	4426
702.747	4251
702.866	5041
702.985	3796
703.104	3994
703.223	4495
703.342	4584
703.460	4065
703.579	4083
703.698	3919
703.817	3922
703.935	4767
704.054	4118
704.173	4308
704.292	4056
704.410	3616
704.529	3443
704.648	3250
704.766	3962
704.885	4043
705.003	3500
705.122	3737
705.240	3287
705.359	3717
705.477	4367
705.596	4087
705.714	4522
705.833	3729
705.951	3633
706.070	4632
706.188	3819
706.307	3706
706.425	3524
706.543	4549
706.662	4136
706.780	3535
706.898	4410
707.016	4133
707.135	4672
707.253	3473
707.371	4053
707.489	3591
707.608	2987
707.726	3088
707.844	3611
707.962	3878
708.080	4277
708.198	3495
708.316	3940
708.434	4253
708.552	3039
708.670	3373
708.788	3135
708.906	3920
709.024	4025
709.142	3717
709.260	3893
709.378	3732
709.496	3746
709.614	3962
709.732	3214
709.850	3758
709.968	3687
710.085	3976
710.203	3555
710.321	4440
710.439	3249
710.556	3584
710.674	2488
710.792	3413
710.910	3313
711.027	4041
711.145	3541
711.263	3326
711.380	3019
711.498	3002
711.615	3847
711.733	3309
711.851	2702
711.968	3130
712.086	3512
712.203	3496
712.321	3285
712.438	2607
712.555	4324
712.673	3745
712.790	4440
712.908	3950
713.025	3014
713.142	3882
713.260	3639
713.377	3511
713.494	3668
713.612	4004
713.729	4389
713.846	2878
713.963	4135
714.081	3974
714.198	3716
714.315	5259
714.432	4829
714.549	8430
714.666	17234
714.783	81507
714.901	203812
715.018	18966
715.135	5305
715.252	4867
715.369	3356
715.486	3625
715.603	2992
715.720	3743
715.837	2498
715.953	3476
716.070	3437
716.187	3450
716.304	3973
716.421	3777
716.538	3040
716.655	3096
716.771	3435
716.888	3223
717.005	3634
717.122	2215
717.238	3336
717.355	2631
717.472	3117
717.589	3135
717.705	3489
717.822	2264
717.938	2399
718.055	1893
718.172	2586
718.288	2848
718.405	2438
718.521	2197
718.638	2491
718.754	4709
718.871	4412
718.987	2987
719.104	2225
719.220	1920
719.336	3175
719.453	2544
719.569	3121
719.685	2515
719.802	3248
719.918	5128
720.034	6793
720.151	20386
720.267	85917
720.383	24414
720.499	3099
720.616	3149
720.732	4063
720.848	4182
720.964	4276
721.080	3400
721.196	2456
721.312	2660
721.428	2228
721.544	2953
721.660	2713
721.776	2479
721.892	2261
722.008	2738
722.124	2306
722.240	1951
722.356	2223
722.472	2202
722.588	1919
722.704	2597
722.820	2270
722.936	1272
723.051	1418
723.167	1747
723.283	2814
723.399	2034
723.515	2302
723.630	2618
723.746	2305
723.862	2139
723.977	2043
724.093	1454
724.209	2420
724.324	1956
724.440	2439
724.555	2860
724.671	796
724.786	1509
724.902	2360
725.017	1835
725.133	2101
725.248	3083
725.364	2013
725.479	1300
725.595	1926
725.710	1114
725.826	1919
725.941	1731
726.056	1472
726.172	1905
726.287	1160
726.402	1188
726.517	1468
726.633	2020
726.748	1160
726.863	1762
726.978	1416
727.093	1413
727.208	2609
727.324	1655
727.439	1363
727.554	2216
727.669	1655
727.784	1372
727.899	2419
728.014	1536
728.129	2558
728.244	1468
728.359	1014
728.474	1312
728.589	2735
728.704	1849
728.819	1602
728.934	1999
729.049	1222
729.163	1549
729.278	1261
729.393	1795
729.508	1769
729.622	1538
729.737	1258
729.852	1116
729.967	1559
730.081	1914
730.196	2295
730.311	1186
730.425	1284
730.540	954
730.655	1347
730.769	2248
730.884	2443
730.998	1951
731.113	2076
731.227	2738
731.342	1869
731.456	1813
731.571	2198
731.685	1870
731.800	1493
731.914	2336
732.028	3423
732.143	2572
732.257	2464
732.371	3422
732.486	7598
732.600	29239
732.714	45264
732.829	5402
732.943	2737
733.057	2618
733.171	3000
733.285	3007
733.399	3518
733.514	2899
733.628	2701
733.742	2928
733.856	2897
733.970	2672
734.084	1917
734.198	2570
734.312	2297
734.426	3479
734.540	2568
734.654	2838
734.768	2217
734.882	2418
734.996	2621
735.109	3188
735.223	2727
735.337	3175
735.451	2713
735.565	2969
735.679	2535
735.792	2473
735.906	1727
736.020	2394
736.134	2957
736.247	3049
736.361	2127
736.475	2844
736.588	2952
736.702	1746
736.815	2342
736.929	1981
737.043	2273
737.156	2238
737.270	2269
737.383	2313
737.497	2038
737.610	1828
737.723	1408
737.837	1737
737.950	2122
738.064	1591
738.177	2167
738.290	2581
738.404	1681
738.517	1844
738.630	2321
738.744	1103
738.857	2592
738.970	2112
739.083	1534
739.197	1676
739.310	2321
739.423	1888
739.536	1774
739.649	1887
739.762	817
739.875	2327
739.988	2159
740.102	1858
740.215	1748
740.328	1638
740.441	2091
740.553	2338
740.667	2461
740.779	2414
740.892	2027
741.005	1896
741.118	2285
741.231	2201
741.344	2421
741.457	1512
741.569	1732
741.682	2137
741.795	1704
741.908	1591
742.020	1275
742.133	1361
742.246	1262
742.358	1782
742.471	2323
742.584	1576
742.696	1950
742.809	1690
742.922	1076
743.034	1173
743.147	1712
743.259	1078
743.372	1420
743.484	1318
743.597	1988
743.709	1555
743.822	1264
743.934	1250
744.046	1198
744.159	2333
744.271	2063
744.383	976
744.496	2637
744.608	2358
744.720	2140
744.832	1904
744.945	1601
745.057	1343
745.169	1425
745.281	1060
745.393	1497
745.506	1402
745.618	999
745.730	1033
745.842	650
745.954	1147
746.066	1389
746.178	1214
746.290	1445
746.402	1701
746.514	1526
746.626	1318
746.738	1820
746.850	2883
746.962	2693
747.074	1598
747.185	1627
747.297	436
747.409	1144
747.521	1508
747.633	750
747.744	1556
747.856	1361
747.968	998
748.080	682
748.191	985
748.303	1255
748.414	1559
748.526	1119
748.638	1269
748.749	587
748.861	723
748.972	463
749.084	1044
749.195	1138
749.307	1334
749.418	1378
749.530	1899
749.641	1643
749.753	410
749.864	1219
749.975	408
750.087	1529
750.198	777
750.310	1182
750.421	431
750.532	1231
750.643	775
750.755	936
750.866	1318
750.977	1275
751.088	2023
751.199	4049
751.310	597
751.422	971
751.533	1292
751.644	1164
751.755	390
751.866	677
751.977	988
752.088	510
752.199	119
752.310	459
752.421	462
752.532	244
752.643	1441
752.753	347
752.864	1003
752.975	1011
753.086	294
753.197	1166
753.308	378
753.418	-5
753.529	1550
753.640	912
753.751	781
753.861	579
753.972	550
754.083	1232
754.193	508
754.304	916
754.415	1103
754.525	993
754.636	643
754.746	854
754.857	1065
754.967	544
755.078	179
755.188	592
755.299	712
755.409	571
755.520	784
755.630	1410
755.740	562
755.851	472
755.961	563
756.071	467
756.182	847
756.292	830
756.402	567
756.512	800
756.623	248
756.733	933
756.843	124
756.953	1312
757.063	1384
757.173	852
757.283	167
757.393	964
757.504	484
757.614	472
757.724	811
757.834	741
757.944	793
758.053	-13
758.164	524
758.273	995
758.383	676
758.493	1214
758.603	164
758.713	1596
758.823	1545
758.932	566
759.042	797
759.152	989
759.262	909
759.372	1325
759.481	358
759.591	147
759.701	906
759.810	1167
759.920	1273
760.029	532
760.139	1016
760.249	-162
760.358	1350
760.468	561
760.577	554
760.687	1069
760.796	754
760.906	431
761.015	1378
761.124	1015
761.234	534
761.343	1295
761.453	590
761.562	703
761.671	1080
761.781	1051
761.890	608
761.999	1001
762.108	962
762.218	904
762.327	699
762.436	845
762.545	328
762.654	408
762.763	697
762.872	484
762.982	473
763.091	-206
763.200	-86
763.309	798
763.418	864
763.527	686
763.635	484
763.744	284
763.853	730
763.962	486
764.071	950
764.180	58
764.289	994
764.398	856
764.506	630
764.615	657
764.724	105
764.833	638
764.941	317
765.050	906
765.159	1129
765.268	737
765.376	1862
765.485	1848
765.593	1327
765.702	2064
765.810	2299
765.919	3523
766.028	6471
766.136	10419
766.245	23225
766.353	66753
766.461	259585
766.570	441439
766.678	76921
766.787	16831
766.895	8175
767.003	5822
767.112	5012
767.220	2361
767.328	2009
767.437	2242
767.545	1618
767.653	1285
767.761	1369
767.870	1318
767.978	1299
768.086	1591
768.194	1322
768.302	2015
768.410	850
768.518	1609
768.626	1655
768.734	1405
768.842	721
768.950	1349
769.058	1213
769.166	1475
769.274	1841
769.382	3222
769.490	4656
769.598	10015
769.706	23586
769.813	85403
769.921	311650
770.029	168595
770.137	15178
770.245	6051
770.352	4203
770.460	2977
770.568	1993
770.675	2165
770.783	1922
770.891	1430
770.998	1207
771.106	1296
771.213	1123
771.321	1497
771.428	2145
771.536	1513
771.643	1297
771.751	1066
771.858	1728
771.966	1673
772.073	1095
772.181	1386
772.288	1146
772.395	1978
772.503	1242
772.610	2326
772.717	979
772.825	1720
772.932	2321
773.039	1645
773.146	1400
773.253	1536
773.361	1171
773.468	1153
773.575	1386
773.682	771
773.789	734
773.896	1403
774.003	1421
774.110	834
774.217	1174
774.324	1467
774.431	1510
774.538	1471
774.645	1376
774.752	1584
774.859	1145
774.966	1569
775.073	1576
775.179	1109
775.286	996
775.393	1261
775.500	747
775.607	564
775.713	975
775.820	896
775.927	1275
776.033	719
776.140	1284
776.247	1130
776.353	363
776.460	969
776.566	1876
776.673	1689
776.779	1401
776.886	358
776.992	1144
777.099	1669
777.205	2919
777.312	2478
777.418	3801
777.524	3215
777.631	1536
777.737	590
777.843	583
777.950	737
778.056	805
778.162	1426
778.268	466
778.375	729
778.481	551
778.587	1116
778.693	397
778.799	910
778.906	759
779.012	763
779.118	553
779.224	777
779.330	1000
779.436	-505
779.542	360
779.648	2271
779.754	661
779.860	1319
779.966	2163
780.071	5774
780.177	2381
780.283	498
780.389	390
780.495	864
780.601	432
780.706	391
780.812	796
780.918	679
781.024	607
781.129	528
781.235	518
781.341	-405
781.446	336
781.552	597
781.657	804
781.763	509
781.869	508
781.974	340
782.080	1075
782.185	-140
782.291	1181
782.396	636
782.501	1189
782.607	196
782.712	-61
782.818	-108
782.923	283
783.028	570
783.134	-227
783.239	1272
783.344	761
783.449	295
783.555	120
783.660	431
783.765	369
783.870	-228
783.975	252
784.080	794
784.185	-226
784.291	403
784.396	-423
784.501	-367
784.606	650
784.711	982
784.816	104
784.921	-50
785.026	-22
785.130	72
785.235	1014
785.340	-76
785.445	-318
785.550	926
785.655	206
785.760	-41
785.864	-173
785.969	-431
786.074	291
786.178	-737
786.283	744
786.388	-194
786.492	739
786.597	-276
786.702	148
786.806	78
786.911	100
787.015	644
787.120	-610
787.224	-509
787.329	207
787.433	-261
787.538	-541
787.642	-23
787.747	-287
787.851	185
787.955	341
788.060	310
788.164	214
788.268	506
788.372	255
788.477	47
788.581	-214
788.685	-174
788.789	-51
788.894	-357
788.998	-263
789.102	594
789.206	811
789.310	9
789.414	285
789.518	194
789.622	-376
789.726	-616
789.830	173
789.934	-1097
790.038	799
790.142	147
790.246	-115
790.350	-50
790.454	-492
790.557	-734
790.661	-622
790.765	10
790.869	-333
790.973	208
791.076	309
791.180	-410
791.284	2
791.388	484
791.491	141
791.595	185
791.698	-1222
791.802	674
791.906	182
792.009	-166
792.113	-372
792.216	-646
792.320	-214
792.423	-729
792.527	83
792.630	284
792.733	-26
792.837	74
792.940	-359
793.043	11
793.147	-1074
793.250	281
793.353	668
793.457	-736
793.560	5
793.663	410
793.766	58
793.869	202
793.973	-91
794.076	-1470
794.179	184
794.282	329
794.385	-443
794.488	69
794.591	-557
794.694	1144
794.797	2518
794.900	735
795.003	94
795.106	-332
795.209	-68
795.312	50
795.415	107
795.517	-363
795.620	-82
795.723	-491
795.826	-347
795.929	-161
796.031	155
796.134	104
796.237	-998
796.339	447
796.442	-435
796.545	-333
796.647	-398
796.750	-624
796.852	163
796.955	-880
797.057	-128
797.160	-627
797.262	-435
797.365	635
797.467	-1012
797.570	161
797.672	-646
797.775	-858
797.877	-473
797.979	179
798.082	111
798.184	-18
798.286	75
798.388	-846
798.491	46
798.593	-453
798.695	-550
798.797	98
798.899	236
799.001	-1098
799.104	-613
799.206	-587
799.308	115
799.410	167
799.512	136
799.614	-334
799.716	-1092
799.818	279
799.920	-206
800.021	467
800.123	-387
800.225	-310
800.327	-262
800.429	-566
800.531	17
800.633	580
800.734	-1249
800.836	527
800.938	-413
801.039	237
801.141	-290
801.243	-987
801.344	-904
801.446	-820
801.548	-1100
801.649	-255
801.751	-492
801.852	302
801.954	-152
802.055	92
802.157	-523
802.258	-1060
802.360	-1181
802.461	73
802.563	-682
802.664	-646
802.765	164
802.867	295
802.968	-1452
803.069	939
803.170	-560
803.272	-367
803.373	-966
803.474	-127
803.575	-382
803.676	-941
803.777	276
803.879	-858
803.980	-593
804.081	-519
804.182	-572
804.283	-699
804.384	-1808
804.485	-647
804.586	-778
804.687	49
804.788	-729
804.888	-324
804.989	-946
805.090	-252
805.191	-1381
805.292	-378
805.393	390
805.493	-504
805.594	-632
805.695	-1350
805.796	-422
805.896	2
805.997	-374
806.098	-31
806.198	-1077
806.299	-370
806.399	-567
806.500	-517
806.601	-586
806.701	-904
806.802	-438
806.902	-394
807.002	-669
807.103	-913
807.203	-490
807.304	-520
807.404	-220
807.504	43
807.605	-1073
807.705	194
807.805	267
807.906	-155
808.006	-161
808.106	-563
808.206	-309
808.306	-1124
808.406	-572
808.507	-135
808.607	-551
808.707	-785
808.807	-231
808.907	-396
809.007	-244
809.107	-811
809.207	-692
809.307	-254
809.407	-175
809.507	-1104
809.607	-528
809.706	-424
809.806	-942
809.906	-129
810.006	-781
810.106	-871
810.205	102
810.305	-923
810.405	519
810.505	-108
810.604	-1162
810.704	-55
810.804	-730
810.903	-322
811.003	-1119
811.102	-608
811.202	-508
811.301	185
811.401	-889
811.500	-1585
811.600	-825
811.699	-33
811.799	-1629
811.898	-148
811.997	51
812.097	-894
812.196	-572
812.295	-994
812.395	-790
812.494	-857
812.593	-159
812.692	159
812.792	-636
812.891	-165
812.990	-739
813.089	-869
813.188	-549
813.287	-749
813.386	-157
813.485	-549
813.584	-1414
813.683	-964
813.782	-541
813.881	-1301
813.980	-289
814.079	-630
814.178	-409
814.277	-746
814.376	-35
814.475	-776
814.574	183
814.672	-824
814.771	-586
814.870	-664
814.969	-658
815.067	-169
815.166	-1123
815.265	378
815.363	849
815.462	727
815.560	1359
815.659	-149
815.758	238
815.856	524
815.955	-57
816.053	316
816.152	746
816.250	274
816.348	427
816.447	614
816.545	-488
816.644	1074
816.742	574
816.840	748
816.938	129
817.037	694
817.135	893
817.233	74
817.331	628
817.430	707
817.528	1175
817.626	189
817.724	974
817.822	723
817.920	1778
818.018	2248
818.116	6771
818.214	16949
818.312	52401
818.410	63494
818.508	11726
818.606	3437
818.704	1379
818.802	1614
818.900	1957
818.997	2479
819.095	3620
819.193	6345
819.291	14614
819.389	38956
819.486	114533
819.584	92579
819.682	13072
819.779	3412
819.877	2194
819.975	1697
820.072	656
820.170	843
820.267	1929
820.365	900
820.462	-464
820.560	1728
820.657	-138
820.755	-257
820.852	686
820.949	683
821.047	801
821.144	-663
821.241	361
821.339	-549
821.436	120
821.533	317
821.631	1275
821.728	1234
821.825	421
821.922	518
822.019	1542
822.116	732
822.214	299
822.311	890
822.408	189
822.505	-539
822.602	240
822.699	310
822.796	711
822.893	-582
822.990	323
823.086	-10
823.183	-273
823.280	-410
823.377	-259
823.474	279
823.571	-500
823.667	663
823.764	-627
823.861	289
823.958	77
824.054	276
824.151	203
824.248	-524
824.344	684
824.441	-539
824.537	212
824.634	-411
824.731	-697
824.827	84
824.924	101
825.020	-111
825.116	-160
825.213	230
825.309	-296
825.406	-410
825.502	310
825.598	-577
825.695	-129
825.791	47
825.887	-239
825.983	-484
826.080	561
826.176	-708
826.272	-59
826.368	-78
826.464	-301
826.560	181
826.656	-1087
826.753	-154
826.849	-265
826.945	367
827.041	-881
827.137	-891
827.233	-269
827.328	-460
827.424	404
827.520	-3
827.616	-457
827.712	-862
827.808	362
827.904	-1384
827.999	259
828.095	-824
828.191	-1297
828.287	-88
828.382	-1888
828.478	322
828.574	-1110
828.669	-437
828.765	-362
828.860	-1220
828.956	193
829.051	-521
829.147	300
829.242	-307
829.338	-735
829.433	382
829.529	-1040
829.624	-251
829.720	-964
829.815	-401
829.910	-206
830.005	-698
830.101	-1284
830.196	-857
830.291	-146
830.386	-560
830.482	-1
830.577	-496
830.672	-1381
830.767	350
830.862	-653
830.957	-265
831.052	-635
831.147	250
831.242	-959
831.337	-695
831.432	-951
831.527	-515
831.622	172
831.717	-673
831.812	-323
831.907	-444
832.002	198
832.097	-463
832.191	-732
832.286	262
832.381	-1231
832.476	1
832.570	11
832.665	1643
832.760	2046
832.854	-612
832.949	-514
833.044	-787
833.138	-404
833.233	796
833.327	-651
833.422	113
833.516	-964
833.611	-1091
833.705	-388
833.799	-771
833.894	-289
833.988	-5
834.083	-1412
834.177	-391
834.271	-1159
834.365	-653
834.460	221
834.554	-334
834.648	-598
834.742	-583
834.836	-254
834.931	-494
835.025	-254
835.119	-434
835.213	-1041
835.307	-967
835.401	-769
835.495	-114
835.589	-793
835.683	-629
835.777	-1088
835.871	-912
835.965	-1911
836.059	-752
836.152	288
836.246	-557
836.340	-647
836.434	40
836.528	-559
836.621	-606
836.715	114
836.809	-1333
836.902	215
836.996	-1037
837.090	-1044
837.183	-487
837.277	-608
837.370	-398
837.464	-274
837.557	-744
837.651	-717
837.744	131
837.838	-547
837.931	-996
838.025	-643
838.118	-545
838.211	-793
838.305	-919
838.398	-424
838.491	-1347
838.584	531
838.678	78
838.771	1959
838.864	669
838.957	-62
839.050	-1154
839.144	-356
839.237	-303
839.330	132
839.423	-115
839.516	-1964
839.609	-1133
839.702	-542
839.795	-1182
839.888	-690
839.981	-1386
840.073	-1345
840.166	-1503
840.259	-390
840.352	-493
840.445	-776
840.538	-779
840.630	61
840.723	-1345
840.816	-479
840.909	-1309
841.001	-493
841.094	-1134
841.186	-242
841.279	-1378
841.372	-545
841.464	-1068
841.557	-554
841.649	-766
841.742	78
841.834	-1145
841.927	-370
842.019	-1569
842.111	-182
842.204	-882
842.296	-807
842.388	-655
842.481	-576
842.573	-458
842.665	189
842.758	-410
842.850	-107
842.942	-1331
843.034	-979
843.126	-992
843.218	-968
843.310	-620
843.402	428
843.495	1707
843.587	1469
843.679	-304
843.771	-839
843.862	-1428
843.954	-183
844.046	-828
844.138	-1474
844.230	-1017
844.322	-367
844.414	-984
844.505	-1043
844.597	4
844.689	-421
844.781	-341
844.872	-734
844.964	-1427
845.056	-740
845.147	-580
845.239	-810
845.331	104
845.422	-1113
845.514	-1024
845.605	-412
845.697	-533
845.788	113
845.880	-280
845.971	-1532
846.063	-1146
846.154	-861
846.245	-1335
846.337	-566
846.428	-837
846.519	-955
846.610	-260
846.702	-798
846.793	-743
846.884	97
846.975	-1611
847.066	-746
847.158	-905
847.249	-1018
847.340	-897
847.431	-1620
847.522	-683
847.613	-1371
847.704	-835
847.795	-990
847.886	-1341
847.977	-68
848.068	-346
848.158	-1238
848.249	-636
848.340	-1237
848.431	-925
848.522	-1061
848.612	-891
848.703	-1156
848.794	-627
848.885	-758
848.975	-1030
849.066	-718
849.157	-579
849.247	-906
849.338	608
849.428	1378
849.519	3794
849.609	8509
849.700	17790
849.790	40574
849.881	18787
849.971	1172
850.061	-265
850.152	-242
850.242	-519
850.332	-654
850.423	-1232
850.513	-1650
850.603	-1003
850.693	-450
850.784	-1103
850.874	-1494
850.964	-1011
851.054	-562
851.144	-868
851.234	-257
851.324	-919
851.414	-212
851.505	-909
851.595	-258
851.684	-1031
851.774	-319
851.864	-925
851.954	-1099
852.044	-84
852.134	-268
852.224	-1166
852.314	-704
852.403	-859
852.493	-698
852.583	-1578
852.673	-839
852.762	-656
852.852	-1000
852.942	-512
853.031	-1274
853.121	-695
853.210	-667
853.300	-210
853.389	-461
853.479	-121
853.568	818
853.658	1614
853.747	5999
853.837	11824
853.926	28807
854.015	60430
854.105	103348
854.194	213726
854.283	104525
854.373	13180
854.462	2539
854.551	1245
854.640	1159
854.729	-321
854.819	721
854.908	396
854.997	-75
855.086	-786
855.175	-380
855.264	-311
855.353	-229
855.442	-793
855.531	-877
855.620	-1280
855.709	-399
855.798	-313
855.887	-562
855.975	-654
856.064	-893
856.153	-1420
856.242	-1022
856.331	-1341
856.419	-1474
856.508	-743
856.597	-1050
856.685	-1207
856.774	-405
856.863	-606
856.951	-1363
857.040	-964
857.128	-1619
857.217	-937
857.305	-1596
857.394	-910
857.482	-901
857.571	-1174
857.659	-577
857.747	-707
857.836	-929
857.924	-1186
858.012	-1109
858.101	-1717
858.189	-1051
858.277	-245
858.365	-1069
858.454	350
858.542	-1120
858.630	-996
858.718	-1007
858.806	-1135
858.894	-1855
858.982	-742
859.070	-1148
859.158	-1057
859.246	-1429
859.334	-322
859.422	-1077
859.510	-863
859.598	-964
859.686	-1947
859.773	-494
859.861	-780
859.949	-685
860.037	-895
860.125	-978
860.212	-641
860.300	-1145
860.388	-800
860.475	-1008
860.563	-1216
860.651	-394
860.738	-696
860.826	-1440
860.913	-728
861.001	-1016
861.088	-713
861.176	-766
861.263	-503
861.350	-1061
861.438	-571
861.525	-1011
861.612	-647
861.700	90
861.787	-2267
861.874	-849
861.962	-606
862.049	-1205
862.136	-463
862.223	-1015
862.310	-687
862.397	-454
862.484	-1422
862.572	-1471
862.659	-865
862.746	-1115
862.833	-179
862.920	-211
863.007	-874
863.094	-775
863.180	-894
863.267	-1143
863.354	-1466
863.441	-273
863.528	-1245
863.615	-1230
863.701	-1345
863.788	-1077
863.875	-1481
863.961	-763
864.048	-1269
864.135	-1696
864.221	-1489
864.308	-650
864.395	-1150
864.481	-715
864.568	-578
864.654	-1062
864.741	-1071
864.827	17
864.914	62
865.000	-97
865.086	238
865.173	236
865.259	370
865.345	962
865.432	1145
865.518	1529
865.604	2175
865.690	3821
865.776	7472
865.863	15955
865.949	33147
866.035	50698
866.121	91515
866.207	142098
866.293	45235
866.379	6441
866.465	1853
866.551	1183
866.637	1351
866.723	832
866.809	741
866.895	1207
866.981	358
867.066	-231
867.152	418
867.238	277
867.324	-354
867.409	1390
867.495	654
867.581	-265
867.667	256
867.752	153
867.838	915
867.923	191
868.009	1479
868.094	1076
868.180	156
868.266	635
868.351	454
868.436	235
868.522	1263
868.607	1360
868.693	1375
868.778	3559
868.863	4619
868.949	1301
869.034	178
869.119	612
869.204	-354
869.290	-151
869.375	472
869.460	-340
869.545	-797
869.630	180
869.715	-49
869.800	-212
869.885	-159
869.970	-698
870.055	-662
870.140	-723
870.225	497
870.310	274
870.395	97
870.480	-1223
870.565	-209
870.650	-97
870.734	-4
870.819	-343
870.904	-350
870.989	-488
871.073	194
871.158	-500
871.243	-651
871.327	-153
871.412	-413
871.496	127
871.581	-348
871.665	-78
871.750	-16
871.834	-62
871.919	473
872.003	-1033
872.088	116
872.172	-413
872.257	-71
872.341	-983
872.425	-556
872.509	-895
872.594	-640
872.678	-309
872.762	-188
872.846	-753
872.930	46
873.015	-435
873.099	-1220
873.183	-710
873.267	484
873.351	-749
873.435	-758
873.519	-396
873.603	-804
873.687	-1013
873.771	-1090
873.855	168
873.938	-467
874.022	-1093
874.106	-565
874.190	-40
874.274	-590
874.358	-1021
874.383	-1232
874.441	-1729
874.490	-1460
874.525	-1277
874.598	-880
874.609	-823
874.692	-728
874.705	-657
874.776	-306
874.813	-386
874.859	-457
874.920	-525
874.943	-564
875.027	-1060
875.028	-1042
875.110	85
875.135	15
875.194	-135
875.243	-375
875.277	-583
875.350	-787
875.361	-808
875.444	-748
875.457	-737
875.527	-704
875.565	-266
875.611	263
875.672	-430
875.694	-678
875.778	-907
875.780	-902
875.861	-913
875.887	-805
875.944	-520
875.994	-459
876.027	-466
876.101	-384
876.111	-361
876.194	-652
876.209	-508
876.277	97
876.316	136
876.360	210
876.423	-523
876.443	-788
876.526	-266
876.530	-289
876.610	-735
876.637	-723
876.693	-671
876.745	-1053
876.776	-1298
876.852	-134
876.859	-32
876.942	-522
876.959	-512
877.025	-277
877.066	-235
877.108	-316
877.173	-454
877.190	-471
877.273	5
877.280	20
877.356	187
877.387	498
877.439	954
877.494	742
877.522	680
877.601	-395
877.605	-454
877.688	-278
877.708	-210
877.770	6
877.815	-350
877.853	-520
877.922	-126
877.936	-126
878.018	104
878.029	135
878.101	549
878.136	165
878.184	-304
878.242	-379
878.266	-445
878.349	-510
878.349	-507
878.431	-70
878.456	-66
878.514	-46
878.563	-179
878.596	-302
878.670	-529
878.679	-558
878.761	-666
878.776	-569
878.844	14
878.883	28
878.926	14
878.990	-29
879.008	-120
879.091	-69
879.097	-135
879.173	-519
879.203	-296
879.255	-94
879.310	-284
879.338	-327
879.417	-272
879.420	-284
879.502	-742
879.523	-720
879.584	-315
879.630	-206
879.667	-231
879.736	-292
879.749	-314
879.831	-103
879.843	-221
879.913	-629
879.949	-210
879.995	315
880.056	393
880.077	279
880.159	4
880.162	12
880.241	810
880.269	1094
880.323	1469
880.375	2238
880.405	2819
880.482	3404
880.487	3443
880.569	6589
880.588	7293
880.651	10934
880.694	8972
880.733	7621
880.801	7686
880.815	6471
880.896	2241
880.907	1640
880.978	656
881.013	205
881.060	221
881.120	342
881.142	291
881.224	-546
881.226	-552
881.305	-151
881.332	-75
881.387	-137
881.438	-393
881.469	-421
881.545	-223
881.550	-217
881.632	-219
881.651	-247
881.713	-212
881.757	74
881.795	283
881.863	116
881.876	151
881.958	551
881.969	683
882.039	779
882.075	528
882.121	485
882.181	484
882.202	470
882.284	575
882.287	594
882.365	1185
882.393	1024
882.446	999
882.499	1155
882.528	850
882.605	346
882.609	352
882.690	183
882.711	209
882.771	404
882.817	479
882.853	339
882.923	-82
882.934	-51
883.015	357
883.029	391
883.096	-63
883.135	-256
883.177	-15
883.241	345
883.258	313
883.339	-1
883.347	6
883.420	301
883.453	187
883.501	43
883.558	180
883.583	132
883.663	-388
883.664	-394
883.744	167
883.770	427
883.825	625
883.876	553
883.906	304
883.981	-7
883.987	20
884.068	163
884.087	248
884.149	296
884.193	121
884.230	87
884.298	285
884.310	272
884.391	-130
884.404	-195
884.472	-3
884.510	212
884.552	197
884.615	20
884.633	32
884.714	7
884.721	30
884.794	52
884.826	109
884.875	404
884.932	335
884.956	326
885.036	287
885.037	284
885.117	532
885.143	571
885.197	429
885.248	363
885.278	305
885.354	28
885.358	33
885.439	-115
885.459	-79
885.519	374
885.565	733
885.599	609
885.670	187
885.680	252
885.760	763
885.775	832
885.840	481
885.881	337
885.921	451
885.986	516
886.001	533
886.081	959
886.091	934
886.161	53
886.196	-215
886.241	265
886.302	854
886.322	833
886.402	831
886.407	812
886.482	306
886.512	53
886.562	513
886.617	1297
886.642	1262
886.722	702
886.722	692
886.802	1421
886.828	1681
886.882	1016
886.933	310
886.962	368
887.038	479
887.042	467
887.122	180
887.143	76
887.202	510
887.248	842
887.281	835
887.353	831
887.361	833
887.441	710
887.458	682
887.521	758
887.563	784
887.601	909
887.668	1254
887.680	1284
887.760	1133
887.773	1126
887.840	679
887.878	417
887.919	277
887.983	19
887.999	91
888.079	460
888.088	490
888.158	926
888.193	1155
888.238	1068
888.297	881
888.317	888
888.397	937
888.402	930
888.476	1282
888.507	1408
888.556	1140
888.612	818
888.635	707
888.715	329
888.717	313
888.794	551
888.821	640
888.873	553
888.926	463
888.953	620
889.031	992
889.032	995
889.111	807
889.135	756
889.190	653
889.240	485
889.270	501
889.345	590
889.349	630
889.428	1281
889.449	1447
889.507	1259
889.554	1083
889.586	915
889.658	545
889.665	523
889.744	245
889.763	175
889.824	469
889.867	687
889.903	809
889.972	1040
890.076	674
890.181	784
890.285	857
890.390	674
890.494	788
890.599	996
890.703	846
890.807	430
890.912	948
891.016	1621
891.120	1331
891.224	1411
891.329	1756
891.433	1952
891.537	1011
891.641	779
891.745	784
891.849	647
891.953	399
892.058	1055
892.162	1455
892.266	1087
892.370	922
892.474	652
892.578	1648
892.682	1840
892.786	2139
892.889	3027
892.993	1033
893.097	1358
893.201	205
893.305	1401
893.409	1416
893.512	961
893.616	746
893.720	989
893.824	489
893.927	1419
894.031	417
894.135	152
894.238	1081
894.342	637
894.445	499
894.549	1348
894.652	666
894.756	1007
894.859	1100
894.963	1062
895.066	658
895.170	925
895.273	826
895.377	1479
895.480	765
895.583	1454
895.687	1189
895.790	1160
895.893	1410
895.997	925
896.100	277
896.203	713
896.306	859
896.409	1171
896.513	1069
896.616	742
896.719	610
896.822	773
896.925	1244
897.028	1038
897.131	905
897.234	928
897.337	820
897.440	657
897.543	1333
897.646	843
897.749	991
897.852	1398
897.954	1481
898.057	953
898.160	779
898.263	474
898.366	852
898.468	455
898.571	1451
898.674	424
898.776	465
898.879	1149
898.982	810
899.084	744
899.187	1085
899.290	1106
899.392	625
899.495	1750
899.597	815
899.700	754
899.802	574
899.904	611
900.007	1285
900.109	3097
900.212	1201
900.314	934
900.416	2
900.519	503
900.621	712
900.723	222
900.826	1020
900.928	662
901.030	1155
901.132	1196
901.234	659
901.336	807
901.439	821
901.541	1084
901.643	832
901.745	1361
901.847	926
901.949	1371
902.051	-15
902.153	760
902.255	564
902.357	279
902.459	1297
902.560	427
902.662	860
902.764	1496
902.866	537
902.968	920
903.070	1234
903.171	1478
903.273	718
903.375	962
903.477	314
903.578	1562
903.680	1598
903.781	989
903.883	1582
903.985	628
904.086	265
904.188	821
904.289	765
904.391	338
904.492	1808
904.594	1442
904.695	1376
904.796	1665
904.898	710
904.999	1497
905.100	1745
905.202	1170
905.303	1253
905.404	881
905.506	1151
905.607	872
905.708	417
905.809	1232
905.910	1271
906.012	1265
906.113	445
906.214	2246
906.315	1651
906.416	879
906.517	354
906.618	1551
906.719	876
906.820	831
906.921	473
907.022	1537
907.123	311
907.224	1061
907.325	853
907.425	1154
907.526	589
907.627	440
907.728	996
907.828	969
907.929	177
908.030	1625
908.131	1344
908.231	922
908.332	830
908.433	1029
908.533	655
908.634	1354
908.734	771
908.835	858
908.935	824
909.036	767
909.136	875
909.237	821
909.337	1125
909.438	392
909.538	333
909.638	1331
909.739	709
909.839	1137
909.939	557
910.040	660
910.140	992
910.240	1189
910.340	1142
910.440	1771
910.541	522
910.641	-29
910.741	730
910.841	1190
910.941	611
911.041	1367
911.141	729
911.241	1242
911.341	554
911.441	807
911.541	881
911.641	449
911.741	553
911.841	1114
911.941	804
912.040	968
912.140	575
912.240	255
912.340	1360
912.440	1194
912.539	1177
912.639	-357
912.739	1044
912.838	1059
912.938	1426
913.038	396
913.137	935
913.237	687
913.336	1306
913.436	351
913.535	1102
913.635	236
913.734	130
913.834	1253
913.933	1687
914.033	591
914.132	1206
914.231	1171
914.331	478
914.430	197
914.529	1135
914.629	745
914.728	289
914.827	973
914.926	1729
915.025	1144
915.125	-90
915.224	1082
915.323	1097
915.422	1169
915.521	749
915.620	612
915.719	1128
915.818	1416
915.917	530
916.016	1291
916.115	320
916.214	1199
916.313	764
916.412	464
916.510	734
916.609	1773
916.708	553
916.807	813
916.906	-151
917.004	748
917.103	179
917.202	1117
917.301	-110
917.399	503
917.498	72
917.596	859
917.695	1008
917.794	1277
917.892	770
917.991	633
918.089	1221
918.188	831
918.286	489
918.384	445
918.483	1058
918.581	1198
918.680	1000
918.778	863
918.876	1126
918.975	987
919.073	551
919.171	1067
919.269	699
919.368	256
919.466	1585
919.564	160
919.662	252
919.760	457
919.858	784
919.956	367
920.054	310
920.153	989
920.251	1063
920.349	1077
920.446	709
920.544	958
920.642	488
920.740	1283
920.838	164
920.936	2069
921.034	1001
921.132	1393
921.229	1007
921.327	1351
921.425	1131
921.523	1317
921.620	1621
921.718	1597
921.816	1487
921.913	1238
922.011	2065
922.109	1509
922.206	388
922.304	1343
922.401	1457
922.499	179
922.596	1163
922.694	859
922.791	640
922.888	1218
922.986	1809
923.083	2467
923.181	1959
923.278	2335
923.375	2783
923.473	3064
923.570	3091
923.667	3336
923.764	2469
923.861	1790
923.959	1373
924.056	2779
924.153	3005
924.250	2240
924.347	1991
924.444	1502
924.541	2017
924.638	2441
924.735	1937
924.832	2452
924.929	1696
925.026	2221
925.123	2027
925.220	2279
925.317	1826
925.414	2086
925.510	1639
925.607	2509
925.704	3117
925.801	3085
925.897	1978
925.994	2831
926.091	2736
926.187	3466
926.284	4370
926.381	4223
926.477	3065
926.574	3421
926.670	2694
926.767	4414
926.863	2628
926.960	2915
927.056	3198
927.153	2008
927.249	2102
927.346	2263
927.442	1394
927.538	1775
927.635	2275
927.731	1875
927.827	1760
927.924	2162
928.020	1474
928.116	1022
928.212	2332
928.308	2124
928.404	1444
928.501	1497
928.597	1594
928.693	1305
928.789	1510
928.885	2385
928.981	1786
929.077	1785
929.173	1967
929.269	2432
929.365	2514
929.461	1249
929.557	1495
929.652	2255
929.748	1929
929.844	1507
929.940	1492
930.036	1217
930.131	1700
930.227	1532
930.323	2135
930.419	2230
930.514	1329
930.610	1095
930.705	1495
930.801	1849
930.897	1030
930.992	1397
931.088	1694
931.183	1109
931.279	1783
931.374	2008
931.470	880
931.565	1222
931.660	1380
931.756	1707
931.851	1477
931.946	1990
932.042	1104
932.137	996
932.232	694
932.327	2024
932.423	1769
932.518	978
932.613	1544
932.708	1642
932.803	1498
932.898	1480
932.994	1582
933.089	1652
933.184	1894
933.279	1619
933.374	1259
933.469	2024
933.563	2272
933.658	1061
933.753	975
933.848	1533
933.943	1460
934.038	2108
934.133	1220
934.227	833
934.322	1503
934.417	1722
934.512	1562
934.606	1080
934.701	799
934.796	1105
934.890	1475
934.985	2542
935.079	1467
935.174	1712
935.269	553
935.363	1935
935.458	1214
935.552	500
935.646	1038
935.741	706
935.835	1806
935.930	1045
936.024	1088
936.118	599
936.213	1100
936.307	805
936.401	1432
936.496	858
936.590	940
936.684	1923
936.778	876
936.872	335
936.966	890
937.060	535
937.155	1171
937.249	1365
937.343	494
937.437	900
937.531	925
937.625	1103
937.719	1718
937.813	1338
937.906	501
938.000	657
938.094	927
938.188	1285
938.282	1114
938.376	1069
938.469	1476
938.563	998
938.657	1362
938.751	3769
938.844	3717
938.938	2411
939.032	1538
939.125	2025
939.219	1411
939.312	2681
939.406	6446
939.500	3533
939.593	2043
939.686	1401
939.780	617
939.873	313
939.967	1237
940.060	1817
940.154	1400
940.247	870
940.340	1148
940.434	1908
940.527	616
940.620	286
940.713	810
940.806	417
940.900	1316
940.993	1747
941.086	1882
941.179	706
941.272	1433
941.365	877
941.458	2864
941.551	3938
941.644	987
941.737	607
941.830	487
941.923	1260
942.016	705
942.109	1050
942.202	164
942.295	719
942.388	334
942.480	906
942.573	325
942.666	1086
942.759	703
942.851	1549
942.944	25
943.037	1313
943.129	718
943.222	684
943.315	185
943.407	357
943.500	115
943.592	769
943.685	237
943.777	191
943.870	542
943.962	355
944.055	341
944.147	883
944.239	-527
944.332	150
944.424	1477
944.516	1104
944.609	-389
944.701	712
944.793	542
944.885	1106
944.977	1020
945.070	-240
945.162	574
945.254	623
945.346	119
945.438	1011
945.530	446
945.622	1480
945.714	319
945.806	1408
945.898	618
945.990	1024
946.082	889
946.174	715
946.266	1595
946.358	313
946.449	791
946.541	1061
946.633	330
946.725	663
946.816	475
946.908	305
947.000	-1
947.091	772
947.183	645
947.275	763
947.366	214
947.458	397
947.549	-420
947.641	597
947.732	227
947.824	162
947.915	211
948.007	455
948.098	416
948.190	1517
948.281	-36
948.372	988
948.464	211
948.555	482
948.646	-46
948.737	178
948.829	241
948.920	-403
949.011	41
949.102	717
949.193	203
949.284	632
949.376	-345
949.467	-190
949.558	304
949.649	425
949.740	-733
949.831	-374
949.922	193
950.013	652
950.104	235
950.194	210
950.285	-728
950.376	494
950.467	479
950.558	776
950.649	-1
950.739	-131
950.830	-240
950.921	543
951.011	780
951.102	534
951.193	827
951.283	723
951.374	423
951.464	151
951.555	-35
951.646	472
951.736	20
951.826	-164
951.917	399
952.007	-237
952.098	428
952.188	-777
952.279	185
952.369	1037
952.459	-182
952.549	864
952.640	-188
952.730	-80
952.820	-699
952.910	-92
953.001	-96
953.091	236
953.181	119
953.271	331
953.361	454
953.451	-154
953.541	-189
953.631	-257
953.721	538
953.811	221
953.901	-584
953.991	-699
954.081	-351
954.171	98
954.261	357
954.350	-157
954.440	252
954.530	273
954.620	326
954.710	508
954.799	-318
954.889	-46
954.979	-41
955.068	-371
955.158	-726
955.248	-173
955.337	-303
955.427	-229
955.516	265
955.606	-119
955.695	-801
955.785	344
955.874	-842
955.964	95
956.053	-557
956.142	722
956.232	-497
956.321	-224
956.410	-755
956.500	-150
956.589	-674
956.678	-458
956.767	-718
956.856	-280
956.946	-750
957.035	5
957.124	-99
957.213	104
957.302	-307
957.391	-311
957.480	321
957.569	390
957.658	-795
957.747	375
957.836	-702
957.925	204
958.014	-30
958.103	0
958.192	-237
958.280	-515
958.369	-188
958.458	-33
958.547	-465
958.635	-381
958.724	-83
958.813	-668
958.901	-375
958.990	-149
959.079	-540
959.167	44
959.256	-87
959.344	506
959.433	-600
959.521	41
959.610	-597
959.698	-494
959.787	343
959.875	-805
959.964	264
960.052	436
960.140	-394
960.228	175
960.317	-317
960.405	-10
960.493	23
960.581	165
960.670	-587
960.758	151
960.846	-425
960.934	-840
961.022	-487
961.110	-433
961.198	-567
961.286	550
961.374	-557
961.462	878
961.550	-640
961.638	-152
961.726	-537
961.814	-606
961.902	219
961.990	-499
962.078	-74
962.165	-63
962.253	484
962.341	116
962.429	-307
962.516	-50
962.604	334
962.692	-388
962.779	-383
962.867	-127
962.955	-167
963.042	-52
963.130	-190
963.217	75
963.305	409
963.392	281
963.480	77
963.567	249
963.654	-272
963.742	-264
963.829	344
963.917	1074
964.004	265
964.091	-158
964.178	-334
964.266	-326
964.353	-203
964.440	-274
964.527	-99
964.614	-1393
964.701	684
964.789	495
964.876	-88
964.963	235
965.050	-1356
965.137	-584
965.224	-390
965.311	-263
965.398	-251
965.485	-496
965.571	-512
965.658	-137
965.745	270
965.832	10
965.919	-1180
966.006	-2
966.092	-341
966.179	-631
966.266	-658
966.352	-736
966.439	-464
966.526	-100
966.612	-137
966.699	-524
966.786	-228
966.872	-325
966.959	-190
967.045	-518
967.132	-1090
967.218	-671
967.304	-846
967.391	526
967.477	-176
967.564	376
967.650	677
967.736	310
967.822	16
967.909	-108
967.995	-654
968.081	441
968.167	-1041
968.254	-1001
968.340	-214
968.426	170
968.512	486
968.598	-122
968.684	-375
968.770	508
968.856	-631
968.942	428
969.028	448
969.114	343
969.200	-441
969.286	-638
969.372	534
969.457	-710
969.543	610
969.629	-690
969.715	-5
969.801	-99
969.886	211
969.972	75
970.058	56
970.143	-585
970.229	1002
970.315	901
970.400	454
970.486	174
970.571	250
970.657	734
970.742	-718
970.828	-369
970.913	-297
970.999	-758
971.084	182
971.169	332
971.255	384
971.340	215
971.425	31
971.511	-440
971.596	-32
971.681	21
971.766	-408
971.852	-410
971.937	-568
972.022	-608
972.107	-138
972.192	11
972.277	354
972.362	30
972.447	-766
972.532	556
972.617	-315
972.702	221
972.787	-286
972.872	-164
972.957	228
973.042	-61
973.126	-791
973.211	-315
973.296	-358
973.381	-62
973.466	-902
973.550	1042
973.635	-783
973.720	-126
973.804	64
973.889	736
973.973	1003
974.058	571
974.143	-429
974.227	-50
974.312	494
974.396	52
974.481	190
974.565	357
974.649	-873
974.734	221
974.818	-806
974.902	-95
974.987	466
975.071	443
975.155	132
975.240	-339
975.324	-522
975.408	-142
975.492	102
975.576	-846
975.660	-215
975.744	-941
975.829	-1044
975.913	469
975.997	-554
976.081	-1223
976.165	1008
976.249	-215
976.333	-251
976.416	-19
976.500	234
976.584	-75
976.668	-938
976.752	-386
976.836	-216
976.919	539
977.003	-206
977.087	-51
977.171	-118
977.254	-294
977.338	-658
977.422	556
977.505	244
977.589	137
977.672	-55
977.756	104
977.839	362
977.923	-679
978.006	714
978.090	-131
978.173	-57
978.257	719
978.340	436
978.423	1194
978.507	114
978.590	-94
978.673	-140
978.756	-19
978.840	261
978.923	-335
979.006	-754
979.089	-326
979.172	1116
979.255	242
979.338	-917
979.422	291
979.505	246
979.588	-270
979.671	-120
979.754	-68
979.836	-555
979.919	-155
980.002	1
980.085	-261
980.168	-564
980.251	-301
980.334	-590
980.416	454
980.499	-369
980.582	-265
980.665	116
980.747	399
980.830	-318
980.912	55
980.995	-650
981.078	516
981.160	46
981.243	-61
981.325	-101
981.408	157
981.490	256
981.573	-506
981.655	-208
981.738	745
981.820	-88
981.902	62
981.984	-442
982.067	-68
982.149	222
982.231	-360
982.314	701
982.396	67
982.478	-11
982.560	-600
982.642	418
982.724	-749
982.807	-338
982.888	80
982.971	-554
983.053	-275
983.135	112
983.216	-205
983.298	770
983.380	-547
983.462	160
983.544	825
983.626	-325
983.708	208
983.790	-578
983.871	662
983.953	-621
984.035	282
984.117	-16
984.198	-179
984.280	340
984.362	-579
984.443	-148
984.525	-254
984.606	-1269
984.688	608
984.769	-976
984.851	179
984.932	203
985.014	-55
985.095	-850
985.177	-753
985.258	-770
985.339	-209
985.421	373
985.502	-58
985.583	-48
985.664	-293
985.746	136
985.827	-1120
985.908	985
985.989	206
986.070	117
986.151	445
986.232	-150
986.313	286
986.395	91
986.476	728
986.557	-47
986.637	596
986.718	-132
986.799	-319
986.880	-464
986.961	156
987.042	-560
987.123	-893
987.204	-43
987.284	-622
987.365	-836
987.446	-246
987.526	-433
987.607	-506
987.688	-279
987.768	-70
987.849	114
987.930	166
988.010	-3
988.091	141
988.171	-837
988.252	-66
988.332	-192
988.413	-255
988.493	441
988.573	-630
988.654	-71
988.734	186
988.814	-988
988.895	991
988.975	-600
989.055	32
989.135	-44
989.216	-19
989.296	-250
989.376	330
989.456	-334
989.536	-517
989.616	-623
989.696	-973
989.776	-688
989.856	721
989.936	-1042
990.016	-885
990.096	86
990.176	-212
990.256	620
990.336	-430
990.416	-285
990.495	333
990.575	505
990.655	-124
990.735	-1515
990.814	-794
990.894	-370
990.974	-527
991.053	-935
991.133	-132
991.213	-1034
991.292	-697
991.372	-784
991.451	-1087
991.531	-374
991.610	-348
991.690	-330
991.769	-429
991.849	-718
991.928	-602
992.007	-62
992.087	-290
992.166	-894
992.245	-531
992.324	-884
992.404	-1147
992.483	-359
992.562	25
992.641	-1101
992.720	-1142
992.799	-476
992.879	-1184
992.958	72
993.037	-774
993.116	-755
993.195	-321
993.274	-872
993.353	-924
993.432	-138
993.510	-87
993.589	-675
993.668	-1296
993.747	-646
993.826	-1096
993.904	187
993.983	-1153
994.062	-1335
994.141	-507
994.219	-549
994.298	-697
994.377	-641
994.455	533
994.534	-1420
994.612	181
994.691	-1291
994.769	-1052
994.848	-358
994.926	-1039
995.005	-471
995.083	-1229
995.161	-392
995.240	-891
995.318	-966
995.397	-748
995.475	-1242
995.553	-749
995.631	-1302
995.710	-763
995.788	-1776
995.866	-690
995.944	939
996.022	-1670
996.100	-779
996.178	-584
996.256	-1548
996.334	-222
996.412	-1721
996.490	-1430
996.568	-2338
996.646	-836
996.724	-692
996.802	-875
996.880	-2112
996.958	-114
997.036	-658
997.113	-1270
997.191	-662
997.269	-809
997.346	-1823
997.424	-791
997.502	-1754
997.579	-372
997.657	-1051
997.735	-970
997.812	-806
997.890	-1291
997.967	-1595
998.045	-299
998.122	-878
998.200	-1026
998.277	-785
998.354	-589
998.432	-1881
998.509	-143
998.586	-1533
998.664	-1042
998.741	-202
998.818	-80
998.896	-1881
998.973	-1253
999.050	-1562
999.127	-1111
999.204	-1182
999.281	-1941
999.358	179
999.435	-656
999.512	-1267
999.589	-790
999.666	-466
999.743	-1243
999.820	-1514
999.897	-537
999.974	-839
1000.051	-913
1000.128	-1324
1000.205	-1314
1000.281	-731
1000.358	-1753
1000.435	-1356
1000.512	-503
1000.588	-1224
1000.665	-1683
1000.741	-1041
1000.818	-1310
1000.895	-1730
1000.971	-2093
1001.048	-1389
1001.124	-846
1001.201	-1169
1001.277	-1775
1001.354	-973
1001.430	-1332
1001.507	-1455
1001.583	-897
1001.659	-1309
1001.736	-1893
1001.812	-986
1001.888	-1421
1001.964	-1653
1002.041	-1621
1002.117	-785
1002.193	-1836
1002.269	-876
1002.345	-1547
1002.421	-1581
1002.497	-1526
1002.573	-1146
1002.649	-1550
1002.725	-1296
1002.801	-2122
1002.877	-1055
1002.953	-1056
1003.029	-1556
1003.105	-1555
1003.181	-1569
1003.257	-1306
1003.333	-1438
1003.408	-1212
1003.484	-1572
1003.560	-1272
1003.636	-703
1003.711	-1269
1003.787	-2133
1003.862	-1485
1003.938	-786
1004.014	-1064
1004.089	-1982
1004.165	-1164
1004.240	-1342
1004.316	-1555
1004.391	-1179
1004.467	-1068
1004.542	-1500
1004.617	-866
1004.693	-1279
1004.768	-898
1004.844	-1320
1004.919	-1690
1004.994	-1518
1005.069	-1613
1005.145	-1573
1005.220	-1530
1005.295	-1844
1005.370	-839
1005.445	-1244
1005.520	-986
1005.595	-2168
1005.670	-1775
1005.745	-2176
1005.820	-2454
1005.895	-1541
1005.970	-1645
1006.045	-1342
1006.120	-1146
1006.195	-1152
1006.270	-731
1006.345	-1372
1006.419	-894
1006.494	-1521
1006.569	-1933
1006.644	-1177
1006.718	-1633
1006.793	-1850
1006.868	-778
1006.942	-1724
1007.017	12
1007.092	-1683
1007.166	-1556
1007.241	-1642
1007.315	-1313
1007.390	-1503
1007.464	-1286
1007.539	-1443
1007.613	-1241
1007.687	-1191
1007.762	-1617
1007.836	-1700
1007.910	-1431
1007.984	-1825
1008.059	-1366
1008.133	-1791
1008.207	-1959
1008.281	-1222
1008.356	-1116
1008.430	-1288
1008.504	-1663
1008.578	-2034
1008.652	-1510
1008.726	-2094
1008.800	-1406
1008.874	-1703
1008.948	-1096
1009.022	-1222
1009.096	-1090
1009.170	-2065
1009.244	-1228
1009.317	-1692
1009.391	-1302
1009.465	-1234
1009.539	-1986
1009.613	-869
1009.686	-1504
1009.760	-1683
1009.834	-884
1009.907	-1227
1009.981	-1583
1010.054	-1074
1010.128	-1403
1010.201	-1509
1010.275	-1388
1010.349	-1796
1010.422	-762
1010.495	-2162
1010.569	-934
1010.642	-1539
1010.716	-975
1010.789	-1504
1010.862	-672
1010.936	-1155
1011.009	-1223
1011.082	-1181
1011.155	-1644
1011.229	-712
1011.302	-1318
1011.375	-1032
1011.448	-631
1011.521	-400
1011.594	-218
1011.667	-1183
1011.740	-1476
1011.813	-1681
1011.886	-862
1011.959	-1952
1012.032	-2293
1012.105	-1149
1012.178	-1648
1012.251	-1718
1012.324	-1303
1012.396	-1289
1012.469	-1455
1012.542	-1843
1012.614	-1893
1012.687	-2118
1012.760	-687
1012.833	-1064
1012.905	-969
1012.978	-1697
1013.050	-1939
1013.123	-1493
1013.195	-1150
1013.268	-1979
1013.340	-1452
1013.413	-1682
1013.485	-1559
1013.558	-1825
1013.630	-1380
1013.702	-1740
1013.775	-1922
1013.847	-1078
1013.919	-1944
1013.992	-1656
1014.064	-1265
1014.136	-2569
1014.208	-1864
1014.280	-692
1014.353	-1886
1014.425	-1828
1014.497	-1101
1014.569	-877
1014.641	-2211
1014.713	-2031
1014.785	-1209
1014.857	-549
1014.929	-531
1015.001	-2355
1015.072	-1790
1015.144	-1956
1015.216	-1060
1015.288	-1816
1015.360	-1395
1015.431	-1979
1015.503	-1528
1015.575	-1617
1015.647	-867
1015.718	-2234
1015.790	-938
1015.861	-1276
1015.933	-1617
1016.005	-1027
1016.076	-1303
1016.148	-1930
1016.219	-771
1016.291	-1917
1016.362	-1238
1016.433	-2569
1016.505	-654
1016.576	-937
1016.647	-2263
1016.719	-1698
1016.790	-1235
1016.861	-1045
1016.932	-1195
1017.004	-1556
1017.075	-1578
1017.146	-663
1017.217	-2060
1017.288	-2171
1017.359	-1647
1017.430	-1500
1017.502	-1517
1017.573	-1972
1017.644	-1015
1017.714	-1430
1017.785	-680
1017.856	-2119
1017.927	-1938
1017.998	-2159
1018.069	-1719
1018.140	-1444
1018.210	-198
1018.281	-777
1018.352	-1660
1018.423	-915
1018.493	-1883
1018.564	-1202
1018.635	-1435
1018.705	-2579
1018.776	-2600
1018.846	-2014
1018.917	-1770
1018.987	-1783
1019.058	-1102
1019.128	-1432
1019.199	-1415
1019.269	-1160
1019.340	-1058
1019.410	-1293
1019.480	-1640
1019.551	-1886
1019.621	-1186
1019.691	-877
1019.761	-1703
1019.832	-1375
1019.902	-1652
1019.972	-2024
1020.042	-1392
1020.112	-1509
1020.182	-1862
1020.252	-1909
1020.322	-1530
1020.392	-1884
1020.462	-1497
1020.532	-2362
1020.602	-1020
1020.672	-1605
1020.742	-1794
1020.812	-1039
1020.882	-1542
1020.952	-1919
1021.021	-1836
1021.091	-1817
1021.161	-1923
1021.230	-2210
1021.300	-1109
1021.370	-1780
1021.440	-1335
1021.509	-1836
1021.579	-1335
1021.648	-1846
1021.718	-2142
1021.787	-1578
1021.857	-1391
1021.926	-1425
1021.996	-876
1022.065	-1185
1022.134	-1552
1022.204	-1647
1022.273	-1100
1022.342	-2492
1022.412	-1399
1022.481	-1650
1022.550	-2063
1022.619	-2714
1022.689	-1966
1022.758	-2645
1022.827	-1114
1022.896	-1886
1022.965	-1803
1023.034	-1320
1023.103	-1073
1023.172	-1310
1023.241	-2130
1023.310	-1236
1023.379	-1709
1023.448	-2052
1023.517	-898
1023.586	-2611
1023.654	-1157
1023.723	-2258
1023.792	-1953
1023.861	-1041
1023.929	-1192
1023.998	-1733
1024.067	-1397
1024.135	-1528
1024.204	-1648
1024.273	-2217
1024.341	-1740
1024.410	-2163
1024.478	-1012
1024.547	-1431
1024.615	-1453
1024.684	-2146
1024.752	-1860
1024.820	-1672
1024.889	-1785
1024.957	-1545
1025.026	-1234
1025.094	-1023
1025.162	-823
1025.230	-1079
1025.299	-2440
1025.367	-2229
1025.435	-1738
1025.503	-2105
1025.571	-1784
1025.639	-1757
1025.707	-1369
1025.776	-1379
1025.844	-1572
1025.912	-2554
1025.979	-1705
1026.047	-1788
1026.115	-1322
1026.183	-1675
1026.251	-1429
1026.319	-1754
1026.387	-1527
1026.454	-2212
1026.522	-1140
1026.590	-1261
1026.658	-1274
1026.725	-2040
1026.793	-381
1026.861	-1467
1026.928	-1497
1026.996	-1302
1027.064	-1385
1027.131	-2134
1027.199	-2048
1027.266	-1872
1027.334	-1139
1027.401	-1082
1027.468	-1172
1027.536	-1983
1027.603	-1442
1027.671	-1641
1027.738	-1641
1027.805	-1667
1027.872	-1296
1027.940	-2180
1028.007	-936
1028.074	-1357
1028.141	-2300
1028.208	-2085
1028.275	-1632
1028.342	-2368
1028.409	-1733
1028.477	-1550
1028.544	-2030
1028.610	-2058
1028.678	-2000
1028.744	-1214
1028.811	-1115
1028.878	-989
1028.945	-1780
1029.012	-1979
1029.079	-1812
1029.146	-1846
1029.212	-1740
1029.279	-2364
1029.346	-1001
1029.412	-2394
1029.479	-1171
1029.546	-2050
1029.612	-1498
1029.679	-1698
1029.745	-2409
1029.812	-1165
1029.878	-1266
1029.945	-1661
1030.011	-2146
1030.078	-1458
1030.144	-1064
1030.210	-1741
1030.277	-1085
1030.343	-1488
1030.409	-1714
1030.476	-1351
1030.542	-2149
1030.608	-2105
1030.674	-1829
1030.740	-1529
1030.807	-1537
1030.873	-2061
1030.939	-1639
1031.005	-2458
1031.071	-1498
1031.137	-726
1031.203	-1577
1031.269	-1288
1031.335	-2196
1031.401	-1763
1031.467	-1691
1031.533	-1851
1031.598	-1597
1031.664	-2086
1031.730	-1847
1031.796	-1067
1031.861	-2075
1031.927	-1983
1031.993	-2179
1032.058	-1998
1032.124	-1230
1032.190	-2345
1032.255	-812
1032.321	-1215
1032.386	-1374
1032.452	-1188
1032.518	-1211
1032.583	-1558
1032.648	-1209
1032.714	-2091
1032.779	-1470
1032.844	-1317
1032.910	-943
1032.975	-1350
1033.040	-1474
1033.106	-1992
1033.171	-1632
1033.236	-1461
1033.301	-1311
1033.366	-1537
1033.432	-1468
1033.496	-1240
1033.562	-623
1033.627	-961
1033.692	-838
1033.757	-1510
1033.822	-765
1033.887	-1025
1033.952	-2134
1034.016	-1687
1034.081	-1003
1034.146	-1269
1034.211	-1374
1034.276	-1027
1034.340	-1292
1034.405	-585
1034.470	-11
1034.535	-170
1034.599	-52
1034.664	-490
1034.729	-33
1034.793	-1200
1034.858	-1173
1034.922	-1792
1034.987	-1610
1035.051	-2066
1035.116	-1856
1035.180	-1642
1035.245	-1470
1035.309	-1812
1035.373	-1120
1035.437	-2105
1035.502	-1622
1035.566	-1856
1035.630	-1113
1035.695	-1673
1035.759	-1511
1035.823	-1672
1035.887	-2326
1035.951	-1697
1036.015	-1279
1036.079	-1330
1036.143	-1337
1036.208	-1241
1036.271	-1795
1036.336	-1852
1036.399	-890
1036.463	-1930
1036.527	-1208
1036.591	-1065
1036.655	-1416
1036.719	-617
1036.783	-136
1036.846	-302
1036.910	388
1036.974	-815
1037.037	-866
1037.101	-1234
1037.165	-1389
1037.228	-1508
1037.292	-1477
1037.355	-1417
1037.419	-1697
1037.483	-823
1037.546	-1860
1037.609	-1285
1037.673	-1281
1037.736	-1442
1037.800	-1217
1037.863	-1270
1037.926	-838
1037.990	-1946
1038.053	-1986
1038.116	-2108
1038.179	-531
1038.243	-1859
1038.306	-1325
1038.369	-1512
1038.432	-1296
1038.495	-1649
1038.558	-1172
1038.621	-947
1038.684	-1023
1038.747	-2265
1038.810	-2059
1038.873	-1631
1038.936	-1253
1038.999	-1543
1039.062	-1824
1039.125	-1629
1039.188	-914
1039.250	-1648
1039.313	-1852
1039.376	-2052
1039.438	-1904
1039.501	-1561
1039.564	-1143
1039.627	-1482
1039.689	-1483
1039.752	-1300
1039.814	-723
1039.877	-1707
1039.939	-1270
1040.002	-1778
1040.064	-1362
1040.127	-1526
1040.189	-2142
1040.251	-919
1040.314	-1292
1040.376	-1397
1040.438	-1407
1040.501	-1871
1040.563	-1405
1040.625	-1735
1040.687	-1925
1040.750	-1645
1040.812	-1550
1040.874	-1682
1040.936	-1539
1040.998	-1259
1041.060	-2266
1041.122	-2070
1041.184	-1773
1041.246	-1583
1041.308	-1190
1041.370	-780
1041.432	-1653
1041.494	-2427
1041.555	-988
1041.617	-1444
1041.679	-1142
1041.741	-1776
1041.802	-1822
1041.864	-1262
1041.926	-1698
1041.987	-1905
1042.049	-2292
1042.111	-1747
1042.172	-2017
1042.234	-1678
1042.295	-662
1042.357	-2016
1042.418	-2002
1042.480	-1416
1042.541	-1598
1042.603	-1878
1042.664	-1736
1042.725	-1980
1042.786	-1370
1042.848	-1894
1042.909	-1582
1042.970	-896
1043.031	-2053
1043.093	-1625
1043.154	-1686
1043.215	-1955
1043.276	-1224
1043.337	-1246
1043.398	-1600
1043.459	-1064
1043.520	-1516
1043.581	-1791
1043.642	-1445
1043.703	-1386
1043.764	-1504
1043.825	-1617
1043.886	-1794
1043.947	-1665
1044.007	-1592
1044.068	-1391
1044.129	-1606
1044.189	-1565
1044.250	-1640
1044.311	-1615
1044.371	-1089
1044.432	-2088
1044.493	-1454
1044.553	-1241
1044.614	-1953
1044.674	-1421
1044.735	-1223
1044.795	-1959
1044.856	-1392
1044.916	-1252
1044.976	-1711
1045.037	-979
1045.097	-1707
1045.157	-1291
1045.218	-1754
1045.278	-576
1045.338	-1317
1045.398	-1564
1045.458	-1083
1045.519	-1346
1045.579	-897
1045.639	-1730
1045.699	-916
1045.759	-1047
1045.819	-1177
1045.879	-2307
1045.939	-1095
1045.999	-1016
1046.059	-1594
1046.119	-973
1046.179	-1829
1046.238	-1812
1046.298	-692
1046.358	-1410
1046.418	-1171
1046.477	-1211
1046.537	-563
1046.597	-1370
1046.656	-1724
1046.716	-727
1046.776	-535
1046.835	-290
1046.895	-411
1046.954	-540
1047.014	-512
1047.073	-191
1047.133	0
