'Start Wavelength	183.833
'End Wavelength	1047.133
'Gate Delay	5.000
'Gate Width (ms)	1.050
'Laser Output Level	0.000
'X Position	0.000
'Y Position	0.000
'Z Position	0.000
'Grid Point Number	1.000
'Shot Number	100.000
183.833	616.000
183.903	-29.000
183.973	656
184.042	195
184.112	509
184.182	-164
184.252	-428
184.321	-906
184.391	482
184.461	-64
184.531	-256
184.600	-533
184.670	48
184.740	-75
184.809	151
184.879	25
184.949	267
185.018	3
185.088	-490
185.158	-326
185.228	400
185.297	17
185.367	-330
185.436	-215
185.506	407
185.576	7
185.645	-83
185.715	32
185.785	-222
185.854	327
185.924	555
185.993	-350
186.063	-199
186.133	-397
186.202	695
186.272	-535
186.341	661
186.411	-725
186.481	71
186.550	294
186.620	42
186.689	-67
186.759	-264
186.828	-107
186.898	-129
186.967	125
187.037	125
187.106	-443
187.176	-83
187.246	-887
187.315	170
187.385	176
187.454	-498
187.524	-362
187.593	47
187.662	-344
187.732	438
187.801	208
187.871	193
187.940	-244
188.010	427
188.079	77
188.149	456
188.218	58
188.288	-357
188.357	297
188.426	-467
188.496	-371
188.565	-399
188.635	2
188.704	-721
188.773	-52
188.843	30
188.912	-1
188.981	20
189.051	-252
189.120	598
189.190	144
189.259	-363
189.328	5
189.398	-308
189.467	-436
189.536	-196
189.606	-78
189.675	-155
189.744	33
189.813	69
189.883	37
189.952	554
190.021	690
190.091	1361
190.160	361
190.229	7
190.298	-447
190.368	87
190.437	464
190.506	-295
190.575	-4
190.645	-314
190.714	-502
190.783	-24
190.852	865
190.922	417
190.991	-251
191.060	-76
191.129	-746
191.198	172
191.268	-219
191.337	-472
191.406	-462
191.475	-170
191.544	123
191.613	269
191.683	-121
191.752	-524
191.821	-134
191.890	-141
191.959	-603
192.028	175
192.097	-31
192.166	-533
192.236	-49
192.305	115
192.374	23
192.443	212
192.512	-763
192.581	-60
192.650	39
192.719	-354
192.788	-269
192.857	-423
192.926	-514
192.995	28
193.064	155
193.133	616
193.202	-231
193.271	-412
193.340	-255
193.409	-89
193.478	339
193.547	254
193.616	466
193.685	-83
193.754	-424
193.823	-707
193.892	350
193.961	298
194.030	-410
194.099	60
194.168	-263
194.237	196
194.306	-387
194.375	-651
194.444	164
194.513	338
194.582	-132
194.651	-575
194.720	-505
194.788	110
194.857	-1059
194.926	-447
194.995	-561
195.064	10
195.133	73
195.202	311
195.270	786
195.339	38
195.408	-411
195.477	-255
195.546	413
195.615	189
195.683	429
195.752	-235
195.821	175
195.890	145
195.959	30
196.027	174
196.096	15
196.165	18
196.234	-51
196.303	589
196.371	108
196.440	-419
196.509	77
196.578	486
196.646	-306
196.715	-255
196.784	316
196.853	178
196.921	-434
196.990	64
197.059	-213
197.127	493
197.196	0
197.265	157
197.333	-508
197.402	-413
197.471	-529
197.539	346
197.608	984
197.677	833
197.745	275
197.814	1215
197.883	234
197.951	1103
198.020	706
198.088	655
198.157	755
198.226	1637
198.294	24
198.363	335
198.431	541
198.500	1049
198.569	963
198.637	82
198.706	326
198.774	2185
198.843	1751
198.911	44
198.980	600
199.048	-7
199.117	147
199.185	-143
199.254	-505
199.322	-46
199.391	-283
199.459	-117
199.528	-81
199.596	-498
199.665	186
199.733	230
199.802	725
199.870	155
199.939	-336
200.007	504
200.076	-478
200.144	376
200.213	-339
200.281	349
200.349	-7
200.418	-45
200.486	-153
200.555	-13
200.623	-753
200.691	-176
200.760	128
200.828	-172
200.897	-418
200.965	-549
201.033	-233
201.102	-182
201.170	-327
201.238	-436
201.307	403
201.375	212
201.443	152
201.512	2
201.580	597
201.648	-195
201.716	-367
201.785	-214
201.853	-583
201.921	-259
201.990	684
202.058	-187
202.126	32
202.194	-160
202.263	407
202.331	-306
202.399	538
202.467	118
202.536	569
202.604	145
202.672	272
202.740	-276
202.808	-745
202.877	444
202.945	-228
203.013	-712
203.081	-293
203.149	244
203.218	-227
203.286	-166
203.354	-28
203.422	-51
203.490	224
203.558	259
203.626	-283
203.695	-13
203.763	-228
203.831	-191
203.899	-204
203.967	62
204.035	201
204.103	336
204.171	302
204.239	-184
204.307	-226
204.375	-293
204.443	-488
204.512	-128
204.580	389
204.648	135
204.716	-493
204.784	-1234
204.852	-26
204.920	683
204.988	-240
205.056	-438
205.124	-606
205.192	328
205.260	-291
205.328	211
205.396	-143
205.464	235
205.532	288
205.600	501
205.667	22
205.735	1416
205.803	1910
205.871	-464
205.939	-250
206.007	237
206.075	350
206.143	-322
206.211	23
206.279	416
206.347	-249
206.414	537
206.482	94
206.550	-127
206.618	-41
206.686	-33
206.754	603
206.822	454
206.889	41
206.957	637
207.025	45
207.093	-365
207.161	-347
207.229	655
207.296	-321
207.364	-67
207.432	-296
207.500	372
207.567	342
207.635	-337
207.703	-348
207.771	157
207.839	-161
207.906	303
207.974	202
208.042	165
208.109	-240
208.177	160
208.245	212
208.313	576
208.380	982
208.448	-45
208.516	-505
208.583	525
208.651	174
208.719	-303
208.786	-204
208.854	-3
208.922	-91
208.989	-698
209.057	67
209.125	324
209.192	102
209.260	18
209.327	-400
209.395	574
209.463	703
209.530	-5
209.598	-319
209.665	355
209.733	419
209.801	259
209.868	-24
209.936	98
210.003	139
210.071	244
210.138	579
210.206	233
210.273	1039
210.341	-170
210.408	196
210.476	349
210.543	350
210.611	-76
210.678	318
210.746	-292
210.813	1256
210.881	353
210.948	-227
211.016	1122
211.083	385
211.151	839
211.218	660
211.285	485
211.353	-365
211.420	262
211.488	124
211.555	277
211.622	183
211.690	-201
211.757	437
211.825	-114
211.892	-27
211.959	1047
212.027	-214
212.094	111
212.161	713
212.229	1177
212.296	3698
212.363	12076
212.431	3441
212.498	1385
212.565	602
212.633	391
212.700	-718
212.767	-75
212.835	784
212.902	379
212.969	435
213.036	-207
213.104	63
213.171	936
213.238	112
213.305	430
213.373	-24
213.440	-61
213.507	646
213.574	893
213.641	166
213.709	6
213.776	731
213.843	274
213.910	-340
213.977	144
214.045	-178
214.112	175
214.179	-37
214.246	-524
214.313	-387
214.380	-140
214.447	548
214.515	962
214.582	188
214.649	224
214.716	341
214.783	566
214.850	774
214.917	906
214.984	814
215.051	1346
215.118	621
215.185	105
215.253	168
215.320	183
215.387	566
215.454	-38
215.521	-114
215.588	-230
215.655	187
215.722	-49
215.789	-96
215.856	628
215.923	210
215.990	488
216.057	-168
216.124	213
216.191	81
216.258	71
216.325	1062
216.391	502
216.458	584
216.525	545
216.592	1329
216.659	1458
216.726	452
216.793	1519
216.860	1551
216.927	-187
216.994	85
217.061	671
217.127	229
217.194	972
217.261	1592
217.328	2258
217.395	1361
217.462	525
217.529	30
217.595	334
217.662	-57
217.729	1848
217.796	921
217.863	-34
217.929	-367
217.996	-24
218.063	343
218.130	-13
218.196	149
218.263	-349
218.330	-243
218.397	50
218.463	-156
218.530	9
218.597	1180
218.664	1016
218.730	-31
218.797	420
218.864	-227
218.930	32
218.997	634
219.064	820
219.131	562
219.197	441
219.264	395
219.331	-8
219.397	-617
219.464	274
219.530	847
219.597	927
219.664	731
219.730	813
219.797	-648
219.864	302
219.930	857
219.997	1189
220.063	836
220.130	-75
220.196	134
220.263	1085
220.330	1797
220.396	3574
220.463	1720
220.529	480
220.596	1004
220.662	282
220.729	4763
220.795	3033
220.862	2840
220.928	6496
220.995	8155
221.061	8073
221.128	6159
221.194	1209
221.261	349
221.327	668
221.394	758
221.460	522
221.526	1186
221.593	8357
221.659	3877
221.726	4694
221.792	3634
221.859	1035
221.925	1207
221.991	350
222.058	50
222.124	969
222.190	609
222.257	114
222.323	-954
222.390	180
222.456	-30
222.522	46
222.589	299
222.655	35
222.721	-208
222.788	362
222.854	831
222.920	298
222.986	-128
223.053	-562
223.119	683
223.185	-167
223.251	291
223.318	-661
223.384	57
223.450	-435
223.516	-453
223.583	-145
223.649	-303
223.715	-621
223.781	-275
223.848	430
223.914	-234
223.980	-365
224.046	-255
224.112	140
224.178	-122
224.245	-158
224.311	-488
224.377	207
224.443	454
224.509	86
224.575	-555
224.641	-878
224.708	385
224.774	133
224.840	-246
224.906	201
224.972	-1078
225.038	-527
225.104	546
225.170	375
225.236	-554
225.302	-368
225.368	-517
225.434	-177
225.500	207
225.566	527
225.632	297
225.699	428
225.765	156
225.831	496
225.897	296
225.963	-13
226.028	-92
226.094	549
226.160	971
226.226	4057
226.292	9170
226.358	1905
226.424	487
226.490	594
226.556	1057
226.622	1034
226.688	1211
226.754	1885
226.820	12742
226.886	10622
226.951	2401
227.017	1201
227.083	178
227.149	638
227.215	239
227.281	-208
227.347	70
227.412	42
227.478	2024
227.544	974
227.610	144
227.676	568
227.742	439
227.807	-55
227.873	-226
227.939	279
228.005	-494
228.070	376
228.136	-43
228.202	429
228.268	380
228.333	846
228.399	-132
228.465	-106
228.531	-56
228.596	-394
228.662	440
228.728	-267
228.793	-20
228.859	-1104
228.925	454
228.990	39
229.056	690
229.122	67
229.187	-239
229.253	234
229.319	498
229.384	41
229.450	-681
229.516	-107
229.581	-42
229.647	-644
229.712	1474
229.778	1618
229.844	597
229.909	741
229.975	516
230.040	-63
230.106	-334
230.171	130
230.237	1816
230.302	757
230.368	279
230.433	268
230.499	650
230.564	-278
230.630	-218
230.695	-433
230.761	-631
230.826	769
230.892	-553
230.957	582
231.023	-323
231.088	-50
231.154	-389
231.219	81
231.285	353
231.350	-816
231.415	514
231.481	287
231.546	-355
231.612	-243
231.677	-867
231.742	282
231.808	-311
231.873	-807
231.938	181
232.004	766
232.069	-108
232.135	-228
232.200	-195
232.265	70
232.330	-78
232.396	-556
232.461	194
232.526	-562
232.592	-583
232.657	1057
232.722	319
232.788	482
232.853	-123
232.918	-63
232.983	-251
233.048	1090
233.114	504
233.179	2366
233.244	1950
233.309	-87
233.375	89
233.440	672
233.505	-861
233.570	-200
233.635	-647
233.700	1205
233.766	1242
233.831	524
233.896	524
233.961	29
234.026	775
234.091	168
234.156	-351
234.222	1274
234.287	5770
234.352	2861
234.417	1745
234.482	914
234.547	167
234.612	700
234.677	918
234.742	5016
234.807	1479
234.872	983
234.937	352
235.002	-30
235.067	243
235.132	491
235.197	84
235.262	414
235.327	217
235.392	554
235.457	771
235.522	-143
235.587	-100
235.652	-594
235.717	440
235.782	447
235.847	1983
235.912	2115
235.977	2790
236.042	828
236.107	400
236.172	946
236.236	331
236.301	296
236.366	1694
236.431	2498
236.496	1584
236.561	3420
236.626	19038
236.691	10006
236.755	2994
236.820	2439
236.885	1261
236.950	1473
237.015	1596
237.079	1702
237.144	3883
237.209	19770
237.274	30659
237.339	8282
237.403	2883
237.468	2058
237.533	455
237.598	1045
237.662	577
237.727	689
237.792	2898
237.856	1836
237.921	1644
237.986	2617
238.050	2154
238.115	9399
238.180	6854
238.245	2434
238.309	1037
238.374	-110
238.438	1767
238.503	390
238.568	1036
238.632	593
238.697	293
238.762	3490
238.826	3001
238.891	1156
238.955	979
239.020	637
239.085	445
239.149	29
239.214	17
239.278	324
239.343	-43
239.407	-208
239.472	7960
239.536	4698
239.601	1141
239.665	571
239.730	842
239.794	3561
239.859	5317
239.923	1484
239.988	628
240.052	-85
240.117	151
240.181	121
240.246	-96
240.310	1008
240.374	3483
240.439	7405
240.503	811
240.568	2473
240.632	3442
240.696	1758
240.761	308
240.825	-90
240.890	148
240.954	3616
241.018	6975
241.083	1978
241.147	254
241.211	1657
241.276	2118
241.340	1089
241.404	507
241.469	281
241.533	1037
241.597	-458
241.661	397
241.726	732
241.790	870
241.854	-116
241.919	-413
241.983	213
242.047	-123
242.111	-112
242.175	-31
242.240	171
242.304	718
242.368	233
242.432	405
242.496	37
242.561	180
242.625	349
242.689	-276
242.753	130
242.817	912
242.881	244
242.946	-184
243.010	56
243.074	308
243.138	-428
243.202	324
243.266	-260
243.330	1349
243.394	10990
243.458	30071
243.522	7210
243.586	1584
243.651	625
243.715	1492
243.779	2715
243.843	2894
243.907	2038
243.971	139
244.035	323
244.099	-45
244.163	667
244.227	1507
244.291	2305
244.355	692
244.419	1327
244.483	440
244.546	-595
244.610	318
244.674	-3
244.738	235
244.802	1091
244.866	-209
244.930	-202
244.994	434
245.058	955
245.122	1612
245.186	1284
245.249	923
245.313	-735
245.377	806
245.441	-478
245.505	145
245.569	149
245.632	38
245.696	1189
245.760	949
245.824	291
245.888	79
245.951	572
246.015	621
246.079	1104
246.143	3730
246.207	7456
246.270	1554
246.334	860
246.398	1743
246.461	1905
246.525	1722
246.589	759
246.653	558
246.716	1586
246.780	982
246.844	1712
246.907	-106
246.971	760
247.035	42
247.098	1533
247.162	3462
247.226	10782
247.289	2976
247.353	572
247.416	1958
247.480	1714
247.544	462
247.607	1960
247.671	1002
247.734	755
247.798	1285
247.861	4738
247.925	10490
247.989	2573
248.052	697
248.116	2269
248.179	3465
248.243	19421
248.306	15428
248.370	9885
248.433	1922
248.497	2940
248.560	2368
248.624	3271
248.687	6815
248.751	19097
248.814	8844
248.877	9317
248.941	12596
249.004	24885
249.068	18006
249.131	6304
249.194	3025
249.258	4665
249.321	2319
249.385	3237
249.448	1491
249.511	2612
249.575	4122
249.638	2915
249.701	2163
249.765	2283
249.828	2001
249.891	2727
249.955	1803
250.018	7734
250.081	8215
250.145	3180
250.208	2533
250.271	3463
250.334	3225
250.398	2250
250.461	3067
250.524	5901
250.587	35416
250.651	49796
250.714	11161
250.777	7359
250.840	3594
250.903	4762
250.967	6489
251.030	12989
251.093	5075
251.156	5144
251.219	4646
251.282	9213
251.345	51640
251.409	37194
251.472	22360
251.535	92926
251.598	49443
251.661	14887
251.724	15973
251.787	19710
251.850	56988
251.913	23531
251.976	8166
252.039	5978
252.103	4800
252.166	10842
252.229	24160
252.292	28162
252.355	69326
252.418	20732
252.481	8665
252.544	5984
252.607	7845
252.670	20127
252.733	29476
252.796	70243
252.858	28333
252.921	11989
252.984	6983
253.047	5050
253.110	4745
253.173	7678
253.236	4887
253.299	4701
253.362	3718
253.425	4143
253.488	9287
253.550	4685
253.613	4668
253.676	4915
253.739	2388
253.802	4145
253.865	2719
253.928	2159
253.990	5659
254.053	8935
254.116	6208
254.179	3713
254.242	2480
254.304	3940
254.367	3750
254.430	3456
254.493	6584
254.555	9832
254.618	3833
254.681	2307
254.743	1524
254.806	2501
254.869	7418
254.932	6812
254.994	1981
255.057	1323
255.120	765
255.182	524
255.245	1450
255.308	1262
255.370	62
255.433	617
255.496	75
255.558	693
255.621	1247
255.683	663
255.746	915
255.809	267
255.871	814
255.934	163
255.996	285
256.059	646
256.121	1718
256.184	4769
256.246	2883
256.309	2277
256.371	1382
256.434	544
256.496	777
256.559	710
256.621	1455
256.684	9212
256.746	23730
256.809	5056
256.871	2599
256.934	2144
256.996	1880
257.059	1161
257.121	846
257.183	287
257.246	277
257.308	269
257.371	5430
257.433	36189
257.495	24495
257.558	9969
257.620	3873
257.683	2838
257.745	1011
257.807	1498
257.870	938
257.932	321
257.994	863
258.056	568
258.119	1370
258.181	2980
258.243	1089
258.306	919
258.368	2924
258.430	4019
258.492	7304
258.555	9276
258.617	2066
258.679	1554
258.741	1879
258.803	491
258.866	548
258.928	52
258.990	-46
259.052	1080
259.114	1680
259.177	1484
259.239	944
259.301	4017
259.363	1931
259.425	931
259.487	245
259.549	764
259.611	303
259.674	1246
259.736	7040
259.798	13209
259.860	24029
259.922	13721
259.984	2939
260.046	1583
260.108	1303
260.170	870
260.232	930
260.294	1094
260.356	357
260.418	2549
260.480	4442
260.542	2159
260.604	8012
260.666	11614
260.728	2443
260.790	2008
260.852	806
260.914	1120
260.976	928
261.038	1714
261.100	13696
261.161	10069
261.223	2071
261.285	5490
261.347	6458
261.409	1215
261.471	1236
261.533	-12
261.595	235
261.656	2902
261.718	6417
261.780	650
261.842	1336
261.904	403
261.966	1017
262.027	1255
262.089	2302
262.151	1119
262.213	1126
262.274	1810
262.336	1440
262.398	719
262.460	3404
262.521	7998
262.583	2361
262.645	749
262.706	1609
262.768	6799
262.830	2128
262.892	1967
262.953	1724
263.015	19063
263.077	43375
263.138	10078
263.200	2856
263.261	2001
263.323	1889
263.385	504
263.446	647
263.508	1791
263.569	1149
263.631	805
263.693	-207
263.754	572
263.816	18
263.877	79
263.939	-244
264.000	278
264.062	1383
264.123	789
264.185	-717
264.246	-793
264.308	765
264.369	2320
264.431	240
264.492	97
264.554	2021
264.615	777
264.677	401
264.738	-401
264.800	16
264.861	479
264.922	-245
264.984	-735
265.045	-438
265.107	726
265.168	11047
265.229	7465
265.291	720
265.352	547
265.413	300
265.475	-1026
265.536	145
265.597	-83
265.659	-1298
265.720	508
265.781	-637
265.843	-217
265.904	1163
265.965	22444
266.026	12070
266.088	2449
266.149	1245
266.210	45
266.271	-642
266.333	-306
266.394	-129
266.455	92
266.516	-12
266.577	1034
266.639	820
266.700	-147
266.761	-531
266.822	-281
266.883	-370
266.944	-594
267.005	774
267.067	-774
267.128	-710
267.189	-894
267.250	783
267.311	-412
267.372	-743
267.433	75
267.494	7
267.555	-766
267.616	-1381
267.677	-460
267.738	-1056
267.799	1577
267.860	2514
267.921	-28
267.982	-92
268.043	72
268.104	-241
268.165	-1214
268.226	-949
268.287	-134
268.348	85
268.409	197
268.470	-644
268.531	-147
268.592	-891
268.653	-849
268.714	-439
268.775	157
268.836	645
268.896	1504
268.957	-406
269.018	-1116
269.079	-76
269.140	-525
269.201	-392
269.262	343
269.322	-181
269.383	-447
269.444	-339
269.505	59
269.565	1365
269.626	-490
269.687	-107
269.748	-659
269.809	-98
269.869	1499
269.930	-454
269.991	-260
270.051	22
270.112	-59
270.173	-802
270.234	-114
270.294	685
270.355	520
270.416	-806
270.476	-50
270.537	910
270.598	2938
270.658	422
270.719	288
270.779	770
270.840	-221
270.901	242
270.961	1032
271.022	1090
271.082	601
271.143	442
271.203	1131
271.264	589
271.325	303
271.385	4089
271.446	1618
271.506	874
271.567	881
271.627	136
271.688	559
271.748	2772
271.809	21486
271.869	29128
271.930	5765
271.990	13224
272.050	23683
272.111	4694
272.171	2486
272.232	3428
272.292	13275
272.352	6955
272.413	3304
272.473	2454
272.534	3254
272.594	2158
272.654	3006
272.715	5464
272.775	1056
272.835	1645
272.896	309
272.956	948
273.016	2364
273.077	2155
273.137	1203
273.197	1141
273.257	7204
273.318	15588
273.378	4840
273.438	5277
273.498	10341
273.559	4147
273.619	8962
273.679	20135
273.739	5687
273.799	2885
273.860	10724
273.920	20164
273.980	4339
274.040	2546
274.100	3597
274.160	22283
274.221	20778
274.281	14558
274.341	13340
274.401	9010
274.461	3232
274.521	3673
274.581	17598
274.641	21379
274.701	7350
274.761	3141
274.821	8768
274.882	32001
274.942	26396
275.002	14008
275.062	4379
275.122	2571
275.182	2186
275.242	3277
275.302	4189
275.362	3040
275.421	2512
275.481	13018
275.541	28379
275.601	12093
275.661	5344
275.721	3986
275.781	1853
275.841	467
275.901	1189
275.961	873
276.021	1208
276.081	2747
276.140	7916
276.200	3387
276.260	2590
276.320	1104
276.380	1475
276.440	327
276.499	567
276.559	56
276.619	987
276.679	4988
276.738	3538
276.798	1661
276.858	1450
276.918	871
276.978	573
277.037	423
277.097	1533
277.157	6455
277.216	2482
277.276	962
277.336	1222
277.395	378
277.455	764
277.515	459
277.574	3396
277.634	5884
277.694	1621
277.753	9783
277.813	7336
277.873	6567
277.932	20349
277.992	5617
278.051	4815
278.111	6256
278.171	3007
278.230	7173
278.290	4747
278.349	2007
278.409	1445
278.468	1172
278.528	770
278.587	671
278.647	540
278.706	7822
278.766	24727
278.825	5729
278.885	2139
278.944	2596
279.004	3139
279.063	3073
279.122	2021
279.182	2068
279.241	2203
279.301	3627
279.360	6803
279.419	34163
279.479	129903
279.538	92678
279.598	18612
279.657	10016
279.716	14185
279.776	26015
279.835	9512
279.894	4654
279.953	4173
280.013	8584
280.072	15821
280.131	12445
280.191	89824
280.250	87703
280.309	16245
280.368	11058
280.428	9306
280.487	4735
280.546	3877
280.605	5684
280.664	7412
280.724	3340
280.783	1003
280.842	1805
280.901	798
280.960	1143
281.019	882
281.079	803
281.138	951
281.197	1941
281.256	13193
281.315	10362
281.374	1438
281.433	1738
281.492	829
281.551	414
281.611	499
281.670	832
281.729	840
281.788	304
281.847	82
281.906	810
281.965	374
282.024	-39
282.083	314
282.142	-513
282.201	881
282.260	4674
282.319	3012
282.378	859
282.436	1685
282.495	8241
282.554	4119
282.613	535
282.672	250
282.731	1477
282.790	818
282.849	1324
282.908	650
282.967	-371
283.025	831
283.084	747
283.143	5409
283.202	11056
283.261	2899
283.319	657
283.378	1179
283.437	997
283.496	1671
283.555	1790
283.613	-18
283.672	484
283.731	2634
283.790	2989
283.848	273
283.907	1284
283.966	1330
284.024	1400
284.083	1266
284.142	3308
284.201	1546
284.259	2101
284.318	12150
284.376	9953
284.435	3243
284.494	3193
284.552	3015
284.611	1414
284.670	1448
284.728	1032
284.787	2331
284.845	2391
284.904	1378
284.962	3475
285.021	7177
285.079	30877
285.138	172176
285.197	146446
285.255	35936
285.314	16583
285.372	10073
285.431	7438
285.489	5831
285.547	4655
285.606	3403
285.664	2155
285.723	2089
285.781	1479
285.840	1727
285.898	1381
285.957	1020
286.015	877
286.073	896
286.132	979
286.190	1791
286.248	1684
286.307	2323
286.365	1991
286.423	630
286.482	409
286.540	1088
286.598	1703
286.657	1176
286.715	1200
286.773	1705
286.832	1868
286.890	3922
286.948	1894
287.006	977
287.064	1024
287.123	1115
287.181	1618
287.239	1376
287.297	1112
287.356	4476
287.414	3307
287.472	1633
287.530	1262
287.588	1535
287.646	3266
287.704	5065
287.763	2928
287.821	2632
287.879	3165
287.937	6838
287.995	18816
288.053	111323
288.111	330538
288.169	125313
288.227	36001
288.285	19500
288.343	14706
288.401	12724
288.459	7831
288.517	4855
288.575	4617
288.633	1907
288.691	2391
288.749	1930
288.807	1228
288.865	1547
288.923	1627
288.981	600
289.039	1335
289.097	1313
289.155	1736
289.213	1471
289.271	1676
289.329	1215
289.386	1812
289.444	2312
289.502	1168
289.560	171
289.618	-591
289.676	2
289.734	369
289.791	174
289.849	211
289.907	1061
289.965	214
290.022	-150
290.080	33
290.138	1255
290.196	11
290.253	271
290.311	-272
290.369	-289
290.427	-24
290.484	57
290.542	233
290.600	702
290.657	353
290.715	907
290.773	-685
290.830	1260
290.888	1229
290.946	883
291.003	496
291.061	724
291.118	4595
291.176	11353
291.234	3202
291.291	600
291.349	-126
291.406	786
291.464	-83
291.521	-87
291.579	-527
291.636	125
291.694	761
291.751	2834
291.809	1634
291.866	185
291.924	-312
291.981	-7
292.039	341
292.096	504
292.154	70
292.211	1411
292.268	3264
292.326	4432
292.383	3066
292.441	1254
292.498	1680
292.555	1052
292.613	2749
292.670	1335
292.727	1319
292.785	5212
292.842	12947
292.899	7795
292.957	2004
293.014	682
293.071	487
293.129	745
293.186	990
293.243	2018
293.300	2664
293.358	1121
293.415	-5
293.472	-875
293.529	1974
293.586	13105
293.644	36235
293.701	16431
293.758	5908
293.815	3337
293.872	5469
293.929	3632
293.987	2425
294.044	5534
294.101	12076
294.158	13947
294.215	5386
294.272	2346
294.329	2282
294.386	3396
294.443	2602
294.500	1474
294.558	267
294.615	2296
294.672	9797
294.729	38870
294.786	34313
294.843	14555
294.900	8560
294.957	5494
295.014	3547
295.070	1941
295.127	2156
295.184	1571
295.241	2700
295.298	14890
295.355	27996
295.412	11901
295.469	4572
295.526	9927
295.583	16879
295.640	14699
295.696	20756
295.753	8545
295.810	3027
295.867	3039
295.924	5169
295.981	4746
296.037	2195
296.094	1403
296.151	506
296.208	650
296.265	996
296.321	1178
296.378	728
296.435	8823
296.492	15533
296.548	13601
296.605	38771
296.662	55218
296.718	19858
296.775	7796
296.832	6006
296.888	12286
296.945	26021
297.002	21247
297.058	8244
297.115	5102
297.172	8062
297.228	38656
297.285	67192
297.341	26479
297.398	8256
297.454	3680
297.511	2963
297.568	2673
297.624	3080
297.681	1422
297.737	1079
297.794	512
297.850	1612
297.907	976
297.963	863
298.020	4286
298.076	14640
298.133	14725
298.189	7121
298.245	15822
298.302	47990
298.358	30088
298.415	13683
298.471	9745
298.527	5772
298.584	4450
298.640	10092
298.697	28683
298.753	21302
298.809	7938
298.866	3488
298.922	1794
298.978	3460
299.035	2759
299.091	1944
299.147	2462
299.203	1813
299.260	2607
299.316	9096
299.372	42449
299.428	40425
299.485	14679
299.541	5471
299.597	4342
299.653	3751
299.710	3910
299.766	3020
299.822	5854
299.878	21203
299.934	26674
299.990	28868
300.046	53615
300.103	27429
300.159	10993
300.215	9326
300.271	9016
300.327	4832
300.383	2917
300.439	2590
300.495	1756
300.551	2944
300.607	8029
300.663	16972
300.719	25268
300.775	35302
300.831	21956
300.887	20110
300.943	16368
300.999	7312
301.055	4226
301.111	4431
301.167	2687
301.223	1890
301.279	1675
301.335	1515
301.391	992
301.447	1381
301.503	2268
301.559	3991
301.614	5552
301.670	9036
301.726	12973
301.782	10307
301.838	14070
301.894	18558
301.949	45343
302.005	136745
302.061	135431
302.117	60228
302.173	21275
302.228	10506
302.284	10371
302.340	16939
302.396	15476
302.451	14198
302.507	35437
302.563	39914
302.618	20635
302.674	7582
302.730	4688
302.785	2721
302.841	2966
302.897	5020
302.952	8177
303.008	7601
303.064	8439
303.119	9693
303.175	5699
303.230	2417
303.286	2148
303.341	1491
303.397	1511
303.453	861
303.508	924
303.564	2666
303.619	11375
303.675	37445
303.730	33841
303.786	13650
303.841	4626
303.897	2921
303.952	5043
304.008	7304
304.063	7249
304.118	11494
304.174	12355
304.229	8565
304.285	5016
304.340	2068
304.372	2311
304.395	2490
304.451	2670
304.463	2523
304.506	2073
304.554	3324
304.562	3536
304.617	8797
304.644	19521
304.672	30803
304.728	46479
304.735	43508
304.783	24104
304.825	12744
304.838	9361
304.894	3994
304.916	3777
304.949	3609
305.004	3056
305.006	3025
305.059	2376
305.097	2109
305.115	2008
305.170	929
305.188	974
305.225	1102
305.278	1956
305.280	1998
305.336	1948
305.369	2115
305.391	2281
305.446	3213
305.459	3404
305.501	3868
305.550	3808
305.556	3837
305.612	9197
305.640	18836
305.667	28115
305.722	35335
305.731	33904
305.777	26091
305.821	33154
305.832	35237
305.887	37267
305.912	30203
305.942	20192
305.997	8901
306.002	8452
306.053	4860
306.092	3473
306.108	3047
306.163	2440
306.183	2210
306.218	1783
306.273	1993
306.273	1988
306.328	2388
306.364	2382
306.383	2257
306.438	2515
306.454	3167
306.493	4863
306.545	13482
306.548	14100
306.603	23584
306.635	25711
306.658	27401
306.713	21681
306.725	19508
306.768	11216
306.816	5551
306.823	4805
306.878	3101
306.906	2524
306.933	2118
306.988	2232
306.997	2323
307.043	2786
307.087	4491
307.098	4977
307.152	10855
307.177	13262
307.207	16151
307.262	18226
307.268	17505
307.317	10952
307.358	8270
307.372	7454
307.427	13124
307.448	17967
307.482	26121
307.536	25206
307.538	24807
307.591	13990
307.629	9137
307.646	6914
307.701	5419
307.719	7018
307.756	11024
307.809	22625
307.810	22878
307.865	19087
307.900	13391
307.920	10008
307.975	6791
307.990	7673
308.029	10843
308.080	28775
308.084	31093
308.139	100073
308.170	114493
308.194	119176
308.248	75731
308.261	69298
308.303	38888
308.351	19356
308.358	17889
308.412	10441
308.441	7969
308.467	6281
308.522	4837
308.531	4748
308.576	4774
308.621	5113
308.631	5234
308.686	10499
308.712	15841
308.740	21699
308.795	20663
308.802	19769
308.849	12609
308.892	8059
308.904	6962
308.959	5343
308.982	5946
309.013	7162
309.068	12279
309.072	13601
309.122	31438
309.162	70248
309.177	91231
309.231	175391
309.253	172760
309.286	134687
309.340	69416
309.343	67525
309.395	30918
309.433	14518
309.449	12007
309.504	7956
309.523	7228
309.558	7067
309.613	8023
309.613	8041
309.667	9486
309.703	8915
309.722	7845
309.776	4901
309.793	4314
309.830	3918
309.883	5357
309.885	5440
309.939	11627
309.973	13727
309.994	14355
310.048	12700
310.063	11750
310.102	7426
310.153	3750
310.157	3616
310.211	2675
310.243	2329
310.265	2261
310.320	2475
310.333	2461
310.374	2049
310.423	1568
310.428	1541
310.483	1424
310.513	1610
310.537	1719
310.591	1949
310.603	1817
310.646	1221
310.693	623
310.700	589
310.754	623
310.783	751
310.808	710
310.862	539
310.873	572
310.917	687
310.963	738
310.971	727
311.025	826
311.053	639
311.079	494
311.133	359
311.143	351
311.188	671
311.233	943
311.242	910
311.296	829
311.323	758
311.350	514
311.404	103
311.413	19
311.458	99
311.503	295
311.512	328
311.567	502
311.593	634
311.621	902
311.675	1364
311.683	1448
311.729	1035
311.772	593
311.783	597
311.837	689
311.862	762
311.891	930
311.945	1277
311.952	1334
311.999	1059
312.042	854
312.053	748
312.107	302
312.132	111
312.222	227
312.311	-32
312.401	131
312.491	752
312.581	742
312.671	326
312.760	326
312.850	324
312.940	745
313.030	411
313.119	191
313.209	690
313.299	250
313.389	564
313.478	180
313.568	371
313.658	-165
313.747	-27
313.837	184
313.927	-2
314.016	112
314.106	350
314.195	469
314.285	663
314.375	132
314.464	475
314.554	586
314.643	-13
314.733	138
314.823	548
314.912	151
315.002	127
315.091	-125
315.181	757
315.270	529
315.360	173
315.449	120
315.539	135
315.628	-43
315.718	1361
315.807	3257
315.896	6873
315.986	1011
316.075	1244
316.165	1813
316.254	1053
316.344	132
316.433	914
316.522	-41
316.612	795
316.701	3
316.790	592
316.880	970
316.969	-169
317.058	43
317.148	636
317.237	-54
317.326	-182
317.415	-655
317.505	1206
317.594	56
317.683	1073
317.772	352
317.862	6084
317.951	11778
318.040	2443
318.129	1930
318.219	900
318.308	566
318.397	1217
318.486	734
318.575	1721
318.664	2047
318.754	-33
318.843	577
318.932	594
319.021	845
319.110	1956
319.199	3165
319.288	2143
319.377	905
319.466	328
319.555	-150
319.644	1246
319.733	1454
319.822	674
319.911	1385
320.000	4049
320.089	1262
320.178	442
320.267	3
320.356	329
320.445	-74
320.534	935
320.623	550
320.712	-149
320.801	148
320.890	1035
320.979	398
321.068	1183
321.157	2041
321.245	2058
321.334	1701
321.423	2379
321.512	983
321.601	1529
321.690	890
321.779	450
321.867	405
321.956	1747
322.045	-70
322.134	1315
322.222	3452
322.311	2473
322.400	1032
322.489	2020
322.577	4649
322.666	935
322.755	1263
322.843	1693
322.932	1367
323.021	1035
323.110	258
323.198	-128
323.287	-82
323.375	2876
323.464	6509
323.553	1436
323.641	4923
323.730	1545
323.819	1210
323.907	4375
323.996	940
324.084	466
324.173	2263
324.261	1583
324.350	-89
324.438	778
324.527	706
324.615	-41
324.704	2819
324.792	3408
324.881	1344
324.969	322
325.058	645
325.146	1315
325.235	2343
325.323	904
325.412	1887
325.500	196
325.588	165
325.677	-140
325.765	490
325.853	24
325.942	173
326.030	238
326.118	-108
326.207	491
326.295	-361
326.383	227
326.472	827
326.560	790
326.648	-549
326.737	-232
326.825	-185
326.913	-163
327.001	-65
327.090	281
327.178	623
327.266	395
327.354	1588
327.442	1905
327.531	111
327.619	211
327.707	470
327.795	805
327.883	-435
327.971	370
328.060	-478
328.148	290
328.236	-95
328.324	-87
328.412	536
328.500	151
328.588	554
328.676	2195
328.764	247
328.852	146
328.940	-55
329.028	404
329.116	-38
329.204	940
329.292	781
329.380	-22
329.468	-278
329.556	-279
329.644	-325
329.732	-186
329.820	84
329.908	226
329.996	1
330.084	23
330.172	2019
330.259	4507
330.347	1776
330.435	216
330.523	197
330.611	2683
330.699	592
330.787	-118
330.874	-352
330.962	-105
331.050	-126
331.138	-361
331.226	-1059
331.313	-208
331.401	-94
331.489	48
331.577	21
331.664	-66
331.752	-25
331.840	53
331.927	143
332.015	-241
332.103	-473
332.190	786
332.278	2177
332.366	803
332.453	108
332.541	189
332.629	-408
332.716	117
332.804	57
332.891	1293
332.979	1148
333.066	-573
333.154	-190
333.242	460
333.329	-177
333.417	-291
333.504	949
333.592	480
333.679	931
333.767	-94
333.854	-67
333.942	318
334.029	1252
334.117	2007
334.204	3456
334.291	-218
334.379	654
334.466	676
334.554	-197
334.641	-433
334.728	286
334.816	1939
334.903	10273
334.990	5110
335.078	-203
335.165	-282
335.252	408
335.340	147
335.427	2807
335.514	1055
335.602	34
335.689	-189
335.776	321
335.863	-61
335.951	216
336.038	2838
336.125	8896
336.212	1954
336.299	253
336.387	220
336.474	-363
336.561	-67
336.648	394
336.735	160
336.822	-288
336.910	-70
336.997	1546
337.084	3239
337.171	3800
337.258	5604
337.345	1231
337.432	1
337.519	-171
337.606	510
337.693	1258
337.780	2301
337.867	453
337.954	1001
338.041	549
338.128	-470
338.215	935
338.302	1666
338.389	3413
338.476	530
338.563	828
338.650	999
338.737	863
338.824	1186
338.911	-98
338.998	-49
339.085	-448
339.171	956
339.258	350
339.345	1087
339.432	615
339.519	145
339.606	-607
339.692	-86
339.779	-581
339.866	343
339.953	60
340.040	-567
340.126	-346
340.213	-209
340.300	-261
340.387	965
340.473	416
340.560	-332
340.647	801
340.733	2868
340.820	239
340.907	226
340.993	-168
341.080	696
341.167	-11
341.253	559
341.340	57
341.426	343
341.513	-94
341.600	521
341.686	12
341.773	380
341.859	434
341.946	-40
342.032	-1105
342.119	361
342.205	-112
342.292	-423
342.378	259
342.465	165
342.551	-908
342.638	1514
342.724	1803
342.811	455
342.897	-960
342.984	-645
343.070	-563
343.156	47
343.243	255
343.329	-514
343.416	-295
343.502	-640
343.588	-269
343.675	-238
343.761	283
343.847	106
343.934	2275
344.020	26037
344.106	21886
344.193	2300
344.279	834
344.365	5967
344.451	2433
344.538	507
344.624	262
344.710	67
344.796	-572
344.882	-60
344.969	-48
345.055	407
345.141	-478
345.227	25
345.313	210
345.399	-95
345.486	-1057
345.572	-73
345.658	-345
345.744	3
345.830	-311
345.916	408
346.002	196
346.088	305
346.174	71
346.260	-437
346.346	-213
346.432	249
346.518	4043
346.604	5146
346.690	-179
346.776	398
346.862	-165
346.948	-661
347.034	216
347.120	35
347.206	-521
347.292	111
347.378	138
347.464	4901
347.549	9300
347.635	5408
347.721	1508
347.807	-119
347.893	63
347.979	274
348.065	-103
348.150	-41
348.236	-86
348.322	-270
348.408	112
348.493	181
348.579	-392
348.665	-123
348.751	-723
348.836	-760
348.922	806
349.008	8678
349.094	5370
349.179	191
349.265	-1
349.351	26
349.436	-95
349.522	-322
349.608	-41
349.693	785
349.779	3039
349.864	48
349.950	-384
350.036	-138
350.121	304
350.207	-115
350.292	-269
350.378	699
350.463	228
350.549	-253
350.634	-224
350.720	-66
350.805	-765
350.891	-275
350.976	-6
351.062	193
351.147	-645
351.233	200
351.318	1666
351.404	1569
351.489	-621
351.574	-430
351.660	-841
351.745	-127
351.830	-273
351.916	-1009
352.001	590
352.086	1775
352.172	405
352.257	-73
352.342	247
352.428	-298
352.513	1535
352.598	4294
352.684	30
352.769	3
352.854	-726
352.939	282
353.024	-380
353.110	540
353.195	-155
353.280	-26
353.365	1157
353.450	228
353.536	238
353.621	556
353.706	-13
353.791	1148
353.876	-437
353.961	274
354.046	750
354.131	1423
354.216	504
354.302	125
354.387	-312
354.472	357
354.557	-578
354.642	-304
354.727	344
354.812	52
354.897	-505
354.982	-346
355.067	-47
355.152	754
355.237	655
355.321	-331
355.406	1172
355.491	1725
355.576	-59
355.661	1414
355.746	765
355.831	4755
355.916	1084
356.001	-580
356.085	58
356.170	231
356.255	311
356.340	193
356.425	2227
356.509	16114
356.594	4073
356.679	-330
356.764	645
356.849	710
356.933	16167
357.018	25295
357.103	3171
357.187	216
357.272	-450
357.357	380
357.441	-680
357.526	260
357.611	-678
357.695	94
357.780	-26
357.865	31
357.949	667
358.034	16889
358.118	33229
358.203	3859
358.288	592
358.372	421
358.457	3884
358.541	5955
358.626	3611
358.710	3147
358.795	-245
358.879	-368
358.964	95
359.048	-1201
359.133	-225
359.217	-497
359.302	-462
359.386	376
359.470	-858
359.555	402
359.639	-780
359.724	-313
359.808	-871
359.892	119
359.977	-666
360.061	-186
360.145	-303
360.230	702
360.314	-83
360.398	-79
360.483	824
360.567	1369
360.651	1976
360.735	-89
360.820	10854
360.904	10014
360.988	2037
361.072	-654
361.157	-117
361.241	-531
361.325	-657
361.409	-184
361.493	794
361.577	-511
361.662	-721
361.746	1523
361.830	16927
361.914	7817
361.998	448
362.082	644
362.166	25
362.250	514
362.334	300
362.418	574
362.502	229
362.586	-605
362.671	-401
362.754	-636
362.839	276
362.922	-404
363.006	3775
363.090	18060
363.174	9653
363.258	309
363.342	107
363.426	410
363.510	2541
363.594	857
363.678	-632
363.762	-260
363.846	-583
363.929	-565
364.013	-152
364.097	-112
364.181	592
364.265	4351
364.349	2425
364.432	5499
364.516	593
364.600	917
364.684	4905
364.767	15253
364.851	2021
364.935	696
365.019	-123
365.102	-50
365.186	149
365.270	1495
365.353	3074
365.437	28
365.521	-986
365.604	-565
365.688	-298
365.771	-1313
365.855	-828
365.939	-257
366.022	415
366.106	-1279
366.189	-267
366.273	135
366.357	-766
366.440	-342
366.524	-492
366.607	-928
366.691	-98
366.774	225
366.858	258
366.941	377
367.024	-759
367.108	-1188
367.191	554
367.275	127
367.358	-1265
367.442	-355
367.525	-1176
367.608	-489
367.692	-959
367.775	-153
367.858	812
367.942	4679
368.025	1856
368.108	-292
368.192	-353
368.275	341
368.358	-263
368.442	898
368.525	1120
368.608	35
368.691	3484
368.775	2249
368.858	72
368.941	-82
369.024	-563
369.107	-464
369.190	-491
369.274	-537
369.357	369
369.440	-866
369.523	-416
369.606	-1241
369.689	15
369.772	-736
369.855	-287
369.939	-868
370.022	-648
370.105	-57
370.188	1651
370.271	227
370.354	329
370.437	1164
370.520	7870
370.603	3107
370.686	207
370.769	2488
370.852	5160
370.935	4750
371.018	137
371.100	-1330
371.183	-475
371.266	-673
371.349	-1249
371.432	0
371.515	-1173
371.598	-568
371.681	-342
371.763	487
371.846	1300
371.929	25010
372.012	17099
372.095	2471
372.177	4436
372.260	5457
372.343	-235
372.426	1190
372.508	109
372.591	-106
372.674	3435
372.757	5589
372.839	-465
372.922	524
373.005	193
373.087	-138
373.170	553
373.253	3495
373.335	6958
373.418	28353
373.500	22096
373.583	5366
373.666	28192
373.748	9764
373.831	-16
373.913	-201
373.996	-340
374.078	1866
374.161	392
374.243	1926
374.326	3514
374.408	2185
374.491	17581
374.573	17632
374.656	999
374.738	6699
374.821	13810
374.903	28761
374.985	9125
375.068	1000
375.150	-202
375.233	1772
375.315	861
375.397	-402
375.480	-373
375.562	-424
375.644	-382
375.727	7757
375.809	17176
375.891	4968
375.973	-329
376.056	578
376.138	474
376.220	261
376.302	7995
376.385	8354
376.467	584
376.549	716
376.631	4470
376.713	7304
376.795	130
376.878	-232
376.960	-935
377.042	-729
377.124	303
377.206	-560
377.288	-785
377.370	-1033
377.452	-384
377.534	-450
377.616	-716
377.699	-284
377.781	-1300
377.863	-162
377.945	-608
378.027	-930
378.109	-233
378.190	-826
378.272	-283
378.354	-1179
378.436	-138
378.518	-20
378.600	434
378.682	746
378.764	2913
378.846	173
378.928	-303
379.010	-1203
379.091	-60
379.173	-430
379.255	-906
379.337	-77
379.419	2337
379.501	3258
379.582	14
379.664	-352
379.746	706
379.828	3334
379.909	3369
379.991	896
380.073	-739
380.155	-10
380.236	-1534
380.318	-1387
380.400	-1245
380.481	270
380.563	-545
380.645	-357
380.726	-161
380.808	-328
380.889	-193
380.971	-1253
381.053	-557
381.134	-619
381.216	1133
381.297	1796
381.379	-333
381.460	2183
381.542	13430
381.623	3634
381.705	151
381.786	456
381.868	-161
381.949	12281
382.031	22426
382.112	4024
382.193	-349
382.275	852
382.356	3758
382.438	7164
382.519	17007
382.600	11121
382.682	4200
382.763	8656
382.844	3301
382.926	5342
383.007	824
383.088	1913
383.170	15038
383.251	7342
383.332	6696
383.413	10081
383.495	654
383.576	52
383.657	-421
383.738	14700
383.820	20982
383.901	3137
383.982	7350
384.063	10562
384.144	946
384.225	165
384.306	47
384.388	-291
384.469	-768
384.550	-701
384.631	-202
384.712	-48
384.793	-410
384.874	-224
384.955	2934
385.036	60
385.117	-1187
385.198	71
385.279	-414
385.360	-18
385.441	-442
385.522	1524
385.603	7672
385.684	988
385.765	-386
385.846	898
385.927	19849
386.008	10643
386.089	-337
386.169	-55
386.250	-945
386.331	-54
386.412	-95
386.493	1574
386.574	181
386.654	-346
386.735	-472
386.816	-384
386.897	-445
386.977	-407
387.058	-1434
387.139	-111
387.220	2905
387.300	1126
387.381	60
387.462	-1038
387.542	-4
387.623	-482
387.704	1383
387.784	7885
387.865	3263
387.946	710
388.026	2
388.107	-2197
388.187	158
388.268	729
388.349	-289
388.429	-279
388.510	2762
388.590	12179
388.671	4503
388.751	1129
388.832	1324
388.912	256
388.993	-1286
389.073	-260
389.154	-873
389.234	-1219
389.314	772
389.395	-1934
389.475	2997
389.556	1659
389.636	289
389.716	-71
389.797	-829
389.877	2178
389.957	4340
390.038	-371
390.118	-718
390.198	1135
390.279	1901
390.359	-490
390.439	3350
390.519	9983
390.600	1981
390.680	-1053
390.760	69
390.840	-58
390.920	-1603
391.001	-1211
391.081	-188
391.161	29
391.241	-1836
391.321	-427
391.401	-283
391.481	-384
391.562	-1894
391.642	-809
391.722	-135
391.802	608
391.882	-366
391.962	1827
392.042	436
392.122	76
392.202	1523
392.282	2994
392.362	433
392.442	357
392.522	-980
392.602	181
392.682	926
392.762	3258
392.842	430
392.921	3460
393.001	4827
393.081	1597
393.161	4436
393.241	37816
393.321	131489
393.401	41844
393.480	6515
393.560	962
393.640	885
393.720	-572
393.800	-494
393.879	732
393.959	-96
394.039	444
394.119	-431
394.198	1500
394.278	18022
394.358	71746
394.437	18449
394.517	1876
394.597	13
394.676	296
394.756	89
394.836	481
394.915	-674
394.995	-157
395.075	-372
395.154	310
395.234	117
395.313	-231
395.393	-1339
395.472	1399
395.552	198
395.631	2113
395.711	1700
395.790	1974
395.870	589
395.949	1534
396.029	22866
396.108	89315
396.188	23783
396.267	3304
396.346	-123
396.426	247
396.505	653
396.585	590
396.664	4254
396.743	46938
396.823	88795
396.902	17994
396.981	2022
397.061	829
397.140	-1745
397.219	80
397.298	-343
397.378	-298
397.457	-173
397.536	208
397.615	-1926
397.694	382
397.774	-382
397.853	-814
397.932	-753
398.011	-840
398.090	160
398.169	628
398.249	-627
398.328	601
398.407	-1405
398.486	-679
398.565	-685
398.644	-1622
398.723	-882
398.802	-400
398.881	103
398.960	1610
399.039	-712
399.118	-1445
399.197	-1067
399.276	247
399.355	-1356
399.434	-1045
399.513	-726
399.592	-1638
399.671	-665
399.750	-342
399.829	2438
399.908	181
399.986	-915
400.065	-1263
400.144	-1783
400.223	754
400.302	-1032
400.380	-1559
400.459	1435
400.538	83
400.617	-1243
400.696	-394
400.774	-1188
400.853	-950
400.932	-1597
401.011	347
401.089	-1457
401.168	-936
401.247	-587
401.325	-724
401.404	-110
401.483	-1106
401.561	-100
401.640	-1416
401.718	-315
401.797	-993
401.876	-1800
401.954	-629
402.033	-893
402.111	62
402.190	-719
402.268	-1039
402.347	-836
402.425	-77
402.504	-1565
402.582	-557
402.661	-641
402.739	-767
402.818	-963
402.896	-469
402.974	888
403.053	1423
403.131	48
403.210	1825
403.288	922
403.366	708
403.445	-53
403.523	-569
403.601	-758
403.680	-1868
403.758	-120
403.836	-406
403.915	-842
403.993	-896
404.071	788
404.149	-1144
404.228	-1120
404.306	175
404.384	-160
404.462	2422
404.540	12692
404.618	2012
404.697	-75
404.775	-702
404.853	-745
404.931	-867
405.009	-1595
405.087	-540
405.165	-968
405.243	-1879
405.321	-202
405.399	-871
405.478	-377
405.556	-46
405.634	-1290
405.712	-1192
405.790	-460
405.868	-984
405.945	-406
406.023	-975
406.101	-1836
406.179	-808
406.257	1983
406.335	6918
406.413	591
406.491	-1068
406.569	-1371
406.647	-274
406.724	-531
406.802	-1161
406.880	-1011
406.958	-328
407.036	-1314
407.113	5481
407.191	642
407.269	-216
407.347	-2013
407.424	-501
407.502	-1070
407.580	-1048
407.658	644
407.735	3009
407.813	-230
407.891	-472
407.968	-830
408.046	-162
408.124	-1205
408.201	-755
408.279	-837
408.356	-1079
408.434	-453
408.512	-1642
408.589	-929
408.667	-935
408.744	-1073
408.822	-460
408.899	-1344
408.977	-78
409.054	-1276
409.132	-1251
409.209	-826
409.287	-643
409.364	-689
409.441	-1077
409.519	-888
409.596	-572
409.674	-1015
409.751	-696
409.828	-871
409.906	293
409.983	-1999
410.060	-814
410.138	22
410.215	-115
410.292	-1736
410.370	-1144
410.447	-641
410.524	-1727
410.601	-541
410.678	-71
410.756	-914
410.833	-1649
410.910	-672
410.987	-35
411.064	-1042
411.142	-1239
411.219	-979
411.296	-311
411.373	-206
411.450	60
411.527	-1035
411.604	-1908
411.681	-1645
411.758	-909
411.835	-1167
411.913	-1274
411.990	-1798
412.067	18
412.144	-1014
412.221	-971
412.298	-765
412.374	-1550
412.451	-783
412.528	-1426
412.605	-1423
412.682	-675
412.759	-233
412.836	-111
412.913	-1100
412.990	-499
413.067	-773
413.143	207
413.220	126
413.297	-1310
413.374	47
413.451	-1156
413.527	-427
413.604	97
413.681	-1607
413.758	-815
413.834	-1030
413.911	-1025
413.988	-1675
414.065	-2
414.141	-1644
414.218	-615
414.295	773
414.371	1604
414.448	-1349
414.524	-286
414.601	-1293
414.678	-982
414.754	-1002
414.831	-1229
414.907	-497
414.984	-1073
415.060	-672
415.137	-1324
415.213	-649
415.290	110
415.366	-717
415.443	-1228
415.519	-457
415.596	-828
415.672	-54
415.749	-1108
415.825	-1081
415.902	-624
415.978	-1309
416.054	-472
416.131	-1318
416.207	-1519
416.283	-1269
416.360	-993
416.436	-216
416.512	-876
416.589	-617
416.665	-967
416.741	-1113
416.817	-1285
416.894	-1092
416.970	-778
417.046	-727
417.122	-947
417.198	-581
417.275	-951
417.351	-1776
417.427	-699
417.503	-1175
417.579	-1558
417.655	-491
417.731	-1403
417.808	-1488
417.884	-650
417.960	-1079
418.036	-1415
418.112	-141
418.188	-1123
418.264	-466
418.340	-683
418.416	-1225
418.492	112
418.568	-1233
418.644	-561
418.720	-1162
418.796	283
418.872	-1701
418.947	-1442
419.023	-823
419.099	310
419.175	-1840
419.251	-790
419.327	-1302
419.403	-1096
419.478	-586
419.554	-519
419.630	-1108
419.706	-1177
419.782	-903
419.857	-372
419.933	-923
420.009	76
420.085	-406
420.160	748
420.236	24
420.312	-770
420.387	-954
420.463	-676
420.539	-994
420.614	-468
420.690	-1452
420.766	-1551
420.841	-108
420.917	-1261
420.992	-686
421.068	-806
421.143	-644
421.219	-1339
421.294	58
421.370	-1305
421.445	328
421.521	658
421.596	-252
421.672	-715
421.747	-682
421.823	-905
421.898	-396
421.974	-202
422.049	-622
422.124	-1392
422.200	-940
422.275	130
422.350	-422
422.426	-93
422.501	4952
422.576	36303
422.652	44775
422.727	9164
422.802	875
422.878	239
422.953	-1402
423.028	-47
423.103	-555
423.178	-670
423.254	-1503
423.329	-83
423.404	-950
423.479	75
423.554	-1175
423.630	-474
423.705	-185
423.780	-438
423.855	-494
423.930	-1736
424.005	-788
424.080	-619
424.155	-1664
424.230	-975
424.305	-1000
424.380	-596
424.455	-1002
424.530	-890
424.605	-1418
424.680	-654
424.755	-542
424.830	-1064
424.905	-868
424.980	912
425.055	-214
425.130	-628
425.204	-20
425.279	-872
425.354	-1096
425.429	-1497
425.504	-718
425.579	-1197
425.653	-1306
425.728	-1113
425.803	-792
425.878	-361
425.952	-897
426.027	822
426.102	-1175
426.177	-764
426.251	10
426.326	-1156
426.401	-1096
426.475	-442
426.550	-666
426.625	-1156
426.699	-744
426.774	-1426
426.848	-1144
426.923	-818
426.998	-260
427.072	1917
427.147	3188
427.221	187
427.296	-1107
427.370	-1449
427.445	-1203
427.519	-1699
427.594	-1218
427.668	-138
427.743	-1708
427.817	-771
427.892	-1702
427.966	-1411
428.040	-1130
428.115	-6
428.189	1428
428.263	3640
428.338	-1148
428.412	-1490
428.486	-722
428.561	-1318
428.635	-896
428.709	-975
428.784	-158
428.858	3633
428.932	666
429.006	-399
429.080	-1190
429.155	-662
429.229	-1049
429.303	-609
429.377	223
429.451	-419
429.526	-884
429.600	-961
429.674	-1973
429.748	-1066
429.822	3055
429.896	1754
429.970	156
430.044	-390
430.118	1498
430.192	10650
430.266	3222
430.340	-751
430.414	-554
430.488	-269
430.562	-355
430.636	729
430.710	7049
430.784	3154
430.858	-1034
430.932	-1315
431.006	-609
431.080	-700
431.153	-1119
431.227	-776
431.301	-1004
431.375	-4
431.449	-1620
431.523	-451
431.596	-1012
431.670	-823
431.744	-108
431.818	3854
431.891	-272
431.965	-1049
432.039	-408
432.112	-939
432.186	-936
432.260	-771
432.333	-548
432.407	-615
432.481	2181
432.554	2996
432.628	-803
432.702	-354
432.775	-1480
432.849	-1057
432.922	-702
432.996	-1269
433.069	-1428
433.143	-513
433.216	-1252
433.290	-485
433.363	-1157
433.437	-730
433.510	-1417
433.584	-921
433.657	-1758
433.730	-339
433.804	-1797
433.877	-521
433.951	-807
434.024	-733
434.097	-1022
434.171	-1090
434.244	-1300
434.317	-1307
434.391	-666
434.464	-954
434.537	-1212
434.610	-725
434.684	-1051
434.757	-1211
434.830	-1951
434.903	-1035
434.977	-548
435.050	-1082
435.123	-834
435.196	-190
435.269	-1426
435.342	-1040
435.415	-1332
435.489	-747
435.562	-696
435.635	-298
435.708	-929
435.781	-455
435.854	-531
435.927	-211
436.000	-1174
436.073	-908
436.146	-993
436.219	-623
436.292	-1335
436.365	-573
436.438	-956
436.511	-862
436.584	-809
436.657	-839
436.729	-573
436.802	-234
436.875	-790
436.948	-1088
437.021	-1814
437.094	-1249
437.166	-1232
437.239	-558
437.312	-1362
437.385	-1069
437.457	-1343
437.530	-542
437.603	-1541
437.676	-665
437.748	-1036
437.821	-1091
437.894	-947
437.966	-738
438.039	-635
438.112	-241
438.184	-338
438.257	4819
438.330	6905
438.402	815
438.475	-545
438.547	-1123
438.620	-1504
438.692	-857
438.765	-1768
438.837	-382
438.910	-1621
438.982	-611
439.055	-1135
439.127	-1164
439.200	-730
439.272	-1462
439.345	-834
439.417	-594
439.489	-1758
439.562	-806
439.634	-886
439.707	-1410
439.779	-1440
439.851	-742
439.923	-752
439.996	-1119
440.068	-1576
440.140	-1276
440.213	-1211
440.285	-230
440.357	441
440.429	3392
440.502	50
440.574	-977
440.646	-59
440.718	-1325
440.790	-1011
440.862	-883
440.935	-1674
441.007	-960
441.079	-228
441.151	-1372
441.223	-822
441.295	-2476
441.367	-1016
441.439	596
441.511	-446
441.583	-647
441.655	-1374
441.727	-636
441.799	-822
441.871	-1254
441.943	-1165
442.015	-1233
442.087	-914
442.159	-634
442.231	-1161
442.303	-451
442.374	-1014
442.446	908
442.518	1947
442.590	65
442.662	-845
442.734	-770
442.805	-1240
442.877	-918
442.949	-1110
443.021	-662
443.092	-960
443.164	-1231
443.236	-1464
443.308	-690
443.379	1967
443.451	7360
443.523	2843
443.594	-297
443.666	-640
443.737	-1331
443.809	-1524
443.881	-495
443.952	-1446
444.024	-921
444.095	-1022
444.167	-901
444.238	-565
444.310	-1437
444.381	-655
444.453	-875
444.524	-1306
444.596	-688
444.667	-1342
444.739	-625
444.810	-1164
444.882	-1832
444.953	-446
445.024	-228
445.096	-1359
445.167	-1192
445.238	-1100
445.310	-76
445.381	5819
445.452	8867
445.524	2583
445.595	115
445.666	-1201
445.737	-993
445.809	-1426
445.880	-691
445.951	-744
446.022	-1508
446.094	-579
446.165	-833
446.236	-1177
446.307	-809
446.378	-728
446.449	-1136
446.520	-1021
446.591	-842
446.663	-1421
446.734	-810
446.805	-518
446.876	-1151
446.947	-1389
447.018	-1087
447.089	-761
447.160	-536
447.231	-1272
447.302	-724
447.373	-1093
447.444	-936
447.514	-763
447.585	-1424
447.656	-824
447.727	-1103
447.798	-629
447.869	-1442
447.940	-1355
448.010	-1137
448.081	-1180
448.152	-958
448.223	-1345
448.294	-811
448.364	-988
448.435	-1386
448.506	-1001
448.577	-749
448.647	-800
448.718	-701
448.789	-347
448.859	-1675
448.930	-799
449.001	-1414
449.071	-1265
449.142	-1389
449.213	-1324
449.283	-752
449.354	-699
449.424	-842
449.495	-890
449.565	-556
449.636	-1146
449.706	-633
449.777	-1542
449.847	-1743
449.918	-1570
449.988	-1659
450.059	-1458
450.129	-1021
450.200	-1516
450.270	-1200
450.340	-804
450.411	-455
450.481	-1280
450.551	-1067
450.622	-1400
450.692	-672
450.762	-1066
450.833	-815
450.903	-1072
450.973	-1032
451.043	-896
451.114	-1681
451.184	-1074
451.254	-657
451.324	-1060
451.395	-1105
451.465	-1163
451.535	-577
451.605	-413
451.675	-769
451.745	-307
451.815	-1384
451.885	-1855
451.956	-1135
452.026	-1258
452.096	-367
452.166	-1023
452.236	-930
452.306	-1137
452.376	-1599
452.446	-1044
452.516	-1102
452.586	-331
452.656	-517
452.725	-1008
452.795	-497
452.865	-785
452.935	-863
453.005	-882
453.075	-1041
453.145	-712
453.215	-426
453.284	-531
453.354	-637
453.424	-4
453.494	-368
453.564	-476
453.633	-1624
453.703	-856
453.773	-1258
453.843	-1374
453.895	-1488
453.912	-1548
453.976	-1128
453.982	-1114
454.052	-1239
454.057	-1208
454.121	-1155
454.139	-1197
454.191	-1337
454.220	-925
454.261	-568
454.301	-543
454.330	-713
454.382	-1612
454.400	-1904
454.463	-270
454.469	-125
454.539	-614
454.544	-542
454.608	230
454.625	537
454.678	1512
454.707	2273
454.748	2238
454.788	2700
454.817	1881
454.869	370
454.887	268
454.950	142
454.956	185
455.026	1765
455.031	1973
455.095	3453
455.112	3901
455.165	5746
455.193	7409
455.234	6691
455.274	6642
455.303	5423
455.355	2763
455.373	2327
455.436	1246
455.442	1094
455.512	223
455.517	132
455.581	-379
455.598	-301
455.650	-199
455.679	-507
455.720	-823
455.760	-536
455.789	-421
455.841	-29
455.858	79
455.922	-225
455.928	-256
455.997	-226
456.003	-142
456.066	1168
456.084	1265
456.136	2240
456.165	3372
456.205	3493
456.245	3415
456.274	2378
456.326	410
456.343	346
456.407	268
456.412	242
456.482	93
456.488	94
456.551	-204
456.569	-164
456.620	184
456.650	269
456.689	234
456.730	5
456.758	-58
456.811	492
456.827	981
456.892	2513
456.897	2786
456.966	7946
456.973	8519
457.035	11214
457.054	12299
457.104	5680
457.134	1348
457.173	741
457.215	388
457.242	497
457.296	1009
457.311	1146
457.377	1318
457.380	1309
457.449	1446
457.457	1488
457.518	2042
457.538	2055
457.587	3427
457.619	4750
457.656	7044
457.699	9671
457.725	8207
457.780	4993
457.794	5116
457.861	6507
457.863	6672
457.932	12283
457.941	13120
458.001	13116
458.022	13225
458.070	7898
458.103	4320
458.138	4316
458.183	3757
458.207	4171
458.264	5167
458.276	6040
458.344	11890
458.345	11945
458.414	22615
458.425	24533
458.483	15200
458.506	11266
458.551	6867
458.586	3487
458.620	2995
458.667	2190
458.689	2229
458.747	2241
458.758	2314
458.826	3531
458.828	3549
458.895	2530
458.908	2370
458.964	2479
458.989	2585
459.033	2863
459.069	3131
459.101	3236
459.150	3029
459.170	2814
459.230	2745
459.239	2770
459.307	2521
459.311	2528
459.376	2751
459.391	2722
459.444	2673
459.471	2702
459.513	2573
459.552	2354
459.582	2573
459.632	3154
459.650	3203
459.713	3110
459.719	3117
459.787	2881
459.793	2942
459.856	2765
459.873	2509
459.924	2729
459.954	3022
459.993	3700
460.034	4169
460.061	5086
460.114	7391
460.130	6929
460.195	4245
460.198	4184
460.267	3116
460.275	2962
460.335	3869
460.355	4220
460.404	6000
460.436	7035
460.472	12180
460.516	18791
460.540	19701
460.596	21134
460.609	18352
460.676	3863
460.677	3880
460.745	3463
460.757	3565
460.814	3468
460.837	3178
460.882	4440
460.917	5575
460.950	5284
460.997	4673
461.019	4281
461.077	3551
461.087	3666
461.155	3883
461.158	3887
461.224	3785
461.238	3726
461.292	3398
461.318	3366
461.360	4727
461.398	5501
461.428	8217
461.478	13365
461.496	16461
461.558	26346
461.565	24983
461.633	9522
461.638	8199
461.701	6480
461.719	6089
461.769	5629
461.799	5157
461.837	4636
461.879	4121
461.905	4206
461.959	4075
461.973	4655
462.039	7444
462.042	7740
462.110	14663
462.119	15529
462.178	12032
462.199	10591
462.246	6901
462.279	4431
462.314	5076
462.359	5728
462.382	5296
462.439	4384
462.450	4520
462.518	5005
462.519	4989
462.586	4277
462.599	4146
462.654	6099
462.679	7075
462.722	9071
462.759	10440
462.790	8623
462.839	5772
462.858	5515
462.919	4687
462.926	4671
462.993	3990
462.999	3944
463.061	5507
463.078	5946
463.129	5961
463.158	5672
463.197	6084
463.238	6696
463.265	6602
463.318	6067
463.333	5996
463.398	5870
463.401	5927
463.468	6692
463.478	6734
463.536	8436
463.558	8990
463.604	12200
463.637	14507
463.672	15773
463.717	17379
463.739	20645
463.797	28682
463.807	26685
463.875	12430
463.877	11984
463.943	6365
463.957	5161
464.010	5634
464.036	5698
464.078	5758
464.116	6082
464.146	6799
464.196	7445
464.213	7341
464.275	7222
464.281	7474
464.349	10014
464.355	10206
464.416	8068
464.435	7346
464.484	8049
464.515	8398
464.551	9524
464.594	10927
464.619	9954
464.674	7509
464.686	7648
464.754	8226
464.754	8274
464.821	9185
464.833	9303
464.889	7668
464.913	6933
464.956	6711
464.992	6398
465.024	6745
465.072	7354
465.091	7355
465.152	7071
465.159	7471
465.226	10868
465.231	11055
465.294	14135
465.311	14844
465.361	14905
465.390	14909
465.429	21070
465.470	27477
465.496	22935
465.549	13285
465.563	12339
465.629	7339
465.631	7384
465.698	7626
465.708	7577
465.765	7237
465.788	7144
465.833	7147
465.867	6982
465.900	7551
465.947	8325
465.967	8439
466.026	8515
466.035	8535
466.102	8354
466.106	8293
466.169	8362
466.185	8339
466.236	8655
466.265	8700
466.304	9285
466.344	9854
466.371	11216
466.423	13641
466.438	15535
466.503	23762
466.505	24562
466.572	44751
466.582	47520
466.639	31971
466.662	25635
466.707	18555
466.741	12910
466.774	12955
466.820	12845
466.841	12558
466.900	11483
466.908	11538
466.975	11431
466.979	11360
467.042	12500
467.058	12709
467.109	13032
467.138	13087
467.176	12800
467.217	12361
467.243	12496
467.296	12555
467.310	12474
467.375	11713
467.377	11741
467.455	9933
467.534	9709
467.613	12907
467.692	17669
467.772	16245
467.851	13027
467.930	22446
468.009	48372
468.088	22423
468.167	11720
468.246	13653
468.326	13814
468.405	11871
468.484	10216
468.563	12686
468.642	13383
468.721	10785
468.800	10486
468.879	13791
468.958	21671
469.037	10717
469.116	9539
469.195	7340
469.274	9477
469.353	9801
469.432	9479
469.511	9620
469.590	12587
469.669	15835
469.748	17008
469.827	10488
469.905	8875
469.984	10773
470.063	12646
470.142	19195
470.221	16072
470.300	13650
470.378	10671
470.457	10291
470.536	15911
470.615	14258
470.694	11553
470.772	14475
470.851	22289
470.930	8617
471.008	8277
471.087	6942
471.166	6274
471.245	8853
471.323	8679
471.402	7358
471.480	7109
471.559	8557
471.638	7979
471.716	7859
471.795	8529
471.873	7066
471.952	7806
472.031	12020
472.109	12533
472.188	9621
472.266	6850
472.345	6885
472.423	7505
472.502	9218
472.580	12648
472.659	11534
472.737	10167
472.815	7355
472.894	9856
472.972	11250
473.051	7442
473.129	9846
473.207	9373
473.286	9118
473.364	10958
473.443	15890
473.521	21887
473.599	10231
473.677	9352
473.756	12923
473.834	10218
473.912	8051
473.991	11873
474.069	17692
474.147	17033
474.225	7084
474.303	8080
474.382	9727
474.460	8402
474.538	8635
474.616	9781
474.694	9381
474.772	8130
474.851	8248
474.929	8480
475.007	9324
475.085	10587
475.163	14311
475.241	24922
475.319	10461
475.397	8433
475.475	10060
475.553	17322
475.631	34823
475.709	33577
475.787	33964
475.865	9257
475.943	11333
476.021	17261
476.099	18670
476.177	9981
476.255	8925
476.333	10547
476.410	16907
476.488	18524
476.566	8421
476.644	8900
476.722	8378
476.800	7742
476.877	6491
476.955	8251
477.033	9276
477.111	9481
477.189	6974
477.266	6972
477.344	6486
477.422	7978
477.499	7502
477.577	7743
477.655	10662
477.732	8594
477.810	11051
477.888	8893
477.965	8666
478.043	10094
478.121	17732
478.198	27340
478.276	9220
478.353	7712
478.431	7670
478.508	11786
478.586	7959
478.664	8590
478.741	11358
478.819	12593
478.896	7117
478.974	9027
479.051	11377
479.128	10689
479.206	6016
479.283	6810
479.361	6740
479.438	8803
479.516	8756
479.593	8340
479.670	9074
479.748	10316
479.825	16261
479.902	8567
479.980	7486
480.057	7039
480.134	7624
480.211	9575
480.289	14247
480.366	24113
480.443	10298
480.520	7945
480.598	9251
480.675	9206
480.752	8830
480.829	9411
480.906	8751
480.984	10218
481.061	10035
481.138	6354
481.215	6214
481.292	8111
481.369	7535
481.446	8749
481.523	7149
481.600	7116
481.677	8014
481.754	9341
481.831	16121
481.908	17214
481.985	9528
482.062	11592
482.139	23241
482.216	29733
482.293	9988
482.370	8587
482.447	7765
482.524	7799
482.601	9193
482.678	6473
482.755	5474
482.832	7234
482.908	6706
482.985	8101
483.062	9439
483.139	8034
483.216	7900
483.293	8662
483.369	8583
483.446	9869
483.523	6883
483.600	7579
483.676	8679
483.753	10566
483.830	18117
483.906	40692
483.983	21452
484.060	15583
484.136	15880
484.213	13648
484.290	11620
484.366	10205
484.443	11099
484.519	12872
484.596	13047
484.673	14564
484.749	11987
484.826	10233
484.902	12005
484.979	11062
485.055	10753
485.132	9998
485.208	11681
485.285	14053
485.361	22052
485.437	40548
485.514	16346
485.590	13790
485.667	13596
485.743	21219
485.819	37358
485.896	13365
485.972	11269
486.049	11430
486.125	11265
486.201	13217
486.277	14364
486.354	12558
486.430	14295
486.506	15015
486.583	17881
486.659	30084
486.735	20820
486.811	33280
486.887	50411
486.964	88095
487.040	70118
487.116	27020
487.192	12587
487.268	14171
487.344	16738
487.420	18586
487.497	21178
487.573	46008
487.649	119588
487.725	60365
487.801	17632
487.877	13755
487.953	17796
488.029	16800
488.105	12872
488.181	16018
488.257	22841
488.333	53672
488.409	27557
488.485	12862
488.561	12333
488.637	13240
488.712	19312
488.788	23810
488.864	58490
488.940	134352
489.016	121108
489.092	18170
489.168	11135
489.243	10383
489.319	9256
489.395	8002
489.471	9080
489.547	8384
489.622	9509
489.698	11667
489.774	27487
489.849	45601
489.925	11651
490.001	8411
490.076	12361
490.152	23994
490.228	16039
490.303	8472
490.379	7778
490.455	7284
490.530	8686
490.606	9169
490.681	9410
490.757	11561
490.833	15359
490.908	15468
490.984	15096
491.059	10694
491.135	18427
491.210	36277
491.286	11987
491.361	12842
491.436	10909
491.512	12893
491.587	18188
491.663	35881
491.738	96284
491.814	90400
491.889	217282
491.964	59436
492.040	21430
492.115	9882
492.190	12144
492.266	15506
492.341	11448
492.416	9540
492.491	8146
492.567	10625
492.642	17783
492.717	13338
492.792	8779
492.868	9596
492.943	8539
493.018	9834
493.093	15888
493.168	39693
493.243	111468
493.318	30301
493.394	8691
493.469	8119
493.544	8931
493.619	15507
493.694	26330
493.769	18809
493.844	10732
493.919	7567
493.994	8182
494.069	7915
494.144	6758
494.219	6074
494.294	7415
494.369	9031
494.444	10016
494.519	10456
494.594	7001
494.669	8538
494.744	8216
494.818	8523
494.893	8252
494.968	8176
495.043	8470
495.118	9538
495.193	10496
495.267	13827
495.342	18035
495.417	24727
495.492	64309
495.566	269018
495.641	220075
495.716	17764
495.791	8577
495.865	8823
495.940	7994
496.015	7410
496.089	9464
496.164	7656
496.239	8584
496.313	11485
496.388	12018
496.462	19569
496.537	10572
496.612	11233
496.686	13633
496.761	9869
496.835	10290
496.910	10276
496.984	8641
497.059	10616
497.133	14192
497.208	13114
497.282	12494
497.357	19606
497.431	14429
497.505	12895
497.580	19264
497.654	27538
497.729	29385
497.803	28825
497.877	45462
497.952	148482
498.026	374858
498.100	71308
498.175	42011
498.249	32940
498.323	24694
498.397	29880
498.472	17845
498.546	15890
498.620	16990
498.694	23899
498.768	36672
498.843	52618
498.917	218484
498.991	180217
499.065	15487
499.139	10382
499.213	14342
499.287	14006
499.362	12990
499.436	11882
499.510	16764
499.584	20870
499.658	26963
499.732	92087
499.806	224499
499.880	30813
499.954	28678
500.028	34292
500.102	18463
500.176	13621
500.250	14222
500.324	21573
500.397	48104
500.471	79643
500.545	159381
500.619	76422
500.693	12625
500.767	12013
500.841	13871
500.914	11764
500.988	17332
501.062	31029
501.136	34798
501.210	83437
501.283	164987
501.357	37510
501.431	36231
501.505	28195
501.578	10319
501.652	17510
501.726	19546
501.799	35590
501.873	49250
501.947	12447
502.020	20907
502.094	48826
502.167	43286
502.241	15727
502.315	43446
502.388	37429
502.462	16239
502.535	12948
502.609	12373
502.682	9669
502.756	5060
502.829	6638
502.903	7232
502.976	7947
503.050	6848
503.123	7477
503.196	8201
503.270	11046
503.343	22009
503.417	79382
503.490	89122
503.563	21798
503.637	32267
503.710	47561
503.783	32299
503.857	58503
503.930	37562
504.003	60366
504.076	30162
504.150	11967
504.223	11810
504.296	8895
504.369	6204
504.443	5848
504.516	7025
504.589	6320
504.662	9062
504.735	8920
504.808	21740
504.881	12349
504.954	7748
505.028	15512
505.101	10860
505.174	9350
505.247	6507
505.320	6002
505.393	7065
505.466	9137
505.539	7077
505.612	6144
505.685	5169
505.758	6674
505.831	4634
505.904	6744
505.977	5523
506.049	8555
506.122	8044
506.195	11543
506.268	43546
506.341	59148
506.414	12282
506.487	7786
506.559	6834
506.632	7385
506.705	15285
506.778	11883
506.851	6695
506.923	5637
506.996	11057
507.069	10187
507.141	6489
507.214	6036
507.287	15066
507.360	11816
507.432	6204
507.505	6730
507.577	5013
507.650	6364
507.723	12166
507.795	15149
507.868	7219
507.940	6299
508.013	6485
508.086	4367
508.158	10106
508.231	5868
508.303	5063
508.376	5456
508.448	4948
508.520	7655
508.593	8670
508.665	5341
508.738	6030
508.810	4448
508.883	7321
508.955	7002
509.027	4758
509.100	4173
509.172	4121
509.244	4119
509.317	4020
509.389	4703
509.461	6487
509.534	8818
509.606	6930
509.678	10153
509.750	10307
509.822	6222
509.895	6288
509.967	4827
510.039	6720
510.111	7779
510.183	7510
510.255	5876
510.328	6441
510.400	9691
510.472	5630
510.544	8727
510.616	12566
510.688	5975
510.760	6681
510.832	10308
510.904	11337
510.976	6057
511.048	4664
511.120	6569
511.192	11129
511.264	5697
511.336	3469
511.408	5689
511.480	5201
511.552	4269
511.624	4970
511.695	5254
511.767	5663
511.839	9441
511.911	14994
511.983	6378
512.055	7310
512.126	6699
512.198	10131
512.270	9516
512.342	12430
512.414	9289
512.485	7166
512.557	7875
512.629	8040
512.700	5741
512.772	9948
512.844	5498
512.915	5670
512.987	8081
513.059	7670
513.130	12433
513.202	25243
513.273	13716
513.345	7476
513.416	6386
513.488	6722
513.560	11316
513.631	11069
513.703	14502
513.774	46849
513.845	25133
513.917	6511
513.988	6941
514.060	10102
514.131	12258
514.203	7641
514.274	5044
514.345	12363
514.417	12385
514.488	5767
514.560	9622
514.631	12672
514.702	9072
514.773	10656
514.845	6957
514.916	7807
514.987	7638
515.059	13476
515.130	8161
515.201	10685
515.272	9655
515.343	6289
515.414	5045
515.486	5327
515.557	5885
515.628	4741
515.699	6834
515.770	7680
515.841	6593
515.912	7383
515.983	8739
516.055	16447
516.126	18998
516.197	10911
516.268	11052
516.339	15578
516.410	22132
516.481	39611
516.552	149613
516.622	195301
516.693	23341
516.764	26275
516.835	20644
516.906	28106
516.977	54825
517.048	116550
517.119	395127
517.190	123420
517.260	38786
517.331	9407
517.402	8411
517.473	9005
517.544	7776
517.614	10416
517.685	8526
517.756	12438
517.827	15918
517.897	19014
517.968	27818
518.039	41115
518.109	90648
518.180	406369
518.250	425061
518.321	33720
518.392	13802
518.462	16281
518.533	13845
518.603	19816
518.674	38608
518.745	64927
518.815	25289
518.886	15730
518.956	25344
519.027	40423
519.097	60864
519.168	56253
519.238	12766
519.309	15868
519.379	18711
519.449	10884
519.520	5953
519.590	6093
519.660	5667
519.731	7921
519.801	6897
519.871	5618
519.942	7120
520.012	6820
520.082	12294
520.153	5412
520.223	4048
520.293	6962
520.363	3552
520.434	9472
520.504	6762
520.574	5696
520.644	9589
520.714	16127
520.784	12418
520.855	41756
520.925	45413
520.995	8100
521.065	6174
521.135	4690
521.205	5178
521.275	4940
521.345	8635
521.415	11743
521.485	12386
521.555	9237
521.625	10297
521.695	7158
521.765	6049
521.835	6822
521.905	4697
521.975	4296
522.045	4157
522.115	7824
522.185	9894
522.254	16061
522.324	22459
522.394	13893
522.464	20457
522.534	71180
522.603	60443
522.673	8901
522.743	6467
522.813	11120
522.883	10472
522.952	8603
523.022	11371
523.092	28590
523.161	76613
523.231	13024
523.301	5009
523.370	6791
523.440	4614
523.509	5027
523.579	3502
523.649	3117
523.718	5207
523.788	3688
523.857	3746
523.927	3309
523.996	4449
524.066	5985
524.135	8129
524.205	4054
524.274	3276
524.344	3703
524.413	4642
524.483	4160
524.552	5724
524.621	3810
524.691	4777
524.760	3251
524.830	3674
524.899	7548
524.968	4651
525.038	5362
525.107	4860
525.176	4179
525.245	4363
525.315	4960
525.384	4598
525.453	6172
525.522	4558
525.591	5151
525.661	5275
525.730	6479
525.799	9410
525.868	15544
525.937	21133
526.006	62536
526.076	90628
526.145	35404
526.214	35724
526.283	68347
526.352	65285
526.421	144455
526.490	58701
526.559	35454
526.628	26033
526.697	40188
526.766	133736
526.835	279994
526.904	249238
526.973	26565
527.042	9235
527.110	8013
527.179	10896
527.248	5801
527.317	6434
527.386	3909
527.455	4205
527.523	2760
527.592	3869
527.661	2557
527.730	4461
527.799	4655
527.867	3400
527.936	5267
528.005	11731
528.074	12643
528.142	8847
528.211	21189
528.280	9849
528.348	5169
528.417	2215
528.485	3501
528.554	3182
528.623	2057
528.691	3388
528.760	2388
528.828	3674
528.897	1465
528.965	2991
529.034	3534
529.102	2721
529.171	4042
529.239	3798
529.308	3552
529.376	2642
529.445	5478
529.513	3409
529.581	5131
529.650	6313
529.718	5144
529.786	3651
529.855	3598
529.923	3867
529.992	4898
530.060	8650
530.128	9128
530.196	4126
530.265	3284
530.333	3322
530.401	4591
530.469	1296
530.537	4162
530.606	4597
530.674	2879
530.742	3043
530.810	3453
530.878	3961
530.946	4344
531.014	2604
531.083	3947
531.151	2964
531.219	2443
531.287	3995
531.355	2539
531.423	4308
531.491	6049
531.559	4541
531.627	3579
531.695	3357
531.763	3866
531.831	3753
531.898	3715
531.966	5741
532.034	6406
532.102	5977
532.170	9523
532.238	27484
532.306	37210
532.374	10457
532.441	9841
532.509	11386
532.577	27892
532.645	108283
532.712	68879
532.780	8135
532.848	4763
532.916	4176
532.983	3918
533.051	4155
533.119	4795
533.186	4789
533.254	4023
533.322	3551
533.389	4282
533.457	3136
533.524	5691
533.592	4729
533.659	4136
533.727	4491
533.794	8547
533.862	15539
533.930	14387
533.997	12095
534.064	3557
534.132	4979
534.199	4873
534.267	3904
534.334	4840
534.402	3532
534.469	3195
534.536	5411
534.604	6307
534.671	8656
534.738	19084
534.806	56269
534.873	15379
534.940	5056
535.008	4228
535.075	3754
535.142	4182
535.209	4221
535.276	4080
535.344	3586
535.411	2268
535.478	2117
535.545	2526
535.612	3981
535.679	4438
535.747	3544
535.814	3713
535.881	3278
535.948	4529
536.015	4336
536.082	3943
536.149	4310
536.216	5981
536.283	9269
536.350	13421
536.417	7315
536.484	9127
536.551	12998
536.618	16296
536.685	9084
536.752	10546
536.818	19629
536.885	23141
536.952	31246
537.019	71196
537.086	10514
537.153	3311
537.219	4751
537.286	3480
537.353	2793
537.420	3599
537.487	4090
537.553	4093
537.620	4908
537.687	2655
537.753	3579
537.820	4149
537.887	4989
537.953	4908
538.020	5284
538.087	8113
538.153	18336
538.220	22996
538.286	5364
538.353	3685
538.419	2577
538.486	3071
538.553	4028
538.619	3101
538.685	4180
538.752	4614
538.818	5287
538.885	4546
538.951	4073
539.018	4804
539.084	5092
539.150	8467
539.217	9289
539.283	3625
539.350	4935
539.416	6323
539.482	9362
539.549	30898
539.615	22779
539.681	5468
539.747	4318
539.814	4463
539.880	6946
539.946	5961
540.012	6206
540.078	6010
540.145	7452
540.211	16750
540.277	30047
540.343	16010
540.409	33554
540.475	28985
540.541	3387
540.607	2654
540.673	3164
540.740	5105
540.806	7455
540.872	7958
540.937	13484
541.004	7313
541.069	4097
541.135	5356
541.201	6421
541.267	8218
541.333	16057
541.399	17777
541.465	5808
541.531	3130
541.597	3502
541.663	3266
541.728	1744
541.794	3204
541.860	3337
541.926	5098
541.992	4294
542.057	5110
542.123	8014
542.189	13492
542.255	25998
542.320	14288
542.386	3914
542.452	3820
542.517	4370
542.583	3992
542.648	4563
542.714	7885
542.780	20676
542.845	40790
542.911	5981
542.976	2685
543.042	3996
543.107	3692
543.173	5981
543.238	7622
543.304	20350
543.369	9346
543.435	2985
543.500	2781
543.566	4457
543.631	914
543.697	3449
543.762	1766
543.827	1477
543.893	1902
543.958	3475
544.023	2078
544.089	3834
544.154	3313
544.219	2743
544.284	5633
544.350	9721
544.415	8451
544.480	12703
544.545	36437
544.610	14007
544.676	3290
544.741	3419
544.806	2427
544.871	3302
544.936	3497
545.001	3980
545.066	3975
545.132	4799
545.197	4737
545.262	7358
545.327	11451
545.392	24366
545.457	21861
545.522	2685
545.587	3938
545.652	2456
545.717	3887
545.781	2181
545.846	3148
545.911	2921
545.976	4630
546.041	3919
546.106	6695
546.171	8477
546.236	6912
546.300	4123
546.365	1904
546.430	4574
546.495	4797
546.559	5125
546.624	3613
546.689	3446
546.754	3354
546.818	4114
546.883	3963
546.948	4769
547.012	3890
547.077	7050
547.142	7090
547.206	7248
547.271	8374
547.335	6555
547.400	8165
547.464	8698
547.529	10830
547.594	7740
547.658	7543
547.722	5805
547.787	5981
547.852	5979
547.916	7300
547.980	9234
548.045	9711
548.109	7324
548.174	5889
548.238	6166
548.302	5005
548.367	4876
548.431	5842
548.495	6136
548.560	6805
548.624	7327
548.688	9506
548.752	7132
548.817	6749
548.881	8517
548.945	5973
549.009	5992
549.073	6099
549.138	5412
549.202	8347
549.266	6169
549.330	6231
549.394	6852
549.458	7268
549.522	6491
549.586	9431
549.650	9922
549.715	8887
549.779	5688
549.843	7944
549.907	7404
549.971	8279
550.034	7888
550.098	6682
550.162	7256
550.226	8568
550.290	8468
550.354	7683
550.418	8738
550.482	9274
550.546	13590
550.609	9211
550.673	9689
550.737	9553
550.801	10590
550.865	10723
550.928	12551
550.992	14145
551.056	19039
551.120	27802
551.183	21520
551.247	15966
551.311	23532
551.374	13061
551.438	9201
551.502	8624
551.565	6746
551.629	8596
551.692	7239
551.756	7437
551.819	7081
551.883	5814
551.946	6606
552.010	7963
552.073	7682
552.137	7031
552.200	7828
552.264	6696
552.327	6351
552.391	7743
552.454	6985
552.517	8121
552.581	6952
552.644	10195
552.708	15123
552.771	12247
552.834	7856
552.897	8514
552.961	8222
553.024	6891
553.087	6526
553.151	7363
553.214	6844
553.277	8001
553.340	8594
553.403	15466
553.466	10997
553.530	7369
553.593	7086
553.656	7064
553.719	6613
553.782	6725
553.845	6454
553.908	5206
553.971	5974
554.034	6652
554.097	6819
554.160	7693
554.223	6592
554.286	5921
554.349	7420
554.412	5971
554.475	6695
554.538	6675
554.601	6970
554.664	6375
554.727	5218
554.789	6112
554.852	5255
554.915	4659
554.978	5737
555.041	4763
555.104	5103
555.166	6007
555.229	6227
555.292	5175
555.354	6434
555.417	5272
555.480	4684
555.542	3947
555.605	4899
555.668	5878
555.730	4466
555.793	4609
555.856	4235
555.918	4591
555.981	4836
556.043	4550
556.106	4914
556.168	5966
556.231	5599
556.293	5173
556.356	6120
556.418	8772
556.481	5889
556.543	5458
556.606	3789
556.668	6476
556.730	5898
556.793	8011
556.855	10890
556.918	5809
556.980	5002
557.042	5626
557.104	11928
557.167	16796
557.229	5760
557.291	4303
557.354	4122
557.416	4161
557.478	6870
557.540	4664
557.602	2694
557.664	3625
557.727	4317
557.789	4151
557.851	5499
557.913	7410
557.975	13466
558.037	31059
558.099	29685
558.161	6452
558.223	6681
558.285	8115
558.347	10328
558.409	15010
558.471	20326
558.533	39460
558.595	45389
558.657	66295
558.719	191579
558.781	163283
558.843	36140
558.905	37212
558.966	10468
559.028	11007
559.090	12770
559.152	19359
559.214	34239
559.275	88929
559.337	125692
559.399	19616
559.461	11930
559.522	13116
559.584	18193
559.646	35030
559.707	92823
559.769	46291
559.831	10644
559.892	12360
559.954	26970
560.015	40533
560.077	18376
560.139	35186
560.200	22384
560.262	4949
560.323	3584
560.385	2777
560.446	1935
560.508	1529
560.569	1375
560.631	1883
560.692	1742
560.753	2903
560.815	2672
560.876	2866
560.937	1734
560.999	3362
561.060	3582
561.122	3132
561.183	3499
561.244	5273
561.305	6768
561.367	12603
561.428	29045
561.489	14044
561.550	2948
561.612	3693
561.673	2871
561.734	2213
561.795	1591
561.856	3027
561.917	3269
561.978	1820
562.039	1704
562.101	2682
562.162	1402
562.223	3034
562.284	4690
562.345	6680
562.406	2323
562.467	2060
562.528	1596
562.589	477
562.649	2541
562.710	1352
562.771	2235
562.832	1312
562.893	2098
562.954	1810
563.015	2572
563.076	2325
563.136	2291
563.197	1402
563.258	3037
563.319	2037
563.380	1298
563.440	2967
563.501	1409
563.562	2506
563.622	2521
563.683	2540
563.744	2320
563.804	2432
563.865	1905
563.926	1926
563.986	2370
564.047	2316
564.107	2105
564.168	2447
564.229	3745
564.289	6805
564.350	2609
564.410	2017
564.471	2516
564.531	1448
564.591	1551
564.652	2538
564.712	3431
564.773	2688
564.833	2803
564.893	1700
564.954	2601
565.014	2859
565.074	1097
565.135	2761
565.195	976
565.255	2242
565.316	2737
565.376	2869
565.436	3436
565.496	2965
565.557	2456
565.617	2864
565.677	2631
565.737	7286
565.797	3458
565.857	2891
565.917	3369
565.978	3432
566.038	3548
566.098	7417
566.158	6004
566.218	2727
566.278	2196
566.338	2678
566.398	2996
566.458	3682
566.518	2884
566.578	3401
566.638	2649
566.698	2221
566.757	2891
566.817	2644
566.877	2482
566.937	3214
566.997	2331
567.057	3168
567.116	3313
567.176	3610
567.236	4630
567.296	4264
567.355	4802
567.415	4540
567.475	3683
567.535	3781
567.594	2972
567.654	4028
567.714	4120
567.773	5420
567.833	4885
567.892	6475
567.952	6984
568.012	8837
568.071	10705
568.131	18303
568.190	19778
568.250	15095
568.309	14226
568.369	12516
568.428	10614
568.488	13481
568.547	14679
568.607	18907
568.666	26459
568.725	35682
568.785	27422
568.844	20669
568.903	14917
568.963	12271
569.022	9754
569.081	6850
569.141	4886
569.200	5059
569.259	4073
569.318	4386
569.378	3419
569.437	3311
569.496	3272
569.555	2834
569.614	2228
569.673	2260
569.732	2388
569.792	3059
569.851	2738
569.910	1921
569.969	2949
570.028	3555
570.087	2068
570.146	3838
570.205	1824
570.264	2737
570.323	2204
570.382	3197
570.441	3148
570.500	2881
570.559	1450
570.618	2556
570.676	3379
570.735	3310
570.794	4397
570.853	2863
570.912	1680
570.971	1842
571.029	2227
571.088	2397
571.147	1301
571.206	2035
571.264	1653
571.323	1731
571.382	2952
571.440	1067
571.499	1266
571.558	2085
571.616	979
571.675	2087
571.733	1372
571.792	1081
571.851	1562
571.909	1776
571.968	1317
572.026	2090
572.085	-268
572.143	710
572.202	1565
572.260	1407
572.319	1541
572.377	1417
572.435	1498
572.494	1534
572.552	1883
572.611	1812
572.669	1394
572.727	334
572.786	1122
572.844	1229
572.902	533
572.960	909
573.019	2188
573.077	1290
573.135	540
573.193	498
573.251	181
573.310	1478
573.368	349
573.426	577
573.484	1764
573.542	809
573.600	1332
573.658	1156
573.716	1380
573.774	1757
573.832	2033
573.891	1654
573.948	1747
574.006	935
574.064	795
574.122	773
574.180	1046
574.238	1009
574.296	668
574.354	507
574.412	200
574.470	1526
574.528	854
574.585	1542
574.643	1122
574.701	622
574.759	47
574.817	826
574.874	798
574.932	344
574.990	422
575.047	1897
575.105	1148
575.163	1566
575.221	1473
575.278	868
575.336	452
575.393	1072
575.451	382
575.509	340
575.566	996
575.624	1297
575.681	656
575.739	800
575.796	1230
575.854	-454
575.911	1103
575.969	1694
576.026	1530
576.083	1550
576.141	2131
576.198	3063
576.256	1899
576.313	387
576.370	369
576.428	1698
576.485	1393
576.542	1288
576.599	875
576.657	1117
576.714	669
576.771	1404
576.828	509
576.886	1171
576.943	1535
577.000	1012
577.057	1180
577.114	2176
577.171	1494
577.228	1024
577.286	661
577.343	1089
577.400	12
577.457	1059
577.514	1084
577.571	794
577.628	385
577.685	541
577.742	703
577.799	339
577.855	376
577.912	342
577.969	1476
578.026	1731
578.083	1765
578.140	704
578.197	2078
578.254	1555
578.310	950
578.367	1285
578.424	3131
578.481	950
578.537	544
578.594	879
578.651	1425
578.707	354
578.764	686
578.821	1312
578.877	345
578.934	-175
578.991	1440
579.047	762
579.104	1594
579.160	399
579.217	512
579.273	953
579.330	342
579.387	132
579.443	398
579.499	868
579.556	1293
579.612	373
579.669	1907
579.725	1476
579.782	-34
579.838	312
579.894	508
579.951	166
580.007	1144
580.063	841
580.120	1456
580.176	957
580.232	715
580.288	1523
580.345	2242
580.401	1395
580.457	799
580.513	1587
580.569	60
580.619	312
580.625	348
580.682	1059
580.692	976
580.738	623
580.765	857
580.794	1111
580.838	869
580.850	814
580.906	1093
580.911	1137
580.962	1609
580.984	885
581.018	-201
581.057	838
581.074	1282
581.130	1073
581.130	1076
581.186	830
581.203	897
581.242	1085
581.276	758
581.298	566
581.349	-55
581.354	-128
581.410	680
581.422	785
581.466	1214
581.494	920
581.522	658
581.567	730
581.577	746
581.633	742
581.640	664
581.689	123
581.713	197
581.745	301
581.786	50
581.801	-39
581.857	517
581.859	520
581.912	780
581.932	674
581.968	428
582.004	368
582.024	332
582.077	145
582.080	136
582.135	849
582.150	718
582.191	332
582.223	578
582.247	777
582.296	996
582.302	1032
582.358	712
582.368	884
582.414	1594
582.441	1027
582.469	435
582.514	355
582.525	372
582.581	538
582.587	561
582.636	662
582.659	637
582.692	579
582.732	922
582.747	1043
582.803	308
582.805	303
582.858	411
582.877	485
582.914	578
582.950	638
582.969	657
583.023	558
583.025	565
583.080	1647
583.095	1491
583.135	852
583.168	632
583.191	583
583.240	674
583.246	673
583.302	153
583.313	219
583.357	570
583.385	630
583.412	668
583.458	556
583.468	526
583.523	511
583.531	507
583.578	468
583.603	745
583.634	1048
583.676	722
583.689	638
583.744	482
583.748	471
583.799	474
583.820	355
583.854	166
583.893	533
583.910	669
583.965	69
583.965	80
584.020	1236
584.038	846
584.075	85
584.110	402
584.130	510
584.183	734
584.185	758
584.240	663
584.255	829
584.296	1167
584.328	698
584.351	440
584.400	518
584.406	517
584.461	498
584.472	508
584.516	399
584.545	303
584.571	295
584.617	635
584.626	781
584.681	372
584.689	529
584.736	935
584.762	932
584.791	975
584.834	935
584.846	945
584.900	1466
584.906	1507
584.955	1680
584.978	1336
585.010	925
585.051	1076
585.065	1124
585.120	2019
585.123	2004
585.175	1745
585.195	1883
585.230	2366
585.267	2939
585.284	3064
585.339	3098
585.340	3097
585.394	3949
585.412	4807
585.449	6515
585.484	7520
585.503	8122
585.556	12167
585.558	12339
585.613	23355
585.628	23781
585.667	25270
585.700	14519
585.722	7315
585.772	4228
585.777	3917
585.831	2723
585.845	2588
585.886	2195
585.917	1866
585.941	1742
585.989	1254
585.995	1208
586.050	1060
586.061	1155
586.104	1525
586.133	1387
586.159	1355
586.205	1568
586.213	1550
586.268	1244
586.277	1227
586.322	1394
586.349	1755
586.377	2138
586.421	1751
586.431	1584
586.486	2012
586.493	2061
586.540	2805
586.565	2337
586.595	1690
586.637	1769
586.649	1771
586.703	1019
586.709	1045
586.758	1110
586.781	1069
586.812	1269
586.853	1352
586.866	1326
586.921	1412
586.925	1403
586.975	1066
586.996	845
587.029	807
587.068	870
587.083	757
587.138	729
587.140	728
587.192	926
587.212	1028
587.246	1296
587.284	1300
587.300	1257
587.355	1549
587.356	1545
587.409	1674
587.427	1837
587.463	1877
587.499	1988
587.517	1999
587.571	1627
587.571	1625
587.625	2309
587.643	2405
587.679	2674
587.715	2501
587.733	2247
587.786	2501
587.787	2513
587.841	2972
587.858	3281
587.895	3632
587.930	3701
587.949	3890
588.001	4727
588.003	4739
588.057	5364
588.073	5675
588.111	6807
588.145	7848
588.165	8319
588.217	9517
588.219	9565
588.273	12094
588.288	12760
588.327	14521
588.360	17230
588.381	18906
588.431	23956
588.435	24214
588.489	30788
588.503	33404
588.542	40200
588.575	48052
588.596	53074
588.646	70743
588.650	71785
588.704	97955
588.718	107879
588.757	135524
588.789	169408
588.811	194131
588.861	289624
588.865	297556
588.919	308693
588.932	280797
588.972	194612
589.004	178330
589.026	138685
589.075	87125
589.080	83940
589.133	54630
589.147	48527
589.187	46206
589.218	48014
589.241	50716
589.290	61736
589.294	62527
589.348	81616
589.361	89650
589.401	112616
589.433	150911
589.455	180649
589.504	212255
589.508	215380
589.562	146515
589.576	145595
589.615	97105
589.647	78048
589.669	59616
589.718	22050
589.722	21247
589.776	12809
589.790	10868
589.829	8980
589.861	7464
589.883	6370
589.932	4550
589.936	4495
589.989	3992
590.004	3890
590.043	3401
590.075	3131
590.096	3114
590.146	3293
590.149	3253
590.203	2411
590.218	2277
590.256	2020
590.289	1777
590.309	1863
590.360	1897
590.362	1865
590.416	1824
590.431	1754
590.469	1655
590.503	1524
590.522	1401
590.574	1362
590.575	1359
590.629	1223
590.645	1280
590.682	1402
590.716	1572
590.735	1448
590.787	1038
590.788	1022
590.841	442
590.859	259
590.894	787
590.930	1202
590.947	1105
591.000	1026
591.001	1029
591.053	775
591.072	708
591.106	862
591.143	1086
591.159	1056
591.212	934
591.214	938
591.265	917
591.285	880
591.318	898
591.356	915
591.371	934
591.424	1088
591.427	1101
591.477	553
591.498	348
591.530	670
591.569	1044
591.583	985
591.636	844
591.640	830
591.689	678
591.711	660
591.741	760
591.782	857
591.794	786
591.847	541
591.853	510
591.900	337
591.924	314
591.953	683
591.995	1236
592.005	1219
592.058	1133
592.066	1126
592.111	630
592.137	388
592.164	426
592.208	462
592.216	462
592.269	553
592.279	581
592.322	176
592.350	-69
592.374	187
592.421	704
592.427	683
592.479	599
592.491	592
592.532	572
592.562	565
592.585	768
592.633	1226
592.704	157
592.775	487
592.846	434
592.916	716
592.987	-140
593.058	-381
593.128	397
593.199	541
593.270	124
593.341	373
593.411	906
593.482	57
593.553	845
593.623	927
593.694	1054
593.764	869
593.835	266
593.906	80
593.976	413
594.047	648
594.117	485
594.188	521
594.258	469
594.329	752
594.399	625
594.470	404
594.540	1012
594.611	810
594.681	390
594.751	380
594.822	814
594.892	581
594.963	516
595.033	140
595.103	117
595.174	168
595.244	434
595.314	391
595.384	996
595.455	1165
595.525	159
595.595	883
595.665	216
595.736	493
595.806	452
595.876	250
595.946	825
596.016	638
596.087	617
596.157	-72
596.227	849
596.297	579
596.367	1087
596.437	952
596.507	1139
596.577	2035
596.647	1529
596.717	1743
596.787	681
596.857	-145
596.927	939
596.997	870
597.067	613
597.137	1238
597.207	766
597.277	403
597.347	-20
597.417	1237
597.487	1563
597.557	595
597.626	1266
597.696	1154
597.766	1730
597.836	1345
597.906	1484
597.975	980
598.045	727
598.115	967
598.185	852
598.254	755
598.324	1661
598.394	883
598.464	1209
598.533	442
598.603	791
598.672	256
598.742	219
598.812	443
598.881	1393
598.951	694
599.020	743
599.090	1792
599.159	952
599.229	1874
599.299	1296
599.368	1012
599.437	1133
599.507	885
599.576	637
599.646	916
599.715	1265
599.785	811
599.854	601
599.924	1018
599.993	443
600.062	1060
600.132	911
600.201	386
600.270	1466
600.340	861
600.409	1246
600.478	942
600.547	1685
600.617	984
600.686	769
600.755	-618
600.824	205
600.894	317
600.963	184
601.032	934
601.101	990
601.170	-252
601.239	89
601.308	157
601.378	156
601.447	146
601.516	55
601.585	138
601.654	-16
601.723	296
601.792	169
601.861	249
601.930	529
601.999	865
602.068	837
602.137	37
602.206	766
602.275	474
602.343	82
602.412	879
602.481	409
602.550	972
602.619	472
602.688	741
602.756	266
602.825	988
602.894	199
602.963	538
603.032	639
603.100	813
603.169	561
603.238	216
603.307	174
603.375	1268
603.444	390
603.513	291
603.581	251
603.650	1005
603.719	400
603.787	118
603.856	1228
603.924	452
603.993	976
604.061	607
604.130	972
604.198	601
604.267	887
604.335	937
604.404	1403
604.472	883
604.541	1388
604.609	675
604.678	614
604.746	764
604.815	624
604.883	724
604.951	1245
605.020	854
605.088	1186
605.156	38
605.225	1280
605.293	760
605.361	1324
605.429	823
605.498	1819
605.566	1228
605.634	1709
605.702	2116
605.771	911
605.839	1532
605.907	919
605.975	2113
606.043	1364
606.111	1113
606.180	1758
606.248	1241
606.316	974
606.384	405
606.452	1892
606.520	1423
606.588	1673
606.656	1042
606.724	1477
606.792	975
606.860	867
606.928	1070
606.996	1094
607.064	713
607.132	729
607.200	450
607.267	1152
607.335	960
607.403	742
607.471	-323
607.539	1319
607.607	1025
607.674	380
607.742	564
607.810	296
607.878	952
607.946	-60
608.013	380
608.081	919
608.149	257
608.216	613
608.284	945
608.352	1034
608.419	136
608.487	942
608.555	367
608.622	648
608.690	499
608.757	576
608.825	466
608.893	303
608.960	850
609.028	1248
609.095	1808
609.163	906
609.230	924
609.298	906
609.365	23
609.432	299
609.500	689
609.567	1018
609.635	1774
609.702	950
609.769	1991
609.837	908
609.904	578
609.971	66
610.039	834
610.106	751
610.173	1716
610.241	4354
610.308	3087
610.375	1025
610.442	377
610.509	129
610.577	1560
610.644	1341
610.711	617
610.778	1523
610.845	918
610.912	1680
610.980	1274
611.047	1122
611.114	942
611.181	932
611.248	800
611.315	905
611.382	879
611.449	302
611.516	541
611.583	724
611.650	381
611.717	1121
611.784	863
611.851	1036
611.918	2034
611.984	1757
612.051	1924
612.118	5243
612.185	10509
612.252	7120
612.319	1616
612.386	1314
612.452	1108
612.519	1567
612.586	1061
612.653	1549
612.719	1689
612.786	788
612.853	1114
612.919	811
612.986	931
613.053	1346
613.120	564
613.186	155
613.253	1018
613.319	202
613.386	424
613.453	1069
613.519	1171
613.586	436
613.652	913
613.719	619
613.785	1442
613.852	684
613.918	823
613.985	1348
614.051	392
614.118	1020
614.184	1497
614.250	558
614.317	1136
614.383	439
614.449	1746
614.516	289
614.582	712
614.648	301
614.715	975
614.781	289
614.847	-286
614.914	992
614.980	258
615.046	931
615.112	351
615.179	1801
615.245	799
615.311	448
615.377	1013
615.443	1031
615.509	935
615.575	1448
615.642	1106
615.708	431
615.774	77
615.840	1193
615.906	1379
615.972	1708
616.038	2934
616.104	6036
616.170	11525
616.236	10688
616.302	3156
616.368	1214
616.434	464
616.500	926
616.565	1090
616.631	1428
616.697	1163
616.763	1310
616.829	1301
616.895	3107
616.961	2914
617.026	662
617.092	726
617.158	643
617.224	926
617.289	692
617.355	231
617.421	-292
617.487	702
617.552	654
617.618	268
617.684	-769
617.749	1527
617.815	644
617.880	-427
617.946	569
618.012	-121
618.077	213
618.143	330
618.208	-119
618.274	136
618.339	269
618.405	-651
618.470	436
618.536	-326
618.601	962
618.667	-767
618.732	467
618.798	-289
618.863	-331
618.928	59
618.994	58
619.059	373
619.124	-82
619.190	-266
619.255	-1011
619.320	-27
619.386	-787
619.451	242
619.516	235
619.581	-698
619.647	-29
619.712	-902
619.777	250
619.842	73
619.907	-533
619.972	-616
620.038	-222
620.103	-256
620.168	-430
620.233	158
620.298	-579
620.363	-245
620.428	108
620.493	-227
620.558	110
620.623	-727
620.688	-31
620.753	-40
620.818	-266
620.883	-316
620.948	-307
621.013	-544
621.078	-584
621.143	-1012
621.207	637
621.272	-65
621.337	352
621.402	-221
621.467	-352
621.532	206
621.596	-95
621.661	-49
621.726	228
621.791	-176
621.855	79
621.920	-207
621.985	-306
622.049	214
622.114	-527
622.179	-621
622.243	-406
622.308	-1092
622.373	800
622.437	31
622.502	-17
622.566	152
622.631	-276
622.695	704
622.760	-559
622.824	-331
622.889	-80
622.953	-219
623.018	217
623.082	-78
623.147	-37
623.211	-846
623.276	-451
623.340	-1240
623.404	-109
623.469	-54
623.533	-147
623.597	-364
623.662	181
623.726	-488
623.790	-382
623.854	-908
623.919	-164
623.983	-1445
624.047	-876
624.111	-260
624.176	8
624.240	-1046
624.304	-17
624.368	-631
624.432	317
624.496	-299
624.560	-147
624.625	-184
624.689	-844
624.753	-14
624.817	-528
624.881	-578
624.945	244
625.009	-158
625.073	-4
625.137	-900
625.201	69
625.265	-512
625.329	21
625.393	-1224
625.456	-789
625.520	-459
625.584	-814
625.648	-487
625.712	96
625.776	772
625.839	-112
625.903	-799
625.967	-1587
626.031	-328
626.095	-332
626.158	-636
626.222	-553
626.286	-529
626.349	-1035
626.413	-1377
626.477	-29
626.540	-897
626.604	-642
626.668	-299
626.731	38
626.795	-908
626.858	-1002
626.922	-927
626.986	-641
627.049	-1559
627.113	-770
627.176	-451
627.240	-514
627.303	-1130
627.366	-750
627.430	327
627.493	-864
627.557	-1356
627.620	-588
627.684	-630
627.747	-1180
627.810	-1725
627.874	-321
627.937	-1085
628.000	-274
628.064	-577
628.127	-1730
628.190	-1415
628.253	-248
628.317	-1160
628.380	-1114
628.443	-960
628.506	-692
628.569	-817
628.632	-872
628.696	-1241
628.759	-938
628.822	-978
628.885	-939
628.948	-1019
629.011	-1276
629.074	-2365
629.137	-719
629.200	-1368
629.263	-54
629.326	-1596
629.389	-366
629.452	-1471
629.515	-992
629.578	-1296
629.641	-772
629.704	-1547
629.767	-908
629.830	-1155
629.892	-921
629.955	-1894
630.018	-225
630.081	-1378
630.144	-828
630.207	-1689
630.269	137
630.332	-1524
630.395	-1711
630.458	-1531
630.520	-1595
630.583	-717
630.646	-354
630.708	-1396
630.771	-1673
630.834	-794
630.896	-1067
630.959	-1815
631.021	-1926
631.084	-1442
631.146	-379
631.209	-684
631.272	-1873
631.334	-737
631.397	-997
631.459	-1474
631.522	-985
631.584	-1783
631.646	-562
631.709	-767
631.771	-1313
631.834	-495
631.896	-1522
631.958	-1033
632.021	-584
632.083	-1986
632.145	-507
632.208	-1261
632.270	-654
632.332	-1685
632.395	-2157
632.457	-1244
632.519	-1245
632.581	-277
632.643	-1572
632.706	-753
632.768	-866
632.830	-356
632.892	-751
632.954	-1619
633.016	-187
633.078	-1129
633.141	-1155
633.203	-1106
633.265	-342
633.327	-1315
633.389	-1080
633.451	-677
633.513	-1641
633.575	-1052
633.637	-2147
633.698	-1135
633.760	-473
633.822	-1507
633.884	-1193
633.946	-1545
634.008	-1129
634.070	-1183
634.132	-1018
634.193	-2129
634.255	-1265
634.317	-956
634.379	-612
634.441	-1115
634.502	-1581
634.564	-744
634.626	-1004
634.687	-699
634.749	-1565
634.811	-800
634.873	-973
634.934	-1081
634.996	-1517
635.057	-1425
635.119	-736
635.181	-1607
635.242	-195
635.304	-1905
635.365	459
635.427	-1275
635.488	-1942
635.550	-2027
635.611	-1477
635.673	-2821
635.734	-606
635.796	-1263
635.857	-836
635.918	-1541
635.980	-1434
636.041	-1753
636.102	-778
636.164	-1225
636.225	-445
636.286	-1667
636.348	-584
636.409	-1525
636.470	-1636
636.531	-839
636.593	-1473
636.654	-1450
636.715	-1347
636.776	-1027
636.838	-1936
636.899	-1459
636.960	-1277
637.021	-1602
637.082	-1044
637.143	-1711
637.204	-1086
637.265	-1784
637.326	-666
637.387	-1036
637.448	-2402
637.509	-792
637.570	-841
637.631	-1018
637.692	-1378
637.753	-1905
637.814	-1306
637.875	-1064
637.936	-899
637.997	-1515
638.058	-1411
638.119	-1509
638.179	-977
638.240	-2361
638.301	-1201
638.362	-2075
638.423	-1488
638.483	-1513
638.544	-2467
638.605	-639
638.666	-2078
638.726	-1281
638.787	-701
638.848	-1709
638.908	-1828
638.969	-1433
639.030	-1471
639.090	-2107
639.151	-1763
639.211	-1557
639.272	-1037
639.332	-1436
639.393	-1306
639.453	-1551
639.514	-1889
639.574	-1307
639.635	-1361
639.695	-1017
639.756	-1802
639.816	-1093
639.877	-2359
639.937	-646
639.997	-1246
640.058	-2241
640.118	-1603
640.178	-540
640.239	-2220
640.299	-1869
640.359	-1289
640.420	-1412
640.480	-1835
640.540	-2157
640.600	-981
640.661	-1858
640.721	-2392
640.781	-367
640.841	-2652
640.901	-632
640.961	-1463
641.021	-1231
641.082	-2262
641.142	-1523
641.202	-1195
641.262	-3417
641.322	-1180
641.382	-1805
641.442	-802
641.502	-2023
641.562	-832
641.622	-1527
641.682	-1504
641.742	-1803
641.802	-1163
641.861	-673
641.921	-1684
641.981	-1316
642.041	-1020
642.101	-1763
642.161	-2197
642.221	-1627
642.280	-1879
642.340	-1836
642.400	-1997
642.460	-1153
642.519	-759
642.579	-1042
642.639	-740
642.698	-3645
642.758	-90
642.818	-2086
642.877	-1908
642.937	-1664
642.997	-1240
643.056	-1702
643.116	-3125
643.175	-998
643.235	-1084
643.294	-1460
643.354	-1080
643.414	-1126
643.473	-1490
643.532	-2046
643.592	-2197
643.651	-1038
643.711	-381
643.770	-235
643.830	820
643.889	5666
643.948	2654
644.008	-1269
644.067	-1885
644.126	-1843
644.186	-1508
644.245	-939
644.304	-2209
644.363	-291
644.423	-1670
644.482	-1233
644.541	-1477
644.600	-2338
644.659	-533
644.719	-1975
644.778	-2553
644.837	-1481
644.896	-86
644.955	-1769
645.014	-1222
645.073	-989
645.132	-1119
645.191	-652
645.250	-2220
645.309	-1140
645.368	-2134
645.427	-1410
645.486	-2540
645.545	-1053
645.604	-1403
645.663	-1552
645.722	-1360
645.781	-1661
645.840	-1127
645.898	-2129
645.957	-339
646.016	-2201
646.075	-398
646.134	-877
646.192	354
646.251	3967
646.310	-144
646.369	-1564
646.427	-1315
646.486	-2637
646.545	-1218
646.603	-492
646.662	-2137
646.721	-1317
646.779	-2017
646.838	-2376
646.896	-1104
646.955	-2007
647.014	-1314
647.072	-1521
647.131	-792
647.189	-1464
647.248	-2241
647.306	-1537
647.365	-1156
647.423	-2257
647.481	-796
647.540	-2804
647.598	-1586
647.657	-1555
647.715	-909
647.773	-2650
647.832	-1323
647.890	-2500
647.948	-1545
648.007	-1178
648.065	-2254
648.123	-1796
648.181	-796
648.240	-1483
648.298	-2165
648.356	-2320
648.414	-1574
648.472	-1907
648.531	-1281
648.589	-2436
648.647	-1747
648.705	-1265
648.763	-1264
648.821	-1581
648.879	-1946
648.937	-1976
648.995	-1702
649.053	-1785
649.111	-1603
649.169	-1242
649.227	-1148
649.285	-2038
649.343	747
649.401	278
649.459	-1475
649.516	-1078
649.574	-2494
649.632	-1745
649.690	-2058
649.748	-1261
649.806	-2862
649.863	-1563
649.921	-607
649.979	-1801
650.037	-1023
650.094	-2633
650.152	-1924
650.210	-1855
650.268	-1546
650.325	-2184
650.383	-1514
650.440	-2385
650.498	-1392
650.556	-1658
650.613	-1800
650.671	-835
650.728	-1672
650.786	-1826
650.843	-1667
650.901	-2977
650.958	-1997
651.016	-1508
651.073	-2208
651.131	-2038
651.188	-2451
651.246	-1908
651.303	-2097
651.360	-927
651.418	-1778
651.475	-1367
651.532	-2438
651.590	-1151
651.647	-2410
651.704	-1858
651.762	-1703
651.819	-1359
651.876	-1664
651.933	-774
651.990	-1557
652.048	-2221
652.105	-1945
652.162	-1628
652.219	-1194
652.276	-2118
652.333	-1402
652.390	-2750
652.448	-1700
652.505	-1875
652.562	-2100
652.619	-2001
652.676	-2025
652.733	-975
652.790	-1380
652.847	-2744
652.904	-920
652.961	-2509
653.017	-1775
653.074	-1348
653.131	-1613
653.188	-2294
653.245	-1789
653.302	-1444
653.359	-2274
653.415	-1220
653.472	-1416
653.529	-1136
653.586	-2251
653.642	-2089
653.699	-1581
653.756	-2692
653.813	-1349
653.869	-1752
653.926	-2373
653.983	-2378
654.039	-2298
654.096	-1808
654.152	-1172
654.209	-2644
654.266	-1424
654.322	-2299
654.379	-959
654.435	-1666
654.492	-1578
654.548	-2134
654.605	-2073
654.661	-1218
654.717	-1687
654.774	-1977
654.830	-1741
654.887	-1534
654.943	-1780
655.000	-1618
655.056	-1301
655.112	-1266
655.168	-2112
655.225	-1694
655.281	-1511
655.337	-1982
655.394	-1893
655.450	-1297
655.506	-1463
655.562	-1766
655.618	-1086
655.675	-2203
655.731	-1942
655.787	-1860
655.843	-1070
655.899	-2433
655.955	-1434
656.011	-1419
656.067	-2543
656.123	-1338
656.179	-1752
656.235	-677
656.291	-2534
656.347	-995
656.403	-2023
656.459	-2004
656.515	-2292
656.571	-2191
656.627	-1870
656.683	-1879
656.739	-336
656.795	-1666
656.850	-1486
656.906	-2323
656.962	-1265
657.018	-2197
657.074	-2052
657.129	-1812
657.185	-1543
657.241	-1900
657.297	-2461
657.352	-1663
657.408	-2630
657.464	-927
657.519	-2045
657.575	-2876
657.630	-1667
657.686	-1257
657.742	-2664
657.797	-2323
657.853	-1809
657.908	-1164
657.964	-2560
658.019	-2261
658.075	-1806
658.130	-1298
658.186	-2412
658.241	-1514
658.297	-1646
658.352	-2222
658.407	-1371
658.463	-1869
658.518	-1710
658.573	-1553
658.629	-2441
658.684	-1899
658.739	-1583
658.795	-2745
658.850	-1725
658.905	-2721
658.960	-1155
659.016	-1817
659.071	-1301
659.126	-1675
659.181	-1898
659.236	-1049
659.291	-349
659.346	-1867
659.401	-2538
659.457	-1573
659.512	-2209
659.567	-1613
659.622	-1766
659.677	-2064
659.732	-1977
659.787	-2137
659.842	-2311
659.897	-1988
659.952	-1275
660.007	-1123
660.061	-1943
660.116	-2229
660.171	-1811
660.226	-2229
660.281	-403
660.336	-2219
660.391	-1848
660.445	-2179
660.500	-1853
660.555	-1384
660.610	-2564
660.664	-1569
660.719	-1775
660.774	-1864
660.828	-1972
660.883	-2208
660.938	-1729
660.992	-3020
661.047	-1500
661.101	-1230
661.156	-1883
661.211	-2055
661.265	-2260
661.320	-2241
661.374	-1663
661.429	-1817
661.483	-1045
661.538	-2923
661.592	-1820
661.647	-1673
661.701	-1411
661.755	-2089
661.810	-1718
661.864	-3209
661.919	-2102
661.973	-1609
662.027	-1780
662.081	-2348
662.136	-2464
662.190	-2043
662.244	-1113
662.299	-2776
662.353	-1218
662.407	-1638
662.461	-1637
662.515	-605
662.569	-2111
662.624	-1554
662.678	-2707
662.732	-2169
662.786	-1878
662.840	-1193
662.894	-1553
662.948	-2016
663.002	-2044
663.056	-1061
663.110	-2432
663.164	-2614
663.218	-1584
663.272	-1261
663.326	-1626
663.380	-1498
663.434	-1582
663.488	-2521
663.542	-1350
663.595	-1758
663.649	-3092
663.703	-1592
663.757	-1782
663.811	-2622
663.864	-2517
663.918	-1935
663.972	-1967
664.026	-2559
664.079	-2721
664.133	-1315
664.187	-1858
664.240	-2395
664.294	-2143
664.348	-1845
664.401	-1848
664.455	-1492
664.508	-1581
664.562	-2561
664.615	-1598
664.669	-2418
664.722	-1213
664.776	-2531
664.829	-2262
664.883	-2235
664.936	-2089
664.990	-2243
665.043	-1648
665.097	-2636
665.150	-2032
665.203	-2523
665.257	-1537
665.310	-1981
665.363	-2086
665.417	-2765
665.470	-1821
665.523	-2924
665.576	-1980
665.630	-2600
665.683	-1977
665.736	-2254
665.789	-1581
665.842	-1792
665.895	-1909
665.949	-1606
666.002	-2021
666.055	-2109
666.108	-1301
666.161	-2338
666.214	-2062
666.267	-1274
666.320	-2324
666.373	-1708
666.426	-1890
666.479	-2066
666.532	-1348
666.585	-2425
666.638	-2151
666.691	-2467
666.744	-1026
666.796	-2942
666.849	-2472
666.902	-1199
666.955	-1996
667.008	-2572
667.060	-2388
667.113	-2044
667.166	-1882
667.219	-1955
667.271	-1446
667.324	-1670
667.377	-1688
667.430	-2502
667.482	-2071
667.535	-2397
667.587	-1757
667.640	-1437
667.693	-2023
667.745	-1860
667.798	-1304
667.850	-1962
667.903	-2352
667.955	-2152
668.008	-1866
668.060	-1720
668.113	-2433
668.165	-1589
668.218	-952
668.270	-2245
668.322	-2255
668.375	-1604
668.427	-991
668.479	-2459
668.532	-1670
668.584	-2311
668.636	-2212
668.689	-2000
668.741	-2262
668.793	-1177
668.845	-1547
668.898	-1464
668.950	-2072
669.002	-1924
669.054	-1987
669.106	-2091
669.158	-2019
669.211	-1765
669.263	-1312
669.315	-1994
669.367	-2281
669.419	-1053
669.471	-1051
669.523	-2603
669.575	-1915
669.627	-2319
669.679	-2309
669.731	-2009
669.783	-2010
669.835	-1155
669.886	-2036
669.938	-1498
669.990	-1516
670.042	-3113
670.094	-1446
670.146	-2802
670.197	-2368
670.249	-1782
670.301	-2086
670.353	-1821
670.404	-1880
670.456	-2572
670.508	-1527
670.560	-1888
670.611	-1524
670.663	-1611
670.715	-309
670.766	1105
670.818	-143
670.869	-1269
670.921	-1488
670.972	-1701
671.024	-2662
671.075	-2179
671.127	-1410
671.178	-2694
671.230	-2085
671.281	-2121
671.333	-2310
671.384	-2925
671.436	-1599
671.487	-1582
671.538	-2191
671.590	-1751
671.641	-1535
671.692	-2879
671.744	-1925
671.795	-1659
671.846	-1658
671.897	-2140
671.949	-1963
672.000	-1435
672.051	-2120
672.102	-1763
672.153	-2526
672.204	-2336
672.256	-2280
672.307	-2495
672.358	-2275
672.409	-1500
672.460	-1995
672.511	-1489
672.562	-2269
672.613	-1985
672.664	-1789
672.715	-1965
672.766	-2308
672.817	-2235
672.868	-2479
672.919	-1701
672.970	-2460
673.021	-2120
673.071	-2013
673.122	-1082
673.173	-1295
673.224	-2005
673.275	-1644
673.326	-2645
673.376	-1854
673.427	-3072
673.478	-2386
673.528	-1785
673.579	-2181
673.630	-2177
673.680	-1140
673.731	-2681
673.782	-2189
673.832	-1841
673.883	-1802
673.934	-2855
673.984	-1809
674.035	-1584
674.085	-2008
674.136	-1262
674.186	-1919
674.237	-1475
674.287	-1790
674.338	-1861
674.388	-2315
674.438	-2525
674.489	-2518
674.539	-2609
674.589	-1896
674.640	-2286
674.690	-1320
674.740	-2480
674.791	-1890
674.841	-2013
674.891	-1209
674.942	-2628
674.992	-2136
675.042	-1427
675.092	-2283
675.142	-2171
675.193	-1114
675.243	-2474
675.293	-2322
675.343	-2192
675.393	-2663
675.443	-1691
675.493	-1709
675.543	-3114
675.593	-1788
675.643	-2329
675.693	-1656
675.743	-2027
675.793	-1952
675.843	-1765
675.893	-1575
675.943	-1794
675.993	-1692
676.043	-1815
676.093	-928
676.142	-2483
676.192	-2018
676.242	-2178
676.292	-1870
676.341	-2046
676.391	-1810
676.441	-2011
676.491	-2320
676.540	-2178
676.590	-1618
676.640	-2150
676.689	-1668
676.739	-2109
676.789	-2141
676.838	-1766
676.888	-2720
676.937	-2550
676.987	-1857
677.037	-1929
677.086	-2446
677.136	-2269
677.185	-2229
677.235	-2102
677.284	-2188
677.333	-2925
677.383	-2340
677.432	-2365
677.482	-2093
677.531	-2508
677.580	-2291
677.630	-2093
677.679	-1916
677.728	-2309
677.778	-3229
677.827	-1452
677.876	-1952
677.925	-2053
677.975	-2300
678.024	-2170
678.073	-2800
678.122	-2764
678.171	-1955
678.220	-1897
678.269	-2173
678.319	-2131
678.368	-2240
678.417	-2349
678.466	-1891
678.515	-1652
678.564	-2347
678.613	-1769
678.662	-2131
678.711	-2093
678.760	-2201
678.809	-1967
678.857	-2467
678.906	-2407
678.955	-2798
679.004	-2019
679.053	-2439
679.102	-2209
679.151	-1932
679.199	-2435
679.248	-2472
679.297	-1996
679.346	-2556
679.394	-1967
679.443	-1816
679.492	-1755
679.540	-2305
679.589	-1923
679.638	-2553
679.686	-2443
679.735	-2244
679.784	-2827
679.832	-1951
679.881	-2821
679.929	-2137
679.978	-2983
680.026	-3170
680.075	-2619
680.123	-1631
680.172	-2252
680.220	-2250
680.268	-1729
680.317	-2564
680.365	-2017
680.414	-1788
680.462	-2586
680.510	-1303
680.559	-2684
680.607	-2289
680.655	-2032
680.703	-2559
680.752	-2233
680.800	-1980
680.848	-2233
680.896	-3035
680.945	-2400
680.993	-2127
681.041	-2449
681.089	-2600
681.137	-1237
681.185	-2453
681.233	-1911
681.281	-2036
681.308	-1933
681.329	-1856
681.377	-1775
681.425	-2493
681.430	-2440
681.473	-1983
681.521	-2527
681.552	-2099
681.569	-1868
681.617	-1923
681.665	-2054
681.674	-2076
681.713	-2198
681.761	-1754
681.796	-2215
681.809	-2399
681.857	-1323
681.904	-1828
681.918	-1910
681.952	-2154
682.000	-2201
682.039	-1988
682.048	-1942
682.096	-2257
682.143	-2041
682.161	-2011
682.191	-1999
682.239	-1423
682.283	-2123
682.286	-2179
682.334	-1819
682.382	-2308
682.405	-2279
682.430	-2245
682.477	-2145
682.525	-1548
682.527	-1580
682.572	-2447
682.620	-1613
682.648	-1755
682.667	-1853
682.715	-1575
682.763	-2382
682.770	-2381
682.810	-2391
682.857	-2022
682.892	-2051
682.905	-2064
682.952	-1366
683.000	-1239
683.014	-1380
683.047	-1769
683.095	-1224
683.135	-2120
683.142	-2268
683.190	-1580
683.237	-2212
683.257	-1904
683.284	-1469
683.332	-1949
683.379	-1703
683.379	-1699
683.426	-1182
683.473	-1773
683.501	-1653
683.521	-1568
683.568	-1922
683.615	-2077
683.622	-1933
683.662	-1143
683.709	-1924
683.744	-1639
683.757	-1536
683.804	-1914
683.851	-2027
683.865	-1877
683.898	-1584
683.945	-890
683.987	-1537
683.992	-1615
684.039	-1319
684.086	-2056
684.109	-1636
684.133	-1165
684.180	-1386
684.227	-1464
684.230	-1442
684.274	-1126
684.321	-1833
684.352	-1668
684.368	-1581
684.415	-1674
684.462	-1771
684.473	-1719
684.509	-1594
684.556	-1680
684.595	-1392
684.603	-1328
684.649	-1352
684.696	-716
684.716	-1004
684.743	-1416
684.790	-884
684.837	-1739
684.838	-1726
684.883	-1206
684.930	-1302
684.959	-1028
684.977	-853
685.023	-1775
685.070	-1765
685.081	-1636
685.117	-1234
685.164	-1187
685.202	-1474
685.210	-1533
685.257	-1067
685.303	-1226
685.324	-1117
685.350	-978
685.396	-1328
685.443	-1106
685.445	-1104
685.490	-1009
685.536	-1436
685.566	-1246
685.583	-1141
685.629	-955
685.675	-1299
685.688	-1188
685.722	-906
685.768	-811
685.809	-1316
685.815	-1376
685.861	-470
685.908	-781
685.930	-715
685.954	-667
686.000	-875
686.047	-1029
686.052	-1065
686.093	-1299
686.139	-1156
686.173	-1342
686.185	-1424
686.232	-643
686.278	-888
686.294	-946
686.324	-1061
686.370	-1321
686.416	-622
686.416	-605
686.463	-1242
686.509	-841
686.537	-674
686.555	-606
686.601	-833
686.647	-606
686.658	-675
686.693	-905
686.739	-1177
686.779	-1326
686.785	-1325
686.831	-1242
686.877	-755
686.900	-849
686.923	-1000
686.969	-646
687.015	-1383
687.022	-1360
687.061	-1143
687.107	-887
687.143	-647
687.153	-594
687.199	-1002
687.245	-1333
687.264	-1245
687.291	-1025
687.336	-885
687.382	-590
687.385	-612
687.428	-985
687.474	-714
687.506	-1146
687.520	-1316
687.565	-950
687.611	-974
687.627	-1028
687.657	-1070
687.702	-893
687.748	-1171
687.748	-1174
687.794	-752
687.839	-936
687.869	-844
687.885	-837
687.931	-694
687.976	-847
687.990	-726
688.022	-459
688.067	-991
688.111	-1033
688.113	-1024
688.158	-576
688.204	-669
688.233	-601
688.249	-623
688.295	-295
688.340	-755
688.354	-851
688.386	-943
688.431	-758
688.474	-593
688.477	-582
688.522	-507
688.567	-687
688.595	-511
688.613	-395
688.658	-838
688.703	-482
688.716	-487
688.749	-407
688.794	-441
688.837	-871
688.839	-885
688.884	-376
688.930	-781
688.958	-655
688.975	-574
689.020	-632
689.065	-575
689.079	-609
689.110	-606
689.155	-1004
689.200	-482
689.201	-467
689.246	-162
689.291	-324
689.321	-12
689.336	86
689.381	-86
689.426	-582
689.442	-740
689.471	-900
689.516	-715
689.561	-784
689.562	-782
689.606	-600
689.651	-645
689.683	-840
689.696	-869
689.741	-589
689.785	-431
689.804	-437
689.830	-455
689.875	-285
689.920	-458
689.925	-420
689.965	-91
690.010	-432
690.046	-563
690.054	-562
690.099	-229
690.144	-221
690.166	-145
690.189	-171
690.233	-487
690.278	-909
690.287	-863
690.323	-376
690.367	-410
690.408	-136
690.412	-126
690.457	-447
690.501	-341
690.528	-479
690.546	-534
690.590	-882
690.635	-626
690.649	-835
690.680	-1097
690.724	-589
690.769	-252
690.770	-248
690.813	138
690.857	-274
690.890	-78
690.902	-43
690.946	-324
690.991	-216
691.011	-312
691.035	-234
691.080	403
691.124	222
691.132	287
691.168	473
691.213	169
691.252	604
691.257	652
691.301	92
691.346	180
691.373	22
691.390	1
691.434	-172
691.478	-134
691.493	-236
691.522	-414
691.567	-261
691.611	-383
691.614	-404
691.655	-382
691.699	161
691.734	135
691.743	102
691.787	111
691.831	-172
691.855	-274
691.875	-274
691.919	-416
691.964	-240
691.975	-173
692.008	-2
692.052	-131
692.096	-291
692.096	-302
692.139	86
692.183	-7
692.216	-236
692.227	-270
692.271	-107
692.315	15
692.337	30
692.359	45
692.403	-21
692.447	-106
692.457	-117
692.490	-194
692.534	-152
692.577	-4
692.578	10
692.622	-161
692.666	-36
692.698	98
692.709	147
692.753	154
692.797	194
692.818	214
692.840	203
692.884	315
692.928	116
692.938	134
692.971	260
693.015	70
693.059	122
693.059	110
693.102	327
693.146	694
693.179	624
693.189	534
693.233	387
693.276	292
693.299	75
693.320	-19
693.363	-53
693.407	135
693.420	17
693.450	-202
693.493	-13
693.537	-168
693.540	-173
693.580	-47
693.624	5
693.660	-242
693.667	-216
693.710	429
693.753	699
693.780	825
693.797	876
693.840	1348
693.883	1517
693.901	1512
693.926	1452
693.970	1424
694.013	1538
694.021	1541
694.056	1261
694.099	567
694.141	276
694.142	298
694.185	353
694.229	439
694.261	470
694.272	456
694.315	384
694.358	31
694.381	52
694.401	225
694.444	484
694.487	611
694.501	662
694.530	639
694.573	578
694.616	433
694.621	434
694.659	596
694.702	440
694.741	332
694.745	330
694.787	74
694.830	56
694.862	-61
694.873	8
694.916	71
694.959	289
694.982	445
695.002	520
695.044	404
695.087	445
695.102	406
695.130	275
695.172	146
695.215	119
695.222	88
695.258	40
695.301	-92
695.342	-305
695.343	-284
695.386	134
695.428	494
695.462	687
695.471	654
695.514	567
695.556	340
695.582	311
695.599	470
695.641	586
695.684	982
695.701	1025
695.726	878
695.769	582
695.811	445
695.821	374
695.854	289
695.896	86
695.938	27
695.941	6
695.981	-23
696.023	62
696.061	-82
696.065	-60
696.108	279
696.150	333
696.181	486
696.192	516
696.235	482
696.277	492
696.301	486
696.319	625
696.361	968
696.404	1131
696.421	1268
696.446	1237
696.488	1045
696.530	858
696.541	773
696.572	742
696.614	837
696.656	781
696.660	769
696.698	739
696.740	661
696.780	482
696.783	493
696.825	446
696.867	505
696.900	415
696.909	409
696.951	281
696.992	320
697.020	178
697.034	241
697.076	629
697.118	874
697.139	966
697.160	902
697.202	858
697.244	728
697.259	668
697.286	638
697.327	588
697.369	425
697.379	419
697.411	555
697.453	501
697.494	548
697.499	536
697.536	582
697.578	594
697.618	594
697.620	616
697.661	779
697.703	904
697.738	1070
697.744	1086
697.786	1039
697.828	1014
697.858	894
697.869	867
697.911	828
697.952	712
697.977	647
697.994	698
698.035	757
698.077	888
698.097	916
698.118	973
698.160	1058
698.201	1114
698.216	1126
698.243	1074
698.284	919
698.325	853
698.336	799
698.367	739
698.408	688
698.449	604
698.455	577
698.491	620
698.532	662
698.573	719
698.575	708
698.614	781
698.656	866
698.694	941
698.697	954
698.738	930
698.779	916
698.814	894
698.820	891
698.862	784
698.903	685
698.933	606
698.944	684
698.985	953
699.026	1224
699.053	1394
699.067	1331
699.172	760
699.292	1013
699.411	1433
699.530	1080
699.650	995
699.769	805
699.889	1553
700.008	949
700.127	1650
700.246	751
700.366	1045
700.485	203
700.604	1238
700.723	861
700.843	410
700.962	339
701.081	511
701.200	1410
701.319	1694
701.438	1345
701.557	1078
701.676	699
701.796	28
701.915	836
702.034	746
702.153	1144
702.272	1176
702.391	1288
702.509	375
702.628	374
702.747	611
702.866	1446
702.985	528
703.104	1143
703.223	1101
703.342	50
703.460	425
703.579	617
703.698	606
703.817	1180
703.935	687
704.054	230
704.173	554
704.292	681
704.410	693
704.529	122
704.648	1263
704.766	1088
704.885	670
705.003	610
705.122	793
705.240	-778
705.359	497
705.477	1487
705.596	1670
705.714	1936
705.833	653
705.951	1472
706.070	1420
706.188	1360
706.307	1850
706.425	1375
706.543	1030
706.662	558
706.780	1334
706.898	826
707.016	1093
707.135	1268
707.253	1192
707.371	1445
707.489	1070
707.608	479
707.726	883
707.844	1000
707.962	721
708.080	1476
708.198	1098
708.316	1177
708.434	610
708.552	686
708.670	1702
708.788	871
708.906	1940
709.024	1921
709.142	1338
709.260	740
709.378	1989
709.496	1044
709.614	655
709.732	1966
709.850	1072
709.968	558
710.085	968
710.203	1459
710.321	1738
710.439	1444
710.556	1746
710.674	1053
710.792	970
710.910	1134
711.027	1824
711.145	1406
711.263	269
711.380	933
711.498	1312
711.615	1689
711.733	1213
711.851	536
711.968	842
712.086	758
712.203	991
712.321	1229
712.438	1214
712.555	1119
712.673	2088
712.790	1149
712.908	1154
713.025	1204
713.142	1093
713.260	601
713.377	1122
713.494	1630
713.612	1581
713.729	794
713.846	805
713.963	1913
714.081	1232
714.198	1600
714.315	1256
714.432	1164
714.549	1263
714.666	3057
714.783	10623
714.901	24413
715.018	2344
715.135	1464
715.252	1079
715.369	1073
715.486	535
715.603	1062
715.720	804
715.837	1041
715.953	1016
716.070	1021
716.187	-24
716.304	892
716.421	893
716.538	726
716.655	920
716.771	1239
716.888	1241
717.005	1356
717.122	443
717.238	1035
717.355	909
717.472	622
717.589	1061
717.705	1309
717.822	1032
717.938	875
718.055	297
718.172	991
718.288	341
718.405	298
718.521	946
718.638	1149
718.754	1141
718.871	1662
718.987	486
719.104	1074
719.220	478
719.336	700
719.453	795
719.569	1686
719.685	928
719.802	856
719.918	111
720.034	1425
720.151	2658
720.267	9346
720.383	3308
720.499	1098
720.616	314
720.732	1185
720.848	1310
720.964	2361
721.080	1915
721.196	756
721.312	1157
721.428	540
721.544	1027
721.660	821
721.776	786
721.892	60
722.008	445
722.124	442
722.240	1270
722.356	823
722.472	1161
722.588	1261
722.704	406
722.820	715
722.936	123
723.051	-194
723.167	192
723.283	-117
723.399	248
723.515	1021
723.630	-206
723.746	-486
723.862	790
723.977	581
724.093	-421
724.209	46
724.324	422
724.440	599
724.555	1282
724.671	762
724.786	-40
724.902	-194
725.017	-93
725.133	829
725.248	1161
725.364	76
725.479	-290
725.595	-276
725.710	545
725.826	-48
725.941	570
726.056	151
726.172	43
726.287	204
726.402	-257
726.517	-151
726.633	-53
726.748	318
726.863	393
726.978	-148
727.093	226
727.208	-190
727.324	383
727.439	-282
727.554	-431
727.669	-7
727.784	-179
727.899	-259
728.014	-227
728.129	673
728.244	-67
728.359	-702
728.474	-70
728.589	434
728.704	35
728.819	260
728.934	776
729.049	-392
729.163	145
729.278	-59
729.393	-466
729.508	-143
729.622	88
729.737	321
729.852	139
729.967	352
730.081	255
730.196	-784
730.311	309
730.425	-136
730.540	-50
730.655	-306
730.769	-46
730.884	-349
730.998	511
731.113	623
731.227	-469
731.342	-264
731.456	232
731.571	505
731.685	757
731.800	-21
731.914	-498
732.028	-236
732.143	-647
732.257	-403
732.371	140
732.486	616
732.600	2534
732.714	4565
732.829	649
732.943	-111
733.057	490
733.171	177
733.285	266
733.399	-241
733.514	-475
733.628	-51
733.742	-456
733.856	-451
733.970	-369
734.084	-602
734.198	-47
734.312	411
734.426	-59
734.540	529
734.654	552
734.768	-215
734.882	358
734.996	-223
735.109	-295
735.223	541
735.337	137
735.451	-1127
735.565	-923
735.679	-280
735.792	349
735.906	403
736.020	-304
736.134	109
736.247	13
736.361	-570
736.475	352
736.588	-476
736.702	-222
736.815	-574
736.929	-525
737.043	-442
737.156	119
737.270	-334
737.383	-567
737.497	255
737.610	-80
737.723	-887
737.837	-422
737.950	-598
738.064	-124
738.177	-1027
738.290	-294
738.404	-896
738.517	92
738.630	-12
738.744	-550
738.857	-166
738.970	-225
739.083	339
739.197	108
739.310	-328
739.423	-161
739.536	-50
739.649	43
739.762	-205
739.875	741
739.988	-454
740.102	-174
740.215	114
740.328	-131
740.441	174
740.553	-543
740.667	-595
740.779	-796
740.892	-862
741.005	-301
741.118	-590
741.231	-660
741.344	-752
741.457	603
741.569	-85
741.682	-216
741.795	-685
741.908	-702
742.020	-622
742.133	5
742.246	2
742.358	-835
742.471	39
742.584	75
742.696	51
742.809	-435
742.922	-542
743.034	-683
743.147	-248
743.259	-210
743.372	-467
743.484	-1182
743.597	-228
743.709	-746
743.822	-1229
743.934	-739
744.046	-145
744.159	68
744.271	-332
744.383	-851
744.496	-602
744.608	-4
744.720	-148
744.832	-109
744.945	-544
745.057	-23
745.169	-400
745.281	-406
745.393	921
745.506	-674
745.618	-287
745.730	-1142
745.842	-612
745.954	-820
746.066	-514
746.178	-331
746.290	-645
746.402	-341
746.514	-139
746.626	-151
746.738	-235
746.850	118
746.962	-444
747.074	-944
747.185	-611
747.297	-41
747.409	-426
747.521	-299
747.633	-79
747.744	-500
747.856	-164
747.968	-386
748.080	-1061
748.191	181
748.303	78
748.414	-511
748.526	-666
748.638	-713
748.749	-133
748.861	-333
748.972	-148
749.084	192
749.195	-600
749.307	-337
749.418	-699
749.530	-541
749.641	-1059
749.753	-679
749.864	-360
749.975	-530
750.087	-300
750.198	-228
750.310	-965
750.421	-1181
750.532	-989
750.643	-935
750.755	-1304
750.866	-560
750.977	-471
751.088	-1079
751.199	78
751.310	-973
751.422	-495
751.533	-441
751.644	-723
751.755	-433
751.866	-601
751.977	-503
752.088	-1268
752.199	-416
752.310	-589
752.421	-951
752.532	-1171
752.643	-796
752.753	-935
752.864	-583
752.975	-555
753.086	-792
753.197	-961
753.308	-939
753.418	-296
753.529	-927
753.640	86
753.751	-710
753.861	-764
753.972	-537
754.083	42
754.193	-34
754.304	-1510
754.415	-1100
754.525	-473
754.636	-541
754.746	-28
754.857	-393
754.967	-937
755.078	-1325
755.188	-424
755.299	-106
755.409	-223
755.520	-629
755.630	-744
755.740	-392
755.851	-520
755.961	-736
756.071	181
756.182	-966
756.292	-1233
756.402	-381
756.512	-260
756.623	100
756.733	-231
756.843	-1044
756.953	297
757.063	-1103
757.173	-14
757.283	-108
757.393	244
757.504	-767
757.614	-539
757.724	-483
757.834	-680
757.944	-109
758.053	-1042
758.164	-517
758.273	-633
758.383	-540
758.493	-209
758.603	-1174
758.713	-953
758.823	-382
758.932	-1052
759.042	-761
759.152	-702
759.262	-576
759.372	-439
759.481	-212
759.591	-862
759.701	-705
759.810	-681
759.920	-903
760.029	-685
760.139	-1249
760.249	-111
760.358	-684
760.468	-737
760.577	-881
760.687	-544
760.796	-788
760.906	-622
761.015	-533
761.124	-589
761.234	-225
761.343	-298
761.453	-532
761.562	-762
761.671	-1028
761.781	-864
761.890	-704
761.999	-266
762.108	-1324
762.218	-211
762.327	-743
762.436	-496
762.545	-880
762.654	-372
762.763	-717
762.872	-726
762.982	-542
763.091	-862
763.200	-141
763.309	-763
763.418	-1253
763.527	-203
763.635	-217
763.744	-241
763.853	-45
763.962	-79
764.071	40
764.180	-986
764.289	-868
764.398	-730
764.506	-280
764.615	-511
764.724	-823
764.833	-730
764.941	-361
765.050	-465
765.159	-21
765.268	-410
765.376	-82
765.485	139
765.593	509
765.702	-79
765.810	407
765.919	1214
766.028	3204
766.136	5874
766.245	12926
766.353	35998
766.461	127163
766.570	210713
766.678	52047
766.787	11420
766.895	5166
767.003	2765
767.112	1837
767.220	1020
767.328	1178
767.437	472
767.545	-3
767.653	-195
767.761	267
767.870	-282
767.978	-689
768.086	-343
768.194	360
768.302	39
768.410	199
768.518	321
768.626	-260
768.734	-418
768.842	35
768.950	529
769.058	-51
769.166	-331
769.274	11
769.382	1396
769.490	1359
769.598	4508
769.706	11277
769.813	41333
769.921	148653
770.029	93903
770.137	10973
770.245	3361
770.352	1584
770.460	894
770.568	460
770.675	128
770.783	16
770.891	99
770.998	-107
771.106	-41
771.213	-126
771.321	-297
771.428	701
771.536	-746
771.643	-636
771.751	-1261
771.858	-416
771.966	-619
772.073	-141
772.181	-386
772.288	-361
772.395	-994
772.503	-678
772.610	-588
772.717	-1059
772.825	-923
772.932	-833
773.039	-442
773.146	-270
773.253	-303
773.361	-829
773.468	-117
773.575	-441
773.682	-818
773.789	-466
773.896	-252
774.003	-697
774.110	-864
774.217	-762
774.324	-163
774.431	-302
774.538	-1026
774.645	-986
774.752	-431
774.859	-772
774.966	-173
775.073	-559
775.179	-483
775.286	-501
775.393	-341
775.500	-895
775.607	-702
775.713	-627
775.820	-1673
775.927	-230
776.033	-775
776.140	-851
776.247	-585
776.353	-1183
776.460	-842
776.566	-1206
776.673	-744
776.779	-948
776.886	-1196
776.992	23
777.099	-507
777.205	-1090
777.312	-323
777.418	776
777.524	-339
777.631	-70
777.737	-872
777.843	-1206
777.950	-757
778.056	-1316
778.162	-312
778.268	-864
778.375	-246
778.481	-246
778.587	-619
778.693	-888
778.799	-631
778.906	-157
779.012	-177
779.118	-668
779.224	-742
779.330	-921
779.436	-627
779.542	-942
779.648	-134
779.754	-1253
779.860	-911
779.966	169
780.071	1766
780.177	599
780.283	-1127
780.389	-1272
780.495	-602
780.601	-1071
780.706	-1160
780.812	-1238
780.918	-741
781.024	-1184
781.129	-1795
781.235	-580
781.341	-1075
781.446	-1037
781.552	-1355
781.657	-290
781.763	-1287
781.869	-462
781.974	-575
782.080	-856
782.185	-613
782.291	-899
782.396	-1375
782.501	-1158
782.607	-1474
782.712	-1390
782.818	-1063
782.923	-494
783.028	-752
783.134	-678
783.239	-682
783.344	-1246
783.449	-1331
783.555	-1037
783.660	-885
783.765	-592
783.870	-689
783.975	-1161
784.080	-1012
784.185	-553
784.291	-1319
784.396	-975
784.501	-673
784.606	-388
784.711	-797
784.816	-629
784.921	-1331
785.026	-515
785.130	-1113
785.235	-980
785.340	-1506
785.445	-1275
785.550	-402
785.655	-722
785.760	-909
785.864	-823
785.969	-487
786.074	-953
786.178	-1266
786.283	-562
786.388	-1404
786.492	-1392
786.597	-502
786.702	-879
786.806	-1710
786.911	-1205
787.015	-748
787.120	-1346
787.224	-811
787.329	-1074
787.433	-604
787.538	-1211
787.642	-949
787.747	-1898
787.851	-672
787.955	-2370
788.060	-950
788.164	-1719
788.268	-1023
788.372	-1628
788.477	-1179
788.581	-1111
788.685	-2117
788.789	-1128
788.894	-1124
788.998	-1295
789.102	-776
789.206	-977
789.310	-1551
789.414	-546
789.518	-1434
789.622	-1022
789.726	-1324
789.830	-342
789.934	-579
790.038	40
790.142	-999
790.246	-1255
790.350	-1188
790.454	-1643
790.557	-909
790.661	32
790.765	-1604
790.869	-1088
790.973	-557
791.076	-91
791.180	-727
791.284	-1832
791.388	-422
791.491	-973
791.595	-1140
791.698	-1494
791.802	-235
791.906	-609
792.009	-656
792.113	-1388
792.216	-1031
792.320	-430
792.423	-573
792.527	-1650
792.630	-1406
792.733	-1442
792.837	-1710
792.940	-108
793.043	-1241
793.147	-1809
793.250	-1607
793.353	-467
793.457	-1697
793.560	-235
793.663	-1401
793.766	-1774
793.869	-1052
793.973	-968
794.076	-1306
794.179	-243
794.282	-646
794.385	-1299
794.488	-1334
794.591	-1494
794.694	105
794.797	271
794.900	-646
795.003	-1445
795.106	-1134
795.209	-856
795.312	-1291
795.415	-731
795.517	-1323
795.620	-910
795.723	-1680
795.826	-1436
795.929	-1182
796.031	-539
796.134	-471
796.237	-2233
796.339	-1494
796.442	-1141
796.545	-1520
796.647	-1291
796.750	-637
796.852	-652
796.955	-1076
797.057	-1151
797.160	-1470
797.262	-1982
797.365	-583
797.467	-1004
797.570	-946
797.672	-1261
797.775	-649
797.877	-1341
797.979	-1063
798.082	-1543
798.184	-784
798.286	-569
798.388	-1905
798.491	-1039
798.593	-1669
798.695	-2072
798.797	267
798.899	-891
799.001	-1090
799.104	-1554
799.206	-1469
799.308	34
799.410	-1424
799.512	-654
799.614	-1392
799.716	-1694
799.818	-470
799.920	-1380
800.021	-1159
800.123	-1273
800.225	-916
800.327	-498
800.429	-1559
800.531	-1160
800.633	-616
800.734	-1301
800.836	-1342
800.938	-1145
801.039	-984
801.141	-956
801.243	-1490
801.344	-825
801.446	-1792
801.548	-854
801.649	-1560
801.751	-1815
801.852	-1854
801.954	-552
802.055	-798
802.157	-1910
802.258	-1011
802.360	-2635
802.461	-336
802.563	-1827
802.664	-1650
802.765	-1796
802.867	-748
802.968	-2098
803.069	46
803.170	-1061
803.272	-1739
803.373	-760
803.474	-1651
803.575	-655
803.676	-990
803.777	-862
803.879	-2079
803.980	-829
804.081	-918
804.182	-1534
804.283	-1845
804.384	-2084
804.485	-1963
804.586	-1539
804.687	-580
804.788	-1280
804.888	-1735
804.989	-1162
805.090	-1123
805.191	-1866
805.292	-902
805.393	-897
805.493	-1691
805.594	-1562
805.695	-1900
805.796	-1122
805.896	-1190
805.997	-1663
806.098	-1598
806.198	-1939
806.299	-1218
806.399	-1347
806.500	-1008
806.601	-840
806.701	-1409
806.802	-1576
806.902	-900
807.002	-885
807.103	-1654
807.203	-754
807.304	-589
807.404	-1167
807.504	-1382
807.605	-2020
807.705	-653
807.805	-908
807.906	-1395
808.006	-975
808.106	-450
808.206	-1559
808.306	-1036
808.406	-859
808.507	-1603
808.607	-1031
808.707	-997
808.807	-1098
808.907	-1210
809.007	-1300
809.107	-1822
809.207	-1642
809.307	-1626
809.407	-1310
809.507	-1530
809.607	-1613
809.706	-1776
809.806	-1735
809.906	-1092
810.006	-1464
810.106	-1583
810.205	-348
810.305	-2364
810.405	-524
810.505	-1833
810.604	-1459
810.704	-1714
810.804	-1825
810.903	-1310
811.003	-1555
811.102	-1585
811.202	-1361
811.301	-1486
811.401	-2114
811.500	-2052
811.600	-982
811.699	-1320
811.799	-2591
811.898	-384
811.997	-1247
812.097	-1219
812.196	-1562
812.295	-1420
812.395	-1358
812.494	-1554
812.593	-1435
812.692	-1765
812.792	-1205
812.891	-1162
812.990	-790
813.089	-1763
813.188	-1599
813.287	-2018
813.386	-983
813.485	-1123
813.584	-1477
813.683	-1905
813.782	-1038
813.881	-1512
813.980	-781
814.079	-1296
814.178	-1461
814.277	-1174
814.376	-1880
814.475	-1401
814.574	-1315
814.672	-1044
814.771	-1611
814.870	-1459
814.969	-1555
815.067	-1355
815.166	-1071
815.265	-1042
815.363	-991
815.462	-1446
815.560	-1306
815.659	-1726
815.758	-1061
815.856	-732
815.955	-1403
816.053	-1089
816.152	-782
816.250	-1728
816.348	-1335
816.447	-989
816.545	-1524
816.644	-872
816.742	-573
816.840	-1162
816.938	-1338
817.037	-1194
817.135	-1009
817.233	-712
817.331	-2190
817.430	-1715
817.528	-1164
817.626	-1701
817.724	-1570
817.822	-1199
817.920	-1091
818.018	336
818.116	817
818.214	5506
818.312	19982
818.410	23159
818.508	2660
818.606	-459
818.704	-116
818.802	-519
818.900	-890
818.997	-974
819.095	-594
819.193	1221
819.291	4721
819.389	14258
819.486	47236
819.584	36778
819.682	3658
819.779	-463
819.877	-849
819.975	-1149
820.072	-1492
820.170	-1012
820.267	-778
820.365	-1829
820.462	-1598
820.560	-1258
820.657	-1048
820.755	-1777
820.852	-1079
820.949	-1257
821.047	-1217
821.144	-2106
821.241	-1071
821.339	-975
821.436	-1129
821.533	-1334
821.631	-549
821.728	-1417
821.825	-1316
821.922	-1279
822.019	-859
822.116	-1923
822.214	-1129
822.311	-1245
822.408	-2261
822.505	-409
822.602	-886
822.699	-2286
822.796	-1541
822.893	-1851
822.990	-1345
823.086	-1137
823.183	-1072
823.280	-1715
823.377	-1260
823.474	-1116
823.571	-1683
823.667	-1973
823.764	-1330
823.861	-1630
823.958	-848
824.054	-470
824.151	-2032
824.248	-2641
824.344	-480
824.441	-1122
824.537	-1592
824.634	-1420
824.731	-921
824.827	-1155
824.924	-2222
825.020	-759
825.116	-1013
825.213	-810
825.309	-1769
825.406	-1594
825.502	-1275
825.598	-2354
825.695	-1268
825.791	-1611
825.887	-1162
825.983	-1627
826.080	-1565
826.176	-1264
826.272	-1556
826.368	-1577
826.464	-2094
826.560	-1768
826.656	-1805
826.753	-1484
826.849	-1315
826.945	-1187
827.041	-1444
827.137	-2408
827.233	-1100
827.328	-2376
827.424	-1858
827.520	-1387
827.616	-1609
827.712	-1707
827.808	-612
827.904	-2056
827.999	-774
828.095	-1821
828.191	-1622
828.287	-1516
828.382	-1731
828.478	-648
828.574	-1600
828.669	-1610
828.765	-510
828.860	-2438
828.956	-1315
829.051	-1384
829.147	-1772
829.242	-899
829.338	-1797
829.433	-1062
829.529	-1906
829.624	-631
829.720	-2495
829.815	-1461
829.910	-1953
830.005	-1409
830.101	-1063
830.196	-1629
830.291	-1736
830.386	-1112
830.482	-658
830.577	-1894
830.672	-2308
830.767	-755
830.862	-2012
830.957	-1700
831.052	-1427
831.147	-1934
831.242	-1408
831.337	-1972
831.432	-1791
831.527	-2024
831.622	-1175
831.717	-1980
831.812	-1175
831.907	-2117
832.002	-714
832.097	-1930
832.191	-2060
832.286	-1764
832.381	-1581
832.476	-1181
832.570	-1779
832.665	-1338
832.760	-1308
832.854	-1965
832.949	-2262
833.044	-1542
833.138	-1410
833.233	-1108
833.327	-1884
833.422	-1227
833.516	-915
833.611	-1440
833.705	-811
833.799	-1521
833.894	-1859
833.988	-1728
834.083	-1732
834.177	-997
834.271	-2281
834.365	-1674
834.460	-1123
834.554	-2083
834.648	-1091
834.742	-1311
834.836	-1693
834.931	-1966
835.025	-2108
835.119	-1510
835.213	-1623
835.307	-2214
835.401	-1270
835.495	-1617
835.589	-1847
835.683	-1550
835.777	-1408
835.871	-1106
835.965	-2095
836.059	-1603
836.152	-345
836.246	-1548
836.340	-1201
836.434	-1508
836.528	-2168
836.621	-748
836.715	-2043
836.809	-1910
836.902	-1390
836.996	-1973
837.090	-1349
837.183	-1943
837.277	-1905
837.370	-1694
837.464	-1800
837.557	-1558
837.651	-1855
837.744	-1232
837.838	-1539
837.931	-1423
838.025	-1909
838.118	-1227
838.211	-807
838.305	-2207
838.398	-808
838.491	-1479
838.584	-2026
838.678	-1933
838.771	-449
838.864	-476
838.957	-2210
839.050	-1632
839.144	-1803
839.237	-1799
839.330	-1934
839.423	-1121
839.516	-2037
839.609	-1577
839.702	-1329
839.795	-1784
839.888	-2793
839.981	-1582
840.073	-1395
840.166	-1224
840.259	-2244
840.352	-1212
840.445	-2137
840.538	-1574
840.630	-929
840.723	-2225
840.816	-1938
840.909	-2006
841.001	-1593
841.094	-1831
841.186	-1611
841.279	-1211
841.372	-2212
841.464	-1722
841.557	-1924
841.649	-2483
841.742	-764
841.834	-1763
841.927	-1624
842.019	-2179
842.111	-1229
842.204	-1369
842.296	-1598
842.388	-1089
842.481	-1871
842.573	-1576
842.665	-1415
842.758	-1698
842.850	-1164
842.942	-2749
843.034	-1740
843.126	-1947
843.218	-1493
843.310	-1930
843.402	-1101
843.495	-439
843.587	-471
843.679	-1137
843.771	-2294
843.862	-1781
843.954	-1763
844.046	-1431
844.138	-1940
844.230	-1427
844.322	-1811
844.414	-1422
844.505	-1764
844.597	-1408
844.689	-1422
844.781	-1793
844.872	-1504
844.964	-1938
845.056	-1660
845.147	-1679
845.239	-1950
845.331	-2418
845.422	-1420
845.514	-1418
845.605	-1333
845.697	-1814
845.788	-1555
845.880	-1702
845.971	-2128
846.063	-1845
846.154	-2573
846.245	-1900
846.337	-2062
846.428	-1274
846.519	-1425
846.610	-915
846.702	-1364
846.793	-1735
846.884	-1548
846.975	-2634
847.066	-1601
847.158	-1927
847.249	-2150
847.340	-840
847.431	-2375
847.522	-1094
847.613	-1727
847.704	-1418
847.795	-1417
847.886	-1231
847.977	-866
848.068	-1996
848.158	-2069
848.249	-1690
848.340	-1775
848.431	-1527
848.522	-2041
848.612	-2205
848.703	-1686
848.794	-2196
848.885	-1481
848.975	-1630
849.066	-1860
849.157	-2053
849.247	-2002
849.338	-1463
849.428	-606
849.519	56
849.609	1257
849.700	4457
849.790	11297
849.881	2986
849.971	-1128
850.061	-1451
850.152	-1672
850.242	-1596
850.332	-1405
850.423	-1634
850.513	-1779
850.603	-2138
850.693	-2185
850.784	-1729
850.874	-1170
850.964	-2058
851.054	-1782
851.144	-1988
851.234	-1644
851.324	-1965
851.414	-1197
851.505	-1582
851.595	-1200
851.684	-1679
851.774	-1489
851.864	-2145
851.954	-1813
852.044	-1606
852.134	-1750
852.224	-1536
852.314	-1984
852.403	-2358
852.493	-1257
852.583	-1269
852.673	-1553
852.762	-1764
852.852	-1844
852.942	-1669
853.031	-1327
853.121	-1310
853.210	-1718
853.300	-1213
853.389	-2365
853.479	-1438
853.568	-1003
853.658	-1176
853.747	1189
853.837	4095
853.926	9670
854.015	20945
854.105	37423
854.194	82371
854.283	31524
854.373	2044
854.462	-649
854.551	-1051
854.640	-1343
854.729	-1813
854.819	-727
854.908	-1700
854.997	-553
855.086	-1736
855.175	-2127
855.264	-1634
855.353	-1845
855.442	-1346
855.531	-1684
855.620	-1967
855.709	-1741
855.798	-1218
855.887	-1648
855.975	-2292
856.064	-1316
856.153	-1497
856.242	-1649
856.331	-2047
856.419	-2218
856.508	-2097
856.597	-867
856.685	-2440
856.774	-758
856.863	-1687
856.951	-1852
857.040	-1839
857.128	-1861
857.217	-1619
857.305	-2029
857.394	-2015
857.482	-970
857.571	-994
857.659	-1799
857.747	-2344
857.836	-2337
857.924	-2349
858.012	-1780
858.101	-1903
858.189	-1365
858.277	-1591
858.365	-1643
858.454	-1416
858.542	-1974
858.630	-1722
858.718	-1679
858.806	-2056
858.894	-1128
858.982	-829
859.070	-1714
859.158	-1921
859.246	-1398
859.334	-1372
859.422	-2055
859.510	-1125
859.598	-2394
859.686	-2062
859.773	-1563
859.861	-2540
859.949	-1840
860.037	-2756
860.125	-1518
860.212	-2347
860.300	-1774
860.388	-1555
860.475	-1777
860.563	-1673
860.651	-1743
860.738	-1028
860.826	-1976
860.913	-1486
861.001	-2024
861.088	-1811
861.176	-1485
861.263	-2446
861.350	-2336
861.438	-1815
861.525	-2312
861.612	-1851
861.700	-1390
861.787	-2208
861.874	-1836
861.962	-1089
862.049	-2358
862.136	-1871
862.223	-1882
862.310	-2133
862.397	-1790
862.484	-1179
862.572	-1436
862.659	-1767
862.746	-1413
862.833	-2033
862.920	-1392
863.007	-1557
863.094	-1953
863.180	-1678
863.267	-2145
863.354	-2358
863.441	-1372
863.528	-2157
863.615	-1949
863.701	-1580
863.788	-2251
863.875	-1897
863.961	-1114
864.048	-2271
864.135	-1399
864.221	-2287
864.308	-1811
864.395	-1191
864.481	-2181
864.568	-1755
864.654	-2050
864.741	-2493
864.827	-2167
864.914	-854
865.000	-920
865.086	-2048
865.173	-1444
865.259	-1765
865.345	-1766
865.432	-2106
865.518	-1687
865.604	-746
865.690	-1254
865.776	1288
865.863	4250
865.949	10824
866.035	16488
866.121	33083
866.207	51092
866.293	12740
866.379	34
866.465	-1574
866.551	-947
866.637	-1510
866.723	-986
866.809	-1200
866.895	-427
866.981	-1185
867.066	-2192
867.152	-1139
867.238	-2006
867.324	-1172
867.409	-414
867.495	-1686
867.581	-1388
867.667	-1043
867.752	-1250
867.838	-1170
867.923	-1702
868.009	-1191
868.094	-816
868.180	-1112
868.266	-1227
868.351	-1806
868.436	-979
868.522	-810
868.607	-1182
868.693	-1075
868.778	-23
868.863	-1171
868.949	-1754
869.034	-1770
869.119	-1921
869.204	-1788
869.290	-1545
869.375	-2932
869.460	-2080
869.545	-1329
869.630	-1664
869.715	-1292
869.800	-689
869.885	-1649
869.970	-986
870.055	-1616
870.140	-1584
870.225	-1612
870.310	-1631
870.395	-1659
870.480	-2006
870.565	-1634
870.650	-1525
870.734	-1333
870.819	-1351
870.904	-1483
870.989	-1644
871.073	-708
871.158	-1353
871.243	-1677
871.327	-2180
871.412	-1678
871.496	-1664
871.581	-1574
871.665	-1770
871.750	-1561
871.834	-1476
871.919	-1635
872.003	-2563
872.088	-1008
872.172	-1787
872.257	-1597
872.341	-2342
872.425	-1629
872.509	-1718
872.594	-1291
872.678	-1319
872.762	-1934
872.846	-2139
872.930	-1155
873.015	-2536
873.099	-1473
873.183	-1808
873.267	-1239
873.351	-2099
873.435	-1962
873.519	-880
873.603	-2309
873.687	-1332
873.771	-1699
873.855	-1038
873.938	-966
874.022	-1436
874.106	-2050
874.190	-1502
874.274	-1774
874.358	-1737
874.383	-1989
874.441	-2584
874.490	-2061
874.525	-1694
874.598	-1702
874.609	-1708
874.692	-1807
874.705	-1720
874.776	-1282
874.813	-1030
874.859	-710
874.920	-1489
874.943	-1780
875.027	-2259
875.028	-2250
875.110	-1943
875.135	-1883
875.194	-1707
875.243	-2115
875.277	-2433
875.350	-1821
875.361	-1730
875.444	-1289
875.457	-1315
875.527	-1501
875.565	-1443
875.611	-1388
875.672	-1519
875.694	-1540
875.778	-2327
875.780	-2322
875.861	-2389
875.887	-2313
875.944	-2059
875.994	-1527
876.027	-1201
876.101	-1244
876.111	-1247
876.194	-1112
876.209	-1180
876.277	-1597
876.316	-1376
876.360	-1087
876.423	-1536
876.443	-1657
876.526	-811
876.530	-845
876.610	-1761
876.637	-1701
876.693	-1535
876.745	-1427
876.776	-1332
876.852	-1039
876.859	-1016
876.942	-1368
876.959	-1338
877.025	-1385
877.066	-1219
877.108	-950
877.173	-1086
877.190	-1142
877.273	-1034
877.280	-1079
877.356	-1559
877.387	-1453
877.439	-1290
877.494	-1346
877.522	-1333
877.601	-751
877.605	-737
877.688	-812
877.708	-918
877.770	-976
877.815	-1116
877.853	-1463
877.922	-1564
877.936	-1489
878.018	-744
878.029	-776
878.101	-1395
878.136	-1405
878.184	-1343
878.242	-1413
878.266	-1429
878.349	-1392
878.349	-1388
878.431	-616
878.456	-804
878.514	-1312
878.563	-855
878.596	-579
878.670	-973
878.679	-1004
878.761	-1424
878.776	-1301
878.844	-865
878.883	-989
878.926	-1024
878.990	-993
879.008	-1012
879.091	-1381
879.097	-1355
879.173	-1192
879.203	-1158
879.255	-860
879.310	-893
879.338	-1004
879.417	-1381
879.420	-1395
879.502	-1319
879.523	-1180
879.584	-678
879.630	-1099
879.667	-1431
879.736	-1149
879.749	-1115
879.831	-1158
879.843	-1149
879.913	-1066
879.949	-862
879.995	-545
880.056	-544
880.077	-587
880.159	-680
880.162	-684
880.241	-727
880.269	-758
880.323	-699
880.375	-592
880.405	-703
880.482	-698
880.487	-637
880.569	342
880.588	444
880.651	144
880.694	-259
880.733	-54
880.801	25
880.815	-236
880.896	-851
880.907	-923
880.978	-649
881.013	-554
881.060	-616
881.120	-873
881.142	-916
881.224	-1184
881.226	-1179
881.305	-942
881.332	-1001
881.387	-849
881.438	-324
881.469	-242
881.545	-1340
881.550	-1387
881.632	-694
881.651	-742
881.713	-1166
881.757	-1027
881.795	-697
881.863	-568
881.876	-623
881.958	-1427
881.969	-1424
882.039	-1008
882.075	-864
882.121	-586
882.181	-366
882.202	-464
882.284	-603
882.287	-607
882.365	-283
882.393	-423
882.446	-610
882.499	-912
882.528	-938
882.605	-346
882.609	-352
882.690	-815
882.711	-821
882.771	-626
882.817	-695
882.853	-524
882.923	-335
882.934	-385
883.015	-802
883.029	-862
883.096	-705
883.135	-576
883.177	-704
883.241	-1056
883.258	-930
883.339	100
883.347	154
883.420	-221
883.453	-427
883.501	-508
883.558	-251
883.583	-222
883.663	-805
883.664	-809
883.744	-469
883.770	-430
883.825	-637
883.876	-1078
883.906	-1111
883.981	-595
883.987	-598
884.068	-781
884.087	-917
884.149	-993
884.193	-925
884.230	-897
884.298	-1029
884.310	-978
884.391	-32
884.404	47
884.472	-384
884.510	-710
884.552	-533
884.615	-269
884.633	-347
884.714	-789
884.721	-796
884.794	-509
884.826	-483
884.875	-422
884.932	-400
884.956	-515
885.036	-982
885.037	-990
885.117	-503
885.143	-338
885.197	-20
885.248	154
885.278	7
885.354	-450
885.358	-453
885.439	-243
885.459	-289
885.519	-506
885.565	-660
885.599	-539
885.670	-157
885.680	-126
885.760	40
885.775	53
885.840	-360
885.881	-593
885.921	-400
885.986	-199
886.001	-263
886.081	-659
886.091	-714
886.161	-395
886.196	-160
886.241	-113
886.302	-88
886.322	-159
886.402	-684
886.407	-705
886.482	-182
886.512	-16
886.562	21
886.617	-13
886.642	-57
886.722	-399
886.722	-407
886.802	199
886.828	299
886.882	260
886.933	382
886.962	342
887.038	-52
887.042	-41
887.122	190
887.143	223
887.202	65
887.248	-48
887.281	202
887.353	724
887.361	695
887.441	163
887.458	85
887.521	134
887.563	93
887.601	107
887.668	145
887.680	145
887.760	66
887.773	51
887.840	151
887.878	192
887.919	161
887.983	71
887.999	5
888.079	-271
888.088	-320
888.158	-453
888.193	-502
888.238	-314
888.297	-91
888.317	-19
888.397	267
888.402	278
888.476	-395
888.507	-685
888.556	-495
888.612	-279
888.635	-241
888.715	-173
888.717	-178
888.794	12
888.821	108
888.873	-219
888.926	-687
888.953	-563
889.031	-140
889.032	-134
889.111	-159
889.135	-157
889.190	102
889.240	306
889.270	330
889.345	349
889.349	364
889.428	546
889.449	575
889.507	301
889.554	94
889.586	221
889.658	476
889.665	445
889.744	53
889.763	-42
889.824	-29
889.867	-19
889.903	63
889.972	221
890.076	319
890.181	315
890.285	334
890.390	370
890.494	514
890.599	-487
890.703	-577
890.807	80
890.912	-177
891.016	444
891.120	335
891.224	417
891.329	698
891.433	595
891.537	538
891.641	-326
891.745	626
891.849	-395
891.953	1036
892.058	319
892.162	499
892.266	-111
892.370	380
892.474	82
892.578	-39
892.682	51
892.786	899
892.889	833
892.993	799
893.097	366
893.201	380
893.305	-141
893.409	597
893.512	-488
893.616	140
893.720	6
893.824	-211
893.927	410
894.031	365
894.135	-263
894.238	590
894.342	-591
894.445	46
894.549	695
894.652	-379
894.756	-543
894.859	420
894.963	-461
895.066	311
895.170	68
895.273	542
895.377	365
895.480	185
895.583	818
895.687	549
895.790	478
895.893	129
895.997	527
896.100	57
896.203	-192
896.306	229
896.409	62
896.513	482
896.616	-2
896.719	-425
896.822	-53
896.925	312
897.028	-77
897.131	-193
897.234	-340
897.337	410
897.440	328
897.543	569
897.646	190
897.749	327
897.852	-94
897.954	-386
898.057	-319
898.160	411
898.263	158
898.366	-281
898.468	211
898.571	-156
898.674	-799
898.776	294
898.879	-365
898.982	321
899.084	-5
899.187	-86
899.290	-458
899.392	-174
899.495	978
899.597	589
899.700	-495
899.802	491
899.904	408
900.007	-327
900.109	201
900.212	-364
900.314	-284
900.416	-755
900.519	318
900.621	434
900.723	-294
900.826	130
900.928	-496
901.030	-145
901.132	327
901.234	-24
901.336	-577
901.439	635
901.541	347
901.643	437
901.745	204
901.847	-411
901.949	-213
902.051	309
902.153	-105
902.255	726
902.357	-220
902.459	370
902.560	-141
902.662	-26
902.764	-320
902.866	614
902.968	-165
903.070	350
903.171	-316
903.273	-125
903.375	153
903.477	562
903.578	-258
903.680	412
903.781	-557
903.883	206
903.985	-215
904.086	-330
904.188	30
904.289	951
904.391	-396
904.492	825
904.594	347
904.695	1559
904.796	619
904.898	544
904.999	510
905.100	1005
905.202	809
905.303	-66
905.404	698
905.506	204
905.607	-67
905.708	-214
905.809	-617
905.910	555
906.012	529
906.113	1136
906.214	1037
906.315	909
906.416	-4
906.517	418
906.618	498
906.719	465
906.820	-66
906.921	155
907.022	-132
907.123	473
907.224	555
907.325	-46
907.425	307
907.526	186
907.627	-489
907.728	-387
907.828	-47
907.929	640
908.030	-17
908.131	110
908.231	-151
908.332	91
908.433	-792
908.533	246
908.634	-20
908.734	161
908.835	-235
908.935	411
909.036	-654
909.136	117
909.237	13
909.337	77
909.438	358
909.538	-40
909.638	284
909.739	611
909.839	101
909.939	-20
910.040	153
910.140	87
910.240	-78
910.340	-409
910.440	-131
910.541	216
910.641	-310
910.741	-57
910.841	-1303
910.941	-677
911.041	-235
911.141	127
911.241	-265
911.341	326
911.441	-834
911.541	-465
911.641	-23
911.741	-333
911.841	-223
911.941	-13
912.040	405
912.140	182
912.240	68
912.340	780
912.440	772
912.539	34
912.639	84
912.739	-96
912.838	425
912.938	788
913.038	83
913.137	49
913.237	-18
913.336	10
913.436	22
913.535	473
913.635	27
913.734	458
913.834	709
913.933	-703
914.033	-32
914.132	310
914.231	-602
914.331	-405
914.430	-581
914.529	951
914.629	2
914.728	668
914.827	-140
914.926	366
915.025	435
915.125	-442
915.224	-121
915.323	120
915.422	-572
915.521	5
915.620	-1111
915.719	115
915.818	181
915.917	-418
916.016	454
916.115	-610
916.214	-570
916.313	205
916.412	13
916.510	261
916.609	525
916.708	393
916.807	-349
916.906	573
917.004	-5
917.103	222
917.202	33
917.301	258
917.399	-37
917.498	-167
917.596	170
917.695	598
917.794	265
917.892	265
917.991	82
918.089	225
918.188	-109
918.286	599
918.384	148
918.483	-125
918.581	487
918.680	-347
918.778	46
918.876	790
918.975	-430
919.073	34
919.171	-126
919.269	173
919.368	-206
919.466	417
919.564	-123
919.662	224
919.760	-602
919.858	-95
919.956	-152
920.054	-141
920.153	-280
920.251	-16
920.349	84
920.446	-105
920.544	-425
920.642	16
920.740	-342
920.838	243
920.936	-311
921.034	187
921.132	159
921.229	328
921.327	440
921.425	-119
921.523	-134
921.620	401
921.718	-572
921.816	520
921.913	-215
922.011	220
922.109	418
922.206	211
922.304	-89
922.401	1526
922.499	-93
922.596	89
922.694	-51
922.791	504
922.888	89
922.986	584
923.083	1333
923.181	595
923.278	278
923.375	215
923.473	801
923.570	880
923.667	178
923.764	1043
923.861	145
923.959	26
924.056	386
924.153	1102
924.250	712
924.347	830
924.444	291
924.541	242
924.638	674
924.735	592
924.832	1135
924.929	267
925.026	432
925.123	593
925.220	587
925.317	-60
925.414	488
925.510	282
925.607	546
925.704	174
925.801	709
925.897	598
925.994	895
926.091	1028
926.187	1079
926.284	2885
926.381	2462
926.477	3430
926.574	2179
926.670	2384
926.767	3314
926.863	2681
926.960	1089
927.056	2113
927.153	174
927.249	-194
927.346	-264
927.442	-178
927.538	-77
927.635	1583
927.731	58
927.827	-128
927.924	31
928.020	158
928.116	-169
928.212	617
928.308	55
928.404	502
928.501	-294
928.597	93
928.693	-86
928.789	650
928.885	1060
928.981	-68
929.077	145
929.173	379
929.269	53
929.365	1017
929.461	171
929.557	-8
929.652	-965
929.748	-493
929.844	-178
929.940	805
930.036	162
930.131	-128
930.227	127
930.323	772
930.419	21
930.514	673
930.610	-151
930.705	618
930.801	354
930.897	-252
930.992	287
931.088	-172
931.183	431
931.279	307
931.374	-29
931.470	630
931.565	-84
931.660	703
931.756	254
931.851	-340
931.946	-626
932.042	714
932.137	-349
932.232	60
932.327	320
932.423	698
932.518	-625
932.613	530
932.708	507
932.803	401
932.898	39
932.994	-803
933.089	157
933.184	-142
933.279	-687
933.374	970
933.469	167
933.563	131
933.658	-159
933.753	-22
933.848	-76
933.943	162
934.038	-245
934.133	176
934.227	-349
934.322	-442
934.417	-616
934.512	-147
934.606	97
934.701	432
934.796	-269
934.890	-406
934.985	-253
935.079	-332
935.174	-1140
935.269	375
935.363	-396
935.458	-781
935.552	-473
935.646	-194
935.741	-159
935.835	201
935.930	-355
936.024	-133
936.118	113
936.213	-418
936.307	25
936.401	-11
936.496	-306
936.590	-388
936.684	-947
936.778	168
936.872	190
936.966	329
937.060	-299
937.155	-751
937.249	84
937.343	-174
937.437	406
937.531	-409
937.625	6
937.719	-2
937.813	-426
937.906	-62
938.000	-51
938.094	-294
938.188	-256
938.282	529
938.376	-744
938.469	-146
938.563	-314
938.657	559
938.751	2672
938.844	4506
938.938	1498
939.032	770
939.125	171
939.219	1025
939.312	2633
939.406	7533
939.500	3777
939.593	835
939.686	-160
939.780	316
939.873	-617
939.967	380
940.060	-561
940.154	170
940.247	-242
940.340	-100
940.434	-4
940.527	44
940.620	173
940.713	567
940.806	-476
940.900	-336
940.993	-49
941.086	432
941.179	-367
941.272	17
941.365	219
941.458	500
941.551	1186
941.644	-84
941.737	-259
941.830	-299
941.923	-278
942.016	-1140
942.109	-577
942.202	-845
942.295	-964
942.388	-233
942.480	-308
942.573	-524
942.666	-811
942.759	-145
942.851	-1088
942.944	-657
943.037	-144
943.129	268
943.222	-855
943.315	-94
943.407	-245
943.500	-709
943.592	-451
943.685	9
943.777	-1055
943.870	429
943.962	-512
944.055	-589
944.147	-178
944.239	-809
944.332	-338
944.424	-232
944.516	-829
944.609	-884
944.701	-438
944.793	-889
944.885	-162
944.977	-252
945.070	-515
945.162	-806
945.254	-162
945.346	68
945.438	-215
945.530	54
945.622	-685
945.714	-162
945.806	-632
945.898	42
945.990	-13
946.082	-200
946.174	321
946.266	-253
946.358	-205
946.449	-1040
946.541	-346
946.633	-550
946.725	-296
946.816	-488
946.908	-1138
947.000	-600
947.091	-570
947.183	750
947.275	360
947.366	311
947.458	-637
947.549	-340
947.641	-495
947.732	-197
947.824	-1748
947.915	-627
948.007	-831
948.098	-230
948.190	-229
948.281	-340
948.372	-229
948.464	19
948.555	-679
948.646	-295
948.737	-1070
948.829	-548
948.920	-482
949.011	-790
949.102	-1396
949.193	-214
949.284	-1250
949.376	-1593
949.467	-791
949.558	606
949.649	-304
949.740	-168
949.831	490
949.922	-462
950.013	-572
950.104	-1150
950.194	-486
950.285	-751
950.376	-855
950.467	-770
950.558	-1313
950.649	-160
950.739	-707
950.830	-937
950.921	-625
951.011	-588
951.102	-428
951.193	-386
951.283	-796
951.374	-1355
951.464	-429
951.555	-350
951.646	-625
951.736	-227
951.826	-1056
951.917	160
952.007	-982
952.098	-1148
952.188	-98
952.279	-1013
952.369	-523
952.459	-878
952.549	202
952.640	-1013
952.730	-1307
952.820	-730
952.910	281
953.001	-277
953.091	-1129
953.181	-863
953.271	-884
953.361	-351
953.451	-1025
953.541	-96
953.631	-52
953.721	-840
953.811	-1178
953.901	-851
953.991	-1109
954.081	-462
954.171	-860
954.261	-269
954.350	-633
954.440	-364
954.530	-497
954.620	184
954.710	-797
954.799	-778
954.889	-344
954.979	-238
955.068	-1043
955.158	-696
955.248	-223
955.337	32
955.427	-1042
955.516	-182
955.606	129
955.695	-1245
955.785	-458
955.874	-275
955.964	-1397
956.053	-580
956.142	-593
956.232	-474
956.321	-1059
956.410	-458
956.500	-84
956.589	-559
956.678	-847
956.767	281
956.856	-818
956.946	-129
957.035	-533
957.124	2
957.213	-1207
957.302	-493
957.391	-518
957.480	-1269
957.569	-881
957.658	-237
957.747	-1266
957.836	-1010
957.925	-120
958.014	-662
958.103	-1382
958.192	-437
958.280	-1251
958.369	-1101
958.458	-512
958.547	-228
958.635	-1543
958.724	119
958.813	-1275
958.901	-44
958.990	-1208
959.079	-1096
959.167	122
959.256	-404
959.344	-152
959.433	-826
959.521	-398
959.610	-119
959.698	-887
959.787	-37
959.875	-531
959.964	-638
960.052	-1298
960.140	-987
960.228	-547
960.317	-113
960.405	-605
960.493	-515
960.581	-836
960.670	-131
960.758	-543
960.846	-799
960.934	-1069
961.022	-387
961.110	-406
961.198	-4
961.286	-466
961.374	-1402
961.462	912
961.550	-77
961.638	-1113
961.726	-633
961.814	-1268
961.902	-241
961.990	-883
962.078	-876
962.165	-1197
962.253	-729
962.341	-844
962.429	-766
962.516	-461
962.604	-432
962.692	-878
962.779	-345
962.867	-798
962.955	-284
963.042	-499
963.130	-1029
963.217	-529
963.305	-1068
963.392	-786
963.480	-1395
963.567	-1211
963.654	-231
963.742	-913
963.829	-1140
963.917	-490
964.004	-428
964.091	-890
964.178	-654
964.266	-308
964.353	-771
964.440	-1012
964.527	-538
964.614	-994
964.701	-246
964.789	416
964.876	-500
964.963	-816
965.050	-11
965.137	-371
965.224	-245
965.311	-567
965.398	-806
965.485	-925
965.571	-1123
965.658	-1136
965.745	-595
965.832	-337
965.919	-1081
966.006	-1576
966.092	-972
966.179	-1028
966.266	-763
966.352	-1444
966.439	-850
966.526	-1127
966.612	196
966.699	42
966.786	-1540
966.872	-1514
966.959	-989
967.045	-787
967.132	-1077
967.218	-2146
967.304	-543
967.391	-1092
967.477	-1528
967.564	-1152
967.650	-378
967.736	-370
967.822	-1167
967.909	-763
967.995	-1275
968.081	-917
968.167	-769
968.254	-1230
968.340	-946
968.426	-474
968.512	-468
968.598	-1260
968.684	-1501
968.770	-376
968.856	-1199
968.942	-657
969.028	-627
969.114	-1891
969.200	-514
969.286	-879
969.372	-222
969.457	-1273
969.543	-1186
969.629	-1256
969.715	-799
969.801	-291
969.886	-661
969.972	-1002
970.058	-1012
970.143	-1865
970.229	-391
970.315	-1181
970.400	-538
970.486	-388
970.571	-1163
970.657	-430
970.742	-1007
970.828	-218
970.913	-411
970.999	-1110
971.084	-431
971.169	-1144
971.255	-1017
971.340	-821
971.425	-757
971.511	-1926
971.596	-124
971.681	-1209
971.766	-1375
971.852	-817
971.937	-581
972.022	-496
972.107	-1577
972.192	-1817
972.277	-727
972.362	-701
972.447	-974
972.532	-1152
972.617	-1929
972.702	-1211
972.787	-889
972.872	-851
972.957	-939
973.042	-813
973.126	-639
973.211	-1724
973.296	-649
973.381	-557
973.466	-1845
973.550	-446
973.635	-1175
973.720	-1169
973.804	-600
973.889	-923
973.973	-222
974.058	-576
974.143	-631
974.227	-1506
974.312	-1087
974.396	-885
974.481	-1302
974.565	-1115
974.649	-1489
974.734	-652
974.818	-1244
974.902	-808
974.987	-1298
975.071	-1699
975.155	116
975.240	-680
975.324	-549
975.408	-897
975.492	-1080
975.576	-1608
975.660	-728
975.744	-1984
975.829	-877
975.913	-894
975.997	-1766
976.081	-2696
976.165	29
976.249	-1956
976.333	-1064
976.416	-1116
976.500	-354
976.584	-1596
976.668	-1237
976.752	-1817
976.836	-918
976.919	-1419
977.003	-708
977.087	-882
977.171	-932
977.254	-1231
977.338	-856
977.422	-1121
977.505	-1459
977.589	-1308
977.672	-965
977.756	-1170
977.839	-532
977.923	-2079
978.006	-267
978.090	-932
978.173	-1898
978.257	-735
978.340	-622
978.423	-1322
978.507	-1295
978.590	-1689
978.673	-660
978.756	-654
978.840	-1293
978.923	-1798
979.006	-1103
979.089	-2405
979.172	-68
979.255	-1383
979.338	-1438
979.422	-886
979.505	-1588
979.588	-1393
979.671	-1248
979.754	-1210
979.836	-835
979.919	-1128
980.002	-757
980.085	-1510
980.168	-1050
980.251	-736
980.334	-1860
980.416	-833
980.499	-678
980.582	-1733
980.665	-776
980.747	-1220
980.830	-1101
980.912	-1066
980.995	-1062
981.078	-1206
981.160	-669
981.243	-1564
981.325	-1397
981.408	-891
981.490	-1604
981.573	-2224
981.655	-1086
981.738	-974
981.820	-479
981.902	-589
981.984	-1472
982.067	-1277
982.149	-1416
982.231	-1913
982.314	-348
982.396	-1597
982.478	-921
982.560	-888
982.642	-1192
982.724	-1444
982.807	-984
982.888	-1293
982.971	-1235
983.053	-2206
983.135	-805
983.216	-1536
983.298	-462
983.380	-1527
983.462	-919
983.544	-302
983.626	-1099
983.708	-1395
983.790	-1826
983.871	-1518
983.953	-741
984.035	-1075
984.117	-1197
984.198	-1691
984.280	-666
984.362	-2166
984.443	-311
984.525	-1165
984.606	-1754
984.688	-783
984.769	-1289
984.851	-1652
984.932	-1300
985.014	-1185
985.095	-1256
985.177	-1180
985.258	-1361
985.339	-1406
985.421	-110
985.502	-1242
985.583	-62
985.664	-687
985.746	-1878
985.827	-1787
985.908	-285
985.989	-580
986.070	-1917
986.151	-1197
986.232	-1200
986.313	-485
986.395	-1308
986.476	-782
986.557	-1524
986.637	-1478
986.718	-581
986.799	-574
986.880	-1214
986.961	-1746
987.042	-930
987.123	-986
987.204	-886
987.284	-1587
987.365	-1342
987.446	-1761
987.526	-930
987.607	-1117
987.688	-1468
987.768	-1196
987.849	-1440
987.930	-840
988.010	-894
988.091	-1036
988.171	-1045
988.252	-1924
988.332	-1049
988.413	-1494
988.493	-1081
988.573	-848
988.654	-1446
988.734	-599
988.814	-2036
988.895	-1010
988.975	-1082
989.055	-953
989.135	-1196
989.216	-1005
989.296	-1529
989.376	-1425
989.456	-815
989.536	-1056
989.616	-1729
989.696	-1626
989.776	-1516
989.856	-1430
989.936	-1717
990.016	-1828
990.096	-1119
990.176	-1277
990.256	-1051
990.336	-1181
990.416	-1598
990.495	-754
990.575	-102
990.655	-1012
990.735	-1835
990.814	-349
990.894	-778
990.974	-1325
991.053	-554
991.133	-1393
991.213	-774
991.292	-2191
991.372	-1354
991.451	-853
991.531	-1148
991.610	-1645
991.690	-1295
991.769	-2010
991.849	-1331
991.928	-1698
992.007	-1145
992.087	-1132
992.166	-405
992.245	-1125
992.324	-587
992.404	-1334
992.483	-763
992.562	-763
992.641	-960
992.720	-1952
992.799	-585
992.879	-1271
992.958	-1599
993.037	-1875
993.116	-1171
993.195	-1347
993.274	-1533
993.353	-815
993.432	-800
993.510	-1390
993.589	-980
993.668	-1517
993.747	-1183
993.826	-1341
993.904	-905
993.983	-1156
994.062	-1169
994.141	-365
994.219	-1920
994.298	-720
994.377	-1372
994.455	-1023
994.534	-1184
994.612	-523
994.691	-1449
994.769	-1210
994.848	-1092
994.926	-1604
995.005	-774
995.083	-1282
995.161	-869
995.240	-1287
995.318	-861
995.397	-477
995.475	-735
995.553	-797
995.631	-624
995.710	-1145
995.788	-1660
995.866	-664
995.944	-600
996.022	-1519
996.100	-1143
996.178	-1227
996.256	-1856
996.334	-1055
996.412	-1344
996.490	-1532
996.568	-1875
996.646	-2001
996.724	-50
996.802	-1338
996.880	-757
996.958	-1133
997.036	-1587
997.113	-1058
997.191	-766
997.269	-1742
997.346	-1201
997.424	-1254
997.502	-659
997.579	-706
997.657	-1387
997.735	-1111
997.812	-1983
997.890	-1969
997.967	-259
998.045	-410
998.122	-1179
998.200	-1376
998.277	-1192
998.354	-829
998.432	-964
998.509	-965
998.586	-2280
998.664	-1305
998.741	-267
998.818	-487
998.896	-1165
998.973	-2387
999.050	-819
999.127	-700
999.204	-779
999.281	-1017
999.358	-429
999.435	-1046
999.512	-1319
999.589	-1448
999.666	-768
999.743	-1773
999.820	-852
999.897	-1323
999.974	-692
1000.051	-1648
1000.128	-988
1000.205	-879
1000.281	-703
1000.358	-1551
1000.435	-662
1000.512	-1013
1000.588	-910
1000.665	-1920
1000.741	-1742
1000.818	-1601
1000.895	-1354
1000.971	-1076
1001.048	-1435
1001.124	-1499
1001.201	-1406
1001.277	-1817
1001.354	-1248
1001.430	-1902
1001.507	-956
1001.583	-1335
1001.659	-1061
1001.736	-1878
1001.812	-715
1001.888	-1197
1001.964	-1055
1002.041	-1453
1002.117	-637
1002.193	-436
1002.269	-65
1002.345	-1342
1002.421	-2539
1002.497	-2027
1002.573	-822
1002.649	-1364
1002.725	-1712
1002.801	-2101
1002.877	-478
1002.953	-654
1003.029	-2245
1003.105	-2034
1003.181	-1527
1003.257	-1691
1003.333	-1323
1003.408	-1866
1003.484	-804
1003.560	-1954
1003.636	-1191
1003.711	-1758
1003.787	-832
1003.862	-915
1003.938	-732
1004.014	-1705
1004.089	-1637
1004.165	-1816
1004.240	-1024
1004.316	-1483
1004.391	-857
1004.467	-859
1004.542	-1822
1004.617	-1340
1004.693	-2028
1004.768	-1412
1004.844	-1797
1004.919	-1862
1004.994	-1767
1005.069	-1797
1005.145	-1055
1005.220	-1515
1005.295	-1685
1005.370	-1490
1005.445	-1756
1005.520	-436
1005.595	-2246
1005.670	-2449
1005.745	-1634
1005.820	-2108
1005.895	-1219
1005.970	-1786
1006.045	-1109
1006.120	-1649
1006.195	-1733
1006.270	-1135
1006.345	-1273
1006.419	-2072
1006.494	-1713
1006.569	-1584
1006.644	-1539
1006.718	-1902
1006.793	-1599
1006.868	-1684
1006.942	-1872
1007.017	-1815
1007.092	-1115
1007.166	-1879
1007.241	-1724
1007.315	-1495
1007.390	-1456
1007.464	-1696
1007.539	-1724
1007.613	-1710
1007.687	-1437
1007.762	-1850
1007.836	-1493
1007.910	-1340
1007.984	-1980
1008.059	-1287
1008.133	-894
1008.207	-2079
1008.281	-1195
1008.356	-2577
1008.430	-1109
1008.504	-2939
1008.578	-1014
1008.652	-1588
1008.726	-1901
1008.800	-1945
1008.874	-1911
1008.948	-1696
1009.022	-1701
1009.096	-1698
1009.170	-2267
1009.244	-1748
1009.317	-899
1009.391	-1616
1009.465	-1277
1009.539	-2329
1009.613	-1090
1009.686	-2196
1009.760	-2412
1009.834	-1869
1009.907	-2212
1009.981	-2455
1010.054	-1194
1010.128	-2462
1010.201	-1277
1010.275	-651
1010.349	-2912
1010.422	-1895
1010.495	-1753
1010.569	-2313
1010.642	-2236
1010.716	-1547
1010.789	-1853
1010.862	-1711
1010.936	-1587
1011.009	-2259
1011.082	-1525
1011.155	-1604
1011.229	-1652
1011.302	-1409
1011.375	177
1011.448	-1355
1011.521	-672
1011.594	-1825
1011.667	-1383
1011.740	-1496
1011.813	-1396
1011.886	-2429
1011.959	-1936
1012.032	-2518
1012.105	-1758
1012.178	-2681
1012.251	-1973
1012.324	-3046
1012.396	-1256
1012.469	-2839
1012.542	-2530
1012.614	-2352
1012.687	-2546
1012.760	-2257
1012.833	-1659
1012.905	-2614
1012.978	-1405
1013.050	-2605
1013.123	-1289
1013.195	-2094
1013.268	-1850
1013.340	-2678
1013.413	-1405
1013.485	-2146
1013.558	-1820
1013.630	-1562
1013.702	-1589
1013.775	-2621
1013.847	-1537
1013.919	-2656
1013.992	-2773
1014.064	-2668
1014.136	-2832
1014.208	-2610
1014.280	-2463
1014.353	-2177
1014.425	-2665
1014.497	-2356
1014.569	-1936
1014.641	-2058
1014.713	-2239
1014.785	-2679
1014.857	-2009
1014.929	-2621
1015.001	-2367
1015.072	-2406
1015.144	-2732
1015.216	-1613
1015.288	-2391
1015.360	-1985
1015.431	-2821
1015.503	-1629
1015.575	-2384
1015.647	-2349
1015.718	-2794
1015.790	-2537
1015.861	-2141
1015.933	-2963
1016.005	-1775
1016.076	-2461
1016.148	-1959
1016.219	-2359
1016.291	-3473
1016.362	-2671
1016.433	-2655
1016.505	-1918
1016.576	-1370
1016.647	-3389
1016.719	-2019
1016.790	-2722
1016.861	-2211
1016.932	-1737
1017.004	-2808
1017.075	-2212
1017.146	-2325
1017.217	-2062
1017.288	-2243
1017.359	-2355
1017.430	-1974
1017.502	-3217
1017.573	-2580
1017.644	-2728
1017.714	-2290
1017.785	-2838
1017.856	-2262
1017.927	-2992
1017.998	-1454
1018.069	-2655
1018.140	-2865
1018.210	-2066
1018.281	-2145
1018.352	-2476
1018.423	-2630
1018.493	-2268
1018.564	-2368
1018.635	-3039
1018.705	-2254
1018.776	-3026
1018.846	-2559
1018.917	-3302
1018.987	-2442
1019.058	-2994
1019.128	-2707
1019.199	-1984
1019.269	-2431
1019.340	-2508
1019.410	-3440
1019.480	-2184
1019.551	-2064
1019.621	-2143
1019.691	-1959
1019.761	-2674
1019.832	-2528
1019.902	-2473
1019.972	-1956
1020.042	-2471
1020.112	-2878
1020.182	-3117
1020.252	-2004
1020.322	-3256
1020.392	-2070
1020.462	-3136
1020.532	-2646
1020.602	-2091
1020.672	-1959
1020.742	-2778
1020.812	-2613
1020.882	-2877
1020.952	-2682
1021.021	-2159
1021.091	-2626
1021.161	-3101
1021.230	-2595
1021.300	-2682
1021.370	-1967
1021.440	-2954
1021.509	-2604
1021.579	-2605
1021.648	-2285
1021.718	-2789
1021.787	-3045
1021.857	-2476
1021.926	-2725
1021.996	-2816
1022.065	-2182
1022.134	-2535
1022.204	-2497
1022.273	-2604
1022.342	-2366
1022.412	-2988
1022.481	-2392
1022.550	-2622
1022.619	-2793
1022.689	-2557
1022.758	-2368
1022.827	-2234
1022.896	-2204
1022.965	-1787
1023.034	-2890
1023.103	-2772
1023.172	-2125
1023.241	-2775
1023.310	-2566
1023.379	-2381
1023.448	-2482
1023.517	-1895
1023.586	-2442
1023.654	-2378
1023.723	-1761
1023.792	-2282
1023.861	-2729
1023.929	-3201
1023.998	-2574
1024.067	-2106
1024.135	-2691
1024.204	-2331
1024.273	-2450
1024.341	-3257
1024.410	-3229
1024.478	-2431
1024.547	-2180
1024.615	-2388
1024.684	-2790
1024.752	-2673
1024.820	-1632
1024.889	-3042
1024.957	-2803
1025.026	-2657
1025.094	-2333
1025.162	-3034
1025.230	-1452
1025.299	-3096
1025.367	-2293
1025.435	-2294
1025.503	-2752
1025.571	-3295
1025.639	-2708
1025.707	-2813
1025.776	-2684
1025.844	-2394
1025.912	-2068
1025.979	-3007
1026.047	-2977
1026.115	-2755
1026.183	-2557
1026.251	-2767
1026.319	-2654
1026.387	-3068
1026.454	-3344
1026.522	-2505
1026.590	-2349
1026.658	-3069
1026.725	-2339
1026.793	-2587
1026.861	-2619
1026.928	-2638
1026.996	-2312
1027.064	-3220
1027.131	-2834
1027.199	-2339
1027.266	-3547
1027.334	-2672
1027.401	-2677
1027.468	-2635
1027.536	-2239
1027.603	-2353
1027.671	-2922
1027.738	-3004
1027.805	-3487
1027.872	-2219
1027.940	-2269
1028.007	-2349
1028.074	-2107
1028.141	-1983
1028.208	-2674
1028.275	-2682
1028.342	-3050
1028.409	-2591
1028.477	-1343
1028.544	-2497
1028.610	-2436
1028.678	-3703
1028.744	-2003
1028.811	-2458
1028.878	-2512
1028.945	-3348
1029.012	-1899
1029.079	-2316
1029.146	-1803
1029.212	-2055
1029.279	-2394
1029.346	-2277
1029.412	-3027
1029.479	-1966
1029.546	-2080
1029.612	-2996
1029.679	-2525
1029.745	-3035
1029.812	-2397
1029.878	-3575
1029.945	-2551
1030.011	-1739
1030.078	-1945
1030.144	-2162
1030.210	-2816
1030.277	-2866
1030.343	-1851
1030.409	-2019
1030.476	-2149
1030.542	-2086
1030.608	-3091
1030.674	-2866
1030.740	-2194
1030.807	-2432
1030.873	-2606
1030.939	-2562
1031.005	-2693
1031.071	-1679
1031.137	-2053
1031.203	-2365
1031.269	-2143
1031.335	-1958
1031.401	-2292
1031.467	-3286
1031.533	-1898
1031.598	-1985
1031.664	-2073
1031.730	-2711
1031.796	-2217
1031.861	-2911
1031.927	-2483
1031.993	-1487
1032.058	-2416
1032.124	-2445
1032.190	-2432
1032.255	-1733
1032.321	-2158
1032.386	-3218
1032.452	-1749
1032.518	-2927
1032.583	-2025
1032.648	-2182
1032.714	-1396
1032.779	-2813
1032.844	-2343
1032.910	-2297
1032.975	-2220
1033.040	-2779
1033.106	-2095
1033.171	-2219
1033.236	-2950
1033.301	-2276
1033.366	-1534
1033.432	-1564
1033.496	-1639
1033.562	-2456
1033.627	-1987
1033.692	-1665
1033.757	-2675
1033.822	-2310
1033.887	-1842
1033.952	-3037
1034.016	-1817
1034.081	-2033
1034.146	-2197
1034.211	-2432
1034.276	-2495
1034.340	-1937
1034.405	-2577
1034.470	-2608
1034.535	-1624
1034.599	-2349
1034.664	-1157
1034.729	-2045
1034.793	-1801
1034.858	-1924
1034.922	-1985
1034.987	-2420
1035.051	-2445
1035.116	-2128
1035.180	-1653
1035.245	-1759
1035.309	-1491
1035.373	-1856
1035.437	-2249
1035.502	-1753
1035.566	-1972
1035.630	-2547
1035.695	-2360
1035.759	-2032
1035.823	-2129
1035.887	-2301
1035.951	-671
1036.015	-2660
1036.079	-1841
1036.143	-3129
1036.208	-1322
1036.271	-2137
1036.336	-2378
1036.399	-2003
1036.463	-2431
1036.527	-2631
1036.591	-2463
1036.655	-2200
1036.719	-1563
1036.783	-2423
1036.846	-1828
1036.910	-2346
1036.974	-2608
1037.037	-2562
1037.101	-1545
1037.165	-2388
1037.228	-2266
1037.292	-2357
1037.355	-1039
1037.419	-1777
1037.483	-2026
1037.546	-2948
1037.609	-2156
1037.673	-2434
1037.736	-2655
1037.800	-2751
1037.863	-1872
1037.926	-2237
1037.990	-2094
1038.053	-1503
1038.116	-2524
1038.179	-1894
1038.243	-2302
1038.306	-2417
1038.369	-1887
1038.432	-2226
1038.495	-1641
1038.558	-2188
1038.621	-2134
1038.684	-1646
1038.747	-1737
1038.810	-1717
1038.873	-2217
1038.936	-1909
1038.999	-2083
1039.062	-1842
1039.125	-1977
1039.188	-1489
1039.250	-1764
1039.313	-2538
1039.376	-2153
1039.438	-1659
1039.501	-1905
1039.564	-1642
1039.627	-2021
1039.689	-1909
1039.752	-2361
1039.814	-1884
1039.877	-1868
1039.939	-2245
1040.002	-2404
1040.064	-1599
1040.127	-2265
1040.189	-2073
1040.251	-1533
1040.314	-2266
1040.376	-2632
1040.438	-2039
1040.501	-2396
1040.563	-2402
1040.625	-1838
1040.687	-2969
1040.750	-1354
1040.812	-2221
1040.874	-2373
1040.936	-2521
1040.998	-2260
1041.060	-2040
1041.122	-2427
1041.184	-2337
1041.246	-2335
1041.308	-1484
1041.370	-1682
1041.432	-1939
1041.494	-1956
1041.555	-2513
1041.617	-1268
1041.679	-1985
1041.741	-2363
1041.802	-1980
1041.864	-1322
1041.926	-1198
1041.987	-2411
1042.049	-2319
1042.111	-3266
1042.172	-2431
1042.234	-2462
1042.295	-2957
1042.357	-2425
1042.418	-2949
1042.480	-1548
1042.541	-2357
1042.603	-1517
1042.664	-1885
1042.725	-1979
1042.786	-1374
1042.848	-838
1042.909	-2403
1042.970	-1893
1043.031	-2005
1043.093	-1702
1043.154	-2504
1043.215	-1983
1043.276	-2091
1043.337	-2121
1043.398	-1935
1043.459	-1724
1043.520	-3140
1043.581	-1381
1043.642	-1599
1043.703	-1976
1043.764	-2499
1043.825	-1987
1043.886	-3220
1043.947	-1864
1044.007	-1487
1044.068	-2540
1044.129	-2585
1044.189	-2243
1044.250	-2506
1044.311	-2321
1044.371	-1725
1044.432	-2175
1044.493	-2359
1044.553	-1874
1044.614	-2951
1044.674	-1421
1044.735	-2252
1044.795	-1635
1044.856	-2271
1044.916	-1510
1044.976	-2587
1045.037	-2740
1045.097	-2504
1045.157	-1916
1045.218	-1806
1045.278	-2493
1045.338	-2322
1045.398	-1840
1045.458	-2351
1045.519	-1900
1045.579	-2016
1045.639	-1830
1045.699	-2196
1045.759	-2167
1045.819	-2040
1045.879	-1877
1045.939	-2884
1045.999	-1232
1046.059	-1938
1046.119	-1042
1046.179	-2286
1046.238	-1980
1046.298	-2132
1046.358	-1029
1046.418	-1940
1046.477	-2381
1046.537	-1634
1046.597	-2219
1046.656	-1734
1046.716	-1970
1046.776	-2268
1046.835	-1674
1046.895	-1858
1046.954	-1879
1047.014	-1340
1047.073	-1019
1047.133	0
