'Start Wavelength	183.833
'End Wavelength	1047.133
'Gate Delay	5.000
'Gate Width (ms)	1.050
'Laser Output Level	0.000
'X Position	0.000
'Y Position	0.000
'Z Position	0.000
'Grid Point Number	1.000
'Shot Number	100.000
183.833	695.000
183.903	250.000
183.973	-112
184.042	698
184.112	154
184.182	275
184.252	239
184.321	-377
184.391	193
184.461	331
184.531	519
184.600	259
184.670	306
184.740	39
184.809	162
184.879	-40
184.949	815
185.018	-312
185.088	379
185.158	449
185.228	981
185.297	-15
185.367	11
185.436	-121
185.506	-376
185.576	126
185.645	-100
185.715	100
185.785	205
185.854	-64
185.924	446
185.993	-435
186.063	-52
186.133	39
186.202	-433
186.272	-305
186.341	159
186.411	-77
186.481	842
186.550	401
186.620	-5
186.689	-293
186.759	-75
186.828	199
186.898	26
186.967	-73
187.037	1041
187.106	420
187.176	401
187.246	549
187.315	93
187.385	201
187.454	814
187.524	-123
187.593	920
187.662	176
187.732	726
187.801	632
187.871	1176
187.940	337
188.010	-479
188.079	647
188.149	1404
188.218	-224
188.288	572
188.357	-157
188.426	225
188.496	793
188.565	-240
188.635	-537
188.704	210
188.773	411
188.843	781
188.912	207
188.981	245
189.051	173
189.120	-3
189.190	283
189.259	41
189.328	137
189.398	422
189.467	312
189.536	251
189.606	42
189.675	433
189.744	864
189.813	237
189.883	460
189.952	991
190.021	2578
190.091	3589
190.160	455
190.229	765
190.298	578
190.368	458
190.437	928
190.506	396
190.575	373
190.645	-12
190.714	469
190.783	524
190.852	475
190.922	941
190.991	194
191.060	530
191.129	195
191.198	233
191.268	118
191.337	905
191.406	-30
191.475	59
191.544	692
191.613	329
191.683	1061
191.752	637
191.821	364
191.890	529
191.959	110
192.028	602
192.097	120
192.166	152
192.236	152
192.305	767
192.374	424
192.443	422
192.512	-391
192.581	393
192.650	105
192.719	1099
192.788	335
192.857	624
192.926	320
192.995	827
193.064	654
193.133	1249
193.202	595
193.271	615
193.340	1494
193.409	1534
193.478	1326
193.547	2600
193.616	2202
193.685	1840
193.754	603
193.823	631
193.892	725
193.961	900
194.030	559
194.099	389
194.168	428
194.237	508
194.306	-305
194.375	423
194.444	92
194.513	886
194.582	1391
194.651	627
194.720	795
194.788	521
194.857	532
194.926	1173
194.995	796
195.064	1358
195.133	1533
195.202	2202
195.270	1338
195.339	871
195.408	694
195.477	1263
195.546	771
195.615	872
195.683	1399
195.752	1725
195.821	775
195.890	2309
195.959	2033
196.027	1915
196.096	1211
196.165	1623
196.234	864
196.303	1634
196.371	916
196.440	1486
196.509	400
196.578	258
196.646	-17
196.715	1176
196.784	167
196.853	158
196.921	787
196.990	493
197.059	561
197.127	1034
197.196	401
197.265	398
197.333	574
197.402	-62
197.471	39
197.539	682
197.608	1563
197.677	3776
197.745	1566
197.814	3489
197.883	1958
197.951	3126
198.020	2155
198.088	1216
198.157	1658
198.226	4224
198.294	334
198.363	1375
198.431	732
198.500	2810
198.569	2520
198.637	883
198.706	875
198.774	4905
198.843	3239
198.911	1143
198.980	834
199.048	766
199.117	690
199.185	379
199.254	711
199.322	506
199.391	-33
199.459	666
199.528	439
199.596	1658
199.665	115
199.733	385
199.802	875
199.870	901
199.939	553
200.007	916
200.076	340
200.144	587
200.213	758
200.281	233
200.349	1229
200.418	882
200.486	624
200.555	285
200.623	732
200.691	723
200.760	312
200.828	840
200.897	-181
200.965	737
201.033	-12
201.102	1455
201.170	730
201.238	666
201.307	1000
201.375	1090
201.443	1779
201.512	1041
201.580	324
201.648	1386
201.716	723
201.785	2367
201.853	1191
201.921	180
201.990	616
202.058	1024
202.126	869
202.194	1503
202.263	696
202.331	910
202.399	957
202.467	1831
202.536	8515
202.604	3950
202.672	992
202.740	398
202.808	516
202.877	1400
202.945	824
203.013	985
203.081	371
203.149	991
203.218	1113
203.286	1055
203.354	510
203.422	1257
203.490	574
203.558	1065
203.626	1090
203.695	1333
203.763	249
203.831	425
203.899	327
203.967	607
204.035	618
204.103	727
204.171	716
204.239	1239
204.307	-51
204.375	1148
204.443	1029
204.512	853
204.580	218
204.648	1213
204.716	403
204.784	788
204.852	714
204.920	764
204.988	224
205.056	1067
205.124	648
205.192	569
205.260	305
205.328	929
205.396	555
205.464	702
205.532	714
205.600	452
205.667	440
205.735	4599
205.803	5609
205.871	1536
205.939	737
206.007	1718
206.075	1053
206.143	1160
206.211	1403
206.279	1106
206.347	412
206.414	1193
206.482	931
206.550	1063
206.618	1129
206.686	1087
206.754	1283
206.822	575
206.889	-259
206.957	1039
207.025	64
207.093	993
207.161	919
207.229	973
207.296	1076
207.364	932
207.432	783
207.500	649
207.567	774
207.635	647
207.703	1282
207.771	741
207.839	959
207.906	1292
207.974	1112
208.042	1337
208.109	1161
208.177	1804
208.245	1527
208.313	2298
208.380	4027
208.448	1790
208.516	934
208.583	1578
208.651	1479
208.719	1463
208.786	706
208.854	1083
208.922	1675
208.989	1705
209.057	1209
209.125	732
209.192	1218
209.260	1943
209.327	3303
209.395	1176
209.463	284
209.530	1432
209.598	756
209.665	1484
209.733	967
209.801	1199
209.868	884
209.936	2145
210.003	1569
210.071	1399
210.138	1576
210.206	2843
210.273	2757
210.341	1490
210.408	1503
210.476	1165
210.543	1625
210.611	2611
210.678	1356
210.746	674
210.813	2126
210.881	2252
210.948	1012
211.016	2133
211.083	1209
211.151	1936
211.218	2742
211.285	2057
211.353	1101
211.420	1584
211.488	1733
211.555	2059
211.622	2072
211.690	1622
211.757	1591
211.825	1122
211.892	1401
211.959	1476
212.027	1430
212.094	1410
212.161	1328
212.229	3937
212.296	7884
212.363	21440
212.431	7037
212.498	2657
212.565	1512
212.633	2028
212.700	1844
212.767	2134
212.835	1848
212.902	1776
212.969	1233
213.036	1736
213.104	1869
213.171	2959
213.238	1295
213.305	1912
213.373	1034
213.440	1581
213.507	1659
213.574	2247
213.641	805
213.709	1839
213.776	3463
213.843	4094
213.910	2741
213.977	2357
214.045	1101
214.112	1917
214.179	1580
214.246	2360
214.313	1065
214.380	2058
214.447	2590
214.515	1932
214.582	1706
214.649	2322
214.716	1540
214.783	1915
214.850	2756
214.917	2778
214.984	3002
215.051	3695
215.118	3401
215.185	2572
215.253	2359
215.320	1645
215.387	1603
215.454	1026
215.521	1648
215.588	1948
215.655	1482
215.722	3265
215.789	3011
215.856	3338
215.923	3111
215.990	2739
216.057	2041
216.124	2592
216.191	2179
216.258	2113
216.325	1793
216.391	3898
216.458	2460
216.525	3115
216.592	7222
216.659	7168
216.726	2939
216.793	3960
216.860	2784
216.927	2731
216.994	2350
217.061	3985
217.127	2927
217.194	3849
217.261	6036
217.328	5818
217.395	3769
217.462	3172
217.529	1832
217.595	1791
217.662	2617
217.729	6352
217.796	4256
217.863	2707
217.929	1596
217.996	1240
218.063	1379
218.130	598
218.196	743
218.263	1704
218.330	1829
218.397	1984
218.463	1245
218.530	2549
218.597	6297
218.664	6257
218.730	2036
218.797	1779
218.864	1285
218.930	1528
218.997	1513
219.064	2862
219.131	4486
219.197	2474
219.264	1416
219.331	1614
219.397	747
219.464	1308
219.530	4135
219.597	2284
219.664	720
219.730	1765
219.797	618
219.864	841
219.930	3622
219.997	8516
220.063	3576
220.130	2086
220.196	1724
220.263	3732
220.330	4989
220.396	9888
220.463	4803
220.529	3071
220.596	3143
220.662	3165
220.729	11295
220.795	7850
220.862	9854
220.928	17452
220.995	15612
221.061	14577
221.128	11061
221.194	3766
221.261	2905
221.327	2693
221.394	1712
221.460	1684
221.526	3226
221.593	14082
221.659	7753
221.726	8860
221.792	7146
221.859	3736
221.925	1960
221.991	2350
222.058	1796
222.124	2860
222.190	2303
222.257	1269
222.323	790
222.390	1187
222.456	2009
222.522	923
222.589	1008
222.655	992
222.721	905
222.788	1472
222.854	563
222.920	1029
222.986	1500
223.053	1550
223.119	954
223.185	774
223.251	893
223.318	1363
223.384	753
223.450	1112
223.516	797
223.583	1862
223.649	1062
223.715	925
223.781	1181
223.848	324
223.914	449
223.980	1491
224.046	826
224.112	1111
224.178	929
224.245	562
224.311	1008
224.377	1098
224.443	449
224.509	1961
224.575	716
224.641	1624
224.708	528
224.774	805
224.840	1866
224.906	1533
224.972	1153
225.038	1799
225.104	1561
225.170	1090
225.236	488
225.302	1180
225.368	841
225.434	944
225.500	1789
225.566	1630
225.632	1243
225.699	2820
225.765	2270
225.831	2527
225.897	5830
225.963	3627
226.028	3197
226.094	3707
226.160	4962
226.226	13449
226.292	24683
226.358	10865
226.424	5039
226.490	3939
226.556	2967
226.622	5389
226.688	7892
226.754	11973
226.820	36254
226.886	28808
226.951	8700
227.017	5227
227.083	4840
227.149	4749
227.215	3665
227.281	3084
227.347	2733
227.412	2681
227.478	5285
227.544	7385
227.610	3978
227.676	2412
227.742	2105
227.807	2051
227.873	2207
227.939	5044
228.005	2381
228.070	1740
228.136	1880
228.202	1678
228.268	2186
228.333	5480
228.399	3112
228.465	1499
228.531	1557
228.596	3007
228.662	6033
228.728	3118
228.793	1995
228.859	2034
228.925	2528
228.990	3128
229.056	3328
229.122	2177
229.187	3213
229.253	1707
229.319	2380
229.384	3997
229.450	1141
229.516	167
229.581	2089
229.647	3397
229.712	10441
229.778	10290
229.844	5957
229.909	5841
229.975	4816
230.040	2887
230.106	3659
230.171	3953
230.237	7085
230.302	6639
230.368	2895
230.433	2851
230.499	2157
230.564	2139
230.630	1746
230.695	1669
230.761	1658
230.826	5828
230.892	2545
230.957	1127
231.023	1159
231.088	1486
231.154	1971
231.219	5895
231.285	4873
231.350	2094
231.415	1901
231.481	1110
231.546	2161
231.612	1451
231.677	1147
231.742	1774
231.808	1049
231.873	1370
231.938	5869
232.004	6542
232.069	2168
232.135	2312
232.200	1264
232.265	2330
232.330	973
232.396	1809
232.461	1264
232.526	1903
232.592	1897
232.657	6624
232.722	4458
232.788	2265
232.853	1811
232.918	2039
232.983	2108
233.048	6258
233.114	4496
233.179	8359
233.244	10083
233.309	2573
233.375	2636
233.440	1739
233.505	1641
233.570	1935
233.635	2357
233.700	6990
233.766	8456
233.831	3925
233.896	4121
233.961	4804
234.026	4187
234.091	3624
234.156	2718
234.222	6050
234.287	20126
234.352	18789
234.417	9572
234.482	5949
234.547	4764
234.612	3735
234.677	6508
234.742	22731
234.807	12034
234.872	5282
234.937	4373
235.002	4377
235.067	3629
235.132	3413
235.197	2928
235.262	2986
235.327	3426
235.392	5392
235.457	5191
235.522	3575
235.587	3083
235.652	2461
235.717	3445
235.782	5137
235.847	11549
235.912	14271
235.977	14082
236.042	4699
236.107	5712
236.172	5785
236.236	3544
236.301	4368
236.366	7637
236.431	13447
236.496	5436
236.561	12008
236.626	50562
236.691	31413
236.755	13472
236.820	12132
236.885	8146
236.950	6451
237.015	7202
237.079	9158
237.144	15487
237.209	50040
237.274	84411
237.339	34506
237.403	14790
237.468	12182
237.533	7650
237.598	5595
237.662	4940
237.727	7042
237.792	11043
237.856	11015
237.921	6273
237.986	10189
238.050	10670
238.115	28313
238.180	22217
238.245	13340
238.309	9014
238.374	7459
238.438	6141
238.503	3434
238.568	3115
238.632	3934
238.697	3790
238.762	13177
238.826	14973
238.891	7217
238.955	7157
239.020	4261
239.085	5111
239.149	3728
239.214	3435
239.278	3171
239.343	2916
239.407	6126
239.472	27714
239.536	18008
239.601	5471
239.665	3688
239.730	5030
239.794	10540
239.859	19942
239.923	7782
239.988	4599
240.052	3423
240.117	3839
240.181	4432
240.246	3598
240.310	5429
240.374	17581
240.439	24230
240.503	7105
240.568	13689
240.632	14617
240.696	6142
240.761	3519
240.825	3315
240.890	3888
240.954	16048
241.018	27676
241.083	12422
241.147	4339
241.211	8451
241.276	15271
241.340	6206
241.404	4778
241.469	4059
241.533	4066
241.597	3479
241.661	3534
241.726	3620
241.790	3502
241.854	3856
241.919	2859
241.983	2782
242.047	3308
242.111	3727
242.175	2621
242.240	3772
242.304	4131
242.368	5303
242.432	3520
242.496	3236
242.561	2268
242.625	4049
242.689	2924
242.753	3589
242.817	3798
242.881	4270
242.946	5075
243.010	5155
243.074	5174
243.138	4628
243.202	3768
243.266	4696
243.330	5832
243.394	25902
243.458	64829
243.522	19718
243.586	9708
243.651	5052
243.715	6633
243.779	9756
243.843	11409
243.907	19195
243.971	11960
244.035	7013
244.099	3465
244.163	9875
244.227	12044
244.291	11466
244.355	7705
244.419	5471
244.483	5241
244.546	4195
244.610	4794
244.674	7092
244.738	7359
244.802	4322
244.866	4076
244.930	3400
244.994	3907
245.058	5839
245.122	7574
245.186	8090
245.249	8204
245.313	7198
245.377	4963
245.441	4582
245.505	5573
245.569	5177
245.632	6652
245.696	17491
245.760	8893
245.824	6873
245.888	4158
245.951	5708
246.015	5322
246.079	8505
246.143	23939
246.207	33970
246.270	13307
246.334	9223
246.398	10286
246.461	17643
246.525	9139
246.589	8571
246.653	8214
246.716	10526
246.780	10734
246.844	15302
246.907	7006
246.971	7454
247.035	6951
247.098	7394
247.162	22961
247.226	48085
247.289	20490
247.353	10117
247.416	19034
247.480	11185
247.544	9138
247.607	12256
247.671	7161
247.734	7350
247.798	8237
247.861	21804
247.925	40963
247.989	14927
248.052	7780
248.116	9809
248.179	15704
248.243	77770
248.306	68831
248.370	43186
248.433	15880
248.497	13366
248.560	20156
248.624	25748
248.687	32929
248.751	76058
248.814	36556
248.877	41065
248.941	55264
249.004	89866
249.068	68255
249.131	26160
249.194	16624
249.258	22505
249.321	15352
249.385	11642
249.448	9299
249.511	12638
249.575	23780
249.638	18494
249.701	18869
249.765	12948
249.828	12333
249.891	10129
249.955	8897
250.018	30720
250.081	36098
250.145	16982
250.208	12123
250.271	13556
250.334	10645
250.398	9964
250.461	12875
250.524	18196
250.587	72361
250.651	100570
250.714	36197
250.777	20570
250.840	12923
250.903	12752
250.967	20369
251.030	42575
251.093	21114
251.156	20958
251.219	17620
251.282	22790
251.345	97046
251.409	78469
251.472	52986
251.535	176255
251.598	106242
251.661	41094
251.724	54776
251.787	51035
251.850	109326
251.913	54465
251.976	20784
252.039	18275
252.103	18682
252.166	39287
252.229	84506
252.292	80837
252.355	148716
252.418	58930
252.481	31735
252.544	23101
252.607	24174
252.670	63444
252.733	69757
252.796	141949
252.858	91579
252.921	52735
252.984	29818
253.047	22816
253.110	17658
253.173	25301
253.236	19767
253.299	24235
253.362	21652
253.425	21857
253.488	44770
253.550	28297
253.613	36226
253.676	34365
253.739	16418
253.802	23400
253.865	19951
253.928	15157
253.990	30941
254.053	44861
254.116	36771
254.179	29123
254.242	15580
254.304	31666
254.367	31540
254.430	27313
254.493	31278
254.555	51497
254.618	29154
254.681	17655
254.743	14678
254.806	15254
254.869	34508
254.932	32289
254.994	14720
255.057	15045
255.120	8078
255.182	8444
255.245	10177
255.308	6913
255.370	5306
255.433	6246
255.496	5673
255.558	6566
255.621	6350
255.683	5519
255.746	5720
255.809	5205
255.871	4931
255.934	5763
255.996	5148
256.059	6135
256.121	9528
256.184	27222
256.246	18854
256.309	15955
256.371	7913
256.434	5603
256.496	5168
256.559	5624
256.621	11705
256.684	27569
256.746	67089
256.809	23393
256.871	11283
256.934	11040
256.996	12061
257.059	8570
257.121	6633
257.183	6293
257.246	5717
257.308	6341
257.371	17698
257.433	91194
257.495	82432
257.558	51868
257.620	28054
257.683	13703
257.745	14146
257.807	7799
257.870	7050
257.932	6141
257.994	6697
258.056	6103
258.119	9182
258.181	21710
258.243	10457
258.306	7365
258.368	27613
258.430	22551
258.492	32700
258.555	36402
258.617	9416
258.679	9476
258.741	18308
258.803	8713
258.866	6010
258.928	6006
258.990	5591
259.052	9565
259.114	12881
259.177	8461
259.239	10580
259.301	32459
259.363	17339
259.425	8039
259.487	6922
259.549	6873
259.611	5919
259.674	7721
259.736	30412
259.798	50444
259.860	77332
259.922	56477
259.984	15608
260.046	8826
260.108	7301
260.170	6719
260.232	5249
260.294	6566
260.356	6849
260.418	10637
260.480	25552
260.542	23192
260.604	47726
260.666	55812
260.728	14091
260.790	11777
260.852	9224
260.914	8752
260.976	7899
261.038	15963
261.100	50768
261.161	39079
261.223	12744
261.285	28013
261.347	35053
261.409	10698
261.471	8047
261.533	5709
261.595	5994
261.656	18149
261.718	41233
261.780	16744
261.842	10355
261.904	8301
261.966	9516
262.027	8682
262.089	17858
262.151	13113
262.213	7205
262.274	22889
262.336	16039
262.398	8035
262.460	19515
262.521	38496
262.583	11308
262.645	7749
262.706	13057
262.768	38556
262.830	14355
262.892	9726
262.953	11237
263.015	61754
263.077	125999
263.138	37788
263.200	21145
263.261	11566
263.323	7657
263.385	6433
263.446	7138
263.508	20945
263.569	12014
263.631	5779
263.693	3933
263.754	4894
263.816	2867
263.877	3533
263.939	1902
264.000	5730
264.062	11950
264.123	8074
264.185	3567
264.246	3481
264.308	13256
264.369	22339
264.431	6564
264.492	4705
264.554	7564
264.615	14859
264.677	7030
264.738	5000
264.800	3747
264.861	4082
264.922	2974
264.984	2857
265.045	3203
265.107	5754
265.168	34227
265.229	25296
265.291	6253
265.352	4961
265.413	3440
265.475	2456
265.536	4936
265.597	4731
265.659	3181
265.720	3100
265.781	3204
265.843	2941
265.904	8790
265.965	60435
266.026	36142
266.088	11684
266.149	10891
266.210	6264
266.271	4101
266.333	5418
266.394	6336
266.455	3780
266.516	2989
266.577	12115
266.639	19890
266.700	6032
266.761	3677
266.822	3937
266.883	6206
266.944	3617
267.005	3986
267.067	3546
267.128	4016
267.189	3280
267.250	5395
267.311	4465
267.372	2708
267.433	4266
267.494	2701
267.555	3156
267.616	1804
267.677	2939
267.738	2543
267.799	12831
267.860	26890
267.921	9307
267.982	7833
268.043	4635
268.104	6131
268.165	2675
268.226	3481
268.287	3854
268.348	4526
268.409	5900
268.470	2186
268.531	2472
268.592	1964
268.653	2071
268.714	3955
268.775	4753
268.836	16823
268.896	20306
268.957	8361
269.018	3072
269.079	3398
269.140	3669
269.201	4196
269.262	3226
269.322	3595
269.383	5337
269.444	7221
269.505	11418
269.565	13693
269.626	7855
269.687	5714
269.748	5195
269.809	8277
269.869	12230
269.930	4377
269.991	3121
270.051	2770
270.112	3861
270.173	3025
270.234	3563
270.294	3511
270.355	5659
270.416	2883
270.476	5306
270.537	13631
270.598	27928
270.658	10503
270.719	6385
270.779	9696
270.840	7805
270.901	5165
270.961	7214
271.022	6897
271.082	13380
271.143	11979
271.203	6206
271.264	5277
271.325	7980
271.385	26893
271.446	12316
271.506	6299
271.567	7511
271.627	5215
271.688	8084
271.748	19389
271.809	74143
271.869	93781
271.930	26967
271.990	43864
272.050	76300
272.111	19507
272.171	11620
272.232	14983
272.292	59966
272.352	27901
272.413	23081
272.473	19816
272.534	20553
272.594	15820
272.654	18743
272.715	33782
272.775	15903
272.835	13088
272.896	7546
272.956	7626
273.016	16825
273.077	12581
273.137	8330
273.197	10524
273.257	40506
273.318	77314
273.378	29419
273.438	30769
273.498	67096
273.559	26050
273.619	45397
273.679	86584
273.739	30262
273.799	17707
273.860	47590
273.920	76504
273.980	20455
274.040	14984
274.100	20039
274.160	99308
274.221	81966
274.281	66996
274.341	70995
274.401	44832
274.461	18656
274.521	18778
274.581	73579
274.641	92437
274.701	33231
274.761	16452
274.821	42504
274.882	131464
274.942	99616
275.002	53853
275.062	22610
275.122	12871
275.182	11420
275.242	15547
275.302	25116
275.362	24033
275.421	16491
275.481	54660
275.541	112776
275.601	60402
275.661	32521
275.721	21587
275.781	11444
275.841	8436
275.901	11819
275.961	10174
276.021	7701
276.081	19570
276.140	53399
276.200	21972
276.260	16992
276.320	10120
276.380	12856
276.440	8024
276.499	7289
276.559	7360
276.619	13365
276.679	35670
276.738	25700
276.798	11527
276.858	15413
276.918	11906
276.978	7691
277.037	8056
277.097	15232
277.157	46096
277.216	18598
277.276	11095
277.336	8975
277.395	9958
277.455	10177
277.515	11796
277.574	49146
277.634	83686
277.694	27114
277.753	102565
277.813	70725
277.873	60843
277.932	169783
277.992	54768
278.051	64872
278.111	82333
278.171	35249
278.230	99427
278.290	55178
278.349	20868
278.409	14316
278.468	11664
278.528	10924
278.587	10010
278.647	12893
278.706	36409
278.766	89846
278.825	25634
278.885	18086
278.944	18564
279.004	38488
279.063	37022
279.122	21211
279.182	18278
279.241	20042
279.301	25698
279.360	48451
279.419	180143
279.479	507697
279.538	407166
279.598	117695
279.657	66416
279.716	105081
279.776	155583
279.835	54250
279.894	31845
279.953	28005
280.013	51210
280.072	82566
280.131	74792
280.191	345403
280.250	353099
280.309	94362
280.368	62187
280.428	50045
280.487	28137
280.546	23330
280.605	33732
280.664	43981
280.724	17198
280.783	13453
280.842	11134
280.901	10858
280.960	11060
281.019	9485
281.079	9499
281.138	9710
281.197	12659
281.256	61870
281.315	42621
281.374	12177
281.433	9878
281.492	10185
281.551	8286
281.611	8310
281.670	9325
281.729	8306
281.788	7328
281.847	7201
281.906	7118
281.965	4622
282.024	5247
282.083	6203
282.142	5394
282.201	7498
282.260	30380
282.319	18333
282.378	8230
282.436	11600
282.495	44685
282.554	23123
282.613	8432
282.672	8146
282.731	10203
282.790	10054
282.849	10488
282.908	5454
282.967	4201
283.025	6976
283.084	9081
283.143	25082
283.202	52159
283.261	15830
283.319	9965
283.378	8899
283.437	9455
283.496	15977
283.555	12826
283.613	8389
283.672	8051
283.731	20358
283.790	21857
283.848	8439
283.907	9711
283.966	13999
284.024	14607
284.083	10118
284.142	11951
284.201	10755
284.259	18696
284.318	64906
284.376	50020
284.435	17879
284.494	24026
284.552	20027
284.611	19446
284.670	20656
284.728	24140
284.787	33372
284.845	36686
284.904	39048
284.962	53655
285.021	102140
285.079	283963
285.138	702228
285.197	668638
285.255	288012
285.314	142393
285.372	86005
285.431	59779
285.489	46034
285.547	35097
285.606	26945
285.664	21744
285.723	18479
285.781	17889
285.840	15411
285.898	11652
285.957	9234
286.015	9416
286.073	7742
286.132	8633
286.190	10814
286.248	12180
286.307	17850
286.365	13078
286.423	8115
286.482	6433
286.540	6709
286.598	10592
286.657	9493
286.715	8376
286.773	10329
286.832	15367
286.890	22698
286.948	9111
287.006	7388
287.064	6405
287.123	7251
287.181	12568
287.239	9063
287.297	11542
287.356	25460
287.414	15738
287.472	10034
287.530	6725
287.588	6939
287.646	11533
287.704	14475
287.763	8242
287.821	8935
287.879	9386
287.937	14358
287.995	35536
288.053	179321
288.111	513457
288.169	199732
288.227	59275
288.285	34435
288.343	27280
288.401	19978
288.459	14369
288.517	11486
288.575	9086
288.633	8366
288.691	7352
288.749	6774
288.807	5672
288.865	6013
288.923	5056
288.981	5050
289.039	4788
289.097	6088
289.155	6480
289.213	6880
289.271	6356
289.329	7141
289.386	14346
289.444	14438
289.502	6655
289.560	3452
289.618	2635
289.676	4519
289.734	3919
289.791	4862
289.849	6239
289.907	8555
289.965	4085
290.022	3258
290.080	6669
290.138	7809
290.196	4543
290.253	3574
290.311	2088
290.369	4318
290.427	2123
290.484	3650
290.542	3595
290.600	4685
290.657	4049
290.715	6578
290.773	3889
290.830	7108
290.888	6158
290.946	4914
291.003	4580
291.061	5681
291.118	22063
291.176	42564
291.234	12598
291.291	5413
291.349	4853
291.406	6278
291.464	6464
291.521	6583
291.579	4030
291.636	3253
291.694	6692
291.751	16072
291.809	9992
291.866	5732
291.924	4730
291.981	7763
292.039	6589
292.096	4661
292.154	4905
292.211	8141
292.268	16191
292.326	21015
292.383	12922
292.441	8622
292.498	10038
292.555	10070
292.613	13886
292.670	8706
292.727	8948
292.785	27570
292.842	64101
292.899	34241
292.957	11902
293.014	7650
293.071	6812
293.129	5900
293.186	5457
293.243	12305
293.300	10278
293.358	5875
293.415	5205
293.472	5354
293.529	12791
293.586	56088
293.644	119844
293.701	51737
293.758	23940
293.815	19220
293.872	24119
293.929	16896
293.987	12929
294.044	26952
294.101	44176
294.158	37303
294.215	16401
294.272	10011
294.329	9484
294.386	13402
294.443	10618
294.500	7621
294.558	5811
294.615	9328
294.672	31915
294.729	117012
294.786	85515
294.843	40027
294.900	29981
294.957	21874
295.014	16073
295.070	10492
295.127	8153
295.184	7670
295.241	12806
295.298	51477
295.355	93799
295.412	35512
295.469	16074
295.526	25753
295.583	36356
295.640	44317
295.696	73700
295.753	28147
295.810	12474
295.867	12212
295.924	21481
295.981	20305
296.037	9336
296.094	7060
296.151	4534
296.208	4983
296.265	4427
296.321	5651
296.378	9002
296.435	37191
296.492	60317
296.548	36282
296.605	98076
296.662	130942
296.718	45204
296.775	21426
296.832	22655
296.888	51521
296.945	95480
297.002	65993
297.058	24390
297.115	16550
297.172	25867
297.228	111699
297.285	183167
297.341	64281
297.398	22762
297.454	14823
297.511	11962
297.568	13021
297.624	9746
297.681	7826
297.737	6561
297.794	5282
297.850	5756
297.907	6791
297.963	7483
298.020	16454
298.076	54886
298.133	48479
298.189	22023
298.245	42630
298.302	121298
298.358	71036
298.415	41863
298.471	32871
298.527	22442
298.584	18352
298.640	29926
298.697	63720
298.753	41210
298.809	15745
298.866	10236
298.922	8762
298.978	12275
299.035	10450
299.091	8475
299.147	8670
299.203	7196
299.260	9792
299.316	26318
299.372	110072
299.428	99994
299.485	34948
299.541	16274
299.597	13429
299.653	12188
299.710	11523
299.766	10381
299.822	21899
299.878	78924
299.934	84668
299.990	79377
300.046	134589
300.103	66225
300.159	30806
300.215	36545
300.271	36290
300.327	19014
300.383	12601
300.439	10183
300.495	9589
300.551	10541
300.607	24278
300.663	56885
300.719	77626
300.775	101713
300.831	59243
300.887	73335
300.943	55807
300.999	23293
301.055	17449
301.111	17988
301.167	13241
301.223	8995
301.279	7259
301.335	6246
301.391	7257
301.447	8413
301.503	11211
301.559	21365
301.614	20546
301.670	33522
301.726	49635
301.782	33689
301.838	54631
301.894	55087
301.949	117827
302.005	322572
302.061	300378
302.117	130720
302.173	50184
302.228	30055
302.284	30492
302.340	57236
302.396	48176
302.451	43763
302.507	110667
302.563	118358
302.618	64294
302.674	25979
302.730	14953
302.785	10855
302.841	11467
302.897	16152
302.952	29512
303.008	26528
303.064	36617
303.119	40183
303.175	19680
303.230	10068
303.286	8907
303.341	8546
303.397	7770
303.453	6878
303.508	8148
303.564	10781
303.619	32183
303.675	100944
303.730	81209
303.786	32223
303.841	14619
303.897	12011
303.952	20243
304.008	28326
304.063	27406
304.118	49032
304.174	47927
304.229	36478
304.285	19739
304.340	11548
304.372	11273
304.395	11117
304.451	11474
304.463	11246
304.506	10619
304.554	10400
304.562	10406
304.617	22393
304.644	48632
304.672	76106
304.728	111952
304.735	104337
304.783	55202
304.825	29570
304.838	21920
304.894	13778
304.916	12788
304.949	11673
305.004	10639
305.006	10523
305.059	8662
305.097	6935
305.115	6183
305.170	5752
305.188	6120
305.225	6945
305.278	9132
305.280	9259
305.336	8565
305.369	9409
305.391	9970
305.446	12648
305.459	12831
305.501	13682
305.550	13789
305.556	13846
305.612	27967
305.640	55465
305.667	81979
305.722	95574
305.731	90195
305.777	60568
305.821	80917
305.832	86776
305.887	88435
305.912	69524
305.942	44065
305.997	21583
306.002	20766
306.053	14345
306.092	10443
306.108	9079
306.163	8532
306.183	7859
306.218	6858
306.273	6420
306.273	6402
306.328	6323
306.364	6815
306.383	7106
306.438	6738
306.454	7497
306.493	9395
306.545	21784
306.548	22710
306.603	41001
306.635	57433
306.658	69637
306.713	59641
306.725	53583
306.768	29621
306.816	15861
306.823	14177
306.878	9073
306.906	7747
306.933	6907
306.988	6192
306.997	6213
307.043	6441
307.087	8017
307.098	8454
307.152	13545
307.177	15671
307.207	18196
307.262	20661
307.268	20065
307.317	14790
307.358	12823
307.372	12274
307.427	21406
307.448	31036
307.482	47796
307.536	55673
307.538	54792
307.591	29812
307.629	20012
307.646	15515
307.701	11655
307.719	13163
307.756	17893
307.809	31039
307.810	31328
307.865	23908
307.900	18758
307.920	15705
307.975	13013
307.990	14642
308.029	20102
308.080	49146
308.084	52676
308.139	159738
308.170	180793
308.194	188474
308.248	116262
308.261	109002
308.303	72787
308.351	45186
308.358	42780
308.412	24411
308.441	19225
308.467	15613
308.522	11540
308.531	11148
308.576	10227
308.621	9999
308.631	10094
308.686	16674
308.712	23546
308.740	31594
308.795	28707
308.802	27743
308.849	18458
308.892	14120
308.904	13383
308.959	14520
308.982	17460
309.013	22374
309.068	40283
309.072	42704
309.122	74637
309.162	133805
309.177	163045
309.231	287946
309.253	280748
309.286	227717
309.340	128943
309.343	126290
309.395	65590
309.433	37529
309.449	32685
309.504	25383
309.523	25615
309.558	30007
309.613	47655
309.613	47797
309.667	65662
309.703	63613
309.722	56439
309.776	34707
309.793	30007
309.830	23771
309.883	24112
309.885	24374
309.939	47914
309.973	55061
309.994	56379
310.048	44544
310.063	41224
310.102	25924
310.153	12224
310.157	11751
310.211	7925
310.243	6310
310.265	5673
310.320	4227
310.333	4054
310.374	3883
310.423	3663
310.428	3602
310.483	3011
310.513	3093
310.537	3119
310.591	2947
310.603	2800
310.646	2479
310.693	2436
310.700	2384
310.754	2057
310.783	1996
310.808	1875
310.862	1626
310.873	1643
310.917	1881
310.963	2180
310.971	2186
311.025	2456
311.053	2307
311.079	2178
311.133	1974
311.143	1948
311.188	1377
311.233	949
311.242	965
311.296	1252
311.323	1339
311.350	1247
311.404	1228
311.413	1214
311.458	1121
311.503	1141
311.512	1100
311.567	1074
311.593	1089
311.621	1498
311.675	2063
311.683	2181
311.729	1852
311.772	1604
311.783	1566
311.837	1422
311.862	1446
311.891	1749
311.945	2320
311.952	2423
311.999	1838
312.042	1356
312.053	1309
312.107	1240
312.132	1236
312.222	1045
312.311	1121
312.401	1042
312.491	1605
312.581	4790
312.671	995
312.760	406
312.850	1026
312.940	525
313.030	671
313.119	1404
313.209	802
313.299	1119
313.389	1206
313.478	1205
313.568	294
313.658	1016
313.747	-86
313.837	840
313.927	408
314.016	1019
314.106	619
314.195	1666
314.285	1213
314.375	1836
314.464	1073
314.554	965
314.643	400
314.733	1063
314.823	733
314.912	668
315.002	658
315.091	1664
315.181	998
315.270	1460
315.360	1877
315.449	995
315.539	1262
315.628	1744
315.718	2540
315.807	3686
315.896	5095
315.986	1751
316.075	2938
316.165	3654
316.254	3767
316.344	1175
316.433	268
316.522	932
316.612	1771
316.701	468
316.790	2379
316.880	2110
316.969	1284
317.058	507
317.148	723
317.237	350
317.326	38
317.415	163
317.505	2677
317.594	1943
317.683	1170
317.772	1872
317.862	5228
317.951	11355
318.040	5375
318.129	2555
318.219	1517
318.308	3849
318.397	4727
318.486	4993
318.575	5709
318.664	7152
318.754	1008
318.843	2189
318.932	1451
319.021	1408
319.110	6496
319.199	12376
319.288	9538
319.377	3976
319.466	764
319.555	1235
319.644	6846
319.733	5729
319.822	1422
319.911	7583
320.000	15040
320.089	4261
320.178	1059
320.267	1312
320.356	955
320.445	1584
320.534	3743
320.623	1319
320.712	554
320.801	1510
320.890	2732
320.979	4436
321.068	6018
321.157	9239
321.245	5833
321.334	7402
321.423	12099
321.512	3579
321.601	4947
321.690	4725
321.779	3412
321.867	3079
321.956	7298
322.045	3055
322.134	7387
322.222	12978
322.311	4171
322.400	2003
322.489	6686
322.577	18610
322.666	4621
322.755	7543
322.843	5832
322.932	5260
323.021	3437
323.110	2991
323.198	1838
323.287	2840
323.375	7439
323.464	13448
323.553	4604
323.641	11304
323.730	3664
323.819	3196
323.907	10948
323.996	4593
324.084	1665
324.173	5740
324.261	2539
324.350	3488
324.438	3115
324.527	769
324.615	1565
324.704	3551
324.792	4917
324.881	2669
324.969	451
325.058	1459
325.146	1239
325.235	3351
325.323	3039
325.412	4044
325.500	757
325.588	-99
325.677	417
325.765	330
325.853	1069
325.942	1187
326.030	74
326.118	1158
326.207	1357
326.295	497
326.383	318
326.472	1946
326.560	3324
326.648	320
326.737	239
326.825	122
326.913	661
327.001	864
327.090	3749
327.178	2848
327.266	199
327.354	2069
327.442	1395
327.531	192
327.619	430
327.707	269
327.795	1013
327.883	2086
327.971	1011
328.060	1109
328.148	501
328.236	309
328.324	455
328.412	337
328.500	618
328.588	3536
328.676	8806
328.764	2516
328.852	546
328.940	711
329.028	206
329.116	705
329.204	3800
329.292	852
329.380	-2
329.468	-357
329.556	-18
329.644	-252
329.732	584
329.820	1406
329.908	385
329.996	198
330.084	232
330.172	5660
330.259	10287
330.347	3034
330.435	618
330.523	3503
330.611	11514
330.699	3526
330.787	1341
330.874	1435
330.962	843
331.050	59
331.138	-218
331.226	220
331.313	326
331.401	2857
331.489	2129
331.577	654
331.664	354
331.752	486
331.840	-254
331.927	352
332.015	-555
332.103	439
332.190	980
332.278	4328
332.366	1669
332.453	970
332.541	79
332.629	92
332.716	519
332.804	1329
332.891	3426
332.979	3832
333.066	1254
333.154	4007
333.242	3992
333.329	81
333.417	-48
333.504	2752
333.592	4510
333.679	8679
333.767	961
333.854	124
333.942	1042
334.029	2587
334.117	6741
334.204	11265
334.291	1061
334.379	1300
334.466	396
334.554	-263
334.641	840
334.728	1004
334.816	4015
334.903	20017
334.990	8206
335.078	1589
335.165	351
335.252	375
335.340	2316
335.427	8832
335.514	4928
335.602	445
335.689	258
335.776	1054
335.863	586
335.951	1088
336.038	6102
336.125	15163
336.212	3529
336.299	-449
336.387	86
336.474	176
336.561	-101
336.648	976
336.735	585
336.822	633
336.910	2295
336.997	5598
337.084	11449
337.171	10727
337.258	10548
337.345	2651
337.432	418
337.519	785
337.606	-69
337.693	4638
337.780	5132
337.867	2448
337.954	2349
338.041	2521
338.128	-256
338.215	1009
338.302	4660
338.389	8169
338.476	1399
338.563	5682
338.650	1808
338.737	2938
338.824	1908
338.911	105
338.998	37
339.085	-8
339.171	1659
339.258	4420
339.345	780
339.432	2381
339.519	633
339.606	-168
339.692	678
339.779	917
339.866	1526
339.953	2373
340.040	605
340.126	1322
340.213	1046
340.300	653
340.387	2493
340.473	1634
340.560	346
340.647	3869
340.733	11393
340.820	2201
340.907	254
340.993	408
341.080	-331
341.167	657
341.253	3363
341.340	2614
341.426	896
341.513	286
341.600	374
341.686	1480
341.773	3543
341.859	2025
341.946	319
342.032	-70
342.119	-186
342.205	1552
342.292	1178
342.378	1910
342.465	1850
342.551	1432
342.638	7334
342.724	8825
342.811	2878
342.897	93
342.984	71
343.070	-523
343.156	-562
343.243	217
343.329	-238
343.416	-205
343.502	-183
343.588	518
343.675	520
343.761	69
343.847	2088
343.934	5675
344.020	46720
344.106	45075
344.193	5399
344.279	4854
344.365	20173
344.451	7686
344.538	2933
344.624	1139
344.710	625
344.796	17
344.882	-273
344.969	677
345.055	404
345.141	1532
345.227	1624
345.313	907
345.399	237
345.486	188
345.572	-716
345.658	72
345.744	9
345.830	539
345.916	212
346.002	833
346.088	689
346.174	708
346.260	1057
346.346	-389
346.432	572
346.518	14428
346.604	17614
346.690	208
346.776	373
346.862	896
346.948	-264
347.034	549
347.120	1250
347.206	377
347.292	522
347.378	790
347.464	13014
347.549	27261
347.635	17556
347.721	6581
347.807	955
347.893	12
347.979	-529
348.065	70
348.150	-525
348.236	-148
348.322	293
348.408	505
348.493	554
348.579	372
348.665	-12
348.751	-374
348.836	-371
348.922	3576
349.008	22375
349.094	13815
349.179	38
349.265	410
349.351	382
349.436	229
349.522	923
349.608	519
349.693	6171
349.779	14102
349.864	2001
349.950	331
350.036	-256
350.121	-435
350.207	-238
350.292	-856
350.378	-221
350.463	615
350.549	-276
350.634	866
350.720	90
350.805	400
350.891	-156
350.976	558
351.062	77
351.147	-373
351.233	592
351.318	7431
351.404	7096
351.489	161
351.574	-95
351.660	425
351.745	217
351.830	314
351.916	113
352.001	1660
352.086	10478
352.172	5270
352.257	339
352.342	1091
352.428	1367
352.513	5517
352.598	19682
352.684	4898
352.769	1147
352.854	-84
352.939	1146
353.024	967
353.110	-123
353.195	2330
353.280	3706
353.365	1435
353.450	631
353.536	177
353.621	3517
353.706	1417
353.791	1179
353.876	133
353.961	471
354.046	5219
354.131	6234
354.216	4671
354.302	388
354.387	560
354.472	562
354.557	563
354.642	-609
354.727	1220
354.812	799
354.897	-356
354.982	6
355.067	-512
355.152	72
355.237	872
355.321	1576
355.406	6723
355.491	10923
355.576	2054
355.661	4951
355.746	5502
355.831	18215
355.916	3904
356.001	650
356.085	886
356.170	-212
356.255	-346
356.340	390
356.425	6521
356.509	38140
356.594	10858
356.679	301
356.764	1235
356.849	3277
356.933	36915
357.018	54203
357.103	7458
357.187	2373
357.272	1335
357.357	1664
357.441	1294
357.526	1847
357.611	985
357.695	6
357.780	2383
357.865	2489
357.949	2587
358.034	29043
358.118	55382
358.203	9679
358.288	1649
358.372	2217
358.457	16914
358.541	25661
358.626	16907
358.710	14386
358.795	3116
358.879	2779
358.964	1021
359.048	-201
359.133	312
359.217	451
359.302	2127
359.386	1527
359.470	1347
359.555	655
359.639	748
359.724	-417
359.808	-215
359.892	1255
359.977	-485
360.061	819
360.145	338
360.230	1730
360.314	2375
360.398	965
360.483	5568
360.567	6521
360.651	9183
360.735	3491
360.820	29013
360.904	26274
360.988	7891
361.072	2255
361.157	1656
361.241	640
361.325	-188
361.409	117
361.493	1285
361.577	171
361.662	1142
361.746	7970
361.830	40870
361.914	18743
361.998	2287
362.082	3744
362.166	5570
362.250	2862
362.334	2196
362.418	1821
362.502	1940
362.586	-812
362.671	-12
362.754	-340
362.839	272
362.922	383
363.006	8412
363.090	40828
363.174	24367
363.258	2596
363.342	1461
363.426	3194
363.510	10657
363.594	3326
363.678	831
363.762	818
363.846	1839
363.929	627
364.013	2559
364.097	1354
364.181	4318
364.265	12328
364.349	5288
364.432	7173
364.516	2157
364.600	2531
364.684	12666
364.767	37928
364.851	8670
364.935	5267
365.019	2494
365.102	4017
365.186	2529
365.270	6730
365.353	10141
365.437	760
365.521	447
365.604	-622
365.688	537
365.771	451
365.855	215
365.939	250
366.022	697
366.106	-638
366.189	-836
366.273	178
366.357	189
366.440	140
366.524	-105
366.607	14
366.691	245
366.774	454
366.858	1238
366.941	1796
367.024	480
367.108	-251
367.191	698
367.275	20
367.358	-775
367.442	-48
367.525	-279
367.608	953
367.692	1423
367.775	1554
367.858	2390
367.942	16436
368.025	8074
368.108	1018
368.192	3551
368.275	2909
368.358	2957
368.442	3674
368.525	4917
368.608	3346
368.691	17700
368.775	9464
368.858	1922
368.941	2248
369.024	1180
369.107	79
369.190	-200
369.274	297
369.357	3061
369.440	2293
369.523	811
369.606	-712
369.689	1531
369.772	-524
369.855	218
369.939	117
370.022	663
370.105	2316
370.188	1535
370.271	968
370.354	2676
370.437	6264
370.520	23172
370.603	8120
370.686	3980
370.769	10361
370.852	17826
370.935	16392
371.018	1958
371.100	-46
371.183	-220
371.266	-698
371.349	-1152
371.432	-114
371.515	306
371.598	1382
371.681	1892
371.763	1787
371.846	4161
371.929	37581
372.012	27136
372.095	6022
372.177	15184
372.260	17934
372.343	2546
372.426	3255
372.508	1606
372.591	1330
372.674	13762
372.757	20607
372.839	2683
372.922	5569
373.005	4626
373.087	863
373.170	4228
373.253	14883
373.335	19308
373.418	47933
373.500	38638
373.583	10814
373.666	42175
373.748	16972
373.831	2609
373.913	1286
373.996	2547
374.078	7283
374.161	1378
374.243	9870
374.326	17496
374.408	6641
374.491	37699
374.573	41154
374.656	6411
374.738	16938
374.821	33905
374.903	53017
374.985	18905
375.068	2026
375.150	2069
375.233	8754
375.315	6111
375.397	73
375.480	1082
375.562	443
375.644	1599
375.727	17442
375.809	39415
375.891	10591
375.973	2808
376.056	2742
376.138	1881
376.220	1654
376.302	23817
376.385	24031
376.467	5008
376.549	3960
376.631	15411
376.713	23267
376.795	2729
376.878	-262
376.960	296
377.042	608
377.124	335
377.206	241
377.288	-696
377.370	557
377.452	290
377.534	-69
377.616	524
377.699	-711
377.781	-172
377.863	-186
377.945	138
378.027	-597
378.109	1
378.190	17
378.272	82
378.354	-18
378.436	300
378.518	1466
378.600	2235
378.682	4814
378.764	13541
378.846	2258
378.928	2195
379.010	1748
379.091	-52
379.173	633
379.255	425
379.337	1076
379.419	11881
379.501	13044
379.582	1463
379.664	1439
379.746	5223
379.828	13908
379.909	17411
379.991	5394
380.073	-199
380.155	232
380.236	-397
380.318	-73
380.400	261
380.481	3661
380.563	2017
380.645	3298
380.726	1929
380.808	1532
380.889	854
380.971	-489
381.053	-161
381.134	899
381.216	8550
381.297	9924
381.379	1369
381.460	7729
381.542	37945
381.623	10666
381.705	1498
381.786	1180
381.868	2459
381.949	24152
382.031	41945
382.112	10377
382.193	1879
382.275	3057
382.356	15480
382.438	22140
382.519	38106
382.600	25904
382.682	16772
382.763	31935
382.844	40913
382.926	48334
383.007	12425
383.088	27042
383.170	118750
383.251	62420
383.332	27773
383.413	30574
383.495	7463
383.576	6626
383.657	18391
383.738	113787
383.820	137085
383.901	28475
383.982	31767
384.063	36343
384.144	7423
384.225	2026
384.306	1937
384.388	557
384.469	718
384.550	1072
384.631	2433
384.712	827
384.793	1044
384.874	2476
384.955	14600
385.036	5426
385.117	391
385.198	1309
385.279	741
385.360	1294
385.441	1687
385.522	7991
385.603	22775
385.684	5109
385.765	1102
385.846	4497
385.927	33672
386.008	17960
386.089	1324
386.169	451
386.250	406
386.331	480
386.412	1418
386.493	11062
386.574	4992
386.654	1116
386.735	523
386.816	711
386.897	-287
386.977	-46
387.058	-297
387.139	4252
387.220	11990
387.300	4013
387.381	1757
387.462	-233
387.542	1103
387.623	3
387.704	8353
387.784	28621
387.865	12789
387.946	1626
388.026	-162
388.107	-1931
388.187	1391
388.268	1753
388.349	1050
388.429	687
388.510	8207
388.590	30382
388.671	16365
388.751	6866
388.832	8984
388.912	1180
388.993	-1100
389.073	-183
389.154	151
389.234	-322
389.314	1626
389.395	-559
389.475	8872
389.556	9285
389.636	1962
389.716	1500
389.797	961
389.877	8237
389.957	13971
390.038	2762
390.118	-609
390.198	7181
390.279	10758
390.359	1873
390.439	8130
390.519	16234
390.600	8538
390.680	1248
390.760	484
390.840	336
390.920	-339
391.001	-587
391.081	479
391.161	-473
391.241	-1244
391.321	256
391.401	523
391.481	-79
391.562	-1508
391.642	908
391.722	1695
391.802	1800
391.882	1116
391.962	10269
392.042	3962
392.122	1541
392.202	8807
392.282	11111
392.362	2091
392.442	1591
392.522	100
392.602	901
392.682	5925
392.762	15148
392.842	3211
392.921	9429
393.001	16669
393.081	4068
393.161	5752
393.241	37052
393.321	120150
393.401	38924
393.480	6960
393.560	1553
393.640	940
393.720	45
393.800	-276
393.879	268
393.959	474
394.039	884
394.119	872
394.198	2747
394.278	27129
394.358	94279
394.437	28176
394.517	3297
394.597	778
394.676	859
394.756	3779
394.836	4288
394.915	-33
394.995	988
395.075	1198
395.154	-177
395.234	86
395.313	232
395.393	-1026
395.472	1686
395.552	4045
395.631	6423
395.711	3727
395.790	6463
395.870	1676
395.949	4332
396.029	36833
396.108	118010
396.188	38509
396.267	7415
396.346	2821
396.426	1512
396.505	1818
396.585	1863
396.664	5700
396.743	46174
396.823	84912
396.902	27027
396.981	3914
397.061	2205
397.140	-205
397.219	343
397.298	577
397.378	-6
397.457	-59
397.536	-7
397.615	-1501
397.694	1924
397.774	-282
397.853	-889
397.932	-489
398.011	-419
398.090	2569
398.169	3858
398.249	345
398.328	-271
398.407	332
398.486	-411
398.565	167
398.644	-1252
398.723	-410
398.802	-520
398.881	3206
398.960	4336
399.039	90
399.118	-1008
399.197	-1112
399.276	185
399.355	-581
399.434	-914
399.513	-27
399.592	-1077
399.671	895
399.750	2524
399.829	7310
399.908	488
399.986	-1170
400.065	-723
400.144	-1684
400.223	1181
400.302	-404
400.380	203
400.459	9281
400.538	3454
400.617	-460
400.696	-255
400.774	-452
400.853	525
400.932	-716
401.011	494
401.089	-819
401.168	-581
401.247	-620
401.325	-485
401.404	337
401.483	-790
401.561	-223
401.640	-930
401.718	52
401.797	-696
401.876	-734
401.954	-1210
402.033	-607
402.111	836
402.190	-1274
402.268	-83
402.347	603
402.425	635
402.504	-1488
402.582	-720
402.661	-755
402.739	-1005
402.818	-422
402.896	436
402.974	5422
403.053	8447
403.131	1956
403.210	4807
403.288	5720
403.366	4322
403.445	2704
403.523	-434
403.601	196
403.680	-1379
403.758	39
403.836	-381
403.915	-586
403.993	-1247
404.071	1923
404.149	-692
404.228	-1193
404.306	378
404.384	672
404.462	9222
404.540	35384
404.618	6018
404.697	635
404.775	230
404.853	-456
404.931	-940
405.009	-199
405.087	-287
405.165	-1475
405.243	-1313
405.321	-660
405.399	-880
405.478	687
405.556	134
405.634	-1513
405.712	-1887
405.790	-44
405.868	-161
405.945	202
406.023	-862
406.101	-1646
406.179	1032
406.257	10764
406.335	21327
406.413	3287
406.491	-341
406.569	-754
406.647	310
406.724	-415
406.802	-622
406.880	-861
406.958	155
407.036	2065
407.113	20090
407.191	6176
407.269	19
407.347	-413
407.424	-1107
407.502	-804
407.580	-295
407.658	1113
407.735	3715
407.813	931
407.891	-1067
407.968	-832
408.046	-594
408.124	-1135
408.201	554
408.279	-341
408.356	-738
408.434	162
408.512	-1153
408.589	-1113
408.667	-1227
408.744	-1013
408.822	-670
408.899	-163
408.977	-673
409.054	-1123
409.132	-522
409.209	-341
409.287	-803
409.364	-1012
409.441	-734
409.519	484
409.596	-7
409.674	-917
409.751	-1058
409.828	-962
409.906	255
409.983	-2169
410.060	-1216
410.138	-48
410.215	225
410.292	-691
410.370	-1064
410.447	120
410.524	-718
410.601	-404
410.678	-33
410.756	-209
410.833	-1782
410.910	24
410.987	-321
411.064	-408
411.142	110
411.219	-551
411.296	-1230
411.373	-797
411.450	-911
411.527	-503
411.604	-1139
411.681	-729
411.758	745
411.835	561
411.913	-1179
411.990	-1331
412.067	-737
412.144	-287
412.221	-1208
412.298	-220
412.374	-1302
412.451	-885
412.528	-735
412.605	-633
412.682	-535
412.759	-454
412.836	-1289
412.913	-1138
412.990	-1153
413.067	575
413.143	5953
413.220	3257
413.297	-771
413.374	974
413.451	-569
413.527	-418
413.604	-413
413.681	-1012
413.758	-1459
413.834	-526
413.911	-1202
413.988	-1309
414.065	-574
414.141	-705
414.218	-352
414.295	6873
414.371	6565
414.448	-283
414.524	-831
414.601	-753
414.678	-1446
414.754	-588
414.831	-1354
414.907	-264
414.984	-1359
415.060	-337
415.137	-1251
415.213	-579
415.290	-16
415.366	651
415.443	-716
415.519	-911
415.596	-625
415.672	-242
415.749	-1139
415.825	-1001
415.902	-1018
415.978	-1019
416.054	-175
416.131	-1681
416.207	-1957
416.283	-288
416.360	-1198
416.436	93
416.512	-2098
416.589	-938
416.665	-884
416.741	-295
416.817	-1366
416.894	-316
416.970	-942
417.046	-176
417.122	-1008
417.198	-1011
417.275	33
417.351	-1214
417.427	-311
417.503	-224
417.579	-769
417.655	-816
417.731	-751
417.808	-1157
417.884	-807
417.960	-819
418.036	-2154
418.112	616
418.188	-581
418.264	-46
418.340	-268
418.416	-591
418.492	-143
418.568	-120
418.644	1642
418.720	874
418.796	-113
418.872	-551
418.947	-1582
419.023	-536
419.099	1351
419.175	-721
419.251	-886
419.327	-1805
419.403	-776
419.478	-1220
419.554	-1146
419.630	-464
419.706	-618
419.782	2123
419.857	2465
419.933	-540
420.009	231
420.085	1136
420.160	5806
420.236	946
420.312	-310
420.387	-1219
420.463	-1176
420.539	-313
420.614	-1701
420.690	-775
420.766	-1769
420.841	113
420.917	-1543
420.992	-400
421.068	-2066
421.143	-1190
421.219	-1498
421.294	-270
421.370	-1521
421.445	125
421.521	-346
421.596	-638
421.672	-631
421.747	-409
421.823	-1929
421.898	361
421.974	-563
422.049	-985
422.124	-697
422.200	-183
422.275	249
422.350	351
422.426	669
422.501	7752
422.576	43135
422.652	51653
422.727	13050
422.802	1949
422.878	71
422.953	-506
423.028	-1126
423.103	-447
423.178	-915
423.254	-1089
423.329	515
423.404	-991
423.479	678
423.554	1896
423.630	-355
423.705	-776
423.780	-1007
423.855	74
423.930	-281
424.005	-814
424.080	-221
424.155	-371
424.230	-1477
424.305	-1608
424.380	-1917
424.455	-1118
424.530	-1447
424.605	-1454
424.680	-238
424.755	-190
424.830	-1030
424.905	795
424.980	4335
425.055	4658
425.130	-744
425.204	-1433
425.279	-1491
425.354	-328
425.429	-1344
425.504	-611
425.579	-1806
425.653	-1127
425.728	-820
425.803	-508
425.878	-1006
425.952	3351
426.027	5161
426.102	-187
426.177	-886
426.251	-281
426.326	-2251
426.401	-1221
426.475	-1061
426.550	-731
426.625	-1014
426.699	-640
426.774	-2054
426.848	-26
426.923	-1162
426.998	788
427.072	11104
427.147	14600
427.221	1105
427.296	-1149
427.370	-346
427.445	-408
427.519	-1010
427.594	-461
427.668	-996
427.743	-1927
427.817	-614
427.892	-1068
427.966	-1581
428.040	-1299
428.115	539
428.189	3620
428.263	5832
428.338	-23
428.412	-1500
428.486	-408
428.561	-1549
428.635	-50
428.709	-431
428.784	400
428.858	5758
428.932	2329
429.006	-517
429.080	-867
429.155	-1464
429.229	-925
429.303	455
429.377	2067
429.451	-296
429.526	-324
429.600	-1191
429.674	-1087
429.748	-454
429.822	5483
429.896	4376
429.970	2428
430.044	2743
430.118	3060
430.192	13225
430.266	3330
430.340	-1300
430.414	-79
430.488	1165
430.562	1292
430.636	2988
430.710	19511
430.784	10196
430.858	146
430.932	-1421
431.006	-383
431.080	-1926
431.153	-1889
431.227	-1347
431.301	-479
431.375	-279
431.449	-482
431.523	-370
431.596	-1054
431.670	-1015
431.744	1020
431.818	5522
431.891	185
431.965	-867
432.039	-872
432.112	-894
432.186	-1544
432.260	-1286
432.333	-1552
432.407	-357
432.481	10502
432.554	12695
432.628	767
432.702	-89
432.775	-1670
432.849	-1239
432.922	-1027
432.996	-1605
433.069	-1099
433.143	-2050
433.216	-1023
433.290	-1070
433.363	-1202
433.437	-1423
433.510	-1758
433.584	-426
433.657	-654
433.730	-784
433.804	-1135
433.877	-1511
433.951	-1130
434.024	-1046
434.097	-1954
434.171	-1560
434.244	-1516
434.317	-794
434.391	-1333
434.464	-973
434.537	-1814
434.610	-938
434.684	-1712
434.757	-1226
434.830	-1274
434.903	-1836
434.977	-910
435.050	-751
435.123	-1126
435.196	-465
435.269	-73
435.342	-1217
435.415	-881
435.489	-544
435.562	-712
435.635	-876
435.708	-963
435.781	-1151
435.854	-696
435.927	-1475
436.000	-1667
436.073	-1132
436.146	-1312
436.219	-1568
436.292	-1087
436.365	-1703
436.438	-1124
436.511	-1373
436.584	-1908
436.657	-1800
436.729	-1412
436.802	-1542
436.875	-1272
436.948	-1734
437.021	-746
437.094	-1596
437.166	-1357
437.239	-924
437.312	-1375
437.385	-1352
437.457	-1016
437.530	-1265
437.603	-1276
437.676	-1787
437.748	-883
437.821	-808
437.894	-11
437.966	-1450
438.039	-1314
438.112	-613
438.184	-97
438.257	14525
438.330	19575
438.402	2597
438.475	-272
438.547	-1409
438.620	-2376
438.692	-841
438.765	-1567
438.837	-685
438.910	-1037
438.982	-1214
439.055	-1324
439.127	-1605
439.200	-1472
439.272	-1786
439.345	-668
439.417	-653
439.489	-880
439.562	-1066
439.634	-1362
439.707	-1395
439.779	-931
439.851	-1128
439.923	-1174
439.996	-1551
440.068	-1111
440.140	-1491
440.213	-2011
440.285	-1088
440.357	3920
440.429	14572
440.502	1524
440.574	-346
440.646	-437
440.718	-711
440.790	-350
440.862	-1545
440.935	-1289
441.007	-1548
441.079	-954
441.151	-2239
441.223	-967
441.295	-2022
441.367	-559
441.439	5433
441.511	1415
441.583	-881
441.655	-1021
441.727	-1476
441.799	-1132
441.871	-1976
441.943	-1421
442.015	-1076
442.087	-880
442.159	-1569
442.231	-927
442.303	-860
442.374	-678
442.446	1843
442.518	3020
442.590	-405
442.662	247
442.734	-677
442.805	-1957
442.877	-1895
442.949	-854
443.021	-901
443.092	-1255
443.164	-1977
443.236	-1212
443.308	-496
443.379	2733
443.451	8888
443.523	4609
443.594	-685
443.666	-902
443.737	-1543
443.809	-1293
443.881	-1551
443.952	-1653
444.024	-1121
444.095	-806
444.167	-936
444.238	-758
444.310	-1096
444.381	-1318
444.453	-2187
444.524	-1269
444.596	-1539
444.667	-1014
444.739	-1624
444.810	-577
444.882	-1332
444.953	-704
445.024	-751
445.096	-1095
445.167	-1485
445.238	-832
445.310	261
445.381	8308
445.452	12994
445.524	3904
445.595	215
445.666	367
445.737	-668
445.809	-455
445.880	-1039
445.951	-1524
446.022	-1686
446.094	-619
446.165	-602
446.236	-1457
446.307	-1696
446.378	-1256
446.449	-1549
446.520	-1496
446.591	-1341
446.663	-605
446.734	-1722
446.805	-1253
446.876	-807
446.947	-749
447.018	-1901
447.089	-1109
447.160	-1006
447.231	-1415
447.302	-1115
447.373	-1182
447.444	-1533
447.514	-966
447.585	-904
447.656	-1424
447.727	-1287
447.798	-705
447.869	-1854
447.940	-1198
448.010	-1591
448.081	-594
448.152	-1124
448.223	-714
448.294	-1179
448.364	-878
448.435	-1845
448.506	-1217
448.577	-1483
448.647	-1356
448.718	-1644
448.789	-1378
448.859	-1315
448.930	-1090
449.001	-1565
449.071	-539
449.142	-2153
449.213	-1557
449.283	-1376
449.354	-1901
449.424	-929
449.495	-885
449.565	-1007
449.636	-1074
449.706	-1291
449.777	-923
449.847	-1474
449.918	-1302
449.988	-1320
450.059	-1444
450.129	-1662
450.200	-1883
450.270	-526
450.340	-617
450.411	-1566
450.481	-1880
450.551	-1358
450.622	-1632
450.692	-470
450.762	-338
450.833	-1354
450.903	-954
450.973	-1569
451.043	-2195
451.114	-2249
451.184	-1271
451.254	-569
451.324	-1350
451.395	-2077
451.465	-1105
451.535	-2188
451.605	-930
451.675	-2175
451.745	-441
451.815	-727
451.885	-1683
451.956	-2172
452.026	-1658
452.096	-1402
452.166	-1132
452.236	-57
452.306	-1196
452.376	-1449
452.446	-990
452.516	-1798
452.586	-879
452.656	-1194
452.725	-596
452.795	367
452.865	-679
452.935	-1577
453.005	-480
453.075	-1941
453.145	-929
453.215	-329
453.284	-139
453.354	48
453.424	3066
453.494	2240
453.564	2415
453.633	-1356
453.703	-1390
453.773	-1798
453.843	-1412
453.895	-1626
453.912	-1721
453.976	-1072
453.982	-1040
454.052	-1342
454.057	-1303
454.121	-1228
454.139	-1324
454.191	-1649
454.220	-1581
454.261	-1672
454.301	-1109
454.330	-900
454.382	-779
454.400	-736
454.463	-1007
454.469	-1041
454.539	-801
454.544	-726
454.608	-222
454.625	86
454.678	936
454.707	1282
454.748	862
454.788	1641
454.817	1439
454.869	421
454.887	337
454.950	379
454.956	410
455.026	902
455.031	1036
455.095	1110
455.112	1534
455.165	2420
455.193	2845
455.234	2893
455.274	2216
455.303	1555
455.355	1881
455.373	1845
455.436	746
455.442	530
455.512	789
455.517	720
455.581	212
455.598	121
455.650	-98
455.679	-266
455.720	-448
455.760	-113
455.789	70
455.841	188
455.858	144
455.922	64
455.928	65
455.997	-297
456.003	-193
456.066	890
456.084	1045
456.136	1944
456.165	2357
456.205	1970
456.245	1958
456.274	1377
456.326	595
456.343	618
456.407	535
456.412	522
456.482	69
456.488	74
456.551	-260
456.569	-34
456.620	754
456.650	660
456.689	476
456.730	270
456.758	178
456.811	346
456.827	623
456.892	2190
456.897	2390
456.966	5628
456.973	6055
457.035	7880
457.054	8426
457.104	3565
457.134	979
457.173	1179
457.215	808
457.242	669
457.296	776
457.311	830
457.377	1158
457.380	1139
457.449	1602
457.457	1607
457.518	2075
457.538	2191
457.587	2831
457.619	3175
457.656	3942
457.699	5267
457.725	4648
457.780	3585
457.794	3875
457.861	5088
457.863	5147
457.932	7179
457.941	7638
458.001	8003
458.022	7804
458.070	4595
458.103	3039
458.138	3615
458.183	3314
458.207	3238
458.264	4727
458.276	5354
458.344	7566
458.345	7589
458.414	13323
458.425	14300
458.483	8845
458.506	7105
458.551	5438
458.586	3359
458.620	2671
458.667	1948
458.689	2018
458.747	2716
458.758	2806
458.826	2814
458.828	2819
458.895	2336
458.908	2315
458.964	3251
458.989	3673
459.033	4652
459.069	5351
459.101	5169
459.150	4914
459.170	4622
459.230	3802
459.239	3730
459.307	3391
459.311	3378
459.376	4019
459.391	4043
459.444	3657
459.471	3612
459.513	3737
459.552	3905
459.582	4043
459.632	4401
459.650	4540
459.713	4367
459.719	4330
459.787	4187
459.793	4195
459.856	4379
459.873	4311
459.924	4733
459.954	4969
459.993	6010
460.034	7284
460.061	8857
460.114	11795
460.130	10810
460.195	6725
460.198	6650
460.267	4808
460.275	4599
460.335	5063
460.355	5021
460.404	6441
460.436	7581
460.472	11450
460.516	16124
460.540	16960
460.596	18857
460.609	16612
460.676	5375
460.677	5399
460.745	4837
460.757	4748
460.814	4452
460.837	4632
460.882	6706
460.917	8007
460.950	7825
460.997	7889
461.019	7280
461.077	5159
461.087	5181
461.155	5677
461.158	5664
461.224	5297
461.238	5155
461.292	4701
461.318	4606
461.360	5708
461.398	6617
461.428	8940
461.478	12602
461.496	14587
461.558	21836
461.565	20942
461.633	9989
461.638	9053
461.701	8334
461.719	8119
461.769	7762
461.799	7563
461.837	6662
461.879	5242
461.905	5077
461.959	5169
461.973	5642
462.039	7401
462.042	7614
462.110	12346
462.119	12941
462.178	11110
462.199	10467
462.246	8462
462.279	6790
462.314	7487
462.359	8197
462.382	7485
462.439	5729
462.450	5646
462.518	5411
462.519	5372
462.586	5346
462.599	5429
462.654	6396
462.679	6783
462.722	8851
462.759	10529
462.790	9405
462.839	7120
462.858	6828
462.919	6404
462.926	6376
462.993	5438
462.999	5347
463.061	7289
463.078	7767
463.129	7519
463.158	7261
463.197	7234
463.238	7365
463.265	7331
463.318	7126
463.333	7343
463.398	7896
463.401	7981
463.468	9208
463.478	9312
463.536	11480
463.558	12330
463.604	15354
463.637	17310
463.672	17103
463.717	16652
463.739	18878
463.797	24425
463.807	22987
463.875	12743
463.877	12403
463.943	8727
463.957	7888
464.010	7662
464.036	7349
464.078	7898
464.116	8540
464.146	9506
464.196	10925
464.213	10520
464.275	8805
464.281	9032
464.349	11279
464.355	11455
464.416	11054
464.435	10802
464.484	13187
464.515	14688
464.551	15836
464.594	16871
464.619	15077
464.674	10864
464.686	10730
464.754	9681
464.754	9744
464.821	11319
464.833	11550
464.889	9756
464.913	8895
464.956	9611
464.992	10012
465.024	10117
465.072	10388
465.091	10649
465.152	11056
465.159	11562
465.226	15751
465.231	15964
465.294	21067
465.311	22357
465.361	18699
465.390	16405
465.429	20994
465.470	25632
465.496	21893
465.549	13964
465.563	13212
465.629	9274
465.631	9324
465.698	9172
465.708	9090
465.765	8947
465.788	8842
465.833	9441
465.867	9787
465.900	10293
465.947	10889
465.967	10791
466.026	10256
466.035	10430
466.102	11342
466.106	11328
466.169	11090
466.185	10953
466.236	11219
466.265	11235
466.304	12043
466.344	12760
466.371	14166
466.423	16771
466.438	18685
466.503	26703
466.505	27569
466.572	49339
466.582	52299
466.639	37765
466.662	31816
466.707	23412
466.741	16684
466.774	16460
466.820	15918
466.841	15767
466.900	14984
466.908	15025
466.975	14652
466.979	14545
467.042	16374
467.058	16727
467.109	16770
467.138	16637
467.176	16104
467.217	15360
467.243	15203
467.296	14623
467.310	14647
467.375	14299
467.377	14350
467.455	12886
467.534	13724
467.613	17637
467.692	26983
467.772	23030
467.851	16835
467.930	23748
468.009	43279
468.088	22047
468.167	11659
468.246	14039
468.326	14142
468.405	10884
468.484	11217
468.563	12096
468.642	13566
468.721	12122
468.800	15054
468.879	17477
468.958	26864
469.037	14534
469.116	13252
469.195	11265
469.274	14515
469.353	12883
469.432	12962
469.511	13389
469.590	16827
469.669	19820
469.748	21060
469.827	17251
469.905	17824
469.984	22961
470.063	42788
470.142	74254
470.221	55337
470.300	29419
470.378	21121
470.457	19234
470.536	29041
470.615	23262
470.694	16751
470.772	21085
470.851	25316
470.930	14784
471.008	11992
471.087	10034
471.166	9768
471.245	12151
471.323	11849
471.402	11291
471.480	10794
471.559	12047
471.638	11617
471.716	9286
471.795	11370
471.873	10991
471.952	12821
472.031	17008
472.109	15868
472.188	12742
472.266	9779
472.345	9258
472.423	10770
472.502	13783
472.580	19067
472.659	16336
472.737	15454
472.815	12163
472.894	13589
472.972	13784
473.051	10806
473.129	13556
473.207	15864
473.286	14415
473.364	15533
473.443	26797
473.521	40908
473.599	14981
473.677	11290
473.756	14701
473.834	13346
473.912	13478
473.991	15868
474.069	18157
474.147	18567
474.225	10887
474.303	12802
474.382	14325
474.460	12842
474.538	12185
474.616	13294
474.694	12167
474.772	11308
474.851	10798
474.929	12099
475.007	12142
475.085	13460
475.163	20028
475.241	37232
475.319	15459
475.397	12246
475.475	12872
475.553	19232
475.631	30849
475.709	28926
475.787	29028
475.865	13858
475.943	16256
476.021	25974
476.099	29287
476.177	13098
476.255	12420
476.333	15796
476.410	25152
476.488	28026
476.566	12091
476.644	13577
476.722	12663
476.800	11139
476.877	10144
476.955	10991
477.033	13196
477.111	13295
477.189	10923
477.266	9990
477.344	9662
477.422	10941
477.499	11579
477.577	10050
477.655	12413
477.732	10871
477.810	12468
477.888	10747
477.965	11651
478.043	14518
478.121	25899
478.198	42131
478.276	12144
478.353	10562
478.431	11910
478.508	18167
478.586	11506
478.664	12917
478.741	17656
478.819	19756
478.896	9985
478.974	11145
479.051	12202
479.128	12025
479.206	9682
479.283	8949
479.361	9129
479.438	10633
479.516	10217
479.593	11283
479.670	11709
479.748	12473
479.825	17459
479.902	12845
479.980	10661
480.057	9638
480.134	11804
480.211	12054
480.289	14385
480.366	22828
480.443	11732
480.520	10095
480.598	12635
480.675	11706
480.752	11613
480.829	13879
480.906	15660
480.984	11272
481.061	11165
481.138	9210
481.215	8599
481.292	10745
481.369	8335
481.446	10013
481.523	8623
481.600	10217
481.677	10233
481.754	11498
481.831	16244
481.908	19030
481.985	11866
482.062	15939
482.139	35163
482.216	45733
482.293	12166
482.370	11435
482.447	10839
482.524	10665
482.601	11953
482.678	9614
482.755	9595
482.832	9849
482.908	9930
482.985	11533
483.062	12324
483.139	11993
483.216	10513
483.293	11543
483.369	10375
483.446	12370
483.523	9340
483.600	10000
483.676	12533
483.753	13458
483.830	21214
483.906	40220
483.983	24020
484.060	23981
484.136	22837
484.213	18930
484.290	17069
484.366	15638
484.443	15439
484.519	17199
484.596	16653
484.673	19047
484.749	16476
484.826	16670
484.902	18291
484.979	20122
485.055	17187
485.132	17582
485.208	18948
485.285	21228
485.361	27546
485.437	42293
485.514	23597
485.590	23598
485.667	25353
485.743	39972
485.819	72372
485.896	26113
485.972	18747
486.049	20258
486.125	19998
486.201	23005
486.277	24118
486.354	22023
486.430	22318
486.506	24530
486.583	26255
486.659	36395
486.735	29344
486.811	42086
486.887	74989
486.964	171860
487.040	134337
487.116	47528
487.192	19074
487.268	18647
487.344	23711
487.420	24950
487.497	22937
487.573	41423
487.649	97124
487.725	47751
487.801	18348
487.877	19313
487.953	25329
488.029	26564
488.105	18804
488.181	17265
488.257	24193
488.333	51200
488.409	31845
488.485	22064
488.561	22219
488.637	22769
488.712	34594
488.788	43634
488.864	112075
488.940	263583
489.016	232098
489.092	30207
489.168	16627
489.243	14963
489.319	13983
489.395	13237
489.471	13372
489.547	12810
489.622	11913
489.698	15555
489.774	27616
489.849	39807
489.925	15964
490.001	13627
490.076	20223
490.152	44968
490.228	28914
490.303	13885
490.379	11541
490.455	10870
490.530	12953
490.606	14222
490.681	13945
490.757	18421
490.833	25779
490.908	23702
490.984	18083
491.059	15029
491.135	21602
491.210	35034
491.286	16791
491.361	18288
491.436	17779
491.512	22317
491.587	34074
491.663	68612
491.738	184805
491.814	167077
491.889	415634
491.964	103409
492.040	25810
492.115	16881
492.190	24445
492.266	28018
492.341	18370
492.416	14861
492.491	11808
492.567	16018
492.642	21085
492.717	14853
492.792	12533
492.868	13548
492.943	10451
493.018	12377
493.093	15220
493.168	29129
493.243	51319
493.318	21670
493.394	14331
493.469	12296
493.544	14583
493.619	22515
493.694	42380
493.769	36152
493.844	18031
493.919	12193
493.994	11650
494.069	11515
494.144	9773
494.219	9751
494.294	10669
494.369	13108
494.444	16314
494.519	18768
494.594	10387
494.669	12119
494.744	12149
494.818	14299
494.893	13943
494.968	12529
495.043	13559
495.118	15858
495.193	17818
495.267	23937
495.342	30939
495.417	43996
495.492	122797
495.566	528324
495.641	420801
495.716	31861
495.791	14715
495.865	14672
495.940	12207
496.015	12574
496.089	13820
496.164	12430
496.239	12908
496.313	14882
496.388	20590
496.462	34261
496.537	17025
496.612	17543
496.686	17241
496.761	15290
496.835	15698
496.910	15725
496.984	12256
497.059	14855
497.133	20863
497.208	17920
497.282	15706
497.357	19467
497.431	14718
497.505	15226
497.580	19257
497.654	27902
497.729	29231
497.803	25708
497.877	40759
497.952	127235
498.026	314493
498.100	86844
498.175	59474
498.249	47860
498.323	34739
498.397	45500
498.472	21118
498.546	15511
498.620	16353
498.694	25244
498.768	35741
498.843	47255
498.917	186620
498.991	153089
499.065	17525
499.139	14335
499.213	19873
499.287	20775
499.362	15482
499.436	15964
499.510	18778
499.584	20731
499.658	26752
499.732	84326
499.806	188950
499.880	32124
499.954	35294
500.028	61201
500.102	29599
500.176	19083
500.250	20158
500.324	30683
500.397	77941
500.471	122543
500.545	151371
500.619	72315
500.693	15267
500.767	14674
500.841	15709
500.914	14567
500.988	25450
501.062	48918
501.136	35548
501.210	76292
501.283	150009
501.357	49981
501.431	36866
501.505	29739
501.578	14583
501.652	31528
501.726	30112
501.799	34900
501.873	44710
501.947	15881
502.020	25435
502.094	53944
502.167	41711
502.241	17089
502.315	39729
502.388	33722
502.462	18483
502.535	21515
502.609	19509
502.682	16552
502.756	8174
502.829	9671
502.903	9712
502.976	9902
503.050	8519
503.123	9779
503.196	10899
503.270	11989
503.343	20828
503.417	70418
503.490	76433
503.563	21914
503.637	29380
503.710	42483
503.783	33571
503.857	55633
503.930	43332
504.003	58670
504.076	26747
504.150	11911
504.223	12196
504.296	11728
504.369	8018
504.443	7303
504.516	9495
504.589	9561
504.662	14345
504.735	15578
504.808	40790
504.881	23637
504.954	13970
505.028	25892
505.101	12325
505.174	11903
505.247	8973
505.320	9777
505.393	10440
505.466	12444
505.539	10618
505.612	9330
505.685	6595
505.758	9912
505.831	7001
505.904	9550
505.977	7792
506.049	10386
506.122	10738
506.195	14028
506.268	44823
506.341	63632
506.414	16822
506.487	9669
506.559	11125
506.632	13025
506.705	26965
506.778	18542
506.851	9464
506.923	8847
506.996	14726
507.069	15712
507.141	10764
507.214	13021
507.287	26040
507.360	21687
507.432	10894
507.505	11584
507.577	9275
507.650	11392
507.723	23373
507.795	28193
507.868	11984
507.940	10089
508.013	8939
508.086	7359
508.158	17442
508.231	11980
508.303	7707
508.376	8316
508.448	6986
508.520	9237
508.593	9965
508.665	7355
508.738	8798
508.810	7202
508.883	12175
508.955	12686
509.027	7588
509.100	7123
509.172	6033
509.244	6489
509.317	6338
509.389	7949
509.461	10493
509.534	16449
509.606	12971
509.678	18652
509.750	19024
509.822	7926
509.895	8287
509.967	6317
510.039	9277
510.111	10357
510.183	10070
510.255	8636
510.328	8352
510.400	9196
510.472	9751
510.544	15731
510.616	25521
510.688	10899
510.760	11006
510.832	16602
510.904	22412
510.976	7927
511.048	7221
511.120	9368
511.192	12787
511.264	8124
511.336	6658
511.408	7478
511.480	7092
511.552	6808
511.624	7656
511.695	7297
511.767	7974
511.839	10238
511.911	14264
511.983	10763
512.055	10562
512.126	10928
512.198	17174
512.270	16085
512.342	22680
512.414	17650
512.485	13724
512.557	13676
512.629	12310
512.700	8923
512.772	12263
512.844	9312
512.915	10045
512.987	13214
513.059	14005
513.130	22867
513.202	46147
513.273	23160
513.345	11303
513.416	10695
513.488	13216
513.560	22518
513.631	20477
513.703	28563
513.774	94644
513.845	47580
513.917	10993
513.988	11977
514.060	18686
514.131	22941
514.203	11911
514.274	9042
514.345	15454
514.417	14661
514.488	9829
514.560	13936
514.631	19046
514.702	15911
514.773	12878
514.845	10398
514.916	14629
514.987	12479
515.059	17669
515.130	9812
515.201	10659
515.272	10714
515.343	8889
515.414	9374
515.486	9755
515.557	10104
515.628	8461
515.699	11749
515.770	13381
515.841	12787
515.912	14688
515.983	18791
516.055	33248
516.126	39267
516.197	28066
516.268	31101
516.339	44097
516.410	66965
516.481	136905
516.552	583038
516.622	662736
516.693	77152
516.764	75399
516.835	66200
516.906	92296
516.977	181336
517.048	471684
517.119	1709958
517.190	447726
517.260	71481
517.331	26644
517.402	24205
517.473	19738
517.544	20303
517.614	24810
517.685	27106
517.756	35312
517.827	46550
517.897	65605
517.968	99946
518.039	151475
518.109	359534
518.180	1631152
518.250	1676246
518.321	131694
518.392	39801
518.462	30887
518.533	23808
518.603	23661
518.674	31917
518.745	48915
518.815	25408
518.886	22951
518.956	45550
519.027	74926
519.097	99166
519.168	61088
519.238	18143
519.309	29600
519.379	37559
519.449	19078
519.520	11657
519.590	10922
519.660	10860
519.731	14343
519.801	10732
519.871	8987
519.942	10174
520.012	11972
520.082	24719
520.153	11319
520.223	10435
520.293	19528
520.363	12108
520.434	24589
520.504	17364
520.574	10909
520.644	23020
520.714	41937
520.784	15986
520.855	41499
520.925	43502
520.995	9358
521.065	8252
521.135	7032
521.205	8721
521.275	9357
521.345	17911
521.415	20984
521.485	24888
521.555	15597
521.625	15347
521.695	8186
521.765	7592
521.835	9130
521.905	7828
521.975	8427
522.045	7159
522.115	10278
522.185	13008
522.254	19610
522.324	25542
522.394	21480
522.464	35924
522.534	135271
522.603	123074
522.673	15387
522.743	12448
522.813	19992
522.883	19564
522.952	14786
523.022	21124
523.092	58875
523.161	153580
523.231	25283
523.301	9668
523.370	11032
523.440	8177
523.509	6802
523.579	5834
523.649	7027
523.718	7696
523.788	6442
523.857	5779
523.927	6723
523.996	7521
524.066	9798
524.135	13125
524.205	6174
524.274	6118
524.344	5727
524.413	7382
524.483	5711
524.552	7937
524.621	6180
524.691	6949
524.760	5380
524.830	7066
524.899	12549
524.968	8809
525.038	7179
525.107	6463
525.176	6333
525.245	6263
525.315	6227
525.384	6947
525.453	5886
525.522	6266
525.591	5520
525.661	6631
525.730	6404
525.799	9115
525.868	12643
525.937	14519
526.006	38026
526.076	53083
526.145	28655
526.214	33339
526.283	45404
526.352	45235
526.421	93777
526.490	78518
526.559	55984
526.628	34237
526.697	56671
526.766	216535
526.835	383637
526.904	209435
526.973	25228
527.042	11538
527.110	11068
527.179	19274
527.248	8317
527.317	8902
527.386	6157
527.455	7596
527.523	5476
527.592	5961
527.661	4251
527.730	6574
527.799	7446
527.867	6133
527.936	10567
528.005	22505
528.074	24004
528.142	14487
528.211	40302
528.280	18012
528.348	7495
528.417	4931
528.485	5360
528.554	5230
528.623	4494
528.691	5589
528.760	4068
528.828	5103
528.897	3912
528.965	4410
529.034	4965
529.102	3667
529.171	4678
529.239	5545
529.308	4052
529.376	3599
529.445	7286
529.513	4918
529.581	6778
529.650	8003
529.718	6936
529.786	5191
529.855	5367
529.923	5762
529.992	7197
530.060	16260
530.128	14302
530.196	6520
530.265	4331
530.333	4200
530.401	5140
530.469	3193
530.537	4975
530.606	7714
530.674	4923
530.742	4817
530.810	4860
530.878	4530
530.946	5354
531.014	4015
531.083	5310
531.151	4726
531.219	3791
531.287	5338
531.355	3827
531.423	5667
531.491	7319
531.559	6968
531.627	4129
531.695	6108
531.763	5940
531.831	5117
531.898	6403
531.966	8119
532.034	8978
532.102	10535
532.170	17547
532.238	53151
532.306	70437
532.374	16246
532.441	15912
532.509	21448
532.577	50977
532.645	213223
532.712	133855
532.780	15383
532.848	9426
532.916	6189
532.983	5644
533.051	6244
533.119	8767
533.186	7402
533.254	5823
533.322	4929
533.389	5264
533.457	5446
533.524	6236
533.592	6419
533.659	6689
533.727	6562
533.794	13705
533.862	28364
533.930	26334
533.997	22338
534.064	4776
534.132	5752
534.199	5466
534.267	5257
534.334	5572
534.402	5589
534.469	5224
534.536	5051
534.604	6781
534.671	6961
534.738	13890
534.806	34251
534.873	11639
534.940	5468
535.008	5606
535.075	4706
535.142	5316
535.209	7187
535.276	4899
535.344	4320
535.411	3707
535.478	3844
535.545	5279
535.612	5797
535.679	5167
535.747	4316
535.814	5085
535.881	4610
535.948	5858
536.015	6298
536.082	7003
536.149	7494
536.216	9424
536.283	16265
536.350	25817
536.417	15425
536.484	15492
536.551	23390
536.618	31061
536.685	15934
536.752	18098
536.818	36881
536.885	42507
536.952	63410
537.019	146188
537.086	19777
537.153	6342
537.219	7594
537.286	5257
537.353	4986
537.420	4683
537.487	5598
537.553	6194
537.620	7701
537.687	5745
537.753	6085
537.820	7156
537.887	7396
537.953	7628
538.020	9978
538.087	14987
538.153	38129
538.220	43689
538.286	9487
538.353	5078
538.419	5943
538.486	4414
538.553	6363
538.619	4233
538.685	5565
538.752	6239
538.818	9431
538.885	6164
538.951	6520
539.018	8787
539.084	8591
539.150	16662
539.217	17912
539.283	6206
539.350	8012
539.416	11018
539.482	17577
539.549	60630
539.615	46920
539.681	9668
539.747	8973
539.814	8430
539.880	13275
539.946	11708
540.012	9902
540.078	10673
540.145	15870
540.211	32687
540.277	55955
540.343	30846
540.409	67048
540.475	59053
540.541	7212
540.607	6567
540.673	6112
540.740	8800
540.806	11833
540.872	14233
540.937	26012
541.004	14045
541.069	8021
541.135	7800
541.201	11172
541.267	14097
541.333	31488
541.399	36722
541.465	11043
541.531	4723
541.597	5937
541.663	4814
541.728	4517
541.794	5743
541.860	5986
541.926	6735
541.992	7953
542.057	8958
542.123	13724
542.189	25219
542.255	50891
542.320	25246
542.386	8061
542.452	7417
542.517	7347
542.583	7885
542.648	9408
542.714	15095
542.780	43461
542.845	83839
542.911	13077
542.976	5566
543.042	7580
543.107	7752
543.173	10479
543.238	15155
543.304	43825
543.369	19601
543.435	5469
543.500	4251
543.566	6598
543.631	3161
543.697	4504
543.762	3385
543.827	3763
543.893	3975
543.958	5452
544.023	4405
544.089	5946
544.154	5453
544.219	6945
544.284	11234
544.350	19263
544.415	16648
544.480	24866
544.545	75622
544.610	29268
544.676	5658
544.741	5146
544.806	5113
544.871	5759
544.936	5845
545.001	6272
545.066	6011
545.132	7312
545.197	7828
545.262	11773
545.327	20596
545.392	50918
545.457	43825
545.522	7084
545.587	5780
545.652	4575
545.717	4941
545.781	5083
545.846	5006
545.911	6143
545.976	7114
546.041	6361
546.106	11385
546.171	16967
546.236	11380
546.300	6332
546.365	4372
546.430	6720
546.495	7097
546.559	7488
546.624	4817
546.689	4385
546.754	4127
546.818	5431
546.883	5779
546.948	7131
547.012	5495
547.077	7581
547.142	7718
547.206	8024
547.271	10510
547.335	8143
547.400	8210
547.464	12254
547.529	14689
547.594	10320
547.658	8166
547.722	7148
547.787	6088
547.852	8139
547.916	8848
547.980	10331
548.045	9068
548.109	7839
548.174	7472
548.238	6867
548.302	5869
548.367	6017
548.431	6995
548.495	7041
548.560	7424
548.624	10210
548.688	11212
548.752	8244
548.817	6707
548.881	9935
548.945	6233
549.009	6551
549.073	7557
549.138	5928
549.202	8557
549.266	7154
549.330	6217
549.394	7730
549.458	7684
549.522	9036
549.586	13140
549.650	13278
549.715	9251
549.779	6778
549.843	7663
549.907	8807
549.971	11750
550.034	11464
550.098	7784
550.162	8289
550.226	8872
550.290	8814
550.354	8160
550.418	10057
550.482	10615
550.546	17680
550.609	10209
550.673	9278
550.737	9432
550.801	10150
550.865	10411
550.928	11234
550.992	12341
551.056	15817
551.120	22702
551.183	17429
551.247	13974
551.311	21737
551.374	13603
551.438	8690
551.502	8532
551.565	6816
551.629	8131
551.692	8549
551.756	7260
551.819	8972
551.883	7118
551.946	8101
552.010	8943
552.073	8514
552.137	8495
552.200	8390
552.264	8912
552.327	8297
552.391	10342
552.454	10999
552.517	12571
552.581	15175
552.644	25110
552.708	50436
552.771	35099
552.834	13887
552.897	11514
552.961	9856
553.024	8250
553.087	8448
553.151	8623
553.214	7352
553.277	8696
553.340	9232
553.403	11988
553.466	9933
553.530	8349
553.593	7816
553.656	7901
553.719	8177
553.782	7609
553.845	7576
553.908	6315
553.971	7880
554.034	7014
554.097	8480
554.160	9083
554.223	9158
554.286	7949
554.349	8730
554.412	7182
554.475	8401
554.538	8682
554.601	7931
554.664	7935
554.727	6546
554.789	7031
554.852	5992
554.915	4690
554.978	7939
555.041	7019
555.104	7393
555.166	7312
555.229	7912
555.292	7899
555.354	10088
555.417	6911
555.480	5882
555.542	4602
555.605	7063
555.668	7056
555.730	4744
555.793	6649
555.856	6921
555.918	6193
555.981	6924
556.043	5811
556.106	6813
556.168	7975
556.231	9286
556.293	6981
556.356	7493
556.418	11906
556.481	7956
556.543	7566
556.606	5700
556.668	8667
556.730	10455
556.793	15504
556.855	19718
556.918	8075
556.980	7763
557.042	9313
557.104	20135
557.167	31659
557.229	10162
557.291	4896
557.354	6726
557.416	6675
557.478	11657
557.540	6666
557.602	3332
557.664	4589
557.727	5235
557.789	5095
557.851	5052
557.913	6326
557.975	9497
558.037	19464
558.099	19138
558.161	6337
558.223	7404
558.285	8441
558.347	11116
558.409	15508
558.471	23635
558.533	52145
558.595	41782
558.657	39178
558.719	112958
558.781	98524
558.843	23470
558.905	23601
558.966	8982
559.028	8113
559.090	8966
559.152	13142
559.214	20846
559.275	52232
559.337	73333
559.399	13367
559.461	8925
559.522	10437
559.584	12395
559.646	21494
559.707	57278
559.769	30071
559.831	9163
559.892	9712
559.954	17915
560.015	25612
560.077	13974
560.139	26679
560.200	18789
560.262	4290
560.323	4347
560.385	4682
560.446	3942
560.508	3463
560.569	3262
560.631	4125
560.692	3600
560.753	3194
560.815	3230
560.876	3261
560.937	4559
560.999	5442
561.060	6840
561.122	5981
561.183	6516
561.244	9353
561.305	12961
561.367	24940
561.428	61783
561.489	28847
561.550	6052
561.612	4917
561.673	5155
561.734	4554
561.795	3769
561.856	4707
561.917	5139
561.978	3916
562.039	4712
562.101	4889
562.162	4906
562.223	6542
562.284	9494
562.345	12729
562.406	4788
562.467	4685
562.528	4035
562.589	3656
562.649	4903
562.710	4109
562.771	4199
562.832	3667
562.893	3859
562.954	4495
563.015	4005
563.076	3525
563.136	4241
563.197	3415
563.258	5018
563.319	4978
563.380	3288
563.440	5003
563.501	4389
563.562	4809
563.622	5400
563.683	5468
563.744	5481
563.804	3208
563.865	3529
563.926	3423
563.986	4849
564.047	4445
564.107	3116
564.168	4321
564.229	5681
564.289	7625
564.350	4825
564.410	3821
564.471	3641
564.531	3653
564.591	3904
564.652	3676
564.712	4486
564.773	3518
564.833	4254
564.893	4102
564.954	4814
565.014	3492
565.074	3491
565.135	4607
565.195	3502
565.255	4961
565.316	5180
565.376	4751
565.436	5736
565.496	4987
565.557	4779
565.617	6072
565.677	6029
565.737	11779
565.797	8041
565.857	4343
565.917	5534
565.978	5122
566.038	5816
566.098	8973
566.158	8473
566.218	3973
566.278	4375
566.338	3451
566.398	4048
566.458	4580
566.518	3885
566.578	4801
566.638	5164
566.698	4332
566.757	3736
566.817	3768
566.877	4323
566.937	4107
566.997	3919
567.057	3527
567.116	3914
567.176	3683
567.236	4986
567.296	4400
567.355	4928
567.415	5482
567.475	4568
567.535	4122
567.594	4865
567.654	4103
567.714	5636
567.773	5514
567.833	5255
567.892	5696
567.952	6073
568.012	7312
568.071	8904
568.131	13717
568.190	14398
568.250	10192
568.309	10234
568.369	9829
568.428	8072
568.488	9785
568.547	11664
568.607	12771
568.666	18542
568.725	24785
568.785	17909
568.844	13273
568.903	10298
568.963	7864
569.022	6989
569.081	6006
569.141	4955
569.200	4657
569.259	5468
569.318	4256
569.378	3861
569.437	3789
569.496	3445
569.555	3227
569.614	3858
569.673	3942
569.732	4427
569.792	3734
569.851	3620
569.910	3472
569.969	4048
570.028	5502
570.087	3923
570.146	3876
570.205	4636
570.264	5194
570.323	3699
570.382	4139
570.441	5540
570.500	4581
570.559	4163
570.618	3624
570.676	5071
570.735	5850
570.794	6944
570.853	5235
570.912	4190
570.971	5198
571.029	5041
571.088	3805
571.147	2597
571.206	3804
571.264	2735
571.323	2507
571.382	5360
571.440	2663
571.499	3279
571.558	2440
571.616	3818
571.675	3342
571.733	2519
571.792	3127
571.851	2215
571.909	3249
571.968	2381
572.026	2236
572.085	1989
572.143	2395
572.202	2687
572.260	1903
572.319	2261
572.377	2498
572.435	3572
572.494	3128
572.552	3699
572.611	4129
572.669	2937
572.727	2049
572.786	2099
572.844	2001
572.902	2724
572.960	1970
573.019	3256
573.077	3262
573.135	2416
573.193	1803
573.251	2839
573.310	2168
573.368	2293
573.426	2229
573.484	2810
573.542	2921
573.600	1975
573.658	2954
573.716	2456
573.774	2924
573.832	3126
573.891	2368
573.948	2138
574.006	2567
574.064	2591
574.122	1379
574.180	2116
574.238	2120
574.296	1418
574.354	2221
574.412	2767
574.470	1678
574.528	1614
574.585	1039
574.643	2333
574.701	2333
574.759	1793
574.817	2417
574.874	1329
574.932	1857
574.990	3074
575.047	2744
575.105	2503
575.163	3795
575.221	3771
575.278	1970
575.336	2656
575.393	1692
575.451	2390
575.509	1596
575.566	1740
575.624	2212
575.681	1894
575.739	1453
575.796	1238
575.854	1955
575.911	2274
575.969	2740
576.026	3401
576.083	4059
576.141	5117
576.198	5613
576.256	3082
576.313	1678
576.370	2319
576.428	3412
576.485	2166
576.542	2428
576.599	1830
576.657	1798
576.714	2149
576.771	2241
576.828	2315
576.886	1777
576.943	2363
577.000	1742
577.057	2461
577.114	3350
577.171	2520
577.228	1365
577.286	2923
577.343	3034
577.400	2864
577.457	2209
577.514	1836
577.571	2428
577.628	1273
577.685	1385
577.742	2919
577.799	2272
577.855	1799
577.912	2257
577.969	2214
578.026	2184
578.083	2752
578.140	2359
578.197	1795
578.254	2362
578.310	1991
578.367	2834
578.424	3533
578.481	1937
578.537	2110
578.594	2097
578.651	2286
578.707	2155
578.764	2161
578.821	1623
578.877	2133
578.934	2252
578.991	2226
579.047	3074
579.104	2449
579.160	1955
579.217	1339
579.273	1810
579.330	2460
579.387	1268
579.443	1372
579.499	1019
579.556	2523
579.612	2928
579.669	2390
579.725	2555
579.782	1207
579.838	1375
579.894	1398
579.951	1730
580.007	1647
580.063	1802
580.120	2083
580.176	1864
580.232	2150
580.288	2258
580.345	3058
580.401	1664
580.457	2016
580.513	2094
580.569	1526
580.619	1301
580.625	1277
580.682	1196
580.692	1287
580.738	1706
580.765	1868
580.794	2056
580.838	1646
580.850	1536
580.906	2646
580.911	2606
580.962	2309
580.984	1890
581.018	1231
581.057	1440
581.074	1551
581.130	2402
581.130	2412
581.186	1030
581.203	1499
581.242	2582
581.276	1812
581.298	1320
581.349	1405
581.354	1415
581.410	2178
581.422	2119
581.466	1919
581.494	2188
581.522	2475
581.567	2348
581.577	2317
581.633	1364
581.640	1419
581.689	1946
581.713	1744
581.745	1392
581.786	1791
581.801	1961
581.857	1117
581.859	1122
581.912	1326
581.932	1446
581.968	1714
582.004	1820
582.024	1820
582.077	1025
582.080	996
582.135	1802
582.150	1522
582.191	794
582.223	1246
582.247	1587
582.296	2055
582.302	2109
582.358	1717
582.368	1689
582.414	1793
582.441	1909
582.469	1861
582.514	1587
582.525	1572
582.581	2318
582.587	2321
582.636	2177
582.659	1915
582.692	1676
582.732	1684
582.747	1675
582.803	1690
582.805	1683
582.858	1623
582.877	1608
582.914	1523
582.950	1423
582.969	1407
583.023	1635
583.025	1650
583.080	2326
583.095	2058
583.135	1233
583.168	1575
583.191	1805
583.240	1844
583.246	1877
583.302	669
583.313	798
583.357	1118
583.385	1241
583.412	1396
583.458	1550
583.468	1560
583.523	1718
583.531	1672
583.578	1681
583.603	1725
583.634	1545
583.676	1635
583.689	1773
583.744	2078
583.748	2087
583.799	1875
583.820	1658
583.854	1387
583.893	1419
583.910	1457
583.965	2369
583.965	2363
584.020	1600
584.038	1584
584.075	1622
584.110	1070
584.130	849
584.183	1554
584.185	1573
584.240	1946
584.255	1856
584.296	1820
584.328	1820
584.351	1703
584.400	1101
584.406	1078
584.461	2135
584.472	2027
584.516	1345
584.545	1631
584.571	1972
584.617	2352
584.626	2422
584.681	1881
584.689	1850
584.736	1554
584.762	1574
584.791	1658
584.834	1862
584.846	1979
584.900	2499
584.906	2524
584.955	2098
584.978	2284
585.010	2796
585.051	2506
585.065	2435
585.120	1935
585.123	1985
585.175	2472
585.195	2349
585.230	2568
585.267	2800
585.284	2794
585.339	4011
585.340	4011
585.394	3840
585.412	4077
585.449	4886
585.484	5895
585.503	6425
585.556	8226
585.558	8322
585.613	15968
585.628	16516
585.667	18369
585.700	12290
585.722	9013
585.772	10095
585.777	9612
585.831	5278
585.845	4414
585.886	4292
585.917	3351
585.941	2912
585.989	2908
585.995	2945
586.050	3096
586.061	3167
586.104	3209
586.133	3346
586.159	3574
586.205	3028
586.213	2879
586.268	2885
586.277	2826
586.322	2755
586.349	2958
586.377	3083
586.421	2591
586.431	2505
586.486	3189
586.493	3368
586.540	4675
586.565	3939
586.595	3362
586.637	4459
586.649	4501
586.703	3122
586.709	3077
586.758	2780
586.781	2556
586.812	2462
586.853	2901
586.866	3048
586.921	2618
586.925	2646
586.975	3084
586.996	3014
587.029	2843
587.068	2891
587.083	2889
587.138	2878
587.140	2888
587.192	3179
587.212	3102
587.246	3122
587.284	3782
587.300	3971
587.355	3362
587.356	3365
587.409	3737
587.427	3931
587.463	4409
587.499	4531
587.517	4408
587.571	3883
587.571	3883
587.625	4881
587.643	5008
587.679	5076
587.715	5144
587.733	5212
587.786	5538
587.787	5535
587.841	5498
587.858	5578
587.895	6469
587.930	6905
587.949	7098
588.001	7828
588.003	7861
588.057	9359
588.073	9823
588.111	10752
588.145	11504
588.165	12223
588.217	14274
588.219	14352
588.273	17031
588.288	17765
588.327	20245
588.360	22904
588.381	24363
588.431	29233
588.435	29546
588.489	36832
588.503	39116
588.542	45777
588.575	53304
588.596	58019
588.646	74503
588.650	75645
588.704	99930
588.718	109310
588.757	137687
588.789	169429
588.811	196524
588.861	303212
588.865	314116
588.919	366564
588.932	350772
588.972	298443
589.004	309262
589.026	254537
589.075	160704
589.080	155095
589.133	89028
589.147	73332
589.187	65715
589.218	61998
589.241	63663
589.290	71458
589.294	72273
589.348	91153
589.361	98059
589.401	122071
589.433	162089
589.455	199338
589.504	249101
589.508	256139
589.562	244125
589.576	257249
589.615	196138
589.647	162710
589.669	126014
589.718	44704
589.722	43329
589.776	25879
589.790	21418
589.829	17444
589.861	14226
589.883	13395
589.932	12233
589.936	12074
589.989	9043
590.004	8418
590.043	8660
590.075	8773
590.096	8212
590.146	6917
590.149	6898
590.203	6471
590.218	6397
590.256	6248
590.289	5998
590.309	6041
590.360	6252
590.362	6231
590.416	5823
590.431	5720
590.469	5801
590.503	5824
590.522	5843
590.574	5833
590.575	5825
590.629	5437
590.645	5359
590.682	5183
590.716	5003
590.735	5007
590.787	4938
590.788	4939
590.841	4874
590.859	4898
590.894	5197
590.930	5365
590.947	5045
591.000	4179
591.001	4169
591.053	4501
591.072	4652
591.106	4485
591.143	4470
591.159	4737
591.212	5264
591.214	5288
591.265	5599
591.285	5686
591.318	5394
591.356	4910
591.371	4921
591.424	4988
591.427	4998
591.477	4907
591.498	4807
591.530	4717
591.569	4656
591.583	4692
591.636	4788
591.640	4793
591.689	4494
591.711	4357
591.741	4534
591.782	4751
591.794	4795
591.847	5014
591.853	5033
591.900	5264
591.924	5353
591.953	4981
591.995	4514
592.005	4580
592.058	4800
592.066	4845
592.111	4685
592.137	4583
592.164	4729
592.208	4919
592.216	4857
592.269	4480
592.279	4407
592.322	4945
592.350	5301
592.374	5067
592.421	4599
592.427	4646
592.479	5050
592.491	5140
592.532	5174
592.562	5182
592.585	5004
592.633	4574
592.704	4067
592.775	5063
592.846	5387
592.916	4959
592.987	4925
593.058	4885
593.128	4780
593.199	5786
593.270	4913
593.341	4676
593.411	4958
593.482	5117
593.553	5115
593.623	4319
593.694	4235
593.764	4164
593.835	4726
593.906	4361
593.976	4020
594.047	4493
594.117	4785
594.188	4692
594.258	4397
594.329	5570
594.399	5189
594.470	5410
594.540	4798
594.611	5096
594.681	4895
594.751	5197
594.822	4962
594.892	5498
594.963	5154
595.033	5700
595.103	4837
595.174	6337
595.244	6154
595.314	6951
595.384	5951
595.455	4908
595.525	5290
595.595	5365
595.665	5610
595.736	5988
595.806	5526
595.876	5739
595.946	5571
596.016	5717
596.087	5318
596.157	6341
596.227	5141
596.297	6049
596.367	6216
596.437	6397
596.507	7209
596.577	7392
596.647	6211
596.717	7615
596.787	6378
596.857	6548
596.927	7180
596.997	6382
597.067	6843
597.137	7198
597.207	5896
597.277	7168
597.347	6985
597.417	6577
597.487	6511
597.557	7243
597.626	6363
597.696	7786
597.766	6996
597.836	8083
597.906	6487
597.975	6188
598.045	5922
598.115	6228
598.185	5696
598.254	7592
598.324	7632
598.394	8659
598.464	8167
598.533	7616
598.603	7237
598.672	7460
598.742	7188
598.812	6569
598.881	7071
598.951	7541
599.020	6707
599.090	7620
599.159	8082
599.229	6847
599.299	6359
599.368	7174
599.437	7095
599.507	6366
599.576	6147
599.646	6203
599.715	6190
599.785	6586
599.854	6372
599.924	6181
599.993	6035
600.062	6174
600.132	6718
600.201	6513
600.270	7514
600.340	7992
600.409	6455
600.478	7501
600.547	6456
600.617	7671
600.686	5725
600.755	5040
600.824	5563
600.894	6064
600.963	5220
601.032	5879
601.101	4695
601.170	4844
601.239	4680
601.308	5439
601.378	4487
601.447	4809
601.516	4797
601.585	5772
601.654	5263
601.723	5710
601.792	4650
601.861	5494
601.930	6108
601.999	5591
602.068	5442
602.137	5768
602.206	6268
602.275	5146
602.343	5774
602.412	5639
602.481	5076
602.550	5590
602.619	4793
602.688	5804
602.756	5539
602.825	6238
602.894	5917
602.963	5181
603.032	6142
603.100	5509
603.169	6078
603.238	5795
603.307	6252
603.375	6207
603.444	5320
603.513	6327
603.581	6028
603.650	7014
603.719	5923
603.787	5704
603.856	5930
603.924	6623
603.993	5956
604.061	6312
604.130	7152
604.198	7374
604.267	7441
604.335	7491
604.404	6899
604.472	6934
604.541	7490
604.609	7626
604.678	6595
604.746	7293
604.815	6757
604.883	7603
604.951	7753
605.020	7147
605.088	7085
605.156	7396
605.225	7358
605.293	7470
605.361	7226
605.429	7630
605.498	8316
605.566	8768
605.634	8267
605.702	8348
605.771	8287
605.839	9491
605.907	9557
605.975	10165
606.043	8549
606.111	7863
606.180	8213
606.248	8547
606.316	8315
606.384	7614
606.452	8780
606.520	8432
606.588	8118
606.656	8413
606.724	7781
606.792	8203
606.860	7262
606.928	6366
606.996	6264
607.064	5972
607.132	5769
607.200	6328
607.267	6443
607.335	6880
607.403	6301
607.471	6958
607.539	5402
607.607	6482
607.674	5514
607.742	5324
607.810	5924
607.878	6341
607.946	6491
608.013	6357
608.081	5782
608.149	6675
608.216	5591
608.284	7003
608.352	6643
608.419	6241
608.487	7069
608.555	6114
608.622	6359
608.690	6432
608.757	7303
608.825	7919
608.893	7511
608.960	7341
609.028	7040
609.095	7863
609.163	6722
609.230	6232
609.298	5436
609.365	5753
609.432	6131
609.500	6979
609.567	7833
609.635	9494
609.702	8544
609.769	8573
609.837	7150
609.904	6132
609.971	4876
610.039	6777
610.106	8434
610.173	12949
610.241	22317
610.308	18372
610.375	8699
610.442	6258
610.509	5147
610.577	6600
610.644	5593
610.711	6036
610.778	5633
610.845	6157
610.912	6799
610.980	6679
611.047	6792
611.114	7381
611.181	6177
611.248	6950
611.315	8138
611.382	6340
611.449	6929
611.516	8425
611.583	8006
611.650	7007
611.717	8106
611.784	7918
611.851	6890
611.918	9141
611.984	9939
612.051	14595
612.118	23221
612.185	43325
612.252	37243
612.319	10806
612.386	8465
612.452	8940
612.519	8801
612.586	8540
612.653	8450
612.719	9358
612.786	8997
612.853	7647
612.919	7075
612.986	7763
613.053	6438
613.120	6388
613.186	5247
613.253	7678
613.319	6661
613.386	7201
613.453	6927
613.519	6947
613.586	7528
613.652	8318
613.719	7642
613.785	8641
613.852	6678
613.918	6635
613.985	7155
614.051	6951
614.118	7644
614.184	6819
614.250	6287
614.317	6591
614.383	6131
614.449	6664
614.516	6393
614.582	6613
614.648	6376
614.715	6248
614.781	6497
614.847	5938
614.914	6499
614.980	6376
615.046	6113
615.112	6493
615.179	5967
615.245	6929
615.311	5598
615.377	6817
615.443	6726
615.509	7141
615.575	6371
615.642	7178
615.708	5718
615.774	6929
615.840	8148
615.906	9505
615.972	10668
616.038	15808
616.104	27556
616.170	52545
616.236	53426
616.302	14360
616.368	9131
616.434	7775
616.500	7257
616.565	8390
616.631	9219
616.697	8132
616.763	8111
616.829	10686
616.895	15097
616.961	15069
617.026	8782
617.092	6618
617.158	6345
617.224	6348
617.289	5796
617.355	5971
617.421	4639
617.487	6374
617.552	5585
617.618	5135
617.684	4350
617.749	7428
617.815	5112
617.880	4821
617.946	5543
618.012	5423
618.077	3808
618.143	5363
618.208	5457
618.274	5707
618.339	5205
618.405	4460
618.470	4196
618.536	4993
618.601	4950
618.667	4456
618.732	4874
618.798	3800
618.863	3713
618.928	4068
618.994	3762
619.059	5296
619.124	5758
619.190	5851
619.255	3703
619.320	3867
619.386	4121
619.451	3483
619.516	3715
619.581	4088
619.647	3902
619.712	4189
619.777	3366
619.842	3571
619.907	3513
619.972	4098
620.038	3952
620.103	3804
620.168	3271
620.233	3502
620.298	2957
620.363	4278
620.428	3598
620.493	4361
620.558	3768
620.623	4181
620.688	4069
620.753	4185
620.818	3870
620.883	3378
620.948	4554
621.013	4099
621.078	3621
621.143	3186
621.207	4610
621.272	4683
621.337	3794
621.402	4684
621.467	4323
621.532	5097
621.596	3909
621.661	4546
621.726	3387
621.791	4261
621.855	4302
621.920	4344
621.985	3382
622.049	4175
622.114	4634
622.179	4393
622.243	4093
622.308	3755
622.373	4435
622.437	4927
622.502	3615
622.566	4734
622.631	2231
622.695	5378
622.760	4362
622.824	4444
622.889	3880
622.953	4571
623.018	5001
623.082	5745
623.147	3872
623.211	4460
623.276	4796
623.340	4355
623.404	3777
623.469	3341
623.533	3276
623.597	4107
623.662	3110
623.726	3639
623.790	2768
623.854	2844
623.919	3236
623.983	2705
624.047	2998
624.111	3375
624.176	2828
624.240	3123
624.304	3490
624.368	3507
624.432	3359
624.496	3665
624.560	3681
624.625	3333
624.689	4473
624.753	4101
624.817	3995
624.881	3599
624.945	2315
625.009	2698
625.073	3459
625.137	3135
625.201	3729
625.265	4116
625.329	3375
625.393	3839
625.456	2660
625.520	3453
625.584	3649
625.648	4077
625.712	4025
625.776	6665
625.839	6318
625.903	4705
625.967	2326
626.031	4550
626.095	5134
626.158	3362
626.222	1958
626.286	2400
626.349	1784
626.413	1887
626.477	1898
626.540	1840
626.604	979
626.668	2259
626.731	1526
626.795	1658
626.858	1832
626.922	1448
626.986	2466
627.049	1525
627.113	1748
627.176	2402
627.240	1765
627.303	1866
627.366	989
627.430	1606
627.493	819
627.557	1046
627.620	2586
627.684	2136
627.747	2078
627.810	977
627.874	1418
627.937	822
628.000	2974
628.064	2309
628.127	-38
628.190	1723
628.253	935
628.317	630
628.380	470
628.443	1069
628.506	820
628.569	1518
628.632	638
628.696	1514
628.759	803
628.822	403
628.885	687
628.948	1555
629.011	682
629.074	185
629.137	450
629.200	41
629.263	1820
629.326	772
629.389	731
629.452	1377
629.515	158
629.578	629
629.641	560
629.704	870
629.767	679
629.830	1256
629.892	638
629.955	654
630.018	1127
630.081	436
630.144	605
630.207	5
630.269	927
630.332	486
630.395	293
630.458	1078
630.520	341
630.583	1799
630.646	473
630.708	308
630.771	284
630.834	903
630.896	456
630.959	502
631.021	467
631.084	6
631.146	272
631.209	1448
631.272	-214
631.334	835
631.397	-447
631.459	262
631.522	107
631.584	516
631.646	623
631.709	963
631.771	376
631.834	481
631.896	641
631.958	674
632.021	1535
632.083	-119
632.145	131
632.208	-266
632.270	370
632.332	294
632.395	-66
632.457	1350
632.519	78
632.581	819
632.643	-174
632.706	1025
632.768	13
632.830	226
632.892	88
632.954	47
633.016	537
633.078	-78
633.141	56
633.203	612
633.265	300
633.327	1218
633.389	-54
633.451	822
633.513	329
633.575	469
633.637	-259
633.698	1253
633.760	172
633.822	-242
633.884	740
633.946	-379
634.008	-44
634.070	219
634.132	536
634.193	504
634.255	913
634.317	648
634.379	59
634.441	84
634.502	-677
634.564	545
634.626	-34
634.687	830
634.749	444
634.811	976
634.873	-55
634.934	579
634.996	363
635.057	338
635.119	-275
635.181	-485
635.242	119
635.304	-879
635.365	1480
635.427	401
635.488	-265
635.550	800
635.611	96
635.673	-652
635.734	503
635.796	53
635.857	947
635.918	232
635.980	686
636.041	47
636.102	121
636.164	780
636.225	451
636.286	-761
636.348	373
636.409	59
636.470	-200
636.531	248
636.593	-501
636.654	400
636.715	-239
636.776	-546
636.838	-880
636.899	596
636.960	-171
637.021	-567
637.082	-221
637.143	675
637.204	-243
637.265	-215
637.326	175
637.387	406
637.448	-985
637.509	92
637.570	-146
637.631	982
637.692	-111
637.753	-850
637.814	35
637.875	-189
637.936	490
637.997	-990
638.058	-141
638.119	-503
638.179	-318
638.240	-757
638.301	-765
638.362	-11
638.423	-933
638.483	1102
638.544	-1056
638.605	-138
638.666	-1560
638.726	-41
638.787	-134
638.848	-281
638.908	-502
638.969	-819
639.030	-67
639.090	60
639.151	-593
639.211	-246
639.272	300
639.332	965
639.393	272
639.453	-837
639.514	266
639.574	-1148
639.635	294
639.695	397
639.756	-1252
639.816	-759
639.877	-803
639.937	887
639.997	398
640.058	-577
640.118	-564
640.178	257
640.239	-335
640.299	-115
640.359	-600
640.420	-306
640.480	-966
640.540	-31
640.600	-1334
640.661	-670
640.721	-1282
640.781	709
640.841	-1479
640.901	84
640.961	153
641.021	147
641.082	-1040
641.142	-595
641.202	-158
641.262	-1209
641.322	3
641.382	-716
641.442	-481
641.502	-887
641.562	82
641.622	-1273
641.682	-433
641.742	-57
641.802	-1055
641.861	-263
641.921	-924
641.981	582
642.041	-239
642.101	-679
642.161	-981
642.221	-542
642.280	-914
642.340	-530
642.400	-1862
642.460	6
642.519	-377
642.579	-1083
642.639	44
642.698	-2408
642.758	464
642.818	-674
642.877	-1016
642.937	-558
642.997	-476
643.056	543
643.116	-1084
643.175	-120
643.235	-523
643.294	-1121
643.354	-1056
643.414	-485
643.473	-579
643.532	-771
643.592	-63
643.651	569
643.711	2274
643.770	5450
643.830	9615
643.889	21261
643.948	8248
644.008	591
644.067	-1551
644.126	-914
644.186	-584
644.245	194
644.304	-1734
644.363	101
644.423	-1374
644.482	-864
644.541	-1396
644.600	-1279
644.659	44
644.719	-1474
644.778	-282
644.837	-319
644.896	1146
644.955	4454
645.014	777
645.073	-941
645.132	-768
645.191	65
645.250	-1896
645.309	-124
645.368	-1324
645.427	144
645.486	-1763
645.545	95
645.604	-960
645.663	-9
645.722	-862
645.781	156
645.840	-1521
645.898	-61
645.957	86
646.016	150
646.075	1213
646.134	3413
646.192	8894
646.251	16040
646.310	3020
646.369	-573
646.427	20
646.486	-1360
646.545	-653
646.603	334
646.662	-641
646.721	-550
646.779	-1319
646.838	-1939
646.896	-1564
646.955	-542
647.014	-271
647.072	-124
647.131	984
647.189	801
647.248	-1322
647.306	21
647.365	-118
647.423	-1937
647.481	406
647.540	-1753
647.598	-807
647.657	-1109
647.715	-918
647.773	-1592
647.832	6
647.890	-1620
647.948	-1573
648.007	-365
648.065	-1811
648.123	-1304
648.181	-496
648.240	-1513
648.298	-1502
648.356	-624
648.414	-1092
648.472	-634
648.531	-502
648.589	-879
648.647	-965
648.705	-1027
648.763	-1839
648.821	-429
648.879	-1174
648.937	-1409
648.995	-905
649.053	-795
649.111	39
649.169	204
649.227	213
649.285	1945
649.343	7057
649.401	5495
649.459	601
649.516	1274
649.574	-1284
649.632	162
649.690	-1015
649.748	-140
649.806	-2044
649.863	119
649.921	1307
649.979	133
650.037	-596
650.094	-1730
650.152	-1189
650.210	-1122
650.268	66
650.325	-149
650.383	-1526
650.440	-1695
650.498	92
650.556	-438
650.613	-1165
650.671	-1072
650.728	-1128
650.786	-479
650.843	-485
650.901	-2013
650.958	-715
651.016	-276
651.073	-1314
651.131	-1192
651.188	-2091
651.246	-507
651.303	-1905
651.360	-749
651.418	-1806
651.475	-820
651.532	-2224
651.590	-910
651.647	-1174
651.704	-1879
651.762	-865
651.819	-370
651.876	-1514
651.933	-874
651.990	-804
652.048	-1910
652.105	-2365
652.162	-1221
652.219	-1088
652.276	-543
652.333	-375
652.390	-1653
652.448	-1525
652.505	-667
652.562	-1305
652.619	-986
652.676	-1713
652.733	-551
652.790	-991
652.847	-1726
652.904	-930
652.961	-2081
653.017	-1397
653.074	-802
653.131	-1537
653.188	-1939
653.245	-1738
653.302	-1164
653.359	-2359
653.415	-623
653.472	-874
653.529	-828
653.586	-1192
653.642	-1299
653.699	-798
653.756	-970
653.813	-1580
653.869	-573
653.926	-1518
653.983	-1068
654.039	-1253
654.096	-1211
654.152	-569
654.209	-1774
654.266	-845
654.322	-1874
654.379	-774
654.435	-940
654.492	-388
654.548	-823
654.605	-1524
654.661	381
654.717	-1604
654.774	-283
654.830	-298
654.887	-323
654.943	-1614
655.000	-1312
655.056	-917
655.112	-607
655.168	-1278
655.225	-1088
655.281	-1456
655.337	-1107
655.394	-1059
655.450	-1365
655.506	-612
655.562	-1307
655.618	-546
655.675	-1291
655.731	-862
655.787	-1621
655.843	-476
655.899	-1227
655.955	-837
656.011	-687
656.067	-2750
656.123	-1145
656.179	-1117
656.235	-29
656.291	-1746
656.347	-449
656.403	-1972
656.459	-1049
656.515	-1147
656.571	-1251
656.627	-1007
656.683	-657
656.739	-801
656.795	-912
656.850	-1165
656.906	-647
656.962	-783
657.018	-2457
657.074	-1403
657.129	-1403
657.185	-654
657.241	-1027
657.297	-2259
657.352	-688
657.408	-2270
657.464	-93
657.519	-1783
657.575	-2036
657.630	-1781
657.686	-539
657.742	-2336
657.797	-1445
657.853	-1444
657.908	436
657.964	-2056
658.019	-1167
658.075	-1114
658.130	-1102
658.186	-1913
658.241	-1350
658.297	-1998
658.352	-992
658.407	-1499
658.463	-1798
658.518	-1414
658.573	-1354
658.629	-1789
658.684	-1328
658.739	-1345
658.795	-1546
658.850	-1682
658.905	-1568
658.960	-944
659.016	-1666
659.071	-1617
659.126	-836
659.181	-1569
659.236	-349
659.291	-300
659.346	-1382
659.401	-1604
659.457	-578
659.512	-1556
659.567	-533
659.622	-1757
659.677	-1402
659.732	-2228
659.787	-1151
659.842	-1449
659.897	-1206
659.952	-1031
660.007	-1699
660.061	-1636
660.116	-2189
660.171	-2380
660.226	-1222
660.281	-261
660.336	-1756
660.391	-1463
660.445	-1908
660.500	-1306
660.555	-1675
660.610	-2437
660.664	-826
660.719	-2656
660.774	-1835
660.828	-1513
660.883	-360
660.938	-925
660.992	-1914
661.047	-997
661.101	-1474
661.156	-1508
661.211	-2150
661.265	-2340
661.320	-1758
661.374	-1295
661.429	-1978
661.483	-1080
661.538	-1718
661.592	-2353
661.647	-1955
661.701	-1608
661.755	-1330
661.810	-969
661.864	-2000
661.919	-2627
661.973	-846
662.027	-2081
662.081	-1804
662.136	-2138
662.190	-1663
662.244	-791
662.299	-1505
662.353	-1340
662.407	-1029
662.461	-1796
662.515	-1094
662.569	-2171
662.624	-734
662.678	-2396
662.732	-2179
662.786	-1671
662.840	-817
662.894	-1338
662.948	-1653
663.002	-1646
663.056	-1166
663.110	-1777
663.164	-2223
663.218	-1657
663.272	-1519
663.326	-2012
663.380	-1730
663.434	-1435
663.488	-1685
663.542	-1711
663.595	-1434
663.649	-2383
663.703	-414
663.757	-1724
663.811	-1980
663.864	-1446
663.918	-1386
663.972	-1973
664.026	-1279
664.079	-2147
664.133	-1740
664.187	-969
664.240	-1494
664.294	-2004
664.348	-1265
664.401	-2049
664.455	-512
664.508	-1763
664.562	-1397
664.615	-1250
664.669	-1989
664.722	-1691
664.776	-1559
664.829	-1652
664.883	-855
664.936	-2662
664.990	-1029
665.043	-1214
665.097	-1904
665.150	-1103
665.203	-2167
665.257	-2041
665.310	-1241
665.363	-1386
665.417	-1403
665.470	-1172
665.523	-1222
665.576	-1133
665.630	-1390
665.683	-1670
665.736	-1380
665.789	-1572
665.842	-1558
665.895	-1382
665.949	-1651
666.002	-1335
666.055	-1538
666.108	-1281
666.161	-1223
666.214	-447
666.267	-546
666.320	-1596
666.373	-835
666.426	-1711
666.479	-1602
666.532	-1771
666.585	-1502
666.638	-1229
666.691	-1918
666.744	-1194
666.796	-1430
666.849	-2244
666.902	-935
666.955	-2316
667.008	-1668
667.060	-1990
667.113	-2361
667.166	-1977
667.219	-308
667.271	-2208
667.324	-1172
667.377	-2301
667.430	-817
667.482	-1405
667.535	-1226
667.587	-1243
667.640	-1786
667.693	-1452
667.745	-1309
667.798	-925
667.850	-1275
667.903	-1554
667.955	-1507
668.008	-2052
668.060	-1161
668.113	-1620
668.165	-626
668.218	-1043
668.270	-583
668.322	-1355
668.375	-1608
668.427	-979
668.479	-1045
668.532	-1597
668.584	-1345
668.636	-1407
668.689	-1631
668.741	-1552
668.793	-1445
668.845	-1378
668.898	-702
668.950	-1923
669.002	-497
669.054	-2143
669.106	-2256
669.158	-1921
669.211	-1581
669.263	-1369
669.315	-860
669.367	-1942
669.419	-1303
669.471	-1117
669.523	-1347
669.575	-1052
669.627	-1632
669.679	-1629
669.731	-1506
669.783	-1480
669.835	-906
669.886	-1317
669.938	-1780
669.990	-1327
670.042	-1500
670.094	-1578
670.146	-769
670.197	-1375
670.249	-1363
670.301	-1566
670.353	-536
670.404	-1255
670.456	-537
670.508	115
670.560	3012
670.611	5109
670.663	8091
670.715	15101
670.766	28649
670.818	18074
670.869	108
670.921	-1036
670.972	-917
671.024	-1465
671.075	-1402
671.127	-1697
671.178	-1833
671.230	-1630
671.281	-954
671.333	-1999
671.384	-1451
671.436	-1921
671.487	-595
671.538	-2154
671.590	-1171
671.641	-997
671.692	-521
671.744	-1400
671.795	-126
671.846	-1823
671.897	-1628
671.949	-1603
672.000	-1959
672.051	-1949
672.102	-1139
672.153	-1767
672.204	-1130
672.256	-1548
672.307	-1440
672.358	-2128
672.409	-1083
672.460	-1668
672.511	-1457
672.562	-1805
672.613	-1286
672.664	-1737
672.715	-1230
672.766	-1670
672.817	-1537
672.868	-2273
672.919	-991
672.970	-2074
673.021	-630
673.071	-1935
673.122	-1238
673.173	-1359
673.224	-1036
673.275	-1588
673.326	-1351
673.376	-1729
673.427	-1587
673.478	-2022
673.528	-753
673.579	-1628
673.630	-933
673.680	-1856
673.731	-1600
673.782	-2016
673.832	-1281
673.883	-1954
673.934	-1732
673.984	-1857
674.035	-887
674.085	-2183
674.136	-1341
674.186	-1106
674.237	-1090
674.287	-2427
674.338	-1839
674.388	-2362
674.438	-2326
674.489	-1675
674.539	-1919
674.589	-2139
674.640	-1554
674.690	-1917
674.740	-1651
674.791	-1709
674.841	-1566
674.891	-1611
674.942	-2057
674.992	-2188
675.042	-1464
675.092	-1866
675.142	-1267
675.193	-2011
675.243	-2366
675.293	-1283
675.343	-2377
675.393	-1842
675.443	-1025
675.493	-1812
675.543	-2049
675.593	-2058
675.643	-1201
675.693	-1403
675.743	-1463
675.793	-1762
675.843	-1512
675.893	-1813
675.943	-1565
675.993	-1688
676.043	-1518
676.093	-844
676.142	-2277
676.192	-1361
676.242	-1703
676.292	-2633
676.341	-1564
676.391	-2108
676.441	-1706
676.491	-2016
676.540	-1550
676.590	-1795
676.640	-1521
676.689	-2827
676.739	-2047
676.789	-1720
676.838	-1653
676.888	-1255
676.937	-2313
676.987	-1762
677.037	-2027
677.086	-2190
677.136	-1299
677.185	-1657
677.235	-1621
677.284	-1383
677.333	-1959
677.383	-1922
677.432	-2073
677.482	-1697
677.531	-2035
677.580	-2584
677.630	-2144
677.679	-2623
677.728	-1637
677.778	-1777
677.827	-1388
677.876	-2109
677.925	-1656
677.975	-1970
678.024	-1161
678.073	-2069
678.122	-1308
678.171	-2421
678.220	-1773
678.269	-2416
678.319	-1441
678.368	-1528
678.417	-1690
678.466	-1505
678.515	-1420
678.564	-2478
678.613	-1439
678.662	-2615
678.711	-1661
678.760	-2162
678.809	-1787
678.857	-1399
678.906	-2365
678.955	-2532
679.004	-1203
679.053	-1656
679.102	-1918
679.151	-1807
679.199	-1780
679.248	-2074
679.297	-1246
679.346	-1852
679.394	-1446
679.443	-1537
679.492	-1958
679.540	-1748
679.589	-1870
679.638	-2136
679.686	-1668
679.735	-1743
679.784	-1623
679.832	-2445
679.881	-1610
679.929	-2406
679.978	-1977
680.026	-2517
680.075	-2110
680.123	-2597
680.172	-1844
680.220	-2348
680.268	-1318
680.317	-2084
680.365	-1569
680.414	-1550
680.462	-1660
680.510	-1803
680.559	-1684
680.607	-1828
680.655	-1623
680.703	-1968
680.752	-1486
680.800	-1885
680.848	-1679
680.896	-1587
680.945	-1329
680.993	-2313
681.041	-1898
681.089	-1873
681.137	-1450
681.185	-2338
681.233	-1689
681.281	-2106
681.308	-1701
681.329	-1397
681.377	-2640
681.425	-1696
681.430	-1568
681.473	-578
681.521	-1409
681.552	-1622
681.569	-1772
681.617	-1575
681.665	-1575
681.674	-1408
681.713	-790
681.761	-1841
681.796	-1597
681.809	-1527
681.857	-740
681.904	-811
681.918	-784
681.952	-793
682.000	-1189
682.039	-1271
682.048	-1309
682.096	-1703
682.143	-844
682.161	-668
682.191	-423
682.239	-423
682.283	-583
682.286	-614
682.334	-1055
682.382	-528
682.405	-623
682.430	-764
682.477	-934
682.525	-773
682.527	-756
682.572	-690
682.620	-727
682.648	-487
682.667	-367
682.715	-840
682.763	324
682.770	233
682.810	-290
682.857	59
682.892	-114
682.905	-207
682.952	-45
683.000	-359
683.014	-332
683.047	-309
683.095	165
683.135	-307
683.142	-398
683.190	-5
683.237	582
683.257	480
683.284	340
683.332	732
683.379	-305
683.379	-293
683.426	112
683.473	-380
683.501	98
683.521	458
683.568	89
683.615	645
683.622	574
683.662	115
683.709	-168
683.744	163
683.757	270
683.804	832
683.851	182
683.865	398
683.898	881
683.945	655
683.987	637
683.992	628
684.039	1024
684.086	754
684.109	744
684.133	718
684.180	552
684.227	615
684.230	633
684.274	779
684.321	835
684.352	996
684.368	1075
684.415	1330
684.462	1368
684.473	1282
684.509	970
684.556	1625
684.595	1088
684.603	990
684.649	1225
684.696	585
684.716	979
684.743	1489
684.790	1360
684.837	960
684.838	970
684.883	1263
684.930	1539
684.959	1273
684.977	1218
685.023	1645
685.070	2016
685.081	2045
685.117	1831
685.164	1761
685.202	1832
685.210	1912
685.257	1982
685.303	2955
685.324	2817
685.350	2506
685.396	2436
685.443	1792
685.445	1801
685.490	2242
685.536	2691
685.566	2659
685.583	2595
685.629	2198
685.675	2282
685.688	2517
685.722	3275
685.768	2990
685.809	2642
685.815	2584
685.861	2384
685.908	2860
685.930	2734
685.954	2680
686.000	2334
686.047	2624
686.052	2612
686.093	2749
686.139	3014
686.173	2892
686.185	2808
686.232	3154
686.278	3318
686.294	3201
686.324	2858
686.370	2884
686.416	3216
686.416	3237
686.463	2626
686.509	2675
686.537	3057
686.555	3320
686.601	2927
686.647	2730
686.658	2737
686.693	2795
686.739	2946
686.779	3433
686.785	3505
686.831	3149
686.877	2696
686.900	2705
686.923	2835
686.969	3689
687.015	3035
687.022	3049
687.061	3070
687.107	2929
687.143	2733
687.153	2743
687.199	3441
687.245	3270
687.264	3177
687.291	2988
687.336	3432
687.382	3210
687.385	3180
687.428	3244
687.474	3775
687.506	4132
687.520	4171
687.565	3559
687.611	3344
687.627	3287
687.657	3471
687.702	3674
687.748	3210
687.748	3193
687.794	3561
687.839	3628
687.869	3667
687.885	3678
687.931	3411
687.976	3539
687.990	3515
688.022	3589
688.067	3799
688.111	3941
688.113	3967
688.158	3786
688.204	3658
688.233	4332
688.249	4772
688.295	3885
688.340	4303
688.354	4194
688.386	4008
688.431	4382
688.474	4008
688.477	4005
688.522	4531
688.567	4098
688.595	3994
688.613	4066
688.658	3819
688.703	3921
688.716	4138
688.749	4593
688.794	3963
688.837	3709
688.839	3736
688.884	4132
688.930	4287
688.958	4586
688.975	4685
689.020	4043
689.065	4308
689.079	3999
689.110	3590
689.155	4496
689.200	4265
689.201	4287
689.246	4385
689.291	4338
689.321	4472
689.336	4638
689.381	3865
689.426	4849
689.442	4662
689.471	4301
689.516	4388
689.561	4472
689.562	4448
689.606	4545
689.651	3933
689.683	3991
689.696	4063
689.741	3945
689.785	4057
689.804	4008
689.830	4154
689.875	4483
689.920	4485
689.925	4518
689.965	4595
690.010	3800
690.046	3733
690.054	3840
690.099	4150
690.144	4436
690.166	4323
690.189	4165
690.233	4536
690.278	4065
690.287	4060
690.323	4334
690.367	4846
690.408	4764
690.412	4781
690.457	4633
690.501	5006
690.528	4865
690.546	4835
690.590	4790
690.635	5159
690.649	5147
690.680	5176
690.724	4819
690.769	5496
690.770	5459
690.813	5212
690.857	4784
690.890	5018
690.902	5151
690.946	5031
690.991	4708
691.011	4678
691.035	5079
691.080	5587
691.124	6252
691.132	6334
691.168	6433
691.213	5980
691.252	6653
691.257	6768
691.301	6172
691.346	5910
691.373	5925
691.390	5924
691.434	5455
691.478	5336
691.493	5201
691.522	5310
691.567	5603
691.611	5652
691.614	5599
691.655	5407
691.699	5593
691.734	5885
691.743	5960
691.787	5675
691.831	5882
691.855	5592
691.875	5497
691.919	5649
691.964	5617
691.975	5621
692.008	5832
692.052	6141
692.096	6108
692.096	6068
692.139	6504
692.183	6394
692.216	6120
692.227	6122
692.271	6456
692.315	6443
692.337	6603
692.359	6632
692.403	6412
692.447	6112
692.457	5975
692.490	5940
692.534	6066
692.577	5899
692.578	5940
692.622	6133
692.666	6203
692.698	6137
692.709	6187
692.753	6486
692.797	6323
692.818	6238
692.840	6126
692.884	6349
692.928	6066
692.938	6041
692.971	6253
693.015	6145
693.059	6238
693.059	6196
693.102	6034
693.146	5974
693.179	5850
693.189	5938
693.233	6163
693.276	6546
693.299	6521
693.320	6394
693.363	6191
693.407	5929
693.420	5799
693.450	5834
693.493	6097
693.537	6102
693.540	6077
693.580	6623
693.624	6861
693.660	7072
693.667	7122
693.710	7251
693.753	7497
693.780	7326
693.797	7581
693.840	8560
693.883	9374
693.901	9584
693.926	9548
693.970	9534
694.013	9623
694.021	9544
694.056	8564
694.099	7476
694.141	5961
694.142	6005
694.185	6455
694.229	6596
694.261	6858
694.272	6943
694.315	6834
694.358	6713
694.381	6681
694.401	6880
694.444	7266
694.487	7647
694.501	7678
694.530	7730
694.573	7470
694.616	7825
694.621	7753
694.659	7143
694.702	6690
694.741	6233
694.745	6290
694.787	6332
694.830	6335
694.862	6429
694.873	6491
694.916	6262
694.959	6282
694.982	6195
695.002	6235
695.044	6094
695.087	6405
695.102	6331
695.130	6374
695.172	6532
695.215	6638
695.222	6592
695.258	6707
695.301	6979
695.342	7056
695.343	7114
695.386	7404
695.428	7611
695.462	7727
695.471	7692
695.514	7207
695.556	7038
695.582	6667
695.599	6825
695.641	7252
695.684	7664
695.701	7840
695.726	7794
695.769	7394
695.811	7148
695.821	7021
695.854	7096
695.896	7196
695.938	7213
695.941	7163
695.981	7122
696.023	7084
696.061	6875
696.065	6897
696.108	6670
696.150	6557
696.181	6352
696.192	6483
696.235	6855
696.277	7233
696.301	7418
696.319	7506
696.361	7338
696.404	7366
696.421	7321
696.446	7369
696.488	7363
696.530	7304
696.541	7237
696.572	7453
696.614	7713
696.656	7996
696.660	7957
696.698	7580
696.740	7247
696.780	6751
696.783	6814
696.825	7073
696.867	7347
696.900	7511
696.909	7598
696.951	7767
696.992	7893
697.020	7896
697.034	7861
697.076	7747
697.118	7450
697.139	7337
697.160	7474
697.202	7531
697.244	7595
697.259	7560
697.286	7583
697.327	7608
697.369	7540
697.379	7481
697.411	7335
697.453	7086
697.494	6722
697.499	6645
697.536	7209
697.578	7847
697.618	8210
697.620	8261
697.661	8063
697.703	7812
697.738	7598
697.744	7650
697.786	7535
697.828	7551
697.858	7402
697.869	7654
697.911	8484
697.952	9174
697.977	9598
697.994	9336
698.035	8446
698.077	7541
698.097	7063
698.118	7116
698.160	7173
698.201	7109
698.216	7059
698.243	7268
698.284	7502
698.325	7751
698.336	7758
698.367	7677
698.408	7475
698.449	7259
698.455	7181
698.491	7221
698.532	7171
698.573	7113
698.575	7058
698.614	7450
698.656	7782
698.694	8038
698.697	8091
698.738	7987
698.779	7840
698.814	7682
698.820	7752
698.862	7848
698.903	7942
698.933	7959
698.944	8093
698.985	8416
699.026	8740
699.053	8899
699.067	8801
699.172	7603
699.292	7998
699.411	8083
699.530	7446
699.650	8515
699.769	9092
699.889	7668
700.008	8614
700.127	7798
700.246	7541
700.366	7503
700.485	7855
700.604	8087
700.723	8368
700.843	7507
700.962	7546
701.081	7439
701.200	8315
701.319	7402
701.438	7581
701.557	7291
701.676	8604
701.796	6757
701.915	7206
702.034	6748
702.153	6529
702.272	7903
702.391	7565
702.509	7102
702.628	6943
702.747	7670
702.866	6629
702.985	6779
703.104	6655
703.223	6368
703.342	6457
703.460	6560
703.579	7275
703.698	7091
703.817	7124
703.935	10276
704.054	7652
704.173	6726
704.292	6066
704.410	6168
704.529	6069
704.648	6258
704.766	6142
704.885	5917
705.003	6201
705.122	6409
705.240	5658
705.359	6979
705.477	11159
705.596	10110
705.714	9209
705.833	7593
705.951	8846
706.070	10107
706.188	8653
706.307	8340
706.425	8758
706.543	9323
706.662	8525
706.780	8486
706.898	10286
707.016	9884
707.135	9299
707.253	7960
707.371	8288
707.489	8198
707.608	7919
707.726	7249
707.844	7489
707.962	7510
708.080	6902
708.198	6672
708.316	7576
708.434	7892
708.552	7626
708.670	7456
708.788	11084
708.906	11750
709.024	10885
709.142	9958
709.260	9225
709.378	9410
709.496	9457
709.614	9071
709.732	9441
709.850	9428
709.968	8460
710.085	8061
710.203	9963
710.321	9013
710.439	9381
710.556	8481
710.674	8807
710.792	8061
710.910	9482
711.027	9678
711.145	8172
711.263	8658
711.380	8570
711.498	9044
711.615	8095
711.733	7822
711.851	8033
711.968	8113
712.086	7887
712.203	8242
712.321	8181
712.438	8069
712.555	11745
712.673	14864
712.790	11031
712.908	9503
713.025	10332
713.142	14148
713.260	11686
713.377	11030
713.494	10527
713.612	11517
713.729	11041
713.846	11116
713.963	12266
714.081	11380
714.198	10089
714.315	11122
714.432	11657
714.549	14416
714.666	21561
714.783	79337
714.901	188278
715.018	22628
715.135	10755
715.252	9211
715.369	9608
715.486	8886
715.603	8456
715.720	8711
715.837	9197
715.953	9642
716.070	9133
716.187	9365
716.304	8473
716.421	9993
716.538	11533
716.655	9309
716.771	8769
716.888	8750
717.005	8723
717.122	7661
717.238	8197
717.355	7894
717.472	8426
717.589	7971
717.705	8066
717.822	8057
717.938	6906
718.055	7867
718.172	7713
718.288	6943
718.405	7513
718.521	7254
718.638	8978
718.754	13012
718.871	13083
718.987	9600
719.104	9098
719.220	6946
719.336	6892
719.453	6553
719.569	7596
719.685	6254
719.802	8843
719.918	8491
720.034	10567
720.151	21340
720.267	76318
720.383	25557
720.499	8455
720.616	7971
720.732	10922
720.848	14001
720.964	24772
721.080	17595
721.196	7763
721.312	6587
721.428	7023
721.544	7612
721.660	10012
721.776	7569
721.892	6320
722.008	5719
722.124	6352
722.240	6222
722.356	6608
722.472	7077
722.588	5921
722.704	6015
722.820	5007
722.936	5054
723.051	5251
723.167	5633
723.283	5451
723.399	4864
723.515	5231
723.630	4955
723.746	4894
723.862	4835
723.977	5680
724.093	5901
724.209	5441
724.324	5628
724.440	8930
724.555	16301
724.671	5867
724.786	4990
724.902	4731
725.017	5367
725.133	7603
725.248	15241
725.364	5900
725.479	5055
725.595	4402
725.710	4644
725.826	4011
725.941	3907
726.056	4156
726.172	4532
726.287	4174
726.402	4538
726.517	3877
726.633	4479
726.748	4536
726.863	3150
726.978	3743
727.093	3740
727.208	4459
727.324	3960
727.439	5174
727.554	3898
727.669	3317
727.784	3892
727.899	4581
728.014	3140
728.129	4943
728.244	4304
728.359	3768
728.474	3927
728.589	3990
728.704	4041
728.819	4363
728.934	4478
729.049	3361
729.163	3211
729.278	3908
729.393	4553
729.508	4432
729.622	3858
729.737	3127
729.852	4071
729.967	3958
730.081	3475
730.196	3585
730.311	3702
730.425	3971
730.540	3459
730.655	3613
730.769	3503
730.884	3888
730.998	3536
731.113	2776
731.227	3351
731.342	2860
731.456	2998
731.571	4076
731.685	3470
731.800	4886
731.914	5410
732.028	3879
732.143	3378
732.257	4304
732.371	4767
732.486	8784
732.600	25840
732.714	38496
732.829	6474
732.943	3984
733.057	2714
733.171	3859
733.285	3870
733.399	3133
733.514	2571
733.628	3121
733.742	3185
733.856	3314
733.970	3054
734.084	2693
734.198	2758
734.312	3618
734.426	4370
734.540	8209
734.654	3164
734.768	3040
734.882	2610
734.996	2918
735.109	2742
735.223	4199
735.337	3876
735.451	3188
735.565	2568
735.679	2959
735.792	6294
735.906	6209
736.020	2610
736.134	3371
736.247	2402
736.361	3391
736.475	6189
736.588	2872
736.702	3052
736.815	2430
736.929	2997
737.043	2545
737.156	2946
737.270	2230
737.383	3087
737.497	1718
737.610	2940
737.723	2853
737.837	2366
737.950	2946
738.064	2011
738.177	2633
738.290	2022
738.404	2541
738.517	2423
738.630	2793
738.744	2989
738.857	3019
738.970	3498
739.083	3766
739.197	2163
739.310	2531
739.423	2265
739.536	2007
739.649	1622
739.762	2621
739.875	2646
739.988	2754
740.102	2478
740.215	1458
740.328	2528
740.441	1762
740.553	2172
740.667	2465
740.779	2000
740.892	2650
741.005	1788
741.118	3127
741.231	3574
741.344	2450
741.457	1823
741.569	2891
741.682	2326
741.795	2445
741.908	2009
742.020	2368
742.133	1167
742.246	2180
742.358	2407
742.471	2486
742.584	2259
742.696	2278
742.809	1722
742.922	2376
743.034	2426
743.147	2213
743.259	1482
743.372	1838
743.484	1971
743.597	2483
743.709	1378
743.822	1816
743.934	1276
744.046	2189
744.159	2976
744.271	2848
744.383	2210
744.496	2834
744.608	4836
744.720	2917
744.832	1431
744.945	2079
745.057	1531
745.169	1341
745.281	1878
745.393	1497
745.506	1174
745.618	1709
745.730	1270
745.842	1044
745.954	1262
746.066	1569
746.178	978
746.290	1831
746.402	1567
746.514	1899
746.626	1636
746.738	1794
746.850	2575
746.962	2350
747.074	2146
747.185	1933
747.297	1097
747.409	1655
747.521	1172
747.633	1632
747.744	1527
747.856	2216
747.968	1149
748.080	977
748.191	825
748.303	2136
748.414	1005
748.526	1353
748.638	1140
748.749	1459
748.861	2020
748.972	2257
749.084	1655
749.195	1703
749.307	1940
749.418	2638
749.530	5156
749.641	4126
749.753	2139
749.864	1753
749.975	977
750.087	1153
750.198	1002
750.310	916
750.421	333
750.532	1198
750.643	359
750.755	1649
750.866	2038
750.977	1840
751.088	3826
751.199	8048
751.310	737
751.422	2097
751.533	756
751.644	951
751.755	835
751.866	1799
751.977	895
752.088	924
752.199	739
752.310	1037
752.421	897
752.532	612
752.643	1321
752.753	747
752.864	548
752.975	380
753.086	327
753.197	1940
753.308	314
753.418	1199
753.529	1011
753.640	1510
753.751	717
753.861	2037
753.972	970
754.083	1558
754.193	792
754.304	1265
754.415	422
754.525	939
754.636	1144
754.746	958
754.857	537
754.967	1555
755.078	434
755.188	382
755.299	1538
755.409	1035
755.520	888
755.630	1236
755.740	1238
755.851	1536
755.961	353
756.071	930
756.182	916
756.292	1512
756.402	242
756.512	575
756.623	1167
756.733	1495
756.843	616
756.953	1221
757.063	1055
757.173	738
757.283	912
757.393	927
757.504	636
757.614	799
757.724	-439
757.834	729
757.944	1166
758.053	1760
758.164	773
758.273	1780
758.383	899
758.493	1832
758.603	1826
758.713	2363
758.823	712
758.932	1055
759.042	1465
759.152	933
759.262	-99
759.372	444
759.481	384
759.591	1142
759.701	905
759.810	1528
759.920	412
760.029	945
760.139	1118
760.249	1511
760.358	1347
760.468	761
760.577	648
760.687	1244
760.796	1115
760.906	1155
761.015	1428
761.124	1598
761.234	976
761.343	1043
761.453	1746
761.562	1551
761.671	810
761.781	1845
761.890	1309
761.999	1579
762.108	1395
762.218	1370
762.327	700
762.436	1346
762.545	1300
762.654	757
762.763	1606
762.872	1359
762.982	1095
763.091	607
763.200	1566
763.309	1031
763.418	1188
763.527	695
763.635	1311
763.744	2119
763.853	1070
763.962	1817
764.071	1409
764.180	1431
764.289	952
764.398	1265
764.506	956
764.615	1313
764.724	1417
764.833	2079
764.941	246
765.050	1827
765.159	1514
765.268	1729
765.376	2482
765.485	3127
765.593	3451
765.702	3306
765.810	3751
765.919	6877
766.028	10530
766.136	17631
766.245	35925
766.353	91672
766.461	318588
766.570	529133
766.678	135281
766.787	32798
766.895	16137
767.003	11341
767.112	7964
767.220	5459
767.328	5615
767.437	4002
767.545	2883
767.653	3615
767.761	2803
767.870	2703
767.978	3138
768.086	2130
768.194	1464
768.302	2534
768.410	3350
768.518	2378
768.626	1914
768.734	3014
768.842	1751
768.950	2298
769.058	1707
769.166	2594
769.274	3464
769.382	5028
769.490	7530
769.598	15126
769.706	33122
769.813	109386
769.921	373190
770.029	233780
770.137	31909
770.245	12706
770.352	8113
770.460	6601
770.568	4763
770.675	4262
770.783	2460
770.891	2862
770.998	2938
771.106	2640
771.213	2535
771.321	1680
771.428	2005
771.536	1869
771.643	1626
771.751	2027
771.858	1972
771.966	2132
772.073	1522
772.181	1600
772.288	1728
772.395	1814
772.503	1393
772.610	1790
772.717	959
772.825	1728
772.932	1355
773.039	1491
773.146	1731
773.253	1521
773.361	842
773.468	1136
773.575	999
773.682	1620
773.789	1129
773.896	1884
774.003	304
774.110	1380
774.217	1231
774.324	1852
774.431	1527
774.538	1372
774.645	1246
774.752	1124
774.859	2223
774.966	2002
775.073	2085
775.179	1429
775.286	1069
775.393	1844
775.500	637
775.607	1494
775.713	1159
775.820	753
775.927	1364
776.033	1340
776.140	1245
776.247	1519
776.353	860
776.460	1719
776.566	1355
776.673	1278
776.779	185
776.886	435
776.992	1148
777.099	1459
777.205	2353
777.312	1740
777.418	2555
777.524	2562
777.631	1535
777.737	1085
777.843	676
777.950	2131
778.056	1891
778.162	2744
778.268	866
778.375	1459
778.481	346
778.587	1243
778.693	794
778.799	420
778.906	1116
779.012	1240
779.118	728
779.224	492
779.330	1102
779.436	704
779.542	160
779.648	1914
779.754	466
779.860	2877
779.966	3823
780.071	12584
780.177	4276
780.283	810
780.389	330
780.495	1314
780.601	507
780.706	1126
780.812	288
780.918	643
781.024	515
781.129	854
781.235	227
781.341	852
781.446	804
781.552	1062
781.657	1124
781.763	156
781.869	1204
781.974	1122
782.080	548
782.185	759
782.291	-235
782.396	850
782.501	355
782.607	795
782.712	258
782.818	844
782.923	377
783.028	1184
783.134	1100
783.239	2998
783.344	2317
783.449	658
783.555	384
783.660	1517
783.765	560
783.870	719
783.975	350
784.080	668
784.185	286
784.291	1032
784.396	350
784.501	1395
784.606	807
784.711	754
784.816	146
784.921	386
785.026	998
785.130	543
785.235	910
785.340	432
785.445	-228
785.550	727
785.655	119
785.760	1078
785.864	46
785.969	410
786.074	222
786.178	95
786.283	589
786.388	-120
786.492	727
786.597	442
786.702	-124
786.806	277
786.911	887
787.015	268
787.120	87
787.224	923
787.329	310
787.433	589
787.538	-124
787.642	-16
787.747	-49
787.851	161
787.955	-621
788.060	1030
788.164	167
788.268	805
788.372	-120
788.477	173
788.581	373
788.685	232
788.789	-26
788.894	677
788.998	-10
789.102	60
789.206	71
789.310	-544
789.414	576
789.518	-794
789.622	340
789.726	676
789.830	761
789.934	-134
790.038	1002
790.142	353
790.246	141
790.350	939
790.454	-42
790.557	324
790.661	570
790.765	1016
790.869	-592
790.973	-4
791.076	1111
791.180	914
791.284	86
791.388	926
791.491	50
791.595	-164
791.698	-458
791.802	685
791.906	232
792.009	512
792.113	-51
792.216	862
792.320	184
792.423	520
792.527	397
792.630	1035
792.733	-113
792.837	-215
792.940	197
793.043	654
793.147	-686
793.250	238
793.353	437
793.457	-496
793.560	754
793.663	755
793.766	2440
793.869	1804
793.973	448
794.076	-605
794.179	330
794.282	594
794.385	78
794.488	1784
794.591	1074
794.694	3287
794.797	5053
794.900	2465
795.003	743
795.106	92
795.209	212
795.312	-215
795.415	443
795.517	-87
795.620	-65
795.723	-352
795.826	82
795.929	-446
796.031	584
796.134	560
796.237	-299
796.339	1039
796.442	-368
796.545	146
796.647	-81
796.750	366
796.852	-478
796.955	-901
797.057	85
797.160	571
797.262	-882
797.365	583
797.467	-539
797.570	-20
797.672	131
797.775	397
797.877	994
797.979	2113
798.082	-627
798.184	-619
798.286	-52
798.388	-508
798.491	-171
798.593	-553
798.695	-1206
798.797	1097
798.899	-486
799.001	-186
799.104	-810
799.206	-488
799.308	-43
799.410	333
799.512	-497
799.614	144
799.716	1052
799.818	1510
799.920	292
800.021	1746
800.123	-610
800.225	-134
800.327	-792
800.429	-469
800.531	-159
800.633	327
800.734	-180
800.836	153
800.938	-508
801.039	42
801.141	-821
801.243	-1398
801.344	-621
801.446	-280
801.548	-639
801.649	-689
801.751	-555
801.852	-83
801.954	-343
802.055	445
802.157	-696
802.258	-270
802.360	-998
802.461	376
802.563	-492
802.664	-687
802.765	-539
802.867	165
802.968	-1577
803.069	418
803.170	-585
803.272	-558
803.373	168
803.474	-1076
803.575	-269
803.676	-467
803.777	-107
803.879	112
803.980	-519
804.081	-570
804.182	-454
804.283	-526
804.384	-695
804.485	-723
804.586	-87
804.687	1226
804.788	-770
804.888	-813
804.989	-841
805.090	111
805.191	-1048
805.292	833
805.393	-1062
805.493	-313
805.594	-1306
805.695	-1047
805.796	-337
805.896	-657
805.997	-833
806.098	-561
806.198	82
806.299	-483
806.399	-1080
806.500	-155
806.601	-229
806.701	-117
806.802	-631
806.902	407
807.002	-383
807.103	-756
807.203	-541
807.304	-331
807.404	-927
807.504	-412
807.605	-2079
807.705	503
807.805	287
807.906	-331
808.006	-1376
808.106	-343
808.206	-1088
808.306	-14
808.406	-163
808.507	-94
808.607	-445
808.707	-313
808.807	-214
808.907	-277
809.007	-414
809.107	-312
809.207	-1288
809.307	527
809.407	-1100
809.507	-534
809.607	-961
809.706	-633
809.806	-278
809.906	-356
810.006	-437
810.106	-474
810.205	-539
810.305	-1146
810.405	295
810.505	-78
810.604	-994
810.704	-850
810.804	-651
810.903	-358
811.003	-534
811.102	4
811.202	-371
811.301	318
811.401	-669
811.500	-1329
811.600	-504
811.699	214
811.799	-1880
811.898	-931
811.997	-768
812.097	-317
812.196	-1632
812.295	-1304
812.395	-1349
812.494	-165
812.593	-463
812.692	299
812.792	94
812.891	-659
812.990	-1369
813.089	502
813.188	-798
813.287	-841
813.386	69
813.485	-648
813.584	-1395
813.683	452
813.782	-1820
813.881	-197
813.980	-879
814.079	-1157
814.178	-492
814.277	559
814.376	-1153
814.475	-42
814.574	-538
814.672	-725
814.771	-749
814.870	-942
814.969	-1261
815.067	-404
815.166	-540
815.265	-862
815.363	-269
815.462	-724
815.560	-633
815.659	346
815.758	-1212
815.856	63
815.955	-276
816.053	-492
816.152	-859
816.250	-159
816.348	-791
816.447	520
816.545	-602
816.644	134
816.742	-371
816.840	-412
816.938	-481
817.037	-112
817.135	252
817.233	549
817.331	-514
817.430	-61
817.528	255
817.626	-230
817.724	385
817.822	669
817.920	1162
818.018	3662
818.116	8740
818.214	24672
818.312	72620
818.410	97085
818.508	18385
818.606	3883
818.704	1081
818.802	2825
818.900	2021
818.997	2588
819.095	3281
819.193	8577
819.291	19544
819.389	53912
819.486	153442
819.584	141367
819.682	23168
819.779	5036
819.877	2770
819.975	1746
820.072	1018
820.170	1389
820.267	29
820.365	880
820.462	-1014
820.560	755
820.657	-357
820.755	-231
820.852	10
820.949	84
821.047	-446
821.144	-659
821.241	488
821.339	-988
821.436	172
821.533	373
821.631	1097
821.728	-45
821.825	166
821.922	872
822.019	2171
822.116	2550
822.214	372
822.311	-353
822.408	-205
822.505	-806
822.602	-237
822.699	-172
822.796	-339
822.893	-307
822.990	-453
823.086	-435
823.183	-473
823.280	-155
823.377	-1884
823.474	-388
823.571	-629
823.667	-451
823.764	-367
823.861	-79
823.958	-597
824.054	737
824.151	-868
824.248	-414
824.344	-26
824.441	-1586
824.537	-439
824.634	-728
824.731	-1082
824.827	-117
824.924	-1789
825.020	-768
825.116	-1301
825.213	-214
825.309	-1250
825.406	-578
825.502	-689
825.598	-1105
825.695	-914
825.791	-1137
825.887	-337
825.983	-1174
826.080	-484
826.176	-670
826.272	-1355
826.368	283
826.464	-1005
826.560	-426
826.656	-1001
826.753	-1056
826.849	-1154
826.945	1252
827.041	-857
827.137	-1110
827.233	-236
827.328	-749
827.424	-864
827.520	-319
827.616	-1291
827.712	-1095
827.808	-190
827.904	-710
827.999	-1278
828.095	-882
828.191	-1323
828.287	-347
828.382	-1783
828.478	-655
828.574	-1261
828.669	-343
828.765	-264
828.860	-765
828.956	-514
829.051	-565
829.147	-445
829.242	-1588
829.338	-2122
829.433	-448
829.529	-1462
829.624	-201
829.720	-1372
829.815	-551
829.910	-817
830.005	-595
830.101	-1067
830.196	-342
830.291	-1101
830.386	-967
830.482	-587
830.577	-348
830.672	-1854
830.767	-696
830.862	-1125
830.957	-708
831.052	-1161
831.147	-365
831.242	-1952
831.337	-872
831.432	-1279
831.527	-807
831.622	-1284
831.717	-997
831.812	-964
831.907	-1121
832.002	-1204
832.097	-709
832.191	-1610
832.286	-241
832.381	-884
832.476	-318
832.570	961
832.665	2667
832.760	3767
832.854	-19
832.949	-983
833.044	-800
833.138	17
833.233	626
833.327	-862
833.422	-631
833.516	-1220
833.611	-535
833.705	-984
833.799	-1964
833.894	-1145
833.988	-15
834.083	-1093
834.177	-1047
834.271	-1163
834.365	-1103
834.460	-1051
834.554	-746
834.648	-798
834.742	-1207
834.836	-1313
834.931	-1190
835.025	-704
835.119	21
835.213	-420
835.307	-975
835.401	-1026
835.495	-532
835.589	-964
835.683	-745
835.777	-727
835.871	-956
835.965	-2100
836.059	-155
836.152	-933
836.246	-574
836.340	-586
836.434	290
836.528	-1196
836.621	-625
836.715	-2329
836.809	-666
836.902	-719
836.996	-1198
837.090	-1551
837.183	-1028
837.277	-978
837.370	-1017
837.464	-891
837.557	-348
837.651	-1781
837.744	847
837.838	389
837.931	480
838.025	-1031
838.118	-322
838.211	-341
838.305	922
838.398	253
838.491	-877
838.584	344
838.678	695
838.771	3947
838.864	2740
838.957	-524
839.050	-787
839.144	-939
839.237	-649
839.330	-1166
839.423	-1042
839.516	-695
839.609	-1592
839.702	216
839.795	-1940
839.888	-1361
839.981	-1145
840.073	-1652
840.166	-373
840.259	-263
840.352	-657
840.445	-1241
840.538	-1350
840.630	-134
840.723	-2072
840.816	-790
840.909	-1680
841.001	-1365
841.094	-332
841.186	549
841.279	1013
841.372	33
841.464	-1045
841.557	-1344
841.649	-576
841.742	-230
841.834	-949
841.927	-1651
842.019	-601
842.111	-1014
842.204	-1496
842.296	-828
842.388	-41
842.481	-332
842.573	631
842.665	2719
842.758	607
842.850	-1196
842.942	-1504
843.034	-1469
843.126	-1054
843.218	-189
843.310	498
843.402	3625
843.495	9336
843.587	9331
843.679	1575
843.771	-497
843.862	45
843.954	-147
844.046	-221
844.138	-1133
844.230	-765
844.322	-823
844.414	-493
844.505	-976
844.597	-767
844.689	-512
844.781	-217
844.872	-1585
844.964	-999
845.056	-992
845.147	-392
845.239	-1435
845.331	-433
845.422	-2081
845.514	-795
845.605	-1091
845.697	-1626
845.788	-237
845.880	-1202
845.971	-1888
846.063	-504
846.154	-2084
846.245	-1278
846.337	-1372
846.428	-1220
846.519	-1469
846.610	-804
846.702	113
846.793	713
846.884	948
846.975	-59
847.066	-1059
847.158	-1933
847.249	-1074
847.340	241
847.431	-1179
847.522	-206
847.613	-2516
847.704	81
847.795	-516
847.886	-1775
847.977	-244
848.068	-957
848.158	-1374
848.249	-852
848.340	-1780
848.431	-1294
848.522	-811
848.612	-838
848.703	-1477
848.794	-746
848.885	-1102
848.975	-864
849.066	-1066
849.157	-1003
849.247	-1437
849.338	-846
849.428	-304
849.519	1076
849.609	3679
849.700	6914
849.790	16696
849.881	9175
849.971	1
850.061	-607
850.152	-715
850.242	-1038
850.332	-1065
850.423	-328
850.513	-1533
850.603	-1268
850.693	-1625
850.784	-747
850.874	-932
850.964	-965
851.054	-1108
851.144	-777
851.234	-1477
851.324	-616
851.414	-553
851.505	-557
851.595	-1091
851.684	48
851.774	-358
851.864	-464
851.954	-1695
852.044	-1115
852.134	-1122
852.224	-1453
852.314	-978
852.403	-615
852.493	-1591
852.583	-1691
852.673	-1269
852.762	-940
852.852	-1666
852.942	-1102
853.031	-825
853.121	-227
853.210	-1478
853.300	-1134
853.389	-1776
853.479	-208
853.568	259
853.658	609
853.747	3425
853.837	5637
853.926	14419
854.015	32411
854.105	54582
854.194	116024
854.283	66401
854.373	7341
854.462	1594
854.551	423
854.640	-446
854.729	279
854.819	195
854.908	-1
854.997	-621
855.086	-965
855.175	-620
855.264	-685
855.353	-1949
855.442	-1192
855.531	-537
855.620	-1007
855.709	-1123
855.798	-1058
855.887	-882
855.975	-972
856.064	-905
856.153	-977
856.242	-1320
856.331	-297
856.419	-1924
856.508	-712
856.597	-669
856.685	-691
856.774	-740
856.863	-319
856.951	-1408
857.040	-1034
857.128	-1453
857.217	-1226
857.305	-1338
857.394	-640
857.482	-1010
857.571	-184
857.659	-1341
857.747	-349
857.836	-1315
857.924	-1109
858.012	-1215
858.101	-1027
858.189	-1652
858.277	-1116
858.365	-1605
858.454	-158
858.542	-1434
858.630	-1395
858.718	-960
858.806	-2100
858.894	-1375
858.982	-1352
859.070	-1136
859.158	-602
859.246	-954
859.334	-805
859.422	-1204
859.510	-1112
859.598	-1859
859.686	-801
859.773	-519
859.861	-562
859.949	-1556
860.037	-1446
860.125	-1513
860.212	-1675
860.300	-1224
860.388	-548
860.475	-1114
860.563	-1454
860.651	-1484
860.738	-1002
860.826	-1628
860.913	-1080
861.001	-680
861.088	-177
861.176	-818
861.263	-397
861.350	-1308
861.438	-1466
861.525	-1592
861.612	-245
861.700	-649
861.787	-1615
861.874	-1197
861.962	-1135
862.049	-1629
862.136	-617
862.223	-1024
862.310	-1395
862.397	-1411
862.484	-918
862.572	-1020
862.659	-888
862.746	-840
862.833	-596
862.920	-962
863.007	-1063
863.094	-2066
863.180	-1775
863.267	-1103
863.354	-1748
863.441	-1001
863.528	-1747
863.615	-983
863.701	-691
863.788	-2112
863.875	-896
863.961	-1254
864.048	-1212
864.135	-1279
864.221	-1116
864.308	-2244
864.395	-872
864.481	-953
864.568	-715
864.654	-1522
864.741	-60
864.827	-536
864.914	-259
865.000	-440
865.086	-909
865.173	-566
865.259	-108
865.345	88
865.432	246
865.518	11
865.604	526
865.690	945
865.776	2841
865.863	6889
865.949	16602
866.035	26925
866.121	45930
866.207	73378
866.293	26445
866.379	3133
866.465	-313
866.551	250
866.637	-183
866.723	-117
866.809	-601
866.895	64
866.981	-1313
867.066	-1361
867.152	574
867.238	-271
867.324	112
867.409	487
867.495	1564
867.581	639
867.667	-1462
867.752	-675
867.838	-989
867.923	-530
868.009	565
868.094	-144
868.180	-6
868.266	477
868.351	1155
868.436	-269
868.522	466
868.607	1750
868.693	3465
868.778	4609
868.863	8330
868.949	1140
869.034	-292
869.119	-596
869.204	-537
869.290	-637
869.375	-493
869.460	-431
869.545	-1781
869.630	-437
869.715	-850
869.800	-800
869.885	-608
869.970	-415
870.055	-182
870.140	-1296
870.225	-499
870.310	-487
870.395	-1417
870.480	-2039
870.565	-456
870.650	-599
870.734	-46
870.819	-1137
870.904	-81
870.989	-1768
871.073	-951
871.158	-729
871.243	-805
871.327	-474
871.412	-1498
871.496	-1098
871.581	-619
871.665	-963
871.750	111
871.834	-1005
871.919	-668
872.003	-1218
872.088	-322
872.172	-1663
872.257	-519
872.341	-1644
872.425	-657
872.509	-686
872.594	-1645
872.678	-761
872.762	-526
872.846	-1172
872.930	-904
873.015	-1084
873.099	-1031
873.183	-1413
873.267	297
873.351	-701
873.435	-1135
873.519	-1295
873.603	-573
873.687	-1324
873.771	-1257
873.855	-455
873.938	-845
874.022	-1271
874.106	-337
874.190	-1220
874.274	-834
874.358	-1665
874.383	-1635
874.441	-1568
874.490	-1332
874.525	-1174
874.598	-1191
874.609	-1197
874.692	-1036
874.705	-1042
874.776	-1089
874.813	-1203
874.859	-1366
874.920	-1060
874.943	-940
875.027	-1075
875.028	-1068
875.110	-807
875.135	-890
875.194	-1080
875.243	-762
875.277	-544
875.350	-1636
875.361	-1803
875.444	-804
875.457	-812
875.527	-827
875.565	-695
875.611	-537
875.672	-1033
875.694	-1210
875.778	-853
875.780	-868
875.861	-1629
875.887	-1331
875.944	-688
875.994	-922
876.027	-1081
876.101	-313
876.111	-220
876.194	-403
876.209	-485
876.277	-813
876.316	-403
876.360	14
876.423	-165
876.443	-188
876.526	-89
876.530	-85
876.610	-174
876.637	-395
876.693	-861
876.745	-460
876.776	-217
876.852	-523
876.859	-542
876.942	-726
876.959	-697
877.025	-612
877.066	-276
877.108	65
877.173	27
877.190	35
877.273	160
877.280	157
877.356	23
877.387	340
877.439	813
877.494	574
877.522	536
877.601	644
877.605	629
877.688	-373
877.708	-352
877.770	7
877.815	-222
877.853	-552
877.922	-184
877.936	-66
878.018	-503
878.029	-405
878.101	175
878.136	121
878.184	-104
878.242	-511
878.266	-609
878.349	60
878.349	59
878.431	234
878.456	286
878.514	52
878.563	-120
878.596	-245
878.670	-493
878.679	-505
878.761	-543
878.776	-621
878.844	-919
878.883	-373
878.926	239
878.990	124
879.008	91
879.091	-164
879.097	-167
879.173	-478
879.203	-376
879.255	-51
879.310	41
879.338	179
879.417	-234
879.420	-273
879.502	-787
879.523	-591
879.584	262
879.630	-133
879.667	-473
879.736	20
879.749	92
879.831	-17
879.843	-10
879.913	-87
879.949	-184
879.995	-294
880.056	-27
880.077	165
880.159	221
880.162	264
880.241	1118
880.269	1512
880.323	2543
880.375	4073
880.405	4986
880.482	6389
880.487	6518
880.569	10905
880.588	12148
880.651	18162
880.694	15726
880.733	14398
880.801	15021
880.815	12843
880.896	3418
880.907	2289
880.978	786
881.013	104
881.060	26
881.120	-131
881.142	-124
881.224	-102
881.226	-109
881.305	-38
881.332	-87
881.387	-370
881.438	-282
881.469	-203
881.545	-421
881.550	-416
881.632	141
881.651	190
881.713	-142
881.757	-127
881.795	129
881.863	-224
881.876	-346
881.958	-711
881.969	-680
882.039	86
882.075	303
882.121	354
882.181	470
882.202	510
882.284	692
882.287	722
882.365	1848
882.393	1770
882.446	2026
882.499	2548
882.528	2113
882.605	789
882.609	749
882.690	149
882.711	-121
882.771	-475
882.817	-381
882.853	-92
882.923	492
882.934	500
883.015	-197
883.029	-234
883.096	-376
883.135	-423
883.177	-235
883.241	-258
883.258	-219
883.339	251
883.347	283
883.420	-19
883.453	-221
883.501	-139
883.558	82
883.583	79
883.663	124
883.664	118
883.744	118
883.770	220
883.825	626
883.876	400
883.906	230
883.981	784
883.987	790
884.068	393
884.087	273
884.149	164
884.193	-86
884.230	-166
884.298	211
884.310	265
884.391	149
884.404	180
884.472	-34
884.510	-295
884.552	-49
884.615	442
884.633	458
884.714	246
884.721	257
884.794	506
884.826	418
884.875	158
884.932	11
884.956	102
885.036	505
885.037	504
885.117	168
885.143	-31
885.197	164
885.248	547
885.278	558
885.354	581
885.358	593
885.439	506
885.459	447
885.519	252
885.565	287
885.599	271
885.670	40
885.680	80
885.760	340
885.775	395
885.840	598
885.881	746
885.921	469
885.986	-54
886.001	28
886.081	648
886.091	675
886.161	35
886.196	-176
886.241	139
886.302	594
886.322	605
886.402	322
886.407	291
886.482	495
886.512	790
886.562	740
886.617	457
886.642	517
886.722	614
886.722	608
886.802	778
886.828	944
886.882	1179
886.933	1293
886.962	1012
887.038	246
887.042	270
887.122	516
887.143	641
887.202	1039
887.248	1295
887.281	1090
887.353	572
887.361	562
887.441	391
887.458	376
887.521	518
887.563	485
887.601	595
887.668	1021
887.680	1022
887.760	538
887.773	535
887.840	1033
887.878	1164
887.919	1017
887.983	944
887.999	1013
888.079	1045
888.088	1058
888.158	760
888.193	618
888.238	629
888.297	569
888.317	708
888.397	1259
888.402	1291
888.476	254
888.507	-228
888.556	107
888.612	543
888.635	534
888.715	469
888.717	461
888.794	724
888.821	815
888.873	586
888.926	347
888.953	562
889.031	1153
889.032	1150
889.111	498
889.135	306
889.190	556
889.240	740
889.270	825
889.345	1051
889.349	1061
889.428	1127
889.449	1135
889.507	926
889.554	739
889.586	922
889.658	1313
889.665	1317
889.744	1262
889.763	1239
889.824	1228
889.867	1215
889.903	1083
889.972	809
890.076	1081
890.181	1177
890.285	1132
890.390	1347
890.494	389
890.599	275
890.703	1169
890.807	871
890.912	1094
891.016	385
891.120	1563
891.224	749
891.329	2616
891.433	1198
891.537	670
891.641	1551
891.745	1380
891.849	781
891.953	831
892.058	518
892.162	1379
892.266	1298
892.370	773
892.474	719
892.578	1885
892.682	1114
892.786	1806
892.889	1839
892.993	1740
893.097	660
893.201	437
893.305	990
893.409	1004
893.512	739
893.616	1315
893.720	-23
893.824	897
893.927	565
894.031	514
894.135	-85
894.238	1264
894.342	554
894.445	1612
894.549	857
894.652	1661
894.756	896
894.859	851
894.963	843
895.066	1319
895.170	1516
895.273	1180
895.377	1086
895.480	952
895.583	1182
895.687	634
895.790	68
895.893	1063
895.997	619
896.100	1388
896.203	1012
896.306	915
896.409	1112
896.513	933
896.616	492
896.719	1275
896.822	747
896.925	439
897.028	1312
897.131	1420
897.234	532
897.337	807
897.440	1201
897.543	1181
897.646	1011
897.749	1648
897.852	678
897.954	1346
898.057	434
898.160	975
898.263	643
898.366	920
898.468	813
898.571	1338
898.674	1200
898.776	803
898.879	673
898.982	667
899.084	1370
899.187	703
899.290	737
899.392	1459
899.495	491
899.597	1077
899.700	1017
899.802	1001
899.904	1492
900.007	3181
900.109	3737
900.212	1257
900.314	898
900.416	563
900.519	581
900.621	1510
900.723	90
900.826	1305
900.928	740
901.030	1434
901.132	1297
901.234	2281
901.336	2131
901.439	778
901.541	674
901.643	1027
901.745	1254
901.847	1006
901.949	292
902.051	1566
902.153	1135
902.255	1118
902.357	1106
902.459	1647
902.560	1147
902.662	796
902.764	968
902.866	1466
902.968	1987
903.070	1222
903.171	866
903.273	1186
903.375	784
903.477	1319
903.578	-57
903.680	813
903.781	1279
903.883	1336
903.985	424
904.086	894
904.188	927
904.289	854
904.391	477
904.492	1238
904.594	1540
904.695	1820
904.796	777
904.898	1590
904.999	993
905.100	1815
905.202	1697
905.303	1594
905.404	1568
905.506	1189
905.607	548
905.708	1495
905.809	1175
905.910	1107
906.012	1428
906.113	1099
906.214	713
906.315	2573
906.416	767
906.517	1210
906.618	487
906.719	641
906.820	1082
906.921	1029
907.022	219
907.123	710
907.224	743
907.325	1226
907.425	-319
907.526	433
907.627	371
907.728	1438
907.828	354
907.929	723
908.030	494
908.131	645
908.231	825
908.332	1114
908.433	938
908.533	379
908.634	1192
908.734	1739
908.835	1272
908.935	3040
909.036	2176
909.136	2070
909.237	810
909.337	1150
909.438	648
909.538	-77
909.638	395
909.739	966
909.839	529
909.939	2217
910.040	1247
910.140	980
910.240	1518
910.340	1191
910.440	76
910.541	1294
910.641	1139
910.741	1092
910.841	352
910.941	1103
911.041	633
911.141	1056
911.241	293
911.341	1332
911.441	1246
911.541	1096
911.641	846
911.741	75
911.841	645
911.941	1116
912.040	1052
912.140	776
912.240	633
912.340	673
912.440	411
912.539	42
912.639	722
912.739	896
912.838	400
912.938	1632
913.038	394
913.137	928
913.237	111
913.336	1438
913.436	-200
913.535	347
913.635	680
913.734	-19
913.834	752
913.933	801
914.033	349
914.132	1060
914.231	535
914.331	553
914.430	485
914.529	553
914.629	497
914.728	1255
914.827	565
914.926	865
915.025	588
915.125	610
915.224	4
915.323	306
915.422	683
915.521	772
915.620	630
915.719	1472
915.818	426
915.917	1207
916.016	1269
916.115	435
916.214	126
916.313	1204
916.412	430
916.510	606
916.609	1009
916.708	1410
916.807	404
916.906	590
917.004	984
917.103	996
917.202	717
917.301	449
917.399	851
917.498	594
917.596	-187
917.695	194
917.794	432
917.892	709
917.991	-162
918.089	545
918.188	577
918.286	879
918.384	453
918.483	67
918.581	197
918.680	320
918.778	375
918.876	294
918.975	432
919.073	41
919.171	300
919.269	572
919.368	151
919.466	1075
919.564	717
919.662	913
919.760	278
919.858	1069
919.956	952
920.054	522
920.153	292
920.251	1285
920.349	-318
920.446	921
920.544	480
920.642	202
920.740	-300
920.838	441
920.936	262
921.034	793
921.132	904
921.229	302
921.327	966
921.425	322
921.523	538
921.620	1833
921.718	587
921.816	526
921.913	559
922.011	1450
922.109	763
922.206	238
922.304	165
922.401	829
922.499	130
922.596	1099
922.694	869
922.791	404
922.888	531
922.986	1379
923.083	1200
923.181	1667
923.278	1235
923.375	1252
923.473	1709
923.570	910
923.667	1396
923.764	997
923.861	457
923.959	634
924.056	802
924.153	1449
924.250	1605
924.347	469
924.444	1441
924.541	764
924.638	174
924.735	1362
924.832	1092
924.929	1508
925.026	1002
925.123	750
925.220	1284
925.317	1432
925.414	842
925.510	780
925.607	1800
925.704	2127
925.801	1556
925.897	1308
925.994	2555
926.091	2216
926.187	2259
926.284	2722
926.381	3143
926.477	3941
926.574	3012
926.670	2945
926.767	3443
926.863	3207
926.960	2478
927.056	1326
927.153	1068
927.249	1484
927.346	498
927.442	464
927.538	880
927.635	1870
927.731	622
927.827	393
927.924	680
928.020	990
928.116	1194
928.212	996
928.308	525
928.404	729
928.501	1255
928.597	1520
928.693	424
928.789	1486
928.885	878
928.981	1473
929.077	1035
929.173	1231
929.269	1061
929.365	814
929.461	168
929.557	-236
929.652	1454
929.748	768
929.844	370
929.940	367
930.036	150
930.131	-266
930.227	189
930.323	1668
930.419	385
930.514	1303
930.610	27
930.705	413
930.801	783
930.897	441
930.992	1016
931.088	1123
931.183	313
931.279	1439
931.374	1008
931.470	777
931.565	841
931.660	1001
931.756	1190
931.851	488
931.946	472
932.042	415
932.137	796
932.232	636
932.327	696
932.423	750
932.518	501
932.613	622
932.708	413
932.803	994
932.898	620
932.994	564
933.089	495
933.184	750
933.279	458
933.374	983
933.469	1093
933.563	1152
933.658	380
933.753	321
933.848	-81
933.943	1257
934.038	533
934.133	617
934.227	854
934.322	1146
934.417	487
934.512	746
934.606	631
934.701	574
934.796	-143
934.890	397
934.985	516
935.079	1235
935.174	257
935.269	306
935.363	600
935.458	686
935.552	1059
935.646	448
935.741	-247
935.835	986
935.930	-299
936.024	419
936.118	958
936.213	562
936.307	343
936.401	325
936.496	234
936.590	624
936.684	-155
936.778	1141
936.872	173
936.966	836
937.060	504
937.155	82
937.249	1312
937.343	256
937.437	1125
937.531	665
937.625	607
937.719	614
937.813	803
937.906	921
938.000	113
938.094	714
938.188	582
938.282	1849
938.376	712
938.469	651
938.563	1134
938.657	2085
938.751	2496
938.844	5341
938.938	1325
939.032	913
939.125	1605
939.219	1727
939.312	2170
939.406	7440
939.500	3059
939.593	1079
939.686	273
939.780	1041
939.873	398
939.967	1896
940.060	235
940.154	1085
940.247	935
940.340	1276
940.434	764
940.527	1541
940.620	687
940.713	1427
940.806	3
940.900	395
940.993	464
941.086	1545
941.179	976
941.272	566
941.365	817
941.458	3307
941.551	2708
941.644	1457
941.737	147
941.830	1280
941.923	9
942.016	451
942.109	394
942.202	145
942.295	291
942.388	29
942.480	1059
942.573	152
942.666	-7
942.759	743
942.851	704
942.944	232
943.037	715
943.129	352
943.222	477
943.315	858
943.407	728
943.500	835
943.592	372
943.685	922
943.777	932
943.870	1342
943.962	424
944.055	44
944.147	-140
944.239	632
944.332	96
944.424	823
944.516	570
944.609	627
944.701	384
944.793	420
944.885	364
944.977	1017
945.070	994
945.162	572
945.254	185
945.346	1099
945.438	-62
945.530	716
945.622	742
945.714	746
945.806	1117
945.898	1402
945.990	1448
946.082	520
946.174	914
946.266	570
946.358	476
946.449	691
946.541	1154
946.633	947
946.725	1287
946.816	322
946.908	865
947.000	497
947.091	-142
947.183	154
947.275	-316
947.366	481
947.458	276
947.549	1121
947.641	419
947.732	350
947.824	469
947.915	-246
948.007	-162
948.098	819
948.190	-306
948.281	54
948.372	606
948.464	-541
948.555	244
948.646	121
948.737	374
948.829	300
948.920	-142
949.011	370
949.102	26
949.193	337
949.284	515
949.376	-393
949.467	68
949.558	569
949.649	336
949.740	-122
949.831	34
949.922	221
950.013	216
950.104	936
950.194	-10
950.285	108
950.376	71
950.467	343
950.558	-442
950.649	483
950.739	321
950.830	662
950.921	875
951.011	656
951.102	474
951.193	253
951.283	201
951.374	813
951.464	319
951.555	364
951.646	171
951.736	202
951.826	177
951.917	85
952.007	80
952.098	842
952.188	85
952.279	102
952.369	109
952.459	-493
952.549	1626
952.640	834
952.730	372
952.820	256
952.910	126
953.001	807
953.091	590
953.181	916
953.271	-79
953.361	959
953.451	-140
953.541	659
953.631	316
953.721	855
953.811	395
953.901	-782
953.991	-708
954.081	195
954.171	386
954.261	176
954.350	321
954.440	-148
954.530	-560
954.620	401
954.710	811
954.799	-258
954.889	-152
954.979	641
955.068	-234
955.158	-660
955.248	100
955.337	-497
955.427	118
955.516	698
955.606	305
955.695	-65
955.785	-84
955.874	30
955.964	-435
956.053	102
956.142	-630
956.232	100
956.321	-644
956.410	404
956.500	-192
956.589	-588
956.678	-271
956.767	526
956.856	-289
956.946	170
957.035	350
957.124	408
957.213	-311
957.302	139
957.391	-904
957.480	218
957.569	142
957.658	-275
957.747	-244
957.836	-341
957.925	-102
958.014	470
958.103	-400
958.192	667
958.280	-128
958.369	346
958.458	-214
958.547	-84
958.635	-623
958.724	538
958.813	-591
958.901	-45
958.990	-120
959.079	305
959.167	33
959.256	253
959.344	198
959.433	501
959.521	-1183
959.610	-327
959.698	-220
959.787	-479
959.875	-139
959.964	610
960.052	475
960.140	41
960.228	62
960.317	572
960.405	-457
960.493	-286
960.581	345
960.670	-568
960.758	427
960.846	-130
960.934	-874
961.022	-64
961.110	186
961.198	35
961.286	-797
961.374	-302
961.462	156
961.550	-239
961.638	-459
961.726	766
961.814	-194
961.902	670
961.990	-562
962.078	842
962.165	-376
962.253	191
962.341	-712
962.429	98
962.516	-433
962.604	1049
962.692	-341
962.779	1149
962.867	164
962.955	-193
963.042	398
963.130	511
963.217	61
963.305	374
963.392	629
963.480	-420
963.567	-155
963.654	854
963.742	313
963.829	2015
963.917	3258
964.004	2532
964.091	-242
964.178	-301
964.266	32
964.353	-706
964.440	-202
964.527	429
964.614	-27
964.701	-292
964.789	1137
964.876	642
964.963	-3
965.050	-153
965.137	-282
965.224	-88
965.311	-714
965.398	307
965.485	197
965.571	63
965.658	-461
965.745	-112
965.832	194
965.919	-173
966.006	525
966.092	-45
966.179	-640
966.266	746
966.352	-9
966.439	389
966.526	-527
966.612	322
966.699	-270
966.786	-279
966.872	-393
966.959	368
967.045	-452
967.132	-1023
967.218	-89
967.304	-433
967.391	41
967.477	643
967.564	1600
967.650	2813
967.736	-81
967.822	192
967.909	-483
967.995	-391
968.081	15
968.167	103
968.254	-34
968.340	105
968.426	-357
968.512	641
968.598	-49
968.684	-314
968.770	283
968.856	212
968.942	467
969.028	694
969.114	-241
969.200	-879
969.286	216
969.372	700
969.457	213
969.543	-234
969.629	-714
969.715	-16
969.801	36
969.886	-538
969.972	93
970.058	1192
970.143	-313
970.229	592
970.315	-72
970.400	409
970.486	232
970.571	817
970.657	1826
970.742	547
970.828	183
970.913	383
970.999	-79
971.084	270
971.169	-366
971.255	269
971.340	-278
971.425	880
971.511	-1114
971.596	-559
971.681	280
971.766	-108
971.852	181
971.937	76
972.022	-13
972.107	663
972.192	206
972.277	274
972.362	324
972.447	-31
972.532	267
972.617	47
972.702	360
972.787	233
972.872	1332
972.957	1057
973.042	-47
973.126	-76
973.211	-570
973.296	-366
973.381	-377
973.466	163
973.550	376
973.635	-780
973.720	-266
973.804	16
973.889	183
973.973	660
974.058	1362
974.143	693
974.227	-809
974.312	313
974.396	95
974.481	67
974.565	757
974.649	-482
974.734	-847
974.818	355
974.902	-228
974.987	-26
975.071	-417
975.155	-363
975.240	-623
975.324	-61
975.408	-334
975.492	211
975.576	-509
975.660	554
975.744	-441
975.829	-260
975.913	542
975.997	-524
976.081	-1193
976.165	1003
976.249	110
976.333	648
976.416	26
976.500	225
976.584	150
976.668	110
976.752	340
976.836	-199
976.919	-328
977.003	-457
977.087	1051
977.171	356
977.254	-467
977.338	194
977.422	204
977.505	-46
977.589	-172
977.672	107
977.756	-596
977.839	55
977.923	-281
978.006	803
978.090	190
978.173	-71
978.257	351
978.340	867
978.423	420
978.507	294
978.590	81
978.673	581
978.756	658
978.840	-31
978.923	68
979.006	274
979.089	-980
979.172	971
979.255	-274
979.338	-433
979.422	40
979.505	-23
979.588	-6
979.671	-419
979.754	-140
979.836	255
979.919	5
980.002	434
980.085	38
980.168	-559
980.251	87
980.334	-273
980.416	806
980.499	-753
980.582	584
980.665	524
980.747	-329
980.830	-98
980.912	-1385
980.995	-647
981.078	-110
981.160	-923
981.243	247
981.325	-1143
981.408	-131
981.490	7
981.573	-1393
981.655	-507
981.738	366
981.820	404
981.902	-775
981.984	-106
982.067	-1081
982.149	-165
982.231	29
982.314	-170
982.396	33
982.478	-172
982.560	-264
982.642	-304
982.724	-181
982.807	-802
982.888	-540
982.971	126
983.053	-1150
983.135	933
983.216	-918
983.298	214
983.380	-616
983.462	472
983.544	-155
983.626	-523
983.708	30
983.790	-494
983.871	-677
983.953	-518
984.035	-359
984.117	119
984.198	212
984.280	301
984.362	-878
984.443	-309
984.525	-619
984.606	-666
984.688	-242
984.769	-417
984.851	-94
984.932	-549
985.014	-130
985.095	-2
985.177	-495
985.258	96
985.339	-715
985.421	427
985.502	-1056
985.583	-555
985.664	214
985.746	-276
985.827	-641
985.908	504
985.989	-240
986.070	-356
986.151	-539
986.232	153
986.313	250
986.395	-800
986.476	167
986.557	-110
986.637	-698
986.718	-105
986.799	-469
986.880	166
986.961	-790
987.042	-204
987.123	-833
987.204	-220
987.284	-340
987.365	46
987.446	-1429
987.526	-158
987.607	-864
987.688	572
987.768	-758
987.849	475
987.930	-509
988.010	-21
988.091	-720
988.171	35
988.252	-406
988.332	532
988.413	196
988.493	20
988.573	-371
988.654	-194
988.734	-795
988.814	-1655
988.895	245
988.975	-1132
989.055	-474
989.135	-29
989.216	-539
989.296	-56
989.376	-1528
989.456	-309
989.536	0
989.616	-143
989.696	323
989.776	223
989.856	-593
989.936	-830
990.016	-781
990.096	130
990.176	-1207
990.256	-230
990.336	-1109
990.416	-554
990.495	-541
990.575	-160
990.655	-415
990.735	-1213
990.814	-927
990.894	324
990.974	-419
991.053	48
991.133	-765
991.213	-40
991.292	-256
991.372	-839
991.451	-560
991.531	-725
991.610	18
991.690	-827
991.769	-470
991.849	-207
991.928	-1363
992.007	-425
992.087	-1061
992.166	-801
992.245	-879
992.324	-511
992.404	-697
992.483	-840
992.562	-523
992.641	-239
992.720	-1200
992.799	-231
992.879	-359
992.958	-363
993.037	-938
993.116	-6
993.195	-378
993.274	-405
993.353	-641
993.432	-309
993.510	-559
993.589	-1107
993.668	-1446
993.747	-761
993.826	-384
993.904	-224
993.983	-812
994.062	-1658
994.141	-622
994.219	-601
994.298	-642
994.377	-594
994.455	-986
994.534	-1556
994.612	-372
994.691	-447
994.769	-1009
994.848	-209
994.926	-1133
995.005	-245
995.083	-1135
995.161	-1317
995.240	-1410
995.318	-382
995.397	93
995.475	-2120
995.553	787
995.631	-862
995.710	-713
995.788	-696
995.866	-924
995.944	-177
996.022	-984
996.100	-982
996.178	-833
996.256	-674
996.334	-1058
996.412	-1371
996.490	-677
996.568	-395
996.646	-1436
996.724	282
996.802	-1426
996.880	-1140
996.958	-331
997.036	-193
997.113	-1142
997.191	-110
997.269	-823
997.346	-1343
997.424	-201
997.502	-495
997.579	-440
997.657	-902
997.735	-128
997.812	-1060
997.890	-1046
997.967	-1286
998.045	-62
998.122	-398
998.200	-1041
998.277	-1317
998.354	-1221
998.432	-757
998.509	-61
998.586	-1612
998.664	-1079
998.741	-717
998.818	-1058
998.896	-11
998.973	-760
999.050	-59
999.127	-549
999.204	-1440
999.281	-1953
999.358	-793
999.435	-945
999.512	-20
999.589	-1560
999.666	-738
999.743	-746
999.820	-860
999.897	-1073
999.974	-533
1000.051	-687
1000.128	-1128
1000.205	-806
1000.281	-11
1000.358	-1470
1000.435	-456
1000.512	-656
1000.588	-1504
1000.665	-1029
1000.741	-555
1000.818	-1700
1000.895	-1060
1000.971	-1278
1001.048	-582
1001.124	-1003
1001.201	-515
1001.277	-1607
1001.354	-297
1001.430	-1782
1001.507	392
1001.583	-651
1001.659	-667
1001.736	-613
1001.812	-1065
1001.888	-1255
1001.964	-668
1002.041	-736
1002.117	182
1002.193	-1015
1002.269	-716
1002.345	-1017
1002.421	-1167
1002.497	-1404
1002.573	-383
1002.649	-1721
1002.725	-1660
1002.801	-1417
1002.877	-199
1002.953	-613
1003.029	-946
1003.105	-1991
1003.181	-1461
1003.257	-1630
1003.333	-777
1003.408	-1445
1003.484	-1162
1003.560	-898
1003.636	-1469
1003.711	-1487
1003.787	-617
1003.862	-1043
1003.938	-1308
1004.014	-2041
1004.089	-1392
1004.165	-896
1004.240	-322
1004.316	-1738
1004.391	-1500
1004.467	-224
1004.542	-936
1004.617	-1261
1004.693	-721
1004.768	-922
1004.844	-854
1004.919	-1656
1004.994	-764
1005.069	-1302
1005.145	-702
1005.220	-1109
1005.295	-1020
1005.370	-971
1005.445	-1347
1005.520	-470
1005.595	-755
1005.670	-1094
1005.745	-2155
1005.820	-1398
1005.895	-173
1005.970	-2134
1006.045	-1714
1006.120	-1228
1006.195	-306
1006.270	-1717
1006.345	-1245
1006.419	-250
1006.494	-743
1006.569	-2103
1006.644	-1252
1006.718	-1194
1006.793	-1628
1006.868	-1125
1006.942	-538
1007.017	-519
1007.092	-1396
1007.166	-1480
1007.241	-708
1007.315	-1163
1007.390	-825
1007.464	-1489
1007.539	-1973
1007.613	-1049
1007.687	-560
1007.762	-1779
1007.836	-1208
1007.910	-667
1007.984	-1915
1008.059	-1262
1008.133	-968
1008.207	-2748
1008.281	-1132
1008.356	-1879
1008.430	-1053
1008.504	-1791
1008.578	-972
1008.652	-1389
1008.726	-1253
1008.800	-1316
1008.874	-1053
1008.948	-1339
1009.022	-1515
1009.096	-1925
1009.170	-1814
1009.244	-874
1009.317	-801
1009.391	-750
1009.465	-805
1009.539	-2369
1009.613	-422
1009.686	-692
1009.760	-1213
1009.834	-1415
1009.907	-2052
1009.981	-1605
1010.054	-805
1010.128	-1871
1010.201	-953
1010.275	-1498
1010.349	-2040
1010.422	-1418
1010.495	-1006
1010.569	-1102
1010.642	-1067
1010.716	-826
1010.789	-1709
1010.862	-671
1010.936	-1438
1011.009	-1180
1011.082	-1115
1011.155	-508
1011.229	-632
1011.302	-1253
1011.375	-454
1011.448	-843
1011.521	-118
1011.594	-954
1011.667	-1072
1011.740	-1051
1011.813	-1640
1011.886	-2353
1011.959	-1159
1012.032	-1395
1012.105	-1406
1012.178	-2520
1012.251	-1081
1012.324	-1436
1012.396	-431
1012.469	-982
1012.542	-882
1012.614	-1265
1012.687	-2074
1012.760	-1982
1012.833	-1296
1012.905	-1448
1012.978	-1058
1013.050	-1611
1013.123	-731
1013.195	-1936
1013.268	-1285
1013.340	-1351
1013.413	-1102
1013.485	-1425
1013.558	-1788
1013.630	-1509
1013.702	-1487
1013.775	-1989
1013.847	-506
1013.919	-2192
1013.992	-1515
1014.064	-983
1014.136	-1562
1014.208	-2182
1014.280	-332
1014.353	-1864
1014.425	-1433
1014.497	-1026
1014.569	-1854
1014.641	-655
1014.713	-1167
1014.785	-1772
1014.857	-1188
1014.929	-1366
1015.001	-2218
1015.072	-1078
1015.144	-1737
1015.216	-1315
1015.288	-1194
1015.360	-1265
1015.431	-2329
1015.503	-1153
1015.575	-1606
1015.647	-925
1015.718	-2412
1015.790	-1401
1015.861	-1095
1015.933	-1926
1016.005	-931
1016.076	-2332
1016.148	-1358
1016.219	-1172
1016.291	-1221
1016.362	-1100
1016.433	-1741
1016.505	-911
1016.576	-876
1016.647	-1736
1016.719	-2173
1016.790	-1885
1016.861	-1682
1016.932	-1016
1017.004	-1392
1017.075	-1607
1017.146	-827
1017.217	-1080
1017.288	-1563
1017.359	-1837
1017.430	-1282
1017.502	-1994
1017.573	-1786
1017.644	-2323
1017.714	-1760
1017.785	-1783
1017.856	-1505
1017.927	-1914
1017.998	-1219
1018.069	-1320
1018.140	-2700
1018.210	-1887
1018.281	-880
1018.352	-2041
1018.423	-2020
1018.493	-2017
1018.564	-1003
1018.635	-2581
1018.705	-1641
1018.776	-1832
1018.846	-1520
1018.917	-1940
1018.987	-1506
1019.058	-1403
1019.128	-1341
1019.199	-1459
1019.269	-1572
1019.340	-1511
1019.410	-1950
1019.480	-1200
1019.551	-892
1019.621	-1819
1019.691	-850
1019.761	-2160
1019.832	-1158
1019.902	-2369
1019.972	-1379
1020.042	-1401
1020.112	-1302
1020.182	-1813
1020.252	-1264
1020.322	-1921
1020.392	-757
1020.462	-1639
1020.532	-988
1020.602	-883
1020.672	-877
1020.742	-2249
1020.812	-1239
1020.882	-1410
1020.952	-1549
1021.021	-2002
1021.091	-1945
1021.161	-2011
1021.230	-2280
1021.300	-1274
1021.370	-1159
1021.440	-2481
1021.509	-1091
1021.579	-2101
1021.648	-1039
1021.718	-1384
1021.787	-1981
1021.857	-2157
1021.926	-1590
1021.996	-1895
1022.065	-1217
1022.134	-1884
1022.204	-542
1022.273	-1513
1022.342	-1600
1022.412	-1539
1022.481	-1536
1022.550	-1399
1022.619	-1275
1022.689	-1896
1022.758	-1762
1022.827	-1599
1022.896	-1468
1022.965	-1069
1023.034	-1225
1023.103	-1794
1023.172	-1246
1023.241	-2695
1023.310	-2186
1023.379	-2100
1023.448	-1582
1023.517	-1838
1023.586	-2124
1023.654	-1526
1023.723	-1173
1023.792	-2150
1023.861	-1050
1023.929	-891
1023.998	-1719
1024.067	-1675
1024.135	-1666
1024.204	-1700
1024.273	-1165
1024.341	-1492
1024.410	-1340
1024.478	-1691
1024.547	-1718
1024.615	-1224
1024.684	-1935
1024.752	-1156
1024.820	-1858
1024.889	-1324
1024.957	-1237
1025.026	-2086
1025.094	-854
1025.162	-1288
1025.230	-969
1025.299	-1448
1025.367	-1332
1025.435	-1934
1025.503	-1721
1025.571	-1383
1025.639	-1091
1025.707	-1715
1025.776	-910
1025.844	-908
1025.912	-1370
1025.979	-1360
1026.047	-510
1026.115	-1938
1026.183	-1266
1026.251	-2144
1026.319	-1220
1026.387	-2085
1026.454	-1891
1026.522	-1646
1026.590	-1020
1026.658	-2125
1026.725	-1291
1026.793	-1458
1026.861	-1806
1026.928	-1559
1026.996	-1451
1027.064	-1265
1027.131	-1679
1027.199	-2262
1027.266	-2081
1027.334	-1397
1027.401	-2311
1027.468	-2830
1027.536	-838
1027.603	-922
1027.671	-1154
1027.738	-2330
1027.805	-1518
1027.872	-1729
1027.940	-1295
1028.007	-2016
1028.074	-1739
1028.141	-1614
1028.208	-2137
1028.275	-1374
1028.342	-1747
1028.409	-2266
1028.477	-1805
1028.544	-2733
1028.610	-1970
1028.678	-1615
1028.744	-1118
1028.811	-1696
1028.878	-1229
1028.945	-1931
1029.012	-2159
1029.079	-2409
1029.146	-1292
1029.212	-1302
1029.279	-1396
1029.346	-1265
1029.412	-2189
1029.479	-2056
1029.546	-888
1029.612	-1417
1029.679	-1905
1029.745	-1347
1029.812	-1279
1029.878	-2081
1029.945	-1773
1030.011	-1530
1030.078	-1292
1030.144	-812
1030.210	-855
1030.277	-1478
1030.343	-1876
1030.409	-2353
1030.476	-1973
1030.542	-1490
1030.608	-2167
1030.674	-1573
1030.740	-1661
1030.807	-1243
1030.873	-1363
1030.939	-1992
1031.005	-1385
1031.071	-934
1031.137	-2045
1031.203	-2215
1031.269	-1454
1031.335	-2012
1031.401	-1156
1031.467	-2683
1031.533	-1473
1031.598	-1799
1031.664	-1789
1031.730	-2070
1031.796	-432
1031.861	-1916
1031.927	-1607
1031.993	-1606
1032.058	-1456
1032.124	-2014
1032.190	-1733
1032.255	-1792
1032.321	-1952
1032.386	-1355
1032.452	-1592
1032.518	-1903
1032.583	-1757
1032.648	-1626
1032.714	-1690
1032.779	-1677
1032.844	-1955
1032.910	-2567
1032.975	-1105
1033.040	-1693
1033.106	-1554
1033.171	-1915
1033.236	-909
1033.301	-2261
1033.366	-1947
1033.432	-1556
1033.496	-1456
1033.562	-1345
1033.627	-585
1033.692	-978
1033.757	-1468
1033.822	-2258
1033.887	-1566
1033.952	-1859
1034.016	-1504
1034.081	-1006
1034.146	-1589
1034.211	-1562
1034.276	-963
1034.340	-1029
1034.405	-1154
1034.470	-900
1034.535	-601
1034.599	-834
1034.664	-354
1034.729	-139
1034.793	-1006
1034.858	-2727
1034.922	-1357
1034.987	-2278
1035.051	-1549
1035.116	-2644
1035.180	-3031
1035.245	-1541
1035.309	-1262
1035.373	-1425
1035.437	-1482
1035.502	-964
1035.566	-1888
1035.630	-2126
1035.695	-1917
1035.759	-2010
1035.823	-1442
1035.887	-2355
1035.951	-1620
1036.015	-2240
1036.079	-1908
1036.143	-1982
1036.208	-996
1036.271	-1261
1036.336	-1756
1036.399	-1666
1036.463	-1532
1036.527	-1215
1036.591	-1097
1036.655	-1474
1036.719	-1344
1036.783	-810
1036.846	53
1036.910	196
1036.974	-735
1037.037	-1482
1037.101	-1897
1037.165	-1648
1037.228	-740
1037.292	-1668
1037.355	-1826
1037.419	-1322
1037.483	-2021
1037.546	-1776
1037.609	-2468
1037.673	-1253
1037.736	-1816
1037.800	-1558
1037.863	-2309
1037.926	-1189
1037.990	-2011
1038.053	-1336
1038.116	-1825
1038.179	-1645
1038.243	-1769
1038.306	-2120
1038.369	-1831
1038.432	-1459
1038.495	-1665
1038.558	-1945
1038.621	-1512
1038.684	-1481
1038.747	-2532
1038.810	-2216
1038.873	-1079
1038.936	-1952
1038.999	-1630
1039.062	-1318
1039.125	-1088
1039.188	-2046
1039.250	-2340
1039.313	-2133
1039.376	-1919
1039.438	-2051
1039.501	-2352
1039.564	-1722
1039.627	-2013
1039.689	-2087
1039.752	-1854
1039.814	-2114
1039.877	-1477
1039.939	-1740
1040.002	-1603
1040.064	-1732
1040.127	-1777
1040.189	-2382
1040.251	-1294
1040.314	-1326
1040.376	-1460
1040.438	-2595
1040.501	-1906
1040.563	-2234
1040.625	-1916
1040.687	-2293
1040.750	-1253
1040.812	-2169
1040.874	-2553
1040.936	-1849
1040.998	-2564
1041.060	-1879
1041.122	-2584
1041.184	-2367
1041.246	-896
1041.308	-1546
1041.370	-1249
1041.432	-2111
1041.494	-2377
1041.555	-1971
1041.617	-1878
1041.679	-2197
1041.741	-1740
1041.802	-2157
1041.864	-1818
1041.926	-1396
1041.987	-2079
1042.049	-2021
1042.111	-1101
1042.172	-2069
1042.234	-848
1042.295	-2584
1042.357	-2269
1042.418	-2114
1042.480	-1479
1042.541	-1935
1042.603	-1903
1042.664	-1574
1042.725	-2130
1042.786	-2213
1042.848	-1923
1042.909	-1590
1042.970	-1185
1043.031	-1398
1043.093	-1799
1043.154	-1933
1043.215	-1649
1043.276	-2484
1043.337	-2436
1043.398	-1763
1043.459	-1673
1043.520	-2676
1043.581	-579
1043.642	-1239
1043.703	-1312
1043.764	-1554
1043.825	-1263
1043.886	-1988
1043.947	-1645
1044.007	-2079
1044.068	-1389
1044.129	-2194
1044.189	-1599
1044.250	-2248
1044.311	-2040
1044.371	-2579
1044.432	-1813
1044.493	-2024
1044.553	-1559
1044.614	-1453
1044.674	-1827
1044.735	-2036
1044.795	-897
1044.856	-1252
1044.916	-1428
1044.976	-2344
1045.037	-1472
1045.097	-1607
1045.157	-1260
1045.218	-1692
1045.278	-2173
1045.338	-1310
1045.398	-1245
1045.458	-1017
1045.519	-1260
1045.579	-1671
1045.639	-1350
1045.699	-2058
1045.759	-1817
1045.819	-2104
1045.879	-1578
1045.939	-2262
1045.999	-1535
1046.059	-2249
1046.119	-1456
1046.179	-1335
1046.238	-1770
1046.298	-1003
1046.358	-1024
1046.418	-1553
1046.477	-1690
1046.537	-1478
1046.597	-1956
1046.656	-1266
1046.716	-1119
1046.776	-990
1046.835	-904
1046.895	-906
1046.954	-379
1047.014	-376
1047.073	-518
1047.133	0
