'Start Wavelength	183.833
'End Wavelength	1047.133
'Gate Delay	5.000
'Gate Width (ms)	1.050
'Laser Output Level	0.000
'X Position	0.000
'Y Position	0.000
'Z Position	0.000
'Grid Point Number	1.000
'Shot Number	100.000
183.833	-41.000
183.903	950.000
183.973	442
184.042	851
184.112	292
184.182	60
184.252	541
184.321	-288
184.391	559
184.461	78
184.531	-101
184.600	1301
184.670	-57
184.740	384
184.809	843
184.879	352
184.949	180
185.018	267
185.088	536
185.158	586
185.228	102
185.297	279
185.367	604
185.436	360
185.506	124
185.576	884
185.645	886
185.715	610
185.785	458
185.854	-32
185.924	143
185.993	491
186.063	-15
186.133	222
186.202	-175
186.272	485
186.341	422
186.411	251
186.481	856
186.550	1368
186.620	700
186.689	574
186.759	-907
186.828	377
186.898	136
186.967	238
187.037	801
187.106	164
187.176	184
187.246	568
187.315	-122
187.385	806
187.454	323
187.524	-259
187.593	-73
187.662	1529
187.732	356
187.801	590
187.871	292
187.940	432
188.010	701
188.079	-104
188.149	599
188.218	1286
188.288	171
188.357	881
188.426	-56
188.496	1099
188.565	42
188.635	662
188.704	460
188.773	303
188.843	640
188.912	552
188.981	337
189.051	-667
189.120	65
189.190	802
189.259	-65
189.328	813
189.398	409
189.467	-44
189.536	79
189.606	-48
189.675	297
189.744	835
189.813	247
189.883	616
189.952	466
190.021	1656
190.091	1735
190.160	1212
190.229	-99
190.298	131
190.368	572
190.437	560
190.506	-134
190.575	359
190.645	301
190.714	119
190.783	608
190.852	1184
190.922	553
190.991	609
191.060	-118
191.129	1253
191.198	253
191.268	892
191.337	125
191.406	89
191.475	37
191.544	39
191.613	-65
191.683	548
191.752	855
191.821	-228
191.890	256
191.959	-83
192.028	829
192.097	285
192.166	475
192.236	927
192.305	-81
192.374	719
192.443	-92
192.512	387
192.581	354
192.650	304
192.719	6
192.788	60
192.857	12
192.926	312
192.995	-91
193.064	728
193.133	-690
193.202	463
193.271	668
193.340	1035
193.409	1132
193.478	1162
193.547	271
193.616	1175
193.685	-134
193.754	1004
193.823	88
193.892	382
193.961	697
194.030	370
194.099	511
194.168	262
194.237	-135
194.306	182
194.375	250
194.444	644
194.513	359
194.582	226
194.651	1164
194.720	602
194.788	18
194.857	357
194.926	901
194.995	840
195.064	848
195.133	595
195.202	1070
195.270	635
195.339	-49
195.408	96
195.477	1227
195.546	186
195.615	585
195.683	691
195.752	575
195.821	1033
195.890	1088
195.959	1207
196.027	847
196.096	1314
196.165	612
196.234	393
196.303	1038
196.371	895
196.440	-449
196.509	556
196.578	195
196.646	834
196.715	80
196.784	251
196.853	-172
196.921	262
196.990	218
197.059	1049
197.127	221
197.196	124
197.265	427
197.333	-62
197.402	713
197.471	10
197.539	460
197.608	998
197.677	2263
197.745	806
197.814	1598
197.883	1159
197.951	1012
198.020	524
198.088	608
198.157	1733
198.226	1988
198.294	640
198.363	272
198.431	388
198.500	999
198.569	1101
198.637	329
198.706	670
198.774	2316
198.843	1785
198.911	-51
198.980	521
199.048	1070
199.117	263
199.185	311
199.254	980
199.322	2
199.391	580
199.459	404
199.528	764
199.596	349
199.665	245
199.733	264
199.802	592
199.870	843
199.939	586
200.007	253
200.076	417
200.144	183
200.213	-181
200.281	293
200.349	888
200.418	1177
200.486	981
200.555	-387
200.623	332
200.691	-54
200.760	594
200.828	651
200.897	619
200.965	-464
201.033	914
201.102	437
201.170	115
201.238	322
201.307	845
201.375	420
201.443	474
201.512	593
201.580	734
201.648	9
201.716	450
201.785	1444
201.853	671
201.921	434
201.990	352
202.058	1023
202.126	833
202.194	-17
202.263	515
202.331	-111
202.399	847
202.467	428
202.536	4393
202.604	1136
202.672	801
202.740	302
202.808	492
202.877	325
202.945	42
203.013	-78
203.081	900
203.149	423
203.218	377
203.286	-66
203.354	826
203.422	446
203.490	422
203.558	460
203.626	319
203.695	-401
203.763	-4
203.831	612
203.899	490
203.967	137
204.035	514
204.103	85
204.171	601
204.239	995
204.307	780
204.375	228
204.443	-236
204.512	32
204.580	445
204.648	-99
204.716	559
204.784	570
204.852	695
204.920	-261
204.988	572
205.056	142
205.124	493
205.192	-113
205.260	380
205.328	-121
205.396	981
205.464	399
205.532	212
205.600	203
205.667	468
205.735	2115
205.803	2677
205.871	-121
205.939	369
206.007	352
206.075	1027
206.143	127
206.211	-243
206.279	-153
206.347	-68
206.414	-474
206.482	1300
206.550	281
206.618	318
206.686	225
206.754	738
206.822	1108
206.889	-340
206.957	113
207.025	-125
207.093	-360
207.161	563
207.229	539
207.296	276
207.364	125
207.432	-74
207.500	-581
207.567	140
207.635	-968
207.703	903
207.771	68
207.839	231
207.906	623
207.974	245
208.042	223
208.109	568
208.177	347
208.245	501
208.313	638
208.380	1477
208.448	257
208.516	61
208.583	732
208.651	766
208.719	428
208.786	894
208.854	374
208.922	467
208.989	377
209.057	33
209.125	58
209.192	580
209.260	608
209.327	1261
209.395	1120
209.463	425
209.530	-142
209.598	35
209.665	576
209.733	1168
209.801	626
209.868	-368
209.936	1212
210.003	939
210.071	535
210.138	1097
210.206	1751
210.273	1240
210.341	1178
210.408	469
210.476	389
210.543	999
210.611	1383
210.678	929
210.746	355
210.813	849
210.881	1016
210.948	955
211.016	1079
211.083	451
211.151	-51
211.218	1040
211.285	1407
211.353	1168
211.420	210
211.488	1017
211.555	461
211.622	419
211.690	324
211.757	939
211.825	807
211.892	968
211.959	831
212.027	57
212.094	504
212.161	670
212.229	1672
212.296	3770
212.363	9987
212.431	3834
212.498	956
212.565	997
212.633	442
212.700	543
212.767	732
212.835	1415
212.902	586
212.969	580
213.036	1009
213.104	559
213.171	1285
213.238	1310
213.305	456
213.373	356
213.440	578
213.507	892
213.574	616
213.641	245
213.709	537
213.776	538
213.843	1563
213.910	2464
213.977	1320
214.045	448
214.112	762
214.179	985
214.246	505
214.313	861
214.380	405
214.447	840
214.515	1290
214.582	979
214.649	1243
214.716	1179
214.783	11
214.850	1161
214.917	1292
214.984	1746
215.051	2140
215.118	1687
215.185	1693
215.253	706
215.320	390
215.387	1561
215.454	804
215.521	831
215.588	620
215.655	947
215.722	1985
215.789	1783
215.856	1758
215.923	1821
215.990	1185
216.057	682
216.124	779
216.191	1845
216.258	1036
216.325	1312
216.391	1511
216.458	1197
216.525	1673
216.592	4001
216.659	2669
216.726	682
216.793	497
216.860	1284
216.927	926
216.994	1113
217.061	1491
217.127	1313
217.194	1124
217.261	1705
217.328	1861
217.395	1230
217.462	320
217.529	-6
217.595	770
217.662	1886
217.729	2926
217.796	2763
217.863	1148
217.929	729
217.996	1773
218.063	1080
218.130	506
218.196	155
218.263	680
218.330	1415
218.397	1270
218.463	148
218.530	1611
218.597	3983
218.664	4147
218.730	1168
218.797	1184
218.864	372
218.930	337
218.997	1035
219.064	2036
219.131	3872
219.197	948
219.264	1017
219.331	256
219.397	561
219.464	536
219.530	2896
219.597	1097
219.664	1042
219.730	1500
219.797	731
219.864	1171
219.930	2352
219.997	6894
220.063	2827
220.130	1433
220.196	991
220.263	1215
220.330	1887
220.396	2191
220.463	1243
220.529	934
220.596	1757
220.662	1247
220.729	6455
220.795	3442
220.862	2849
220.928	4333
220.995	6686
221.061	7612
221.128	5670
221.194	1766
221.261	1096
221.327	1017
221.394	1376
221.460	1263
221.526	2184
221.593	8041
221.659	3877
221.726	5794
221.792	4188
221.859	2276
221.925	1210
221.991	1625
222.058	1232
222.124	2594
222.190	2173
222.257	1269
222.323	942
222.390	704
222.456	1246
222.522	419
222.589	1241
222.655	1210
222.721	822
222.788	339
222.854	1088
222.920	721
222.986	1223
223.053	669
223.119	476
223.185	58
223.251	-11
223.318	1353
223.384	1418
223.450	485
223.516	830
223.583	86
223.649	632
223.715	379
223.781	1344
223.848	1341
223.914	615
223.980	1005
224.046	1611
224.112	982
224.178	1023
224.245	226
224.311	890
224.377	545
224.443	832
224.509	883
224.575	753
224.641	691
224.708	302
224.774	1103
224.840	1628
224.906	646
224.972	1043
225.038	1352
225.104	2017
225.170	545
225.236	980
225.302	589
225.368	1264
225.434	335
225.500	1100
225.566	1231
225.632	1498
225.699	1515
225.765	2076
225.831	2138
225.897	3774
225.963	2337
226.028	2566
226.094	1709
226.160	2135
226.226	3602
226.292	6469
226.358	3990
226.424	3416
226.490	1610
226.556	1723
226.622	2950
226.688	4172
226.754	3214
226.820	10071
226.886	7343
226.951	2621
227.017	1403
227.083	1503
227.149	3143
227.215	3509
227.281	2284
227.347	2821
227.412	2205
227.478	8846
227.544	6167
227.610	2922
227.676	1770
227.742	1154
227.807	1223
227.873	936
227.939	3723
228.005	1171
228.070	424
228.136	524
228.202	967
228.268	2599
228.333	3431
228.399	2211
228.465	1238
228.531	824
228.596	1244
228.662	3140
228.728	2397
228.793	1300
228.859	852
228.925	2076
228.990	1630
229.056	2885
229.122	1572
229.187	2209
229.253	807
229.319	1590
229.384	2317
229.450	974
229.516	286
229.581	1279
229.647	2430
229.712	6123
229.778	6029
229.844	4436
229.909	5021
229.975	4797
230.040	3063
230.106	1932
230.171	3365
230.237	4834
230.302	4282
230.368	2419
230.433	1926
230.499	3691
230.564	2230
230.630	1793
230.695	1614
230.761	1756
230.826	4040
230.892	1949
230.957	1096
231.023	1376
231.088	1136
231.154	1677
231.219	3338
231.285	3008
231.350	1702
231.415	976
231.481	1279
231.546	1071
231.612	1316
231.677	1061
231.742	1882
231.808	1300
231.873	374
231.938	5145
232.004	4099
232.069	1241
232.135	1581
232.200	1434
232.265	1359
232.330	1153
232.396	812
232.461	1598
232.526	563
232.592	1941
232.657	2830
232.722	2612
232.788	1641
232.853	1682
232.918	1403
232.983	1153
233.048	3498
233.114	3150
233.179	5147
233.244	4758
233.309	1233
233.375	2145
233.440	995
233.505	1071
233.570	1442
233.635	1169
233.700	3604
233.766	4284
233.831	2618
233.896	2351
233.961	2748
234.026	1711
234.091	2046
234.156	2655
234.222	3914
234.287	10502
234.352	8447
234.417	5998
234.482	3042
234.547	3255
234.612	2798
234.677	3788
234.742	11155
234.807	6880
234.872	3455
234.937	2476
235.002	3193
235.067	2260
235.132	2083
235.197	2448
235.262	1879
235.327	2189
235.392	2982
235.457	3403
235.522	2381
235.587	2015
235.652	1097
235.717	1972
235.782	3122
235.847	6072
235.912	6614
235.977	5430
236.042	3132
236.107	2660
236.172	2974
236.236	2514
236.301	2507
236.366	3957
236.431	6277
236.496	2781
236.561	4591
236.626	14957
236.691	9111
236.755	4436
236.820	4842
236.885	4166
236.950	3594
237.015	3921
237.079	3902
237.144	4783
237.209	15115
237.274	26483
237.339	11850
237.403	6054
237.468	5792
237.533	3806
237.598	3444
237.662	2656
237.727	2657
237.792	4579
237.856	3481
237.921	3398
237.986	5072
238.050	5322
238.115	14704
238.180	10845
238.245	6127
238.309	5091
238.374	3332
238.438	4087
238.503	1242
238.568	3233
238.632	1716
238.697	2471
238.762	7255
238.826	7213
238.891	5047
238.955	4534
239.020	2620
239.085	3484
239.149	2095
239.214	2977
239.278	2137
239.343	1851
239.407	2723
239.472	14149
239.536	9392
239.601	4525
239.665	2615
239.730	5581
239.794	14393
239.859	13476
239.923	5105
239.988	2749
240.052	2961
240.117	2455
240.181	2460
240.246	3119
240.310	3036
240.374	8459
240.439	12637
240.503	4701
240.568	6653
240.632	6953
240.696	3615
240.761	1952
240.825	1542
240.890	2354
240.954	7929
241.018	12490
241.083	6704
241.147	2961
241.211	4588
241.276	7305
241.340	4324
241.404	3334
241.469	3599
241.533	3524
241.597	2937
241.661	3248
241.726	3767
241.790	3529
241.854	2512
241.919	3299
241.983	1820
242.047	2426
242.111	2380
242.175	1855
242.240	3533
242.304	3469
242.368	2979
242.432	3042
242.496	2050
242.561	1810
242.625	2390
242.689	1733
242.753	2501
242.817	3018
242.881	2324
242.946	3018
243.010	3047
243.074	3503
243.138	2501
243.202	2698
243.266	2314
243.330	3504
243.394	13129
243.458	33658
243.522	10863
243.586	5273
243.651	3243
243.715	4553
243.779	5514
243.843	6871
243.907	10047
243.971	6561
244.035	3424
244.099	2659
244.163	5635
244.227	6482
244.291	6661
244.355	3683
244.419	3367
244.483	2445
244.546	2171
244.610	3033
244.674	4025
244.738	4213
244.802	3033
244.866	2678
244.930	1941
244.994	2792
245.058	3097
245.122	4682
245.186	4423
245.249	5132
245.313	3392
245.377	3823
245.441	2021
245.505	3162
245.569	3260
245.632	4000
245.696	10748
245.760	5686
245.824	3203
245.888	3346
245.951	2912
246.015	3502
246.079	4934
246.143	15048
246.207	20504
246.270	7989
246.334	5478
246.398	6199
246.461	9863
246.525	5919
246.589	4307
246.653	4431
246.716	6374
246.780	7334
246.844	8913
246.907	3722
246.971	3453
247.035	3591
247.098	4482
247.162	13950
247.226	30081
247.289	12582
247.353	5640
247.416	11889
247.480	6640
247.544	5780
247.607	6276
247.671	4633
247.734	3278
247.798	5199
247.861	12520
247.925	24733
247.989	8306
248.052	5012
248.116	5367
248.179	10681
248.243	46012
248.306	42174
248.370	26495
248.433	8930
248.497	8530
248.560	13867
248.624	15478
248.687	21352
248.751	47094
248.814	22954
248.877	24342
248.941	33892
249.004	54627
249.068	41463
249.131	16026
249.194	10193
249.258	10737
249.321	8889
249.385	7421
249.448	6748
249.511	7636
249.575	13161
249.638	8356
249.701	5853
249.765	6364
249.828	6066
249.891	6098
249.955	5252
250.018	18940
250.081	22504
250.145	9459
250.208	7022
250.271	7396
250.334	6656
250.398	5415
250.461	8075
250.524	10916
250.587	43600
250.651	61778
250.714	20759
250.777	12772
250.840	7587
250.903	7987
250.967	13564
251.030	27632
251.093	11969
251.156	12407
251.219	10666
251.282	13777
251.345	59908
251.409	47254
251.472	29616
251.535	104637
251.598	59658
251.661	23830
251.724	34151
251.787	31201
251.850	68637
251.913	32168
251.976	14063
252.039	11099
252.103	10459
252.166	23988
252.229	52385
252.292	47658
252.355	91800
252.418	33811
252.481	18884
252.544	12495
252.607	14882
252.670	38444
252.733	42461
252.796	85604
252.858	54771
252.921	31297
252.984	19130
253.047	13326
253.110	10340
253.173	13721
253.236	11651
253.299	12093
253.362	11690
253.425	13068
253.488	29683
253.550	15745
253.613	18844
253.676	18345
253.739	9242
253.802	10668
253.865	9958
253.928	8857
253.990	19787
254.053	26804
254.116	22020
254.179	16630
254.242	9161
254.304	16872
254.367	17986
254.430	14667
254.493	19523
254.555	28695
254.618	15783
254.681	9375
254.743	8765
254.806	8447
254.869	20522
254.932	18873
254.994	9108
255.057	8318
255.120	4575
255.182	4414
255.245	6305
255.308	4051
255.370	3019
255.433	2688
255.496	3399
255.558	3897
255.621	4687
255.683	2420
255.746	3660
255.809	2884
255.871	3391
255.934	3137
255.996	3736
256.059	2802
256.121	4340
256.184	11414
256.246	8063
256.309	7298
256.371	5541
256.434	4318
256.496	3048
256.559	3528
256.621	4919
256.684	9690
256.746	18085
256.809	8085
256.871	4744
256.934	4832
256.996	5921
257.059	4627
257.121	4203
257.183	3457
257.246	3477
257.308	3035
257.371	6956
257.433	28089
257.495	28875
257.558	28192
257.620	15553
257.683	6720
257.745	6765
257.807	3635
257.870	4488
257.932	4343
257.994	4305
258.056	4192
258.119	6433
258.181	10750
258.243	5990
258.306	4725
258.368	19038
258.430	14683
258.492	17851
258.555	19196
258.617	5474
258.679	5554
258.741	10749
258.803	5350
258.866	4022
258.928	4530
258.990	4616
259.052	4825
259.114	6931
259.177	5528
259.239	7852
259.301	21896
259.363	11462
259.425	5586
259.487	5112
259.549	4579
259.611	4686
259.674	4534
259.736	16302
259.798	26025
259.860	43688
259.922	34562
259.984	10093
260.046	5931
260.108	4207
260.170	4530
260.232	3854
260.294	4419
260.356	4078
260.418	8947
260.480	21171
260.542	14386
260.604	28151
260.666	28651
260.728	8272
260.790	8178
260.852	5808
260.914	5723
260.976	5342
261.038	13062
261.100	33351
261.161	21605
261.223	8618
261.285	14912
261.347	18240
261.409	5889
261.471	6537
261.533	3441
261.595	4045
261.656	8716
261.718	21364
261.780	9995
261.842	7612
261.904	5040
261.966	6182
262.027	4614
262.089	8842
262.151	6579
262.213	4979
262.274	14959
262.336	10248
262.398	5536
262.460	10802
262.521	17781
262.583	6220
262.645	3745
262.706	6725
262.768	17459
262.830	6991
262.892	6075
262.953	6066
263.015	31055
263.077	64545
263.138	21546
263.200	13932
263.261	6728
263.323	4305
263.385	3448
263.446	4560
263.508	13351
263.569	7781
263.631	3715
263.693	2519
263.754	3855
263.816	2165
263.877	1817
263.939	1804
264.000	5701
264.062	13400
264.123	5815
264.185	2488
264.246	2426
264.308	10315
264.369	22700
264.431	6366
264.492	3666
264.554	8473
264.615	17253
264.677	6303
264.738	3634
264.800	2262
264.861	2840
264.922	3321
264.984	2179
265.045	3132
265.107	2618
265.168	8942
265.229	6968
265.291	3431
265.352	2720
265.413	2037
265.475	1547
265.536	3177
265.597	2834
265.659	2248
265.720	1264
265.781	1088
265.843	1373
265.904	3175
265.965	15789
266.026	8615
266.088	5267
266.149	5863
266.210	2413
266.271	903
266.333	1835
266.394	2426
266.455	2445
266.516	1425
266.577	6978
266.639	12615
266.700	3178
266.761	2143
266.822	1916
266.883	6089
266.944	2941
267.005	2991
267.067	1919
267.128	1262
267.189	2073
267.250	3245
267.311	2685
267.372	1370
267.433	2696
267.494	2050
267.555	1904
267.616	486
267.677	1414
267.738	1573
267.799	8490
267.860	16832
267.921	7076
267.982	5296
268.043	3051
268.104	3491
268.165	2163
268.226	2117
268.287	2124
268.348	3091
268.409	2786
268.470	1401
268.531	732
268.592	1732
268.653	1415
268.714	2671
268.775	3187
268.836	11523
268.896	12342
268.957	5430
269.018	1958
269.079	2277
269.140	1582
269.201	2560
269.262	1907
269.322	1644
269.383	2799
269.444	4479
269.505	7369
269.565	8670
269.626	4003
269.687	3240
269.748	2097
269.809	4775
269.869	7385
269.930	3108
269.991	1348
270.051	2261
270.112	2355
270.173	2398
270.234	2027
270.294	2711
270.355	2649
270.416	2283
270.476	3246
270.537	7748
270.598	17452
270.658	7176
270.719	3565
270.779	6444
270.840	3771
270.901	3331
270.961	4724
271.022	4615
271.082	8759
271.143	7120
271.203	3211
271.264	3589
271.325	4127
271.385	14046
271.446	6973
271.506	4718
271.567	4900
271.627	3938
271.688	5047
271.748	13234
271.809	49325
271.869	60207
271.930	16993
271.990	30534
272.050	50365
272.111	13112
272.171	6771
272.232	9920
272.292	39508
272.352	17754
272.413	14794
272.473	13298
272.534	13982
272.594	10896
272.654	10359
272.715	19223
272.775	9352
272.835	7961
272.896	4628
272.956	5641
273.016	9675
273.077	8462
273.137	5985
273.197	6836
273.257	28385
273.318	51605
273.378	18516
273.438	19891
273.498	44025
273.559	17163
273.619	28614
273.679	56811
273.739	19204
273.799	10710
273.860	25018
273.920	45154
273.980	12293
274.040	9103
274.100	13718
274.160	69076
274.221	52901
274.281	40081
274.341	47298
274.401	30442
274.461	11744
274.521	10207
274.581	39635
274.641	51970
274.701	19172
274.761	9790
274.821	21670
274.882	74617
274.942	63823
275.002	35000
275.062	13439
275.122	8886
275.182	7509
275.242	9824
275.302	15863
275.362	15733
275.421	10054
275.481	30521
275.541	69086
275.601	40975
275.661	22106
275.721	16069
275.781	9041
275.841	5975
275.901	7665
275.961	6468
276.021	5223
276.081	13401
276.140	35156
276.200	13999
276.260	10857
276.320	6590
276.380	8216
276.440	6383
276.499	4497
276.559	4473
276.619	8433
276.679	23902
276.738	16258
276.798	7288
276.858	8595
276.918	7309
276.978	5049
277.037	5845
277.097	9342
277.157	31757
277.216	12714
277.276	6147
277.336	5176
277.395	6076
277.455	5432
277.515	6624
277.574	23554
277.634	40004
277.694	14061
277.753	54142
277.813	36761
277.873	32825
277.932	93178
277.992	28709
278.051	31235
278.111	40485
278.171	17213
278.230	46869
278.290	26215
278.349	11372
278.409	7793
278.468	7262
278.528	5593
278.587	4979
278.647	6235
278.706	23970
278.766	60721
278.825	16212
278.885	9834
278.944	9860
279.004	14535
279.063	14136
279.122	9503
279.182	7160
279.241	9292
279.301	11674
279.360	24252
279.419	102293
279.479	257402
279.538	195016
279.598	48478
279.657	28627
279.716	50900
279.776	90655
279.835	30551
279.894	17264
279.953	15167
280.013	36213
280.072	58558
280.131	36305
280.191	179474
280.250	179847
280.309	42421
280.368	32594
280.428	29185
280.487	14393
280.546	12878
280.605	20609
280.664	27216
280.724	9891
280.783	7470
280.842	6848
280.901	6333
280.960	7885
281.019	6030
281.079	6299
281.138	5462
281.197	8452
281.256	41584
281.315	27808
281.374	7340
281.433	5686
281.492	5303
281.551	5001
281.611	4530
281.670	5734
281.729	7316
281.788	5184
281.847	4472
281.906	5066
281.965	3913
282.024	3587
282.083	3723
282.142	3724
282.201	5394
282.260	20835
282.319	12086
282.378	5338
282.436	7353
282.495	31794
282.554	15569
282.613	5896
282.672	5336
282.731	9330
282.790	9403
282.849	7525
282.908	4548
282.967	2651
283.025	4299
283.084	6532
283.143	22028
283.202	40898
283.261	10829
283.319	6125
283.378	5809
283.437	6829
283.496	9555
283.555	7840
283.613	5558
283.672	4432
283.731	13186
283.790	13446
283.848	5319
283.907	5863
283.966	8294
284.024	9203
284.083	6335
284.142	16697
284.201	9798
284.259	11526
284.318	43534
284.376	33086
284.435	10723
284.494	14943
284.552	12629
284.611	9881
284.670	10555
284.728	12130
284.787	16684
284.845	17141
284.904	16885
284.962	24437
285.021	49560
285.079	151276
285.138	422385
285.197	375485
285.255	143188
285.314	71908
285.372	43196
285.431	30451
285.489	22881
285.547	18461
285.606	13957
285.664	10892
285.723	10255
285.781	10129
285.840	9435
285.898	6980
285.957	5746
286.015	5229
286.073	4821
286.132	7948
286.190	11263
286.248	8067
286.307	11381
286.365	8519
286.423	5164
286.482	3837
286.540	4178
286.598	7095
286.657	5735
286.715	5081
286.773	6699
286.832	11489
286.890	16796
286.948	7191
287.006	4544
287.064	4808
287.123	4345
287.181	7905
287.239	4979
287.297	7166
287.356	17469
287.414	9974
287.472	7460
287.530	5176
287.588	5491
287.646	11114
287.704	18395
287.763	8584
287.821	5991
287.879	5869
287.937	8242
287.995	22523
288.053	117752
288.111	340264
288.169	122899
288.227	36354
288.285	22435
288.343	26234
288.401	21412
288.459	10825
288.517	8691
288.575	6647
288.633	4696
288.691	5951
288.749	4880
288.807	5645
288.865	6231
288.923	4292
288.981	3955
289.039	6175
289.097	6663
289.155	5126
289.213	5270
289.271	4682
289.329	5223
289.386	9582
289.444	9094
289.502	4966
289.560	2233
289.618	2459
289.676	2438
289.734	3470
289.791	2731
289.849	4991
289.907	5379
289.965	3616
290.022	2911
290.080	3995
290.138	5546
290.196	2486
290.253	2410
290.311	2622
290.369	2419
290.427	1835
290.484	2009
290.542	3033
290.600	4093
290.657	2882
290.715	4514
290.773	4311
290.830	4975
290.888	4521
290.946	4552
291.003	3615
291.061	4498
291.118	19585
291.176	38727
291.234	12357
291.291	4592
291.349	4140
291.406	4346
291.464	3899
291.521	3743
291.579	2344
291.636	3123
291.694	4605
291.751	9407
291.809	6086
291.866	4286
291.924	2663
291.981	4887
292.039	4336
292.096	3913
292.154	4083
292.211	5241
292.268	11386
292.326	13953
292.383	8701
292.441	5960
292.498	6941
292.555	8095
292.613	10449
292.670	6131
292.727	9095
292.785	24293
292.842	45848
292.899	23496
292.957	7894
293.014	5837
293.071	5527
293.129	4667
293.186	4808
293.243	11631
293.300	12666
293.358	5746
293.415	4966
293.472	4221
293.529	9509
293.586	34226
293.644	79874
293.701	36148
293.758	16812
293.815	14878
293.872	21085
293.929	15424
293.987	10320
294.044	21426
294.101	41607
294.158	45447
294.215	18073
294.272	8507
294.329	7797
294.386	11173
294.443	10115
294.500	7610
294.558	6059
294.615	6930
294.672	24433
294.729	93631
294.786	82615
294.843	40312
294.900	29321
294.957	18177
295.014	13250
295.070	8100
295.127	7235
295.184	5772
295.241	9296
295.298	38077
295.355	67475
295.412	27043
295.469	15289
295.526	33968
295.583	52018
295.640	43468
295.696	55366
295.753	21531
295.810	11836
295.867	11179
295.924	15705
295.981	14460
296.037	7347
296.094	5665
296.151	3638
296.208	3878
296.265	3650
296.321	4501
296.378	7738
296.435	27640
296.492	47304
296.548	29046
296.605	69393
296.662	91025
296.718	32118
296.775	15819
296.832	16931
296.888	37781
296.945	69898
297.002	47911
297.058	17820
297.115	11759
297.172	19648
297.228	80640
297.285	127932
297.341	46134
297.398	16698
297.454	10783
297.511	7989
297.568	8577
297.624	7220
297.681	6240
297.737	4935
297.794	3798
297.850	4587
297.907	4915
297.963	5530
298.020	12458
298.076	40604
298.133	33461
298.189	16091
298.245	33362
298.302	86881
298.358	49199
298.415	29435
298.471	23678
298.527	17811
298.584	12710
298.640	21606
298.697	42361
298.753	27539
298.809	11801
298.866	6641
298.922	6059
298.978	8248
299.035	7296
299.091	6621
299.147	5968
299.203	5118
299.260	5937
299.316	18957
299.372	78213
299.428	71991
299.485	27262
299.541	12526
299.597	10736
299.653	13251
299.710	12557
299.766	8696
299.822	16355
299.878	60022
299.934	62448
299.990	61177
300.046	102069
300.103	48898
300.159	22206
300.215	26789
300.271	26451
300.327	14748
300.383	9130
300.439	7294
300.495	6456
300.551	9345
300.607	28943
300.663	53148
300.719	59145
300.775	74761
300.831	45077
300.887	57673
300.943	40623
300.999	16938
301.055	11536
301.111	11791
301.167	9104
301.223	6848
301.279	6177
301.335	4966
301.391	4977
301.447	4226
301.503	7967
301.559	15506
301.614	17463
301.670	31577
301.726	40214
301.782	26517
301.838	37509
301.894	38274
301.949	80670
302.005	219838
302.061	199767
302.117	83104
302.173	33442
302.228	21885
302.284	21467
302.340	42980
302.396	34378
302.451	30562
302.507	78454
302.563	83954
302.618	43819
302.674	18141
302.730	11123
302.785	8433
302.841	8191
302.897	15520
302.952	25208
303.008	21094
303.064	24954
303.119	27162
303.175	13557
303.230	7543
303.286	6145
303.341	5958
303.397	4918
303.453	4632
303.508	5623
303.564	8028
303.619	23675
303.675	71759
303.730	55456
303.786	22450
303.841	11187
303.897	8419
303.952	14093
304.008	19944
304.063	18964
304.118	33307
304.174	33479
304.229	26593
304.285	14062
304.340	9418
304.372	9912
304.395	10304
304.451	9978
304.463	9756
304.506	9144
304.554	10639
304.562	10944
304.617	21397
304.644	39220
304.672	57910
304.728	77490
304.735	72351
304.783	39232
304.825	22351
304.838	17337
304.894	9906
304.916	9145
304.949	8241
305.004	6608
305.006	6574
305.059	6287
305.097	5085
305.115	4569
305.170	3803
305.188	4400
305.225	5710
305.278	7240
305.280	7328
305.336	7109
305.369	6725
305.391	6543
305.446	9254
305.459	9338
305.501	9698
305.550	10728
305.556	10913
305.612	23217
305.640	44567
305.667	64942
305.722	76833
305.731	73242
305.777	54283
305.821	65610
305.832	68942
305.887	64679
305.912	51502
305.942	33969
305.997	18672
306.002	17983
306.053	12087
306.092	9128
306.108	8151
306.163	7112
306.183	6857
306.218	6396
306.273	6469
306.273	6454
306.328	6858
306.364	6615
306.383	6473
306.438	7586
306.454	10273
306.493	16977
306.545	49141
306.548	51383
306.603	77244
306.635	76893
306.658	76849
306.713	50605
306.725	44884
306.768	24482
306.816	13545
306.823	12116
306.878	8932
306.906	7963
306.933	7191
306.988	7824
306.997	8184
307.043	10533
307.087	17445
307.098	19171
307.152	37872
307.177	44558
307.207	52979
307.262	59137
307.268	56966
307.317	37023
307.358	27445
307.372	24497
307.427	41148
307.448	54209
307.482	75792
307.536	67707
307.538	66445
307.591	33141
307.629	21454
307.646	16542
307.701	15009
307.719	20150
307.756	31816
307.809	64030
307.810	64743
307.865	51597
307.900	36813
307.920	27479
307.975	13531
307.990	12632
308.029	11860
308.080	21862
308.084	22987
308.139	64834
308.170	70464
308.194	72629
308.248	43497
308.261	41563
308.303	32227
308.351	23315
308.358	22383
308.412	12500
308.441	9925
308.467	7900
308.522	5919
308.531	5840
308.576	6122
308.621	8559
308.631	9134
308.686	23224
308.712	38019
308.740	55266
308.795	53526
308.802	51461
308.849	32485
308.892	21452
308.904	18811
308.959	13290
308.982	12813
309.013	13088
309.068	20097
309.072	21001
309.122	31834
309.162	55259
309.177	66455
309.231	116671
309.253	110507
309.286	86597
309.340	45052
309.343	44004
309.395	22313
309.433	13399
309.449	11602
309.504	9657
309.523	10296
309.558	12477
309.613	22381
309.613	22457
309.667	30246
309.703	26932
309.722	23394
309.776	13662
309.793	11905
309.830	9746
309.883	12999
309.885	13169
309.939	28394
309.973	32551
309.994	33552
310.048	25209
310.063	22805
310.102	14066
310.153	7884
310.157	7633
310.211	5586
310.243	5219
310.265	5229
310.320	6800
310.333	6859
310.374	6581
310.423	5724
310.428	5616
310.483	5466
310.513	5806
310.537	6198
310.591	7007
310.603	6733
310.646	5111
310.693	3272
310.700	3011
310.754	1735
310.783	1474
310.808	1361
310.862	1368
310.873	1472
310.917	1572
310.963	1690
310.971	1790
311.025	2594
311.053	2679
311.079	2386
311.133	2054
311.143	1974
311.188	1580
311.233	1441
311.242	1429
311.296	1335
311.323	1400
311.350	1309
311.404	1146
311.413	1118
311.458	767
311.503	481
311.512	526
311.567	1022
311.593	1312
311.621	1459
311.675	1786
311.683	1862
311.729	2015
311.772	2073
311.783	1911
311.837	1252
311.862	1099
311.891	1744
311.945	2993
311.952	3197
311.999	1982
312.042	990
312.053	958
312.107	1051
312.132	1130
312.222	1107
312.311	794
312.401	188
312.491	647
312.581	1610
312.671	1037
312.760	274
312.850	1354
312.940	579
313.030	833
313.119	552
313.209	900
313.299	880
313.389	1112
313.478	1366
313.568	959
313.658	77
313.747	414
313.837	129
313.927	731
314.016	17
314.106	878
314.195	282
314.285	1722
314.375	1132
314.464	1120
314.554	362
314.643	413
314.733	309
314.823	1316
314.912	440
315.002	1169
315.091	906
315.181	1343
315.270	1055
315.360	1368
315.449	658
315.539	705
315.628	1391
315.718	1168
315.807	2642
315.896	7618
315.986	1689
316.075	3449
316.165	5693
316.254	5027
316.344	1616
316.433	432
316.522	204
316.612	815
316.701	375
316.790	3558
316.880	4169
316.969	1104
317.058	900
317.148	529
317.237	512
317.326	1472
317.415	197
317.505	1178
317.594	777
317.683	1032
317.772	1343
317.862	5923
317.951	12291
318.040	3465
318.129	2635
318.219	956
318.308	2345
318.397	3047
318.486	2557
318.575	4925
318.664	6791
318.754	1096
318.843	1310
318.932	857
319.021	2474
319.110	6450
319.199	10948
319.288	4680
319.377	2468
319.466	1128
319.555	1301
319.644	3767
319.733	2461
319.822	1292
319.911	5257
320.000	13554
320.089	2342
320.178	1945
320.267	2524
320.356	1848
320.445	893
320.534	1380
320.623	738
320.712	1075
320.801	841
320.890	826
320.979	1312
321.068	2026
321.157	3193
321.245	2310
321.334	3084
321.423	6178
321.512	2293
321.601	2517
321.690	5279
321.779	3489
321.867	2068
321.956	3461
322.045	1920
322.134	3122
322.222	7828
322.311	5978
322.400	1986
322.489	3552
322.577	7648
322.666	3150
322.755	3791
322.843	5624
322.932	6727
323.021	2875
323.110	2117
323.198	1890
323.287	2474
323.375	10379
323.464	20835
323.553	6261
323.641	18297
323.730	5768
323.819	5497
323.907	16156
323.996	3831
324.084	2438
324.173	10733
324.261	4274
324.350	1596
324.438	2094
324.527	920
324.615	900
324.704	1951
324.792	4658
324.881	3317
324.969	1310
325.058	1121
325.146	3923
325.235	7085
325.323	5514
325.412	5263
325.500	1307
325.588	466
325.677	827
325.765	2
325.853	333
325.942	727
326.030	1015
326.118	3077
326.207	2837
326.295	272
326.383	575
326.472	454
326.560	1746
326.648	473
326.737	372
326.825	533
326.913	747
327.001	1181
327.090	1890
327.178	1967
327.266	707
327.354	976
327.442	1126
327.531	-72
327.619	1078
327.707	329
327.795	2073
327.883	2378
327.971	1399
328.060	2
328.148	1088
328.236	1001
328.324	574
328.412	-67
328.500	518
328.588	842
328.676	3750
328.764	977
328.852	954
328.940	445
329.028	93
329.116	186
329.204	2264
329.292	250
329.380	561
329.468	429
329.556	750
329.644	-239
329.732	505
329.820	276
329.908	1076
329.996	85
330.084	336
330.172	1408
330.259	2280
330.347	653
330.435	485
330.523	1460
330.611	4417
330.699	1807
330.787	988
330.874	1479
330.962	1034
331.050	78
331.138	-511
331.226	459
331.313	613
331.401	1697
331.489	1998
331.577	776
331.664	724
331.752	556
331.840	1729
331.927	-144
332.015	28
332.103	790
332.190	3219
332.278	8223
332.366	2663
332.453	506
332.541	98
332.629	1162
332.716	544
332.804	706
332.891	5169
332.979	4976
333.066	798
333.154	1685
333.242	2899
333.329	6
333.417	659
333.504	5777
333.592	2147
333.679	1796
333.767	1319
333.854	206
333.942	1266
334.029	4633
334.117	9383
334.204	13783
334.291	2113
334.379	1461
334.466	319
334.554	569
334.641	1342
334.728	1088
334.816	7377
334.903	34850
334.990	14268
335.078	1484
335.165	29
335.252	544
335.340	1810
335.427	8784
335.514	5133
335.602	627
335.689	250
335.776	825
335.863	868
335.951	184
336.038	9843
336.125	24937
336.212	5284
336.299	978
336.387	-136
336.474	-252
336.561	807
336.648	957
336.735	218
336.822	124
336.910	1392
336.997	3153
337.084	11353
337.171	12314
337.258	20052
337.345	5309
337.432	869
337.519	327
337.606	680
337.693	4870
337.780	5423
337.867	1548
337.954	3012
338.041	4347
338.128	190
338.215	1067
338.302	8299
338.389	14624
338.476	2729
338.563	5439
338.650	2876
338.737	4663
338.824	2933
338.911	147
338.998	421
339.085	740
339.171	1337
339.258	2020
339.345	1781
339.432	3725
339.519	631
339.606	-661
339.692	-416
339.779	-460
339.866	236
339.953	804
340.040	264
340.126	477
340.213	866
340.300	112
340.387	924
340.473	720
340.560	100
340.647	1168
340.733	5032
340.820	569
340.907	460
340.993	719
341.080	-406
341.167	583
341.253	761
341.340	972
341.426	599
341.513	1310
341.600	219
341.686	51
341.773	1761
341.859	610
341.946	-150
342.032	-751
342.119	766
342.205	352
342.292	211
342.378	878
342.465	1064
342.551	570
342.638	2240
342.724	3743
342.811	1300
342.897	37
342.984	-405
343.070	-851
343.156	-74
343.243	476
343.329	508
343.416	-299
343.502	249
343.588	-402
343.675	941
343.761	11
343.847	799
343.934	2996
344.020	31788
344.106	27990
344.193	3330
344.279	2274
344.365	11012
344.451	4503
344.538	1284
344.624	5
344.710	48
344.796	-419
344.882	518
344.969	147
345.055	1003
345.141	91
345.227	959
345.313	1075
345.399	-49
345.486	-560
345.572	-226
345.658	274
345.744	425
345.830	-199
345.916	361
346.002	535
346.088	1800
346.174	1414
346.260	70
346.346	-411
346.432	688
346.518	7073
346.604	9347
346.690	421
346.776	235
346.862	205
346.948	-346
347.034	143
347.120	604
347.206	-36
347.292	1024
347.378	1365
347.464	7385
347.549	15149
347.635	10279
347.721	4193
347.807	899
347.893	176
347.979	491
348.065	235
348.150	-207
348.236	-147
348.322	-244
348.408	135
348.493	924
348.579	261
348.665	202
348.751	-384
348.836	-413
348.922	1312
349.008	13591
349.094	8884
349.179	361
349.265	-119
349.351	297
349.436	381
349.522	128
349.608	130
349.693	3144
349.779	6735
349.864	1076
349.950	298
350.036	307
350.121	556
350.207	-473
350.292	-1520
350.378	543
350.463	1263
350.549	233
350.634	-410
350.720	-316
350.805	-112
350.891	149
350.976	799
351.062	1307
351.147	-432
351.233	-23
351.318	3108
351.404	3451
351.489	-553
351.574	-431
351.660	243
351.745	-178
351.830	-476
351.916	216
352.001	848
352.086	5473
352.172	2459
352.257	531
352.342	668
352.428	573
352.513	1909
352.598	7859
352.684	1229
352.769	215
352.854	-855
352.939	117
353.024	-407
353.110	1072
353.195	921
353.280	1211
353.365	198
353.450	559
353.536	246
353.621	1469
353.706	55
353.791	1367
353.876	-102
353.961	-25
354.046	1529
354.131	2509
354.216	1483
354.302	572
354.387	-240
354.472	49
354.557	-142
354.642	344
354.727	582
354.812	1094
354.897	-874
354.982	179
355.067	-144
355.152	-1398
355.237	488
355.321	672
355.406	2031
355.491	3407
355.576	1360
355.661	2141
355.746	2019
355.831	9548
355.916	1972
356.001	513
356.085	-376
356.170	-93
356.255	-139
356.340	-56
356.425	3492
356.509	22726
356.594	6347
356.679	1108
356.764	1340
356.849	2559
356.933	23094
357.018	34224
357.103	4263
357.187	1278
357.272	199
357.357	1243
357.441	468
357.526	68
357.611	-202
357.695	66
357.780	839
357.865	1054
357.949	618
358.034	20055
358.118	38776
358.203	4924
358.288	567
358.372	613
358.457	7185
358.541	11276
358.626	6678
358.710	6460
358.795	1168
358.879	652
358.964	998
359.048	446
359.133	-849
359.217	-224
359.302	-116
359.386	367
359.470	449
359.555	616
359.639	35
359.724	-96
359.808	-244
359.892	266
359.977	-74
360.061	288
360.145	-376
360.230	1111
360.314	399
360.398	1073
360.483	505
360.567	1807
360.651	3640
360.735	1678
360.820	16110
360.904	16200
360.988	4119
361.072	1132
361.157	408
361.241	-590
361.325	-151
361.409	668
361.493	414
361.577	-97
361.662	128
361.746	3699
361.830	24744
361.914	11724
361.998	918
362.082	1033
362.166	1243
362.250	1115
362.334	1120
362.418	2462
362.502	205
362.586	67
362.671	-289
362.754	504
362.839	295
362.922	-114
363.006	6354
363.090	27033
363.174	14739
363.258	1958
363.342	490
363.426	2394
363.510	10652
363.594	3367
363.678	573
363.762	86
363.846	405
363.929	267
364.013	853
364.097	935
364.181	4855
364.265	12175
364.349	3748
364.432	7345
364.516	1297
364.600	2063
364.684	8058
364.767	23447
364.851	4288
364.935	2076
365.019	163
365.102	2162
365.186	185
365.270	6491
365.353	11126
365.437	1979
365.521	-325
365.604	-1450
365.688	500
365.771	200
365.855	-305
365.939	-368
366.022	-84
366.106	-804
366.189	-899
366.273	150
366.357	-572
366.440	365
366.524	-447
366.607	-204
366.691	163
366.774	-310
366.858	550
366.941	810
367.024	199
367.108	300
367.191	390
367.275	-522
367.358	-834
367.442	884
367.525	-317
367.608	545
367.692	285
367.775	122
367.858	418
367.942	8681
368.025	4137
368.108	-238
368.192	486
368.275	1672
368.358	381
368.442	5446
368.525	6978
368.608	2743
368.691	7958
368.775	4447
368.858	651
368.941	1742
369.024	474
369.107	-147
369.190	-768
369.274	778
369.357	815
369.440	487
369.523	193
369.606	-1189
369.689	275
369.772	-1136
369.855	-721
369.939	-478
370.022	15
370.105	157
370.188	1211
370.271	126
370.354	876
370.437	3236
370.520	13926
370.603	4889
370.686	776
370.769	4392
370.852	8595
370.935	7958
371.018	888
371.100	-470
371.183	78
371.266	-131
371.349	-843
371.432	-80
371.515	-146
371.598	769
371.681	1236
371.763	1003
371.846	1349
371.929	25720
372.012	17461
372.095	3513
372.177	8727
372.260	10211
372.343	874
372.426	1643
372.508	1452
372.591	378
372.674	5936
372.757	9452
372.839	1400
372.922	4927
373.005	2610
373.087	399
373.170	727
373.253	7384
373.335	10325
373.418	34170
373.500	27984
373.583	7127
373.666	31942
373.748	11504
373.831	1006
373.913	1322
373.996	1559
374.078	7136
374.161	2339
374.243	4362
374.326	7999
374.408	3534
374.491	24023
374.573	26102
374.656	3972
374.738	9967
374.821	20156
374.903	38203
374.985	12196
375.068	880
375.150	1376
375.233	8131
375.315	5166
375.397	1208
375.480	-204
375.562	194
375.644	1117
375.727	11736
375.809	26733
375.891	12974
375.973	2639
376.056	5131
376.138	4487
376.220	233
376.302	13407
376.385	14127
376.467	2086
376.549	1334
376.631	7950
376.713	12959
376.795	1669
376.878	-524
376.960	-977
377.042	-99
377.124	850
377.206	-464
377.288	-919
377.370	-566
377.452	-333
377.534	180
377.616	-23
377.699	-125
377.781	-1227
377.863	312
377.945	-401
378.027	-1040
378.109	-554
378.190	-296
378.272	633
378.354	-233
378.436	-183
378.518	667
378.600	1171
378.682	2338
378.764	6054
378.846	1346
378.928	486
379.010	897
379.091	410
379.173	144
379.255	-1215
379.337	193
379.419	4283
379.501	6760
379.582	275
379.664	693
379.746	1670
379.828	5853
379.909	6620
379.991	2209
380.073	-553
380.155	295
380.236	-449
380.318	-132
380.400	-52
380.481	1075
380.563	789
380.645	995
380.726	-168
380.808	533
380.889	392
380.971	-352
381.053	-308
381.134	207
381.216	2427
381.297	4757
381.379	896
381.460	3848
381.542	21488
381.623	6604
381.705	895
381.786	1067
381.868	1668
381.949	16099
382.031	28914
382.112	7145
382.193	629
382.275	1806
382.356	7445
382.438	12581
382.519	25419
382.600	16804
382.682	7947
382.763	15912
382.844	10795
382.926	14465
383.007	2737
383.088	6165
383.170	37457
383.251	19715
383.332	13321
383.413	16298
383.495	2163
383.576	1777
383.657	3284
383.738	34448
383.820	49737
383.901	8065
383.982	14558
384.063	18170
384.144	2396
384.225	1106
384.306	175
384.388	639
384.469	528
384.550	897
384.631	557
384.712	712
384.793	149
384.874	742
384.955	6536
385.036	2724
385.117	-230
385.198	1169
385.279	738
385.360	1132
385.441	-464
385.522	4355
385.603	13068
385.684	3577
385.765	434
385.846	2271
385.927	23131
386.008	12736
386.089	-7
386.169	407
386.250	28
386.331	1008
386.412	258
386.493	5068
386.574	1864
386.654	545
386.735	-300
386.816	761
386.897	-178
386.977	1283
387.058	-116
387.139	1882
387.220	5367
387.300	2611
387.381	330
387.462	171
387.542	599
387.623	-155
387.704	3982
387.784	15092
387.865	7050
387.946	1462
388.026	-338
388.107	-1013
388.187	1569
388.268	1594
388.349	114
388.429	857
388.510	4586
388.590	19405
388.671	7777
388.751	3023
388.832	3179
388.912	174
388.993	-1104
389.073	897
389.154	-534
389.234	-756
389.314	974
389.395	-527
389.475	3973
389.556	5373
389.636	1135
389.716	806
389.797	6
389.877	5229
389.957	7817
390.038	1798
390.118	-689
390.198	2596
390.279	4764
390.359	571
390.439	4000
390.519	7831
390.600	2984
390.680	117
390.760	391
390.840	1038
390.920	-24
391.001	-264
391.081	375
391.161	-419
391.241	-591
391.321	1575
391.401	1680
391.481	517
391.562	-1203
391.642	-108
391.722	787
391.802	422
391.882	-32
391.962	5021
392.042	2128
392.122	1456
392.202	3624
392.282	6711
392.362	1697
392.442	1149
392.522	-162
392.602	1244
392.682	3391
392.762	8199
392.842	1947
392.921	6505
393.001	9635
393.081	2632
393.161	5985
393.241	39974
393.321	136362
393.401	45754
393.480	7676
393.560	1825
393.640	878
393.720	390
393.800	918
393.879	1200
393.959	-89
394.039	591
394.119	289
394.198	505
394.278	7375
394.358	28531
394.437	7690
394.517	1093
394.597	385
394.676	1796
394.756	3700
394.836	4249
394.915	496
394.995	-163
395.075	-88
395.154	891
395.234	-250
395.313	199
395.393	-734
395.472	1404
395.552	2829
395.631	5090
395.711	3111
395.790	6407
395.870	1207
395.949	1146
396.029	10532
396.108	42912
396.188	11265
396.267	2648
396.346	186
396.426	444
396.505	1023
396.585	1554
396.664	5122
396.743	51547
396.823	94055
396.902	23719
396.981	2967
397.061	1949
397.140	-589
397.219	990
397.298	980
397.378	546
397.457	573
397.536	-160
397.615	-1533
397.694	1073
397.774	-209
397.853	27
397.932	-83
398.011	-518
398.090	3152
398.169	4207
398.249	155
398.328	582
398.407	-170
398.486	-64
398.565	19
398.644	-701
398.723	-66
398.802	-90
398.881	3604
398.960	5007
399.039	707
399.118	-363
399.197	-27
399.276	600
399.355	-399
399.434	-410
399.513	-109
399.592	-592
399.671	672
399.750	2039
399.829	7991
399.908	1888
399.986	-159
400.065	-914
400.144	-879
400.223	1409
400.302	-287
400.380	-545
400.459	4076
400.538	1575
400.617	85
400.696	291
400.774	165
400.853	277
400.932	-822
401.011	1547
401.089	-448
401.168	99
401.247	-779
401.325	-265
401.404	2
401.483	-572
401.561	379
401.640	-110
401.718	-114
401.797	-541
401.876	139
401.954	-154
402.033	-271
402.111	818
402.190	-1135
402.268	-600
402.347	446
402.425	1139
402.504	-784
402.582	980
402.661	-215
402.739	-336
402.818	571
402.896	643
402.974	4098
403.053	7413
403.131	1249
403.210	4713
403.288	5450
403.366	4160
403.445	2258
403.523	300
403.601	-289
403.680	-1096
403.758	66
403.836	-231
403.915	-437
403.993	-1341
404.071	1400
404.149	204
404.228	-506
404.306	158
404.384	-194
404.462	4942
404.540	21875
404.618	3958
404.697	-218
404.775	1342
404.853	-400
404.931	-611
405.009	-437
405.087	-105
405.165	-377
405.243	-1052
405.321	469
405.399	-348
405.478	502
405.556	786
405.634	-1129
405.712	-735
405.790	31
405.868	-129
405.945	-247
406.023	244
406.101	-1474
406.179	804
406.257	5331
406.335	11266
406.413	1828
406.491	675
406.569	-252
406.647	-443
406.724	357
406.802	45
406.880	-194
406.958	109
407.036	-220
407.113	10851
407.191	2876
407.269	1003
407.347	-495
407.424	-63
407.502	-793
407.580	688
407.658	0
407.735	595
407.813	-175
407.891	79
407.968	-1149
408.046	10
408.124	-420
408.201	1016
408.279	-434
408.356	-515
408.434	2
408.512	-631
408.589	-595
408.667	-34
408.744	-463
408.822	-391
408.899	-745
408.977	-43
409.054	-756
409.132	405
409.209	-108
409.287	-367
409.364	-333
409.441	-278
409.519	-477
409.596	-109
409.674	-538
409.751	-217
409.828	67
409.906	-21
409.983	-1706
410.060	-473
410.138	214
410.215	-433
410.292	-394
410.370	-392
410.447	154
410.524	-424
410.601	-75
410.678	-172
410.756	-865
410.833	-1100
410.910	827
410.987	75
411.064	-954
411.142	210
411.219	-178
411.296	-352
411.373	-750
411.450	254
411.527	-12
411.604	-867
411.681	-937
411.758	-374
411.835	-255
411.913	-859
411.990	-439
412.067	-12
412.144	-773
412.221	-652
412.298	-469
412.374	-724
412.451	81
412.528	-37
412.605	-903
412.682	-704
412.759	20
412.836	-489
412.913	-1577
412.990	252
413.067	-250
413.143	2426
413.220	1380
413.297	-1049
413.374	581
413.451	-1054
413.527	-454
413.604	-484
413.681	-1251
413.758	-153
413.834	-180
413.911	-1217
413.988	-1497
414.065	51
414.141	-171
414.218	-62
414.295	2455
414.371	4503
414.448	-741
414.524	-628
414.601	-271
414.678	-188
414.754	-1013
414.831	-1159
414.907	-152
414.984	-623
415.060	-1037
415.137	-324
415.213	479
415.290	189
415.366	-199
415.443	-505
415.519	-362
415.596	-1322
415.672	-12
415.749	-509
415.825	-648
415.902	-633
415.978	-822
416.054	82
416.131	-567
416.207	-1381
416.283	-632
416.360	-425
416.436	-651
416.512	-196
416.589	-1228
416.665	68
416.741	-632
416.817	-192
416.894	-380
416.970	-30
417.046	267
417.122	-578
417.198	-91
417.275	-449
417.351	-1353
417.427	-37
417.503	-642
417.579	-567
417.655	-531
417.731	-690
417.808	-1038
417.884	-301
417.960	-954
418.036	-1000
418.112	330
418.188	-210
418.264	-591
418.340	445
418.416	-702
418.492	-98
418.568	-770
418.644	268
418.720	309
418.796	-68
418.872	-513
418.947	-346
419.023	-123
419.099	678
419.175	-1153
419.251	-512
419.327	-1470
419.403	-284
419.478	-923
419.554	-510
419.630	-962
419.706	-1006
419.782	731
419.857	570
419.933	-573
420.009	-189
420.085	32
420.160	2743
420.236	205
420.312	-750
420.387	-1069
420.463	-854
420.539	-165
420.614	-829
420.690	-241
420.766	-1653
420.841	223
420.917	-1307
420.992	-904
421.068	-1447
421.143	-529
421.219	-1764
421.294	-340
421.370	-1363
421.445	-85
421.521	-1116
421.596	-493
421.672	-36
421.747	64
421.823	-806
421.898	-346
421.974	-582
422.049	-46
422.124	-915
422.200	-431
422.275	108
422.350	483
422.426	814
422.501	6690
422.576	37204
422.652	46115
422.727	11292
422.802	2816
422.878	818
422.953	-349
423.028	-508
423.103	85
423.178	-1034
423.254	-874
423.329	1141
423.404	-1014
423.479	647
423.554	-468
423.630	-426
423.705	-432
423.780	-667
423.855	-367
423.930	-524
424.005	-918
424.080	-251
424.155	-1364
424.230	-729
424.305	-399
424.380	-1014
424.455	-432
424.530	-585
424.605	-579
424.680	-494
424.755	-745
424.830	-629
424.905	-1044
424.980	1746
425.055	1396
425.130	-581
425.204	-321
425.279	-1196
425.354	-1063
425.429	-1421
425.504	-233
425.579	-570
425.653	-1151
425.728	-556
425.803	-374
425.878	-343
425.952	858
426.027	1744
426.102	-951
426.177	-640
426.251	893
426.326	-1476
426.401	-1076
426.475	-796
426.550	-1036
426.625	-589
426.699	-673
426.774	-931
426.848	-789
426.923	-550
426.998	-384
427.072	5248
427.147	6615
427.221	771
427.296	-582
427.370	-539
427.445	-974
427.519	-1088
427.594	-346
427.668	-434
427.743	-1384
427.817	-892
427.892	-985
427.966	-887
428.040	-740
428.115	-191
428.189	2162
428.263	4565
428.338	-27
428.412	-1149
428.486	-588
428.561	-69
428.635	-363
428.709	-121
428.784	505
428.858	5375
428.932	1978
429.006	170
429.080	-499
429.155	-1084
429.229	-941
429.303	-206
429.377	328
429.451	-848
429.526	-283
429.600	-351
429.674	-1738
429.748	-42
429.822	3431
429.896	2961
429.970	2296
430.044	2735
430.118	2543
430.192	12852
430.266	3234
430.340	-343
430.414	-286
430.488	1594
430.562	2111
430.636	1763
430.710	12152
430.784	6028
430.858	-747
430.932	-415
431.006	-54
431.080	-1309
431.153	-1657
431.227	-937
431.301	-1370
431.375	413
431.449	-764
431.523	-191
431.596	-1338
431.670	-656
431.744	728
431.818	5216
431.891	167
431.965	-236
432.039	-300
432.112	-1176
432.186	-338
432.260	-1077
432.333	-1490
432.407	-251
432.481	5070
432.554	6497
432.628	1162
432.702	-774
432.775	-1456
432.849	-1013
432.922	-635
432.996	-1580
433.069	-1751
433.143	-593
433.216	-685
433.290	-714
433.363	-1215
433.437	-964
433.510	-1729
433.584	-822
433.657	-1562
433.730	-319
433.804	-948
433.877	-835
433.951	-772
434.024	-493
434.097	-1573
434.171	-881
434.244	-1107
434.317	-1460
434.391	-869
434.464	-939
434.537	-931
434.610	-1152
434.684	-1240
434.757	-114
434.830	-1423
434.903	-727
434.977	-1394
435.050	-1035
435.123	-1233
435.196	-947
435.269	-764
435.342	-692
435.415	-858
435.489	-565
435.562	-1145
435.635	-957
435.708	-2090
435.781	-977
435.854	-1398
435.927	-1039
436.000	-2006
436.073	-500
436.146	-1435
436.219	-1191
436.292	-1001
436.365	-965
436.438	-1215
436.511	-971
436.584	-1414
436.657	-1070
436.729	-1072
436.802	-849
436.875	-101
436.948	-957
437.021	-1013
437.094	-467
437.166	-1701
437.239	-549
437.312	-859
437.385	-936
437.457	-1235
437.530	-935
437.603	-1003
437.676	-696
437.748	-1648
437.821	-963
437.894	-1307
437.966	-1582
438.039	-1398
438.112	-426
438.184	-513
438.257	8351
438.330	11275
438.402	1483
438.475	-1067
438.547	-757
438.620	-1980
438.692	-1018
438.765	-1370
438.837	-872
438.910	-1180
438.982	-1107
439.055	-1998
439.127	86
439.200	-1221
439.272	-1131
439.345	-659
439.417	-624
439.489	-1277
439.562	-996
439.634	-1021
439.707	-1347
439.779	-1831
439.851	-519
439.923	-957
439.996	-1062
440.068	-1216
440.140	-980
440.213	-1631
440.285	-573
440.357	1533
440.429	7360
440.502	676
440.574	-439
440.646	-202
440.718	-1004
440.790	-630
440.862	-815
440.935	-1589
441.007	-545
441.079	-542
441.151	-1151
441.223	-1437
441.295	-1452
441.367	-821
441.439	1568
441.511	130
441.583	-699
441.655	-511
441.727	-1019
441.799	-2375
441.871	-1387
441.943	-1609
442.015	-1305
442.087	-747
442.159	-766
442.231	-1292
442.303	-12
442.374	-597
442.446	2039
442.518	2471
442.590	-27
442.662	119
442.734	-1112
442.805	-1744
442.877	-1138
442.949	-754
443.021	-1187
443.092	-1112
443.164	-1322
443.236	-1245
443.308	-923
443.379	1980
443.451	8996
443.523	4268
443.594	430
443.666	-660
443.737	-1005
443.809	-1651
443.881	-903
443.952	-1341
444.024	-541
444.095	-841
444.167	-600
444.238	-114
444.310	-703
444.381	-669
444.453	-809
444.524	-1104
444.596	-791
444.667	-1050
444.739	-1430
444.810	-386
444.882	-1067
444.953	-508
445.024	-797
445.096	-1505
445.167	-830
445.238	-824
445.310	677
445.381	7799
445.452	11639
445.524	4312
445.595	598
445.666	-208
445.737	-355
445.809	-905
445.880	-752
445.951	-1619
446.022	-945
446.094	-697
446.165	174
446.236	-1805
446.307	-1078
446.378	-929
446.449	-871
446.520	-416
446.591	-1429
446.663	-2000
446.734	-380
446.805	-357
446.876	-772
446.947	-1283
447.018	-753
447.089	-1317
447.160	-843
447.231	-1473
447.302	-857
447.373	-897
447.444	-822
447.514	-1320
447.585	-930
447.656	-1183
447.727	-1471
447.798	-878
447.869	-1681
447.940	-589
448.010	-1008
448.081	-232
448.152	-816
448.223	-989
448.294	-1418
448.364	-652
448.435	-660
448.506	-1035
448.577	-872
448.647	-1041
448.718	-1254
448.789	-1530
448.859	-1470
448.930	-506
449.001	-1555
449.071	-1529
449.142	-603
449.213	-1015
449.283	-523
449.354	-812
449.424	-754
449.495	-1078
449.565	-810
449.636	-1021
449.706	-559
449.777	-1569
449.847	-1818
449.918	-1154
449.988	-1111
450.059	-519
450.129	-802
450.200	-911
450.270	-935
450.340	-890
450.411	-1127
450.481	-1198
450.551	-325
450.622	-1391
450.692	-143
450.762	-1396
450.833	-528
450.903	-1045
450.973	-1005
451.043	-1533
451.114	-1596
451.184	-1169
451.254	-493
451.324	-1405
451.395	-1509
451.465	-669
451.535	-630
451.605	-1417
451.675	-1064
451.745	-424
451.815	-470
451.885	-1254
451.956	-1104
452.026	-2085
452.096	-881
452.166	-432
452.236	459
452.306	-1369
452.376	-895
452.446	-1360
452.516	-1177
452.586	-1337
452.656	171
452.725	-272
452.795	-114
452.865	-1609
452.935	-998
453.005	-778
453.075	-689
453.145	-1932
453.215	5
453.284	248
453.354	497
453.424	2674
453.494	2930
453.564	1777
453.633	-395
453.703	-586
453.773	-1202
453.843	-1204
453.895	-1168
453.912	-1199
453.976	-1618
453.982	-1704
454.052	-1268
454.057	-1208
454.121	-981
454.139	-778
454.191	-75
454.220	179
454.261	-180
454.301	311
454.330	-175
454.382	-193
454.400	-59
454.463	-286
454.469	-297
454.539	762
454.544	894
454.608	3521
454.625	4941
454.678	11348
454.707	16231
454.748	17543
454.788	21560
454.817	16020
454.869	6020
454.887	5071
454.950	3075
454.956	3245
455.026	7034
455.031	7613
455.095	6371
455.112	6767
455.165	5621
455.193	4787
455.234	5229
455.274	5648
455.303	6263
455.355	8534
455.373	7579
455.436	5305
455.442	4894
455.512	1669
455.517	1459
455.581	1508
455.598	1398
455.650	912
455.679	706
455.720	559
455.760	542
455.789	498
455.841	1078
455.858	1124
455.922	673
455.928	673
455.997	1790
456.003	1862
456.066	6696
456.084	8324
456.136	18309
456.165	24320
456.205	23592
456.245	24099
456.274	16912
456.326	3097
456.343	2737
456.407	1413
456.412	1319
456.482	808
456.488	798
456.551	833
456.569	789
456.620	791
456.650	1330
456.689	1868
456.730	1466
456.758	1606
456.811	2849
456.827	5662
456.892	17575
456.897	19766
456.966	55353
456.973	59618
457.035	81348
457.054	89023
457.104	38937
457.134	8095
457.173	5567
457.215	2355
457.242	2142
457.296	2056
457.311	2034
457.377	2278
457.380	2270
457.449	2257
457.457	2350
457.518	3776
457.538	4011
457.587	6400
457.619	8640
457.656	12338
457.699	15698
457.725	13085
457.780	8560
457.794	9009
457.861	10943
457.863	11176
457.932	20356
457.941	21681
458.001	21440
458.022	21644
458.070	13092
458.103	6789
458.138	6859
458.183	7409
458.207	8237
458.264	9230
458.276	10679
458.344	21103
458.345	21201
458.414	38433
458.425	41623
458.483	24944
458.506	18076
458.551	11069
458.586	5634
458.620	5206
458.667	4351
458.689	5339
458.747	8647
458.758	9461
458.826	14605
458.828	14713
458.895	7052
458.908	5594
458.964	5446
458.989	5277
459.033	5492
459.069	5876
459.101	5776
459.150	5383
459.170	5060
459.230	4782
459.239	4855
459.307	4947
459.311	4938
459.376	4659
459.391	4697
459.444	4780
459.471	4620
459.513	4474
459.552	4755
459.582	5723
459.632	6599
459.650	6716
459.713	7965
459.719	8003
459.787	7762
459.793	7787
459.856	5433
459.873	4661
459.924	4879
459.954	5081
459.993	6461
460.034	7720
460.061	9283
460.114	12505
460.130	11457
460.195	6622
460.198	6548
460.267	5042
460.275	4832
460.335	5041
460.355	5274
460.404	5836
460.436	5929
460.472	6882
460.516	8409
460.540	9288
460.596	10649
460.609	9801
460.676	5502
460.677	5536
460.745	7388
460.757	7682
460.814	6148
460.837	5430
460.882	8319
460.917	10691
460.950	10509
460.997	9677
461.019	8542
461.077	6497
461.087	6775
461.155	7416
461.158	7430
461.224	7675
461.238	7752
461.292	7774
461.318	7623
461.360	12215
461.398	16304
461.428	28625
461.478	49629
461.496	62888
461.558	106773
461.565	100618
461.633	31230
461.638	25384
461.701	14470
461.719	11216
461.769	11152
461.799	11365
461.837	9677
461.879	7699
461.905	8189
461.959	8903
461.973	11489
462.039	23023
462.042	24289
462.110	53816
462.119	57721
462.178	40064
462.199	33367
462.246	18805
462.279	8336
462.314	9404
462.359	10666
462.382	9563
462.439	6921
462.450	7144
462.518	8139
462.519	8122
462.586	8039
462.599	7979
462.654	13676
462.679	16293
462.722	25468
462.759	32973
462.790	25581
462.839	13757
462.858	12321
462.919	7534
462.926	7523
462.993	6970
462.999	6872
463.061	7890
463.078	8250
463.129	9004
463.158	9306
463.197	10402
463.238	11456
463.265	12173
463.318	13448
463.333	13365
463.398	12631
463.401	12744
463.468	14318
463.478	14474
463.536	21536
463.558	23900
463.604	32181
463.637	38151
463.672	48095
463.717	60938
463.739	75321
463.797	111624
463.807	102820
463.875	40500
463.877	38635
463.943	15288
463.957	10200
464.010	9324
464.036	8798
464.078	9925
464.116	10894
464.146	12365
464.196	14718
464.213	15313
464.275	17057
464.281	17793
464.349	26065
464.355	26767
464.416	16643
464.435	13355
464.484	14743
464.515	15478
464.551	17289
464.594	19373
464.619	17089
464.674	11395
464.686	11768
464.754	13734
464.754	13846
464.821	20254
464.833	21309
464.889	15216
464.913	12362
464.956	10830
464.992	9642
465.024	10327
465.072	11065
465.091	11265
465.152	11686
465.159	12547
465.226	19990
465.231	20433
465.294	28873
465.311	30976
465.361	39384
465.390	43974
465.429	66106
465.470	89310
465.496	71862
465.549	34911
465.563	30817
465.629	10575
465.631	10636
465.698	10700
465.708	10651
465.765	9992
465.788	9717
465.833	9804
465.867	9656
465.900	9899
465.947	10239
465.967	10389
466.026	10550
466.035	10641
466.102	10910
466.106	10860
466.169	11503
466.185	11625
466.236	11591
466.265	11414
466.304	13344
466.344	15252
466.371	18627
466.423	25088
466.438	31608
466.503	60016
466.505	62662
466.572	132940
466.582	142662
466.639	82896
466.662	58875
466.707	36766
466.741	19400
466.774	18229
466.820	16324
466.841	15953
466.900	14497
466.908	14561
466.975	14441
466.979	14355
467.042	15983
467.058	16285
467.109	18314
467.138	19308
467.176	19079
467.217	18615
467.243	19668
467.296	21474
467.310	21804
467.375	22667
467.377	22625
467.455	14971
467.534	16389
467.613	23275
467.692	33203
467.772	31749
467.851	25948
467.930	60926
468.009	156110
468.088	63092
468.167	15390
468.246	20906
468.326	20329
468.405	16196
468.484	16468
468.563	19580
468.642	20168
468.721	18247
468.800	18200
468.879	32689
468.958	60588
469.037	25361
469.116	15999
469.195	13624
469.274	12786
469.353	12891
469.432	13871
469.511	19518
469.590	23210
469.669	44995
469.748	45156
469.827	18504
469.905	19269
469.984	22636
470.063	38036
470.142	69356
470.221	49637
470.300	27717
470.378	20841
470.457	20559
470.536	32847
470.615	29881
470.694	27634
470.772	37381
470.851	54973
470.930	18616
471.008	11424
471.087	11044
471.166	10174
471.245	12544
471.323	14750
471.402	12724
471.480	9249
471.559	11748
471.638	10929
471.716	12008
471.795	11513
471.873	10971
471.952	12350
472.031	21441
472.109	28598
472.188	17574
472.266	9933
472.345	9580
472.423	9652
472.502	15114
472.580	23805
472.659	18014
472.737	17432
472.815	13355
472.894	19199
472.972	24348
473.051	13027
473.129	17904
473.207	21776
473.286	19004
473.364	18276
473.443	31723
473.521	48394
473.599	16864
473.677	12853
473.756	17274
473.834	16140
473.912	17502
473.991	26679
474.069	55662
474.147	55309
474.225	12817
474.303	13342
474.382	17682
474.460	16317
474.538	17206
474.616	18472
474.694	12948
474.772	11711
474.851	11245
474.929	12543
475.007	13999
475.085	16087
475.163	27419
475.241	54311
475.319	20588
475.397	15897
475.475	21338
475.553	50479
475.631	135315
475.709	129710
475.787	127516
475.865	19302
475.943	23634
476.021	41699
476.099	48643
476.177	21499
476.255	23690
476.333	23145
476.410	39465
476.488	44012
476.566	16055
476.644	16140
476.722	16220
476.800	16395
476.877	13802
476.955	15659
477.033	14813
477.111	17203
477.189	12467
477.266	10968
477.344	12174
477.422	13807
477.499	13957
477.577	15980
477.655	30970
477.732	21696
477.810	38589
477.888	24138
477.965	16223
478.043	20701
478.121	39880
478.198	62947
478.276	15070
478.353	12152
478.431	14078
478.508	20541
478.586	13112
478.664	14352
478.741	21580
478.819	25600
478.896	13484
478.974	17398
479.051	30427
479.128	25387
479.206	10301
479.283	10781
479.361	14279
479.438	19858
479.516	17531
479.593	18959
479.670	24857
479.748	27887
479.825	49248
479.902	19177
479.980	14107
480.057	13917
480.134	17765
480.211	22726
480.289	59010
480.366	110539
480.443	30065
480.520	15109
480.598	17734
480.675	24429
480.752	17325
480.829	15328
480.906	18807
480.984	19187
481.061	21482
481.138	12006
481.215	10672
481.292	13597
481.369	13181
481.446	13995
481.523	12193
481.600	12721
481.677	16984
481.754	23076
481.831	50378
481.908	59384
481.985	17787
482.062	22553
482.139	55909
482.216	71768
482.293	18583
482.370	18041
482.447	16052
482.524	13467
482.601	17960
482.678	11177
482.755	11222
482.832	11764
482.908	13221
482.985	15540
483.062	17817
483.139	15424
483.216	14010
483.293	14535
483.369	17237
483.446	25190
483.523	15707
483.600	14689
483.676	18975
483.753	23464
483.830	51715
483.906	149688
483.983	67054
484.060	17637
484.136	19192
484.213	18789
484.290	17643
484.366	13522
484.443	16377
484.519	18955
484.596	20910
484.673	33091
484.749	21115
484.826	13788
484.902	15996
484.979	17529
485.055	15003
485.132	14885
485.208	17848
485.285	27155
485.361	63445
485.437	150746
485.514	39550
485.590	20458
485.667	21192
485.743	37963
485.819	79314
485.896	21720
485.972	14482
486.049	15119
486.125	16994
486.201	24113
486.277	26848
486.354	20637
486.430	22330
486.506	22191
486.583	40849
486.659	96999
486.735	52571
486.811	102020
486.887	141731
486.964	201101
487.040	154346
487.116	52925
487.192	28775
487.268	34964
487.344	28442
487.420	27818
487.497	31430
487.573	76559
487.649	206863
487.725	97368
487.801	26364
487.877	24256
487.953	32601
488.029	31350
488.105	26075
488.181	28304
488.257	62962
488.333	197682
488.409	85014
488.485	27122
488.561	24598
488.637	24993
488.712	39200
488.788	47117
488.864	128050
488.940	313795
489.016	283265
489.092	34312
489.168	23522
489.243	16062
489.319	13585
489.395	12505
489.471	14923
489.547	15458
489.622	18155
489.698	28651
489.774	90351
489.849	158294
489.925	27132
490.001	15770
490.076	23628
490.152	51281
490.228	32984
490.303	13740
490.379	11808
490.455	11044
490.530	13763
490.606	16546
490.681	19144
490.757	24761
490.833	33981
490.908	46300
490.984	50007
491.059	24222
491.135	59595
491.210	136084
491.286	28564
491.361	25891
491.436	19251
491.512	24888
491.587	39111
491.663	82008
491.738	228364
491.814	225766
491.889	511044
491.964	142487
492.040	63693
492.115	20123
492.190	32903
492.266	37935
492.341	24828
492.416	21313
492.491	16589
492.567	22527
492.642	53114
492.717	40700
492.792	13705
492.868	14764
492.943	10354
493.018	11431
493.093	17213
493.168	34231
493.243	62194
493.318	21816
493.394	12782
493.469	11734
493.544	18192
493.619	41834
493.694	67963
493.769	41092
493.844	19714
493.919	13789
493.994	17237
494.069	13551
494.144	11480
494.219	10220
494.294	11757
494.369	13138
494.444	18642
494.519	20255
494.594	13240
494.669	16781
494.744	14059
494.818	13610
494.893	14355
494.968	12696
495.043	14817
495.118	17963
495.193	19434
495.267	26067
495.342	36789
495.417	52677
495.492	145062
495.566	632261
495.641	513603
495.716	37774
495.791	18935
495.865	15900
495.940	14180
496.015	13535
496.089	16254
496.164	13397
496.239	17506
496.313	25472
496.388	27544
496.462	41973
496.537	19760
496.612	23940
496.686	31619
496.761	20075
496.835	20746
496.910	17709
496.984	14182
497.059	18570
497.133	35749
497.208	26229
497.282	23596
497.357	51305
497.431	32626
497.505	23246
497.580	39040
497.654	71343
497.729	59624
497.803	61128
497.877	116165
497.952	470039
498.026	1242691
498.100	185720
498.175	79464
498.249	62439
498.323	43328
498.397	56546
498.472	28186
498.546	26987
498.620	37191
498.694	63509
498.768	114158
498.843	167148
498.917	757378
498.991	614803
499.065	34273
499.139	20923
499.213	27765
499.287	28508
499.362	27122
499.436	28023
499.510	46352
499.584	61034
499.658	82675
499.732	319698
499.806	802053
499.880	100811
499.954	95086
500.028	90029
500.102	43029
500.176	28656
500.250	34063
500.324	51544
500.397	123563
500.471	230706
500.545	579571
500.619	267610
500.693	29503
500.767	30436
500.841	38422
500.914	29270
500.988	42445
501.062	78421
501.136	122860
501.210	311701
501.283	605810
501.357	111487
501.431	128837
501.505	97715
501.578	27432
501.652	53861
501.726	61660
501.799	125559
501.873	183684
501.947	35298
502.020	56905
502.094	168610
502.167	158369
502.241	50024
502.315	161533
502.388	143718
502.462	52102
502.535	29980
502.609	27765
502.682	22732
502.756	12520
502.829	14621
502.903	15439
502.976	17628
503.050	17680
503.123	18048
503.196	23393
503.270	34493
503.343	77945
503.417	317460
503.490	355711
503.563	75971
503.637	113404
503.710	179319
503.783	101359
503.857	193444
503.930	79133
504.003	107476
504.076	52282
504.150	22876
504.223	26433
504.296	17441
504.369	15968
504.443	12213
504.516	11147
504.589	12097
504.662	19911
504.735	18424
504.808	45631
504.881	26998
504.954	16265
505.028	29506
505.101	28818
505.174	26021
505.247	15296
505.320	11103
505.393	10698
505.466	11283
505.539	9312
505.612	10344
505.685	10322
505.758	11562
505.831	9899
505.904	13374
505.977	14858
506.049	29253
506.122	22688
506.195	34816
506.268	148228
506.341	198428
506.414	33664
506.487	20252
506.559	15261
506.632	17722
506.705	36272
506.778	29637
506.851	13906
506.923	15742
506.996	33547
507.069	30776
507.141	16223
507.214	15223
507.287	33815
507.360	28257
507.432	12193
507.505	13337
507.577	9568
507.650	12901
507.723	27834
507.795	29223
507.868	11105
507.940	9155
508.013	9536
508.086	7857
508.158	16631
508.231	12989
508.303	9066
508.376	11917
508.448	10732
508.520	20493
508.593	21056
508.665	7441
508.738	9339
508.810	8007
508.883	13433
508.955	15047
509.027	7276
509.100	6465
509.172	6747
509.244	6659
509.317	6819
509.389	8778
509.461	10926
509.534	19760
509.606	14735
509.678	20763
509.750	22364
509.822	9188
509.895	9451
509.967	6349
510.039	7611
510.111	8780
510.183	9359
510.255	7500
510.328	8788
510.400	8888
510.472	8960
510.544	13561
510.616	24929
510.688	10103
510.760	13098
510.832	19466
510.904	21720
510.976	10250
511.048	8467
511.120	13388
511.192	33609
511.264	10462
511.336	5580
511.408	7362
511.480	8226
511.552	6572
511.624	8379
511.695	8896
511.767	12942
511.839	32560
511.911	56014
511.983	14552
512.055	12514
512.126	9888
512.198	15221
512.270	16778
512.342	27849
512.414	21130
512.485	13933
512.557	16181
512.629	14945
512.700	16655
512.772	39999
512.844	12018
512.915	9660
512.987	15276
513.059	16066
513.130	28249
513.202	60495
513.273	29621
513.345	11200
513.416	10496
513.488	14236
513.560	26309
513.631	24072
513.703	30329
513.774	110641
513.845	55697
513.917	12137
513.988	12628
514.060	21139
514.131	23967
514.203	10787
514.274	10269
514.345	28598
514.417	41926
514.488	12535
514.560	23816
514.631	31082
514.702	17578
514.773	12525
514.845	9778
514.916	13103
514.987	14392
515.059	31097
515.130	13462
515.201	14478
515.272	22586
515.343	9402
515.414	8282
515.486	8644
515.557	8898
515.628	7342
515.699	10767
515.770	13565
515.841	12529
515.912	12975
515.983	17140
516.055	38136
516.126	43717
516.197	25522
516.268	26436
516.339	38325
516.410	57853
516.481	109547
516.552	468058
516.622	566799
516.693	67692
516.764	83418
516.835	57328
516.906	81524
516.977	157169
517.048	384960
517.119	1417923
517.190	430802
517.260	136744
517.331	23979
517.402	19994
517.473	18872
517.544	16758
517.614	21415
517.685	22567
517.756	31362
517.827	40309
517.897	55688
517.968	82892
518.039	125699
518.109	295000
518.180	1382402
518.250	1435366
518.321	102416
518.392	44122
518.462	53356
518.533	34224
518.603	40884
518.674	95604
518.745	165531
518.815	49893
518.886	34682
518.956	59513
519.027	101596
519.097	169170
519.168	189269
519.238	33480
519.309	34654
519.379	42649
519.449	22895
519.520	12265
519.590	12438
519.660	11543
519.731	15892
519.801	10572
519.871	10782
519.942	16171
520.012	17782
520.082	25811
520.153	12992
520.223	9311
520.293	12899
520.363	9518
520.434	22034
520.504	18631
520.574	15177
520.644	25675
520.714	37266
520.784	37773
520.855	144738
520.925	161395
520.995	21201
521.065	15422
521.135	12333
521.205	10355
521.275	11177
521.345	21229
521.415	24369
521.485	25086
521.555	16740
521.625	18780
521.695	11215
521.765	11904
521.835	17776
521.905	9695
521.975	11345
522.045	12435
522.115	24375
522.185	31048
522.254	62491
522.324	84207
522.394	43449
522.464	61756
522.534	181176
522.603	133307
522.673	18236
522.743	16135
522.813	23915
522.883	22565
522.952	17234
523.022	22732
523.092	66965
523.161	180314
523.231	28081
523.301	10795
523.370	13604
523.440	9021
523.509	7705
523.579	6712
523.649	9144
523.718	14964
523.788	7550
523.857	6933
523.927	8071
523.996	8450
524.066	12895
524.135	15403
524.205	8630
524.274	6834
524.344	8372
524.413	9816
524.483	11505
524.552	13936
524.621	10936
524.691	8227
524.760	7125
524.830	7345
524.899	14320
524.968	11609
525.038	13298
525.107	10123
525.176	8281
525.245	8572
525.315	9402
525.384	10958
525.453	13501
525.522	7861
525.591	9686
525.661	9875
525.730	11728
525.799	16844
525.868	29491
525.937	35801
526.006	100925
526.076	148721
526.145	61448
526.214	65827
526.283	111989
526.352	106698
526.421	242619
526.490	120619
526.559	72719
526.628	45374
526.697	75094
526.766	247795
526.835	507947
526.904	419956
526.973	45521
527.042	16802
527.110	15114
527.179	23179
527.248	9865
527.317	10173
527.386	9586
527.455	8984
527.523	6697
527.592	8053
527.661	6603
527.730	8265
527.799	8198
527.867	7817
527.936	11944
528.005	25381
528.074	30103
528.142	21586
528.211	60459
528.280	23369
528.348	9543
528.417	4541
528.485	6568
528.554	5354
528.623	4918
528.691	7707
528.760	6521
528.828	6156
528.897	4315
528.965	4128
529.034	5072
529.102	4574
529.171	6103
529.239	6313
529.308	5209
529.376	6569
529.445	13365
529.513	6996
529.581	16344
529.650	12783
529.718	14620
529.786	6543
529.855	7363
529.923	5081
529.992	7815
530.060	18534
530.128	18423
530.196	5902
530.265	3991
530.333	3317
530.401	5118
530.469	2860
530.537	5886
530.606	7440
530.674	4711
530.742	4528
530.810	4997
530.878	4337
530.946	6200
531.014	4858
531.083	5179
531.151	4647
531.219	4956
531.287	5088
531.355	4976
531.423	6030
531.491	10190
531.559	8816
531.627	4354
531.695	5486
531.763	5265
531.831	6487
531.898	6946
531.966	8232
532.034	9299
532.102	11635
532.170	19139
532.238	61145
532.306	84767
532.374	17049
532.441	16776
532.509	22356
532.577	51158
532.645	214618
532.712	135884
532.780	14094
532.848	8321
532.916	6813
532.983	6476
533.051	5981
533.119	7900
533.186	7669
533.254	5957
533.322	6008
533.389	6546
533.457	8914
533.524	19246
533.592	12106
533.659	7825
533.727	7153
533.794	14568
533.862	33499
533.930	26999
533.997	23540
534.064	6251
534.132	6991
534.199	7462
534.267	6299
534.334	6133
534.402	5290
534.469	6228
534.536	6655
534.604	8565
534.671	12474
534.738	29866
534.806	91009
534.873	26477
534.940	11816
535.008	9686
535.075	4961
535.142	7591
535.209	8318
535.276	5800
535.344	4899
535.411	4882
535.478	4175
535.545	5656
535.612	5583
535.679	5468
535.747	4719
535.814	5374
535.881	4741
535.948	5951
536.015	6361
536.082	7973
536.149	9891
536.216	10997
536.283	20067
536.350	34039
536.417	17803
536.484	18205
536.551	30699
536.618	40597
536.685	18915
536.752	21993
536.818	48937
536.885	53384
536.952	62862
537.019	145069
537.086	19424
537.153	7039
537.219	9524
537.286	6279
537.353	6220
537.420	5482
537.487	6226
537.553	7878
537.620	8883
537.687	5856
537.753	5765
537.820	8824
537.887	9883
537.953	14312
538.020	13131
538.087	18412
538.153	49609
538.220	59936
538.286	11695
538.353	7135
538.419	5472
538.486	5768
538.553	5811
538.619	5807
538.685	6122
538.752	11157
538.818	13668
538.885	11064
538.951	8000
539.018	9304
539.084	10712
539.150	19286
539.217	18924
539.283	6863
539.350	8716
539.416	11727
539.482	18670
539.549	61711
539.615	46878
539.681	10553
539.747	8500
539.814	9952
539.880	14975
539.946	14887
540.012	11193
540.078	12625
540.145	18395
540.211	39864
540.277	75150
540.343	35398
540.409	65252
540.475	58482
540.541	7585
540.607	7878
540.673	7289
540.740	11161
540.806	16983
540.872	18615
540.937	33094
541.004	17585
541.069	7998
541.135	10339
541.201	12662
541.267	18188
541.333	40423
541.399	49133
541.465	12222
541.531	6436
541.597	6431
541.663	6119
541.728	9050
541.794	8115
541.860	6505
541.926	7800
541.992	8262
542.057	10702
542.123	17836
542.189	32244
542.255	68450
542.320	33634
542.386	8868
542.452	8070
542.517	7384
542.583	8181
542.648	9870
542.714	15792
542.780	44867
542.845	82467
542.911	12045
542.976	5919
543.042	6541
543.107	8387
543.173	10725
543.238	15152
543.304	41559
543.369	20160
543.435	5434
543.500	5043
543.566	6597
543.631	3600
543.697	5563
543.762	4350
543.827	3787
543.893	4750
543.958	5023
544.023	4945
544.089	5427
544.154	5660
544.219	6557
544.284	12695
544.350	23482
544.415	19110
544.480	25175
544.545	74910
544.610	28611
544.676	7177
544.741	7851
544.806	6723
544.871	5975
544.936	6038
545.001	6818
545.066	7878
545.132	8041
545.197	10741
545.262	14184
545.327	23387
545.392	54662
545.457	45548
545.522	7372
545.587	7111
545.652	5413
545.717	6676
545.781	6151
545.846	6901
545.911	8315
545.976	8402
546.041	8472
546.106	14150
546.171	22314
546.236	14628
546.300	7725
546.365	5187
546.430	7184
546.495	10381
546.559	8514
546.624	5529
546.689	5655
546.754	6664
546.818	5956
546.883	7524
546.948	10410
547.012	9337
547.077	10498
547.142	12588
547.206	13901
547.271	19182
547.335	13008
547.400	12217
547.464	16686
547.529	23165
547.594	18159
547.658	17976
547.722	9776
547.787	9555
547.852	10339
547.916	13408
547.980	19784
548.045	20053
548.109	11079
548.174	10544
548.238	10454
548.302	7921
548.367	8789
548.431	10169
548.495	9939
548.560	12528
548.624	15933
548.688	19552
548.752	12651
548.817	13632
548.881	19953
548.945	11495
549.009	9531
549.073	8912
549.138	7760
549.202	12826
549.266	9590
549.330	10896
549.394	10244
549.458	9588
549.522	11056
549.586	15704
549.650	17198
549.715	12910
549.779	10224
549.843	11019
549.907	12701
549.971	13619
550.034	14361
550.098	12573
550.162	12734
550.226	17315
550.290	17230
550.354	11552
550.418	13172
550.482	15437
550.546	21150
550.609	15221
550.673	12839
550.737	15054
550.801	15397
550.865	16984
550.928	19717
550.992	24476
551.056	39337
551.120	68894
551.183	42541
551.247	37019
551.311	70284
551.374	27599
551.438	12591
551.502	12384
551.565	9714
551.629	11760
551.692	9968
551.756	10850
551.819	10352
551.883	10337
551.946	9549
552.010	9875
552.073	9813
552.137	10614
552.200	9675
552.264	10447
552.327	9500
552.391	12449
552.454	12132
552.517	14607
552.581	16102
552.644	23740
552.708	44843
552.771	33378
552.834	14355
552.897	14282
552.961	12634
553.024	10047
553.087	8701
553.151	9876
553.214	8615
553.277	10395
553.340	10420
553.403	14249
553.466	11175
553.530	9793
553.593	9679
553.656	9446
553.719	8509
553.782	9778
553.845	8168
553.908	7879
553.971	8946
554.034	8190
554.097	8223
554.160	10332
554.223	11008
554.286	9945
554.349	9611
554.412	8502
554.475	8774
554.538	10934
554.601	9545
554.664	7944
554.727	6879
554.789	6784
554.852	6811
554.915	6393
554.978	6927
555.041	6867
555.104	7487
555.166	8271
555.229	8165
555.292	7886
555.354	11593
555.417	7196
555.480	6487
555.542	6086
555.605	7055
555.668	7924
555.730	6386
555.793	6364
555.856	6826
555.918	8013
555.981	7970
556.043	6892
556.106	9028
556.168	10343
556.231	10524
556.293	10132
556.356	11812
556.418	21700
556.481	11795
556.543	8372
556.606	7319
556.668	10357
556.730	10437
556.793	17643
556.855	22850
556.918	9445
556.980	8836
557.042	11273
557.104	24007
557.167	38727
557.229	10327
557.291	6813
557.354	7339
557.416	9366
557.478	14474
557.540	8019
557.602	4953
557.664	6268
557.727	6792
557.789	8540
557.851	8596
557.913	11606
557.975	19108
558.037	47450
558.099	47578
558.161	12066
558.223	11986
558.285	14598
558.347	17236
558.409	25511
558.471	37413
558.533	78185
558.595	75825
558.657	99182
558.719	294549
558.781	259125
558.843	56888
558.905	59102
558.966	18048
559.028	16402
559.090	19400
559.152	28671
559.214	50225
559.275	133720
559.337	195951
559.399	31802
559.461	16707
559.522	20052
559.584	29479
559.646	53960
559.707	146551
559.769	74351
559.831	17814
559.892	21231
559.954	42189
560.015	62735
560.077	29055
560.139	58972
560.200	38005
560.262	7241
560.323	6442
560.385	5200
560.446	5003
560.508	4433
560.569	4234
560.631	5678
560.692	3869
560.753	5383
560.815	4362
560.876	4963
560.937	4868
560.999	6259
561.060	7264
561.122	6754
561.183	8613
561.244	12712
561.305	15065
561.367	30121
561.428	73073
561.489	34751
561.550	5511
561.612	7236
561.673	5337
561.734	5077
561.795	5059
561.856	5371
561.917	5549
561.978	4385
562.039	4179
562.101	5771
562.162	5509
562.223	7166
562.284	11114
562.345	14415
562.406	5932
562.467	5292
562.528	3811
562.589	3816
562.649	4704
562.710	3854
562.771	4992
562.832	5114
562.893	4573
562.954	5217
563.015	5101
563.076	3256
563.136	4478
563.197	5008
563.258	6529
563.319	5796
563.380	4879
563.440	7270
563.501	5677
563.562	6319
563.622	5906
563.683	7582
563.744	6201
563.804	4534
563.865	4391
563.926	5764
563.986	5829
564.047	7201
564.107	6781
564.168	7756
564.229	13062
564.289	23339
564.350	8278
564.410	4885
564.471	4420
564.531	4435
564.591	3586
564.652	6272
564.712	8880
564.773	6841
564.833	5092
564.893	5302
564.954	5545
565.014	5085
565.074	3667
565.135	5810
565.195	3866
565.255	5895
565.316	5122
565.376	7130
565.436	7722
565.496	4799
565.557	4922
565.617	5754
565.677	7455
565.737	14925
565.797	9158
565.857	5733
565.917	6306
565.978	8710
566.038	11582
566.098	22629
566.158	15581
566.218	6502
566.278	4801
566.338	4819
566.398	3530
566.458	5361
566.518	3874
566.578	5600
566.638	5407
566.698	4488
566.757	4558
566.817	4351
566.877	4259
566.937	5148
566.997	4545
567.057	5659
567.116	4209
567.176	6158
567.236	7850
567.296	6028
567.355	8328
567.415	12275
567.475	6864
567.535	4416
567.594	4043
567.654	4116
567.714	4509
567.773	6344
567.833	5398
567.892	6650
567.952	4847
568.012	6098
568.071	4831
568.131	7780
568.190	8238
568.250	6994
568.309	7919
568.369	7384
568.428	5440
568.488	7035
568.547	8844
568.607	7647
568.666	9277
568.725	13989
568.785	12109
568.844	12096
568.903	6279
568.963	6034
569.022	5554
569.081	4117
569.141	3707
569.200	3441
569.259	3864
569.318	3520
569.378	3262
569.437	2859
569.496	3355
569.555	2933
569.614	3590
569.673	3270
569.732	4735
569.792	2928
569.851	2931
569.910	3711
569.969	4349
570.028	6587
570.087	5445
570.146	6835
570.205	5357
570.264	5033
570.323	3597
570.382	5466
570.441	7098
570.500	6627
570.559	5262
570.618	5357
570.676	7238
570.735	8171
570.794	8772
570.853	6867
570.912	3802
570.971	4913
571.029	6057
571.088	6420
571.147	4064
571.206	5488
571.264	5326
571.323	5072
571.382	7895
571.440	4622
571.499	4605
571.558	4880
571.616	3851
571.675	5313
571.733	3148
571.792	3368
571.851	2903
571.909	4817
571.968	3516
572.026	3023
572.085	2054
572.143	2251
572.202	2908
572.260	3145
572.319	2797
572.377	2254
572.435	2774
572.494	3063
572.552	4431
572.611	4054
572.669	2532
572.727	2842
572.786	2674
572.844	2415
572.902	2302
572.960	2784
573.019	3309
573.077	3977
573.135	2697
573.193	2829
573.251	2271
573.310	3154
573.368	1794
573.426	2735
573.484	3102
573.542	2823
573.600	3691
573.658	3490
573.716	3946
573.774	5800
573.832	6670
573.891	4912
573.948	2574
574.006	3855
574.064	2823
574.122	2093
574.180	2131
574.238	3516
574.296	1383
574.354	2413
574.412	1440
574.470	2476
574.528	617
574.585	1947
574.643	3828
574.701	1932
574.759	1437
574.817	3109
574.874	1159
574.932	2642
574.990	2388
575.047	4159
575.105	2667
575.163	4934
575.221	4321
575.278	1221
575.336	2458
575.393	2935
575.451	1739
575.509	2579
575.566	3633
575.624	3320
575.681	2991
575.739	2879
575.796	3375
575.854	2439
575.911	3601
575.969	4231
576.026	5177
576.083	6813
576.141	8232
576.198	8861
576.256	3298
576.313	3464
576.370	3068
576.428	5116
576.485	4845
576.542	4772
576.599	2603
576.657	2688
576.714	3163
576.771	2667
576.828	2711
576.886	2601
576.943	2527
577.000	3726
577.057	3254
577.114	4758
577.171	4419
577.228	5186
577.286	5693
577.343	4900
577.400	3122
577.457	2872
577.514	2430
577.571	2304
577.628	1212
577.685	1992
577.742	2604
577.799	2624
577.855	2916
577.912	2639
577.969	3952
578.026	2560
578.083	1828
578.140	2606
578.197	2365
578.254	4223
578.310	2536
578.367	5143
578.424	6486
578.481	6242
578.537	3724
578.594	3027
578.651	2037
578.707	2233
578.764	2025
578.821	2470
578.877	1859
578.934	2288
578.991	2413
579.047	3020
579.104	1945
579.160	1411
579.217	1675
579.273	2886
579.330	1388
579.387	1252
579.443	2346
579.499	2189
579.556	1881
579.612	3018
579.669	2472
579.725	3624
579.782	1818
579.838	1563
579.894	1378
579.951	2245
580.007	2195
580.063	2865
580.120	2503
580.176	2407
580.232	3696
580.288	5179
580.345	6266
580.401	4296
580.457	2822
580.513	4077
580.569	2488
580.619	3434
580.625	3573
580.682	2544
580.692	2737
580.738	3640
580.765	2653
580.794	1612
580.838	1977
580.850	2086
580.906	3128
580.911	3130
580.962	3240
580.984	2766
581.018	2065
581.057	2269
581.074	2358
581.130	2685
581.130	2694
581.186	2083
581.203	2018
581.242	1881
581.276	2035
581.298	2144
581.349	2136
581.354	2137
581.410	2642
581.422	2579
581.466	2412
581.494	2930
581.522	3386
581.567	2904
581.577	2822
581.633	1768
581.640	1657
581.689	883
581.713	1482
581.745	2322
581.786	1471
581.801	1134
581.857	1387
581.859	1386
581.912	1640
581.932	1506
581.968	1177
582.004	1321
582.024	1401
582.077	1519
582.080	1526
582.135	1465
582.150	1380
582.191	1149
582.223	1125
582.247	1120
582.296	1799
582.302	1913
582.358	1132
582.368	1404
582.414	2410
582.441	1929
582.469	1475
582.514	1221
582.525	1181
582.581	1319
582.587	1450
582.636	2436
582.659	2039
582.692	1433
582.732	2047
582.747	2378
582.803	2068
582.805	2099
582.858	2670
582.877	2147
582.914	1052
582.950	1180
582.969	1403
583.023	2568
583.025	2607
583.080	2513
583.095	2345
583.135	1795
583.168	1571
583.191	1502
583.240	1593
583.246	1599
583.302	1071
583.313	1143
583.357	1499
583.385	1743
583.412	1842
583.458	1157
583.468	1058
583.523	1513
583.531	1531
583.578	1659
583.603	1991
583.634	2285
583.676	1704
583.689	1553
583.744	2212
583.748	2191
583.799	2079
583.820	1900
583.854	1451
583.893	1942
583.910	2197
583.965	1520
583.965	1530
584.020	2268
584.038	2056
584.075	1790
584.110	1725
584.130	1644
584.183	1571
584.185	1568
584.240	1457
584.255	1406
584.296	1186
584.328	1393
584.351	1749
584.400	1778
584.406	1725
584.461	1340
584.472	1573
584.516	2621
584.545	2088
584.571	1506
584.617	2102
584.626	2298
584.681	1712
584.689	1832
584.736	2218
584.762	1795
584.791	1325
584.834	1685
584.846	1788
584.900	2342
584.906	2330
584.955	2404
584.978	2531
585.010	2434
585.051	2234
585.065	2315
585.120	2627
585.123	2677
585.175	3054
585.195	3047
585.230	3493
585.267	4743
585.284	5041
585.339	5351
585.340	5359
585.394	7843
585.412	8584
585.449	9803
585.484	12014
585.503	13500
585.556	20076
585.558	20357
585.613	39793
585.628	40822
585.667	44423
585.700	26584
585.722	14904
585.772	11077
585.777	10303
585.831	6045
585.845	5036
585.886	4104
585.917	3324
585.941	3091
585.989	2911
585.995	2911
586.050	3759
586.061	3836
586.104	4091
586.133	4061
586.159	3798
586.205	2875
586.213	2846
586.268	3849
586.277	3852
586.322	3308
586.349	3803
586.377	4430
586.421	4687
586.431	4729
586.486	6381
586.493	6801
586.540	9832
586.565	7814
586.595	5395
586.637	4130
586.649	3647
586.703	3160
586.709	3104
586.758	2749
586.781	2775
586.812	2957
586.853	2850
586.866	2724
586.921	2289
586.925	2281
586.975	2785
586.996	2803
587.029	2464
587.068	2261
587.083	2240
587.138	2522
587.140	2520
587.192	2627
587.212	2713
587.246	2804
587.284	2756
587.300	2740
587.355	3081
587.356	3078
587.409	3061
587.427	3231
587.463	3379
587.499	2977
587.517	2937
587.571	3592
587.571	3593
587.625	3461
587.643	3362
587.679	3623
587.715	3834
587.733	3763
587.786	3730
587.787	3733
587.841	3312
587.858	3487
587.895	4128
587.930	4364
587.949	4412
588.001	4607
588.003	4609
588.057	4383
588.073	4572
588.111	5449
588.145	6115
588.165	6261
588.217	6689
588.219	6747
588.273	7658
588.288	8066
588.327	8896
588.360	9805
588.381	10665
588.431	13046
588.435	13172
588.489	16117
588.503	17072
588.542	19847
588.575	22838
588.596	24687
588.646	31946
588.650	32472
588.704	42667
588.718	47035
588.757	60915
588.789	75437
588.811	89898
588.861	159725
588.865	167311
588.919	214075
588.932	206107
588.972	179710
589.004	195105
589.026	155743
589.075	81874
589.080	78926
589.133	41811
589.147	32667
589.187	29268
589.218	28124
589.241	29517
589.290	33698
589.294	34022
589.348	41123
589.361	44224
589.401	57213
589.433	80610
589.455	104922
589.504	145504
589.508	151163
589.562	155515
589.576	167495
589.615	122453
589.647	94084
589.669	71888
589.718	21778
589.722	21156
589.776	13176
589.790	11284
589.829	10742
589.861	8976
589.883	7983
589.932	7016
589.936	6990
589.989	6078
590.004	5998
590.043	5395
590.075	4798
590.096	4670
590.146	4318
590.149	4309
590.203	4192
590.218	4183
590.256	4620
590.289	4829
590.309	4596
590.360	4154
590.362	4160
590.416	4122
590.431	4220
590.469	3926
590.503	3321
590.522	3331
590.574	3738
590.575	3748
590.629	3704
590.645	3768
590.682	3710
590.716	3712
590.735	3777
590.787	3708
590.788	3710
590.841	3631
590.859	3701
590.894	3653
590.930	3374
590.947	3556
591.000	4200
591.001	4201
591.053	3969
591.072	3883
591.106	4144
591.143	4407
591.159	4252
591.212	3837
591.214	3820
591.265	4064
591.285	4230
591.318	4281
591.356	4059
591.371	3997
591.424	3906
591.427	3907
591.477	3336
591.498	3048
591.530	3395
591.569	3863
591.583	3889
591.636	4025
591.640	4030
591.689	4232
591.711	4382
591.741	4140
591.782	3609
591.794	3662
591.847	4049
591.853	4090
591.900	4023
591.924	3990
591.953	4168
591.995	4479
592.005	4388
592.058	3874
592.066	3803
592.111	4142
592.137	4313
592.164	4076
592.208	3649
592.216	3780
592.269	4719
592.279	4888
592.322	4404
592.350	4080
592.374	4089
592.421	4122
592.427	4040
592.479	3348
592.491	3196
592.532	3823
592.562	4283
592.585	4095
592.633	3654
592.704	4054
592.775	3406
592.846	4347
592.916	3384
592.987	4508
593.058	3942
593.128	4398
593.199	4116
593.270	4273
593.341	4213
593.411	4111
593.482	3954
593.553	4966
593.623	4077
593.694	3271
593.764	4393
593.835	4038
593.906	4012
593.976	3903
594.047	4007
594.117	5645
594.188	4658
594.258	5032
594.329	3866
594.399	4476
594.470	4577
594.540	4861
594.611	4422
594.681	5211
594.751	4651
594.822	6104
594.892	4360
594.963	5352
595.033	5054
595.103	5532
595.174	4691
595.244	6114
595.314	6416
595.384	5466
595.455	5600
595.525	6543
595.595	5784
595.665	5400
595.736	5800
595.806	7004
595.876	6260
595.946	5191
596.016	5404
596.087	7168
596.157	5767
596.227	6453
596.297	5761
596.367	6655
596.437	6854
596.507	7546
596.577	7831
596.647	8375
596.717	7112
596.787	8115
596.857	7009
596.927	7868
596.997	7501
597.067	7590
597.137	7211
597.207	8623
597.277	7906
597.347	8461
597.417	7489
597.487	7934
597.557	7287
597.626	8539
597.696	7737
597.766	8764
597.836	7388
597.906	7981
597.975	6716
598.045	7006
598.115	7525
598.185	8458
598.254	8181
598.324	10241
598.394	8891
598.464	9365
598.533	9131
598.603	8822
598.672	7964
598.742	8573
598.812	8065
598.881	8375
598.951	9147
599.020	8401
599.090	9123
599.159	10025
599.229	8690
599.299	8236
599.368	7906
599.437	9469
599.507	7889
599.576	8269
599.646	7363
599.715	8731
599.785	6814
599.854	7319
599.924	7272
599.993	7153
600.062	6969
600.132	7304
600.201	7930
600.270	9475
600.340	8852
600.409	9456
600.478	9103
600.547	9413
600.617	8823
600.686	7493
600.755	5668
600.824	6028
600.894	5788
600.963	5958
601.032	5884
601.101	6014
601.170	4995
601.239	5165
601.308	5222
601.378	6089
601.447	5800
601.516	6246
601.585	5893
601.654	6021
601.723	6002
601.792	5469
601.861	5403
601.930	6725
601.999	6335
602.068	6140
602.137	5298
602.206	6115
602.275	6594
602.343	6452
602.412	6974
602.481	6457
602.550	6377
602.619	6583
602.688	6842
602.756	7510
602.825	7295
602.894	7479
602.963	6242
603.032	7573
603.100	6747
603.169	7674
603.238	6587
603.307	7625
603.375	7649
603.444	7960
603.513	7457
603.581	7974
603.650	7772
603.719	7199
603.787	7799
603.856	7649
603.924	7396
603.993	7832
604.061	6510
604.130	8606
604.198	9326
604.267	9022
604.335	9501
604.404	8834
604.472	8995
604.541	9951
604.609	9235
604.678	9309
604.746	9745
604.815	10233
604.883	9764
604.951	10124
605.020	10281
605.088	10206
605.156	10523
605.225	10339
605.293	9932
605.361	10354
605.429	11034
605.498	10456
605.566	11130
605.634	11487
605.702	11817
605.771	12459
605.839	12994
605.907	12417
605.975	12334
606.043	11755
606.111	11338
606.180	11351
606.248	11281
606.316	10963
606.384	10534
606.452	12058
606.520	11475
606.588	11875
606.656	11288
606.724	11521
606.792	10309
606.860	8984
606.928	7682
606.996	8393
607.064	7189
607.132	7776
607.200	7772
607.267	9348
607.335	8578
607.403	9461
607.471	8772
607.539	9106
607.607	9294
607.674	7366
607.742	7591
607.810	8108
607.878	7762
607.946	7560
608.013	7287
608.081	8696
608.149	7713
608.216	7603
608.284	8399
608.352	8385
608.419	8446
608.487	9543
608.555	7538
608.622	8909
608.690	9426
608.757	9382
608.825	10405
608.893	10032
608.960	9079
609.028	9633
609.095	9178
609.163	9177
609.230	7760
609.298	6675
609.365	7465
609.432	8128
609.500	8138
609.567	10701
609.635	12178
609.702	13381
609.769	12932
609.837	10255
609.904	7590
609.971	7531
610.039	9120
610.106	8916
610.173	12912
610.241	21665
610.308	16747
610.375	9559
610.442	6848
610.509	7521
610.577	7785
610.644	8383
610.711	8316
610.778	9286
610.845	8077
610.912	9189
610.980	8584
611.047	10981
611.114	9569
611.181	8954
611.248	8874
611.315	10600
611.382	10170
611.449	10162
611.516	10286
611.583	11059
611.650	9676
611.717	10338
611.784	10650
611.851	11160
611.918	10920
611.984	12743
612.051	15125
612.118	23498
612.185	43350
612.252	35504
612.319	13199
612.386	12876
612.452	12143
612.519	11659
612.586	11773
612.653	12297
612.719	11920
612.786	12370
612.853	10561
612.919	10303
612.986	10987
613.053	10418
613.120	9607
613.186	8553
613.253	9308
613.319	8889
613.386	8511
613.453	8812
613.519	8952
613.586	9451
613.652	9632
613.719	9652
613.785	9440
613.852	8853
613.918	8278
613.985	9171
614.051	9338
614.118	9949
614.184	9306
614.250	8818
614.317	8977
614.383	8832
614.449	8426
614.516	9224
614.582	9167
614.648	9051
614.715	9013
614.781	8357
614.847	8959
614.914	8995
614.980	8006
615.046	8567
615.112	8301
615.179	8941
615.245	9590
615.311	8572
615.377	8849
615.443	8518
615.509	9110
615.575	8582
615.642	8494
615.708	9507
615.774	9313
615.840	9731
615.906	10867
615.972	12056
616.038	15564
616.104	25990
616.170	49062
616.236	48307
616.302	16561
616.368	12095
616.434	9734
616.500	10747
616.565	10615
616.631	11650
616.697	9890
616.763	11160
616.829	11195
616.895	16723
616.961	16533
617.026	10920
617.092	8849
617.158	8910
617.224	8828
617.289	8384
617.355	7575
617.421	7398
617.487	8518
617.552	9062
617.618	6673
617.684	6702
617.749	8166
617.815	6762
617.880	6224
617.946	6309
618.012	7455
618.077	6817
618.143	6548
618.208	7792
618.274	6522
618.339	8214
618.405	5544
618.470	6766
618.536	6233
618.601	6692
618.667	4623
618.732	4996
618.798	5008
618.863	5569
618.928	5143
618.994	5084
619.059	5494
619.124	6453
619.190	4691
619.255	5418
619.320	4559
619.386	4834
619.451	3424
619.516	4946
619.581	4622
619.647	5262
619.712	4492
619.777	4741
619.842	4839
619.907	4063
619.972	5142
620.038	5447
620.103	4456
620.168	4114
620.233	4767
620.298	5043
620.363	4612
620.428	5183
620.493	4208
620.558	5151
620.623	5080
620.688	5277
620.753	4689
620.818	5642
620.883	5263
620.948	5368
621.013	4595
621.078	4971
621.143	4489
621.207	6648
621.272	4780
621.337	4628
621.402	5410
621.467	5415
621.532	4966
621.596	5509
621.661	4647
621.726	5706
621.791	5263
621.855	4997
621.920	4592
621.985	5132
622.049	5650
622.114	5440
622.179	4631
622.243	5565
622.308	4329
622.373	7006
622.437	5532
622.502	4559
622.566	4346
622.631	5066
622.695	4652
622.760	4898
622.824	5311
622.889	5954
622.953	5371
623.018	6562
623.082	6637
623.147	5859
623.211	5073
623.276	5977
623.340	4319
623.404	5034
623.469	4566
623.533	5031
623.597	4020
623.662	4204
623.726	4060
623.790	4392
623.854	3400
623.919	4417
623.983	3151
624.047	4561
624.111	3272
624.176	3939
624.240	3866
624.304	4291
624.368	4514
624.432	3498
624.496	4392
624.560	4787
624.625	5384
624.689	4921
624.753	4821
624.817	4964
624.881	4016
624.945	4215
625.009	3651
625.073	4195
625.137	2890
625.201	4659
625.265	4335
625.329	4714
625.393	3068
625.456	4890
625.520	4216
625.584	4905
625.648	4832
625.712	5802
625.776	7088
625.839	8033
625.903	4336
625.967	2836
626.031	4113
626.095	5580
626.158	3995
626.222	2757
626.286	2448
626.349	2513
626.413	1920
626.477	3150
626.540	2624
626.604	2191
626.668	2617
626.731	2301
626.795	2008
626.858	2762
626.922	1489
626.986	2266
627.049	1819
627.113	2235
627.176	1778
627.240	2682
627.303	2483
627.366	2337
627.430	1619
627.493	2437
627.557	1800
627.620	2297
627.684	2215
627.747	2435
627.810	744
627.874	1585
627.937	1204
628.000	2616
628.064	1418
628.127	894
628.190	1208
628.253	1636
628.317	897
628.380	1431
628.443	710
628.506	1461
628.569	915
628.632	996
628.696	1453
628.759	426
628.822	274
628.885	1315
628.948	672
629.011	1219
629.074	1083
629.137	1914
629.200	1188
629.263	2011
629.326	-204
629.389	1351
629.452	298
629.515	751
629.578	657
629.641	1689
629.704	912
629.767	1796
629.830	91
629.892	1677
629.955	-83
630.018	1435
630.081	457
630.144	1592
630.207	-371
630.269	2281
630.332	95
630.395	906
630.458	147
630.520	31
630.583	822
630.646	1181
630.708	353
630.771	800
630.834	440
630.896	538
630.959	547
631.021	606
631.084	196
631.146	1120
631.209	555
631.272	462
631.334	292
631.397	1019
631.459	-139
631.522	864
631.584	155
631.646	687
631.709	490
631.771	382
631.834	395
631.896	965
631.958	609
632.021	861
632.083	-343
632.145	1217
632.208	584
632.270	870
632.332	732
632.395	-621
632.457	927
632.519	120
632.581	652
632.643	-703
632.706	-139
632.768	435
632.830	786
632.892	579
632.954	267
633.016	1213
633.078	91
633.141	922
633.203	59
633.265	1648
633.327	576
633.389	391
633.451	1073
633.513	413
633.575	752
633.637	-178
633.698	-394
633.760	700
633.822	244
633.884	911
633.946	-202
634.008	377
634.070	804
634.132	668
634.193	800
634.255	547
634.317	363
634.379	902
634.441	545
634.502	380
634.564	-3
634.626	810
634.687	745
634.749	279
634.811	68
634.873	-586
634.934	298
634.996	948
635.057	446
635.119	119
635.181	-187
635.242	984
635.304	-545
635.365	1160
635.427	-510
635.488	797
635.550	-244
635.611	414
635.673	-982
635.734	1323
635.796	-161
635.857	780
635.918	48
635.980	1614
636.041	180
636.102	269
636.164	77
636.225	610
636.286	-718
636.348	49
636.409	-211
636.470	594
636.531	-160
636.593	111
636.654	111
636.715	400
636.776	-71
636.838	527
636.899	107
636.960	23
637.021	-244
637.082	-672
637.143	78
637.204	-663
637.265	40
637.326	510
637.387	-483
637.448	76
637.509	292
637.570	767
637.631	372
637.692	-509
637.753	-1092
637.814	109
637.875	-400
637.936	871
637.997	-650
638.058	-107
638.119	-339
638.179	-307
638.240	-788
638.301	-127
638.362	-898
638.423	-18
638.483	190
638.544	-386
638.605	-625
638.666	-695
638.726	655
638.787	125
638.848	-675
638.908	-19
638.969	-343
639.030	-492
639.090	-1104
639.151	-290
639.211	-52
639.272	868
639.332	196
639.393	-314
639.453	-777
639.514	-438
639.574	42
639.635	-499
639.695	202
639.756	-475
639.816	-136
639.877	-305
639.937	368
639.997	-298
640.058	-1266
640.118	-1021
640.178	-99
640.239	-471
640.299	-511
640.359	504
640.420	-538
640.480	74
640.540	-181
640.600	73
640.661	129
640.721	-1175
640.781	722
640.841	-1187
640.901	177
640.961	-193
641.021	-1013
641.082	-668
641.142	-440
641.202	-144
641.262	-1356
641.322	-189
641.382	-1192
641.442	-526
641.502	-902
641.562	294
641.622	-825
641.682	-374
641.742	-448
641.802	618
641.861	-672
641.921	-428
641.981	-342
642.041	523
642.101	-980
642.161	-911
642.221	-721
642.280	-462
642.340	-901
642.400	-376
642.460	-546
642.519	-370
642.579	-1555
642.639	218
642.698	-1941
642.758	1873
642.818	56
642.877	23
642.937	-772
642.997	-297
643.056	-235
643.116	-1028
643.175	55
643.235	-577
643.294	-663
643.354	-156
643.414	-97
643.473	196
643.532	-131
643.592	-263
643.651	39
643.711	1792
643.770	2941
643.830	8074
643.889	21018
643.948	9947
644.008	936
644.067	129
644.126	-1807
644.186	-1
644.245	-146
644.304	-1160
644.363	281
644.423	-1047
644.482	-371
644.541	-369
644.600	-2504
644.659	138
644.719	-723
644.778	204
644.837	-554
644.896	1557
644.955	2582
645.014	1506
645.073	-97
645.132	-548
645.191	-345
645.250	-1601
645.309	-357
645.368	-608
645.427	-461
645.486	-1704
645.545	192
645.604	-618
645.663	-799
645.722	-328
645.781	-938
645.840	-187
645.898	-628
645.957	-210
646.016	-781
646.075	1929
646.134	1833
646.192	7289
646.251	15583
646.310	3765
646.369	-869
646.427	525
646.486	-1584
646.545	-533
646.603	-492
646.662	-748
646.721	-1261
646.779	-1056
646.838	-1609
646.896	154
646.955	-1178
647.014	-75
647.072	-625
647.131	1595
647.189	729
647.248	-447
647.306	29
647.365	-422
647.423	-2088
647.481	783
647.540	-2893
647.598	-949
647.657	-1141
647.715	-33
647.773	-2354
647.832	-245
647.890	-1234
647.948	-881
648.007	-17
648.065	-1243
648.123	-1794
648.181	186
648.240	-1659
648.298	-1069
648.356	-1176
648.414	-672
648.472	-987
648.531	-493
648.589	-341
648.647	-680
648.705	-1382
648.763	-885
648.821	-1616
648.879	-1472
648.937	-1269
648.995	-301
649.053	-712
649.111	-539
649.169	-776
649.227	170
649.285	855
649.343	6280
649.401	6200
649.459	314
649.516	-327
649.574	-1982
649.632	-519
649.690	-1038
649.748	-251
649.806	-2100
649.863	200
649.921	1408
649.979	54
650.037	-269
650.094	-1633
650.152	-661
650.210	-1761
650.268	-332
650.325	-1027
650.383	-927
650.440	-2428
650.498	-475
650.556	-1115
650.613	-1465
650.671	-1567
650.728	-1540
650.786	-850
650.843	-1059
650.901	-1966
650.958	-272
651.016	-966
651.073	-238
651.131	-1645
651.188	-1282
651.246	-1085
651.303	-1298
651.360	-552
651.418	-618
651.475	-1191
651.532	-1726
651.590	-631
651.647	-1817
651.704	-1651
651.762	-429
651.819	-1487
651.876	-932
651.933	-1245
651.990	-378
652.048	-2212
652.105	-907
652.162	-1105
652.219	-1265
652.276	-1112
652.333	-571
652.390	-2142
652.448	-1611
652.505	-1652
652.562	-612
652.619	-817
652.676	-578
652.733	-676
652.790	-947
652.847	-2450
652.904	-615
652.961	-2162
653.017	-1407
653.074	-589
653.131	-1132
653.188	-1907
653.245	-1642
653.302	-1161
653.359	-1653
653.415	-916
653.472	-1834
653.529	-740
653.586	-1205
653.642	-2180
653.699	-762
653.756	-2442
653.813	-861
653.869	-937
653.926	-1635
653.983	-1303
654.039	-1063
654.096	-1201
654.152	-364
654.209	-2080
654.266	-1184
654.322	-1813
654.379	-1143
654.435	-1145
654.492	-1014
654.548	-1006
654.605	-1483
654.661	-221
654.717	-1050
654.774	-1094
654.830	-1353
654.887	-1627
654.943	-789
655.000	-1558
655.056	-1162
655.112	-1126
655.168	-1418
655.225	-1439
655.281	-1175
655.337	-2257
655.394	-1150
655.450	-1928
655.506	-1246
655.562	-1348
655.618	-32
655.675	-2038
655.731	-1334
655.787	-1772
655.843	-579
655.899	-2196
655.955	-303
656.011	-1662
656.067	-1828
656.123	-1046
656.179	-1664
656.235	-545
656.291	-1484
656.347	-1112
656.403	-1885
656.459	-1862
656.515	-1180
656.571	-1410
656.627	-44
656.683	-1974
656.739	-1092
656.795	-1489
656.850	-1173
656.906	-893
656.962	-945
657.018	-2149
657.074	-866
657.129	-1105
657.185	-524
657.241	-1148
657.297	-1279
657.352	-1472
657.408	-1855
657.464	-690
657.519	-1115
657.575	-2233
657.630	-901
657.686	-885
657.742	-1553
657.797	-886
657.853	-1435
657.908	-741
657.964	-1433
658.019	-1284
658.075	-1126
658.130	-1618
658.186	-1487
658.241	-1225
658.297	-1788
658.352	-1551
658.407	-532
658.463	-1645
658.518	-1183
658.573	-1129
658.629	-2042
658.684	-1954
658.739	-570
658.795	-2465
658.850	-490
658.905	-2067
658.960	-1535
659.016	-2312
659.071	-847
659.126	-1419
659.181	-2028
659.236	208
659.291	-810
659.346	-1660
659.401	-1890
659.457	-920
659.512	-2035
659.567	-1497
659.622	-1144
659.677	-2056
659.732	-1697
659.787	-1626
659.842	-1024
659.897	-1656
659.952	-1300
660.007	-1406
660.061	-1127
660.116	-2196
660.171	-2379
660.226	-1191
660.281	-397
660.336	-1811
660.391	-927
660.445	-2456
660.500	-1406
660.555	-1129
660.610	-1589
660.664	-1045
660.719	-1450
660.774	-2166
660.828	-885
660.883	-1466
660.938	-773
660.992	-2039
661.047	-1515
661.101	-1394
661.156	-929
661.211	-2483
661.265	-1360
661.320	-1587
661.374	-1406
661.429	-1953
661.483	-732
661.538	-1699
661.592	-1539
661.647	-1698
661.701	-1402
661.755	-1533
661.810	-216
661.864	-1654
661.919	-1606
661.973	-1734
662.027	-1715
662.081	-2555
662.136	-1236
662.190	-1581
662.244	-1126
662.299	-1880
662.353	-473
662.407	-2395
662.461	-1593
662.515	-1649
662.569	-1940
662.624	-860
662.678	-2266
662.732	-766
662.786	-1839
662.840	-1683
662.894	-1166
662.948	-2759
663.002	-1585
663.056	-955
663.110	-984
663.164	-1867
663.218	-500
663.272	-1116
663.326	-315
663.380	-1947
663.434	-1236
663.488	-2121
663.542	-1461
663.595	-1208
663.649	-2112
663.703	-1425
663.757	-1404
663.811	-2078
663.864	-2080
663.918	-1503
663.972	-1184
664.026	-1912
664.079	-1833
664.133	-1703
664.187	-1179
664.240	-2042
664.294	-550
664.348	-1115
664.401	-1414
664.455	-1549
664.508	-1317
664.562	-1918
664.615	-1545
664.669	-1567
664.722	-427
664.776	-2257
664.829	-1000
664.883	-1765
664.936	-1605
664.990	-2333
665.043	-1376
665.097	-1368
665.150	-1209
665.203	-2111
665.257	-865
665.310	-1392
665.363	-966
665.417	-1310
665.470	-948
665.523	-1951
665.576	-1445
665.630	-1652
665.683	-2101
665.736	-1263
665.789	-849
665.842	-1985
665.895	-1090
665.949	-1597
666.002	-1462
666.055	-1035
666.108	-1043
666.161	-1780
666.214	-810
666.267	-1664
666.320	-1129
666.373	-1404
666.426	-608
666.479	-2142
666.532	-1466
666.585	-1524
666.638	-1139
666.691	-2306
666.744	-600
666.796	-2653
666.849	-1297
666.902	-849
666.955	-694
667.008	-1929
667.060	-1286
667.113	-1329
667.166	-188
667.219	-1456
667.271	-1397
667.324	-1591
667.377	-1098
667.430	-864
667.482	-2500
667.535	-1571
667.587	-923
667.640	-778
667.693	-1177
667.745	-1687
667.798	-276
667.850	-1019
667.903	-1457
667.955	-1487
668.008	-714
668.060	-1048
668.113	-1708
668.165	-1561
668.218	-1274
668.270	-1750
668.322	-1738
668.375	-2051
668.427	-1047
668.479	-2226
668.532	-1361
668.584	-1216
668.636	-1666
668.689	-1468
668.741	-1660
668.793	-1321
668.845	-1511
668.898	-2249
668.950	-1369
669.002	-1245
669.054	-1729
669.106	-1704
669.158	-1298
669.211	-1620
669.263	-1408
669.315	-862
669.367	-1401
669.419	-2213
669.471	-1300
669.523	-1462
669.575	-1676
669.627	-1391
669.679	-1539
669.731	-1448
669.783	-981
669.835	-1992
669.886	-1797
669.938	-1892
669.990	-628
670.042	-1918
670.094	-1355
670.146	-1905
670.197	-919
670.249	-1628
670.301	-1378
670.353	-462
670.404	-1067
670.456	-935
670.508	-786
670.560	-392
670.611	-311
670.663	406
670.715	5036
670.766	11732
670.818	9554
670.869	-363
670.921	-453
670.972	-1540
671.024	-1588
671.075	-1510
671.127	-883
671.178	-1706
671.230	-1090
671.281	-1164
671.333	-1930
671.384	-1444
671.436	-1368
671.487	-1320
671.538	-1194
671.590	-1530
671.641	-1207
671.692	-1240
671.744	-27
671.795	175
671.846	-1245
671.897	-1956
671.949	-795
672.000	-1656
672.051	-1168
672.102	-1135
672.153	-1242
672.204	-1806
672.256	-1880
672.307	-1639
672.358	-815
672.409	-946
672.460	-939
672.511	-1933
672.562	-1587
672.613	-1293
672.664	-679
672.715	-1079
672.766	-1676
672.817	-1523
672.868	-652
672.919	-2053
672.970	-1442
673.021	-1512
673.071	-1849
673.122	-1610
673.173	-973
673.224	-1851
673.275	-1825
673.326	-1891
673.376	-2226
673.427	-1840
673.478	-1782
673.528	-1613
673.579	-895
673.630	-1861
673.680	-822
673.731	-1873
673.782	-2441
673.832	-1663
673.883	-1208
673.934	-1701
673.984	-1340
674.035	-1376
674.085	-1030
674.136	-1547
674.186	-1545
674.237	-1135
674.287	-1304
674.338	-883
674.388	-1214
674.438	-1849
674.489	-1364
674.539	-2194
674.589	-876
674.640	-1562
674.690	-1060
674.740	-1614
674.791	-1354
674.841	-2341
674.891	-1141
674.942	-1398
674.992	-1288
675.042	-1893
675.092	-1830
675.142	-2135
675.193	-1622
675.243	-1976
675.293	-1506
675.343	-1766
675.393	-1446
675.443	-1735
675.493	-1372
675.543	-2218
675.593	-1606
675.643	-1323
675.693	-1278
675.743	-1887
675.793	-1563
675.843	-2703
675.893	-1889
675.943	-1898
675.993	-1462
676.043	-2169
676.093	-1450
676.142	-1999
676.192	-2291
676.242	-1666
676.292	-672
676.341	-2127
676.391	-1812
676.441	-2495
676.491	-849
676.540	-1500
676.590	-1333
676.640	-1923
676.689	-1524
676.739	-1560
676.789	-1739
676.838	-1614
676.888	-1031
676.937	-1732
676.987	-1735
677.037	-1444
677.086	-1934
677.136	-1839
677.185	-2049
677.235	-1360
677.284	-1511
677.333	-1925
677.383	-1576
677.432	-1857
677.482	-1497
677.531	-1844
677.580	-2197
677.630	-1837
677.679	-1085
677.728	-2245
677.778	-1135
677.827	-1618
677.876	-1639
677.925	-1943
677.975	-1240
678.024	-1762
678.073	-1786
678.122	-1820
678.171	-2267
678.220	-1535
678.269	-1390
678.319	-1743
678.368	-2137
678.417	-2073
678.466	-1461
678.515	-2011
678.564	-1955
678.613	-2069
678.662	-1685
678.711	-2541
678.760	-1588
678.809	-1719
678.857	-1271
678.906	-1574
678.955	-1655
679.004	-1437
679.053	-1323
679.102	-1976
679.151	-1940
679.199	-1891
679.248	-1934
679.297	-2168
679.346	-1491
679.394	-2487
679.443	-1993
679.492	-2006
679.540	-2583
679.589	-2089
679.638	-2015
679.686	-1057
679.735	-731
679.784	-2283
679.832	-1682
679.881	-1543
679.929	-1231
679.978	-2403
680.026	-1177
680.075	-1863
680.123	-1684
680.172	-1978
680.220	-1632
680.268	-1875
680.317	-1763
680.365	-2129
680.414	-1593
680.462	-2070
680.510	-1156
680.559	-1784
680.607	-1865
680.655	-1793
680.703	-1812
680.752	-2031
680.800	-1467
680.848	-2181
680.896	-2386
680.945	-2405
680.993	-1875
681.041	-2068
681.089	-1075
681.137	-2489
681.185	-1806
681.233	-1832
681.281	-1700
681.308	-2094
681.329	-2425
681.377	-1946
681.425	-2038
681.430	-2012
681.473	-1872
681.521	-2009
681.552	-1497
681.569	-1234
681.617	-1886
681.665	-1335
681.674	-1363
681.713	-1541
681.761	-1653
681.796	-1610
681.809	-1613
681.857	-1698
681.904	-1437
681.918	-1375
681.952	-1256
682.000	-1295
682.039	-1185
682.048	-1171
682.096	-1658
682.143	-1153
682.161	-1177
682.191	-1263
682.239	-793
682.283	-1361
682.286	-1412
682.334	-821
682.382	-1230
682.405	-861
682.430	-489
682.477	-2036
682.525	-975
682.527	-968
682.572	-1099
682.620	-845
682.648	-1104
682.667	-1263
682.715	-1818
682.763	-1621
682.770	-1485
682.810	-873
682.857	-1584
682.892	-839
682.905	-566
682.952	-259
683.000	-1005
683.014	-1111
683.047	-1394
683.095	-284
683.135	-1236
683.142	-1399
683.190	-160
683.237	-1369
683.257	-1049
683.284	-653
683.332	-406
683.379	-268
683.379	-263
683.426	-700
683.473	-1245
683.501	-1145
683.521	-1041
683.568	-578
683.615	-1505
683.622	-1324
683.662	-395
683.709	-874
683.744	-533
683.757	-421
683.804	-952
683.851	-435
683.865	-321
683.898	-19
683.945	-759
683.987	-520
683.992	-500
684.039	-331
684.086	-1059
684.109	-434
684.133	258
684.180	-604
684.227	-476
684.230	-462
684.274	-367
684.321	-231
684.352	-626
684.368	-831
684.415	0
684.462	-622
684.473	-635
684.509	-672
684.556	-295
684.595	-215
684.603	-202
684.649	-236
684.696	107
684.716	-122
684.743	-423
684.790	339
684.837	78
684.838	86
684.883	389
684.930	64
684.959	261
684.977	359
685.023	-187
685.070	-6
685.081	-91
685.117	-346
685.164	243
685.202	-87
685.210	-157
685.257	421
685.303	88
685.324	135
685.350	192
685.396	161
685.443	343
685.445	353
685.490	612
685.536	571
685.566	417
685.583	377
685.629	121
685.675	680
685.688	697
685.722	675
685.768	78
685.809	669
685.815	760
685.861	859
685.908	688
685.930	415
685.954	117
686.000	621
686.047	350
686.052	317
686.093	163
686.139	297
686.173	687
686.185	848
686.232	507
686.278	1098
686.294	979
686.324	728
686.370	1211
686.416	908
686.416	907
686.463	1210
686.509	379
686.537	364
686.555	391
686.601	214
686.647	461
686.658	448
686.693	601
686.739	1286
686.779	765
686.785	667
686.831	1306
686.877	633
686.900	924
686.923	1262
686.969	461
687.015	729
687.022	771
687.061	1008
687.107	1322
687.143	761
687.153	645
687.199	1299
687.245	1134
687.264	1128
687.291	1133
687.336	1122
687.382	1107
687.385	1104
687.428	1262
687.474	1886
687.506	1499
687.520	1271
687.565	1519
687.611	595
687.627	513
687.657	530
687.702	961
687.748	978
687.748	968
687.794	887
687.839	1185
687.869	965
687.885	868
687.931	1157
687.976	1040
687.990	1230
688.022	1640
688.067	1217
688.111	1556
688.113	1578
688.158	1351
688.204	1553
688.233	1289
688.249	1189
688.295	1317
688.340	1404
688.354	1481
688.386	1771
688.431	1576
688.474	1747
688.477	1763
688.522	1898
688.567	2145
688.595	1599
688.613	1261
688.658	2097
688.703	1470
688.716	1561
688.749	1945
688.794	1638
688.837	1514
688.839	1523
688.884	2049
688.930	1388
688.958	1644
688.975	1729
689.020	1536
689.065	937
689.079	1016
689.110	1424
689.155	1229
689.200	1385
689.201	1401
689.246	1355
689.291	1747
689.321	1643
689.336	1633
689.381	1284
689.426	1606
689.442	1474
689.471	1378
689.516	1840
689.561	2062
689.562	2051
689.606	1813
689.651	1406
689.683	1174
689.696	1227
689.741	1955
689.785	1787
689.804	1899
689.830	1950
689.875	1536
689.920	1871
689.925	1823
689.965	1523
690.010	1719
690.046	1286
690.054	1254
690.099	1655
690.144	1700
690.166	1726
690.189	1740
690.233	1531
690.278	1562
690.287	1653
690.323	2088
690.367	2019
690.408	1833
690.412	1828
690.457	2158
690.501	1835
690.528	1942
690.546	2057
690.590	1762
690.635	1885
690.649	1794
690.680	1633
690.724	1660
690.769	1581
690.770	1572
690.813	1989
690.857	1959
690.890	1712
690.902	1682
690.946	1888
690.991	1930
691.011	2044
691.035	2202
691.080	2243
691.124	2239
691.132	2287
691.168	2620
691.213	2310
691.252	2467
691.257	2496
691.301	2170
691.346	2203
691.373	2160
691.390	2226
691.434	2336
691.478	2340
691.493	2399
691.522	2510
691.567	2059
691.611	2525
691.614	2462
691.655	2072
691.699	2659
691.734	2476
691.743	2424
691.787	2858
691.831	2330
691.855	2484
691.875	2665
691.919	2499
691.964	2704
691.975	2562
692.008	2271
692.052	2501
692.096	2307
692.096	2284
692.139	2798
692.183	2499
692.216	2779
692.227	2867
692.271	2646
692.315	2848
692.337	2600
692.359	2444
692.403	2964
692.447	2975
692.457	2933
692.490	2804
692.534	2809
692.577	2870
692.578	2898
692.622	2621
692.666	3067
692.698	2781
692.709	2693
692.753	3030
692.797	2735
692.818	2951
692.840	3242
692.884	2960
692.928	3090
692.938	3049
692.971	3008
693.015	3004
693.059	2800
693.059	2773
693.102	2910
693.146	3029
693.179	3181
693.189	3226
693.233	2550
693.276	2832
693.299	2714
693.320	2816
693.363	3253
693.407	3160
693.420	3236
693.450	3138
693.493	2727
693.537	2349
693.540	2290
693.580	2501
693.624	3191
693.660	3311
693.667	3288
693.710	3191
693.753	2790
693.780	2809
693.797	3074
693.840	3304
693.883	3943
693.901	3900
693.926	3537
693.970	3415
694.013	3269
694.021	3189
694.056	3060
694.099	2731
694.141	2574
694.142	2610
694.185	2790
694.229	3161
694.261	3312
694.272	3382
694.315	3581
694.358	3470
694.381	3591
694.401	3662
694.444	3688
694.487	3482
694.501	3458
694.530	3591
694.573	3674
694.616	3589
694.621	3580
694.659	3518
694.702	3204
694.741	3053
694.745	3070
694.787	2797
694.830	2591
694.862	2304
694.873	2382
694.916	2774
694.959	3054
694.982	3123
695.002	3149
695.044	3216
695.087	3564
695.102	3483
695.130	3332
695.172	3556
695.215	3463
695.222	3421
695.258	3506
695.301	3471
695.342	3692
695.343	3730
695.386	3778
695.428	3805
695.462	3648
695.471	3671
695.514	3860
695.556	3922
695.582	3972
695.599	3928
695.641	3609
695.684	3461
695.701	3236
695.726	3100
695.769	3096
695.811	3097
695.821	3031
695.854	3224
695.896	3534
695.938	3926
695.941	3903
695.981	3620
696.023	3497
696.061	3223
696.065	3259
696.108	3630
696.150	3624
696.181	3596
696.192	3669
696.235	3882
696.277	4275
696.301	4334
696.319	4267
696.361	4068
696.404	3905
696.421	3858
696.446	3917
696.488	3673
696.530	3639
696.541	3584
696.572	3670
696.614	3679
696.656	3712
696.660	3694
696.698	4065
696.740	4251
696.780	4375
696.783	4396
696.825	4177
696.867	3909
696.900	3574
696.909	3614
696.951	3800
696.992	3771
697.020	3844
697.034	3926
697.076	4012
697.118	4072
697.139	4082
697.160	4233
697.202	4438
697.244	4531
697.259	4612
697.286	4489
697.327	4094
697.369	3769
697.379	3645
697.411	3784
697.453	3900
697.494	4065
697.499	4048
697.536	3998
697.578	3892
697.618	3718
697.620	3751
697.661	3754
697.703	3785
697.738	3817
697.744	3868
697.786	3981
697.828	4014
697.858	4070
697.869	4160
697.911	4198
697.952	4395
697.977	4435
697.994	4395
698.035	4270
698.077	4000
698.097	3876
698.118	3996
698.160	4139
698.201	4315
698.216	4329
698.243	4334
698.284	4271
698.325	4271
698.336	4218
698.367	4323
698.408	4461
698.449	4608
698.455	4588
698.491	4563
698.532	4492
698.573	4462
698.575	4424
698.614	4378
698.656	4281
698.694	4181
698.697	4214
698.738	4172
698.779	4134
698.814	4049
698.820	4138
698.862	4487
698.903	4816
698.933	5035
698.944	5097
698.985	5190
699.026	5287
699.053	5317
699.067	5318
699.172	5040
699.292	5105
699.411	4691
699.530	4491
699.650	5939
699.769	4865
699.889	4510
700.008	5271
700.127	5337
700.246	5083
700.366	4439
700.485	4740
700.604	4749
700.723	4495
700.843	4029
700.962	4630
701.081	4374
701.200	4831
701.319	3860
701.438	3802
701.557	4306
701.676	4221
701.796	4555
701.915	3683
702.034	3430
702.153	3376
702.272	3660
702.391	4581
702.509	3575
702.628	3689
702.747	4274
702.866	3778
702.985	3936
703.104	3858
703.223	4226
703.342	3857
703.460	4329
703.579	3758
703.698	4139
703.817	3607
703.935	4892
704.054	4343
704.173	3907
704.292	3724
704.410	3705
704.529	2866
704.648	3201
704.766	3318
704.885	3673
705.003	3796
705.122	3053
705.240	3424
705.359	4431
705.477	5572
705.596	7389
705.714	4815
705.833	4484
705.951	5130
706.070	5679
706.188	4781
706.307	4846
706.425	4753
706.543	5666
706.662	5071
706.780	4882
706.898	4953
707.016	5232
707.135	5602
707.253	4721
707.371	5216
707.489	4473
707.608	4306
707.726	4303
707.844	4566
707.962	4887
708.080	4286
708.198	3455
708.316	4097
708.434	4684
708.552	4288
708.670	5148
708.788	6542
708.906	8364
709.024	6675
709.142	5413
709.260	5592
709.378	6353
709.496	5682
709.614	6087
709.732	5625
709.850	5916
709.968	5987
710.085	5335
710.203	5130
710.321	5895
710.439	5156
710.556	5653
710.674	5820
710.792	4433
710.910	5191
711.027	5392
711.145	5344
711.263	5271
711.380	5751
711.498	5640
711.615	5170
711.733	5113
711.851	4923
711.968	4220
712.086	4826
712.203	4989
712.321	3793
712.438	5176
712.555	7329
712.673	8908
712.790	7193
712.908	7364
713.025	5718
713.142	8103
713.260	7272
713.377	6667
713.494	6167
713.612	6188
713.729	6516
713.846	6570
713.963	7218
714.081	6018
714.198	5880
714.315	6232
714.432	6698
714.549	8208
714.666	12670
714.783	43322
714.901	90780
715.018	12094
715.135	6325
715.252	6181
715.369	6192
715.486	5413
715.603	5691
715.720	4754
715.837	5565
715.953	6721
716.070	5463
716.187	5948
716.304	4830
716.421	5703
716.538	5585
716.655	5076
716.771	5785
716.888	5388
717.005	4841
717.122	4882
717.238	5159
717.355	4544
717.472	4965
717.589	4886
717.705	5514
717.822	5031
717.938	4791
718.055	4398
718.172	4399
718.288	4380
718.405	4217
718.521	4190
718.638	4674
718.754	5139
718.871	5198
718.987	5118
719.104	4992
719.220	4422
719.336	4161
719.453	4445
719.569	4032
719.685	4417
719.802	5178
719.918	5475
720.034	6020
720.151	12683
720.267	38963
720.383	12956
720.499	5370
720.616	4624
720.732	5163
720.848	6701
720.964	12150
721.080	8581
721.196	4561
721.312	4260
721.428	4385
721.544	4728
721.660	6168
721.776	4192
721.892	3616
722.008	4031
722.124	3733
722.240	3666
722.356	3640
722.472	2999
722.588	3316
722.704	3271
722.820	3607
722.936	3270
723.051	3586
723.167	3411
723.283	2796
723.399	2369
723.515	3207
723.630	3548
723.746	3551
723.862	3566
723.977	2789
724.093	2659
724.209	2865
724.324	3053
724.440	4047
724.555	8351
724.671	3734
724.786	3272
724.902	2538
725.017	2906
725.133	3973
725.248	7449
725.364	3309
725.479	3218
725.595	3194
725.710	2930
725.826	2471
725.941	3231
726.056	2093
726.172	2826
726.287	2205
726.402	2721
726.517	2366
726.633	3050
726.748	2760
726.863	1962
726.978	1953
727.093	2594
727.208	2676
727.324	2333
727.439	2884
727.554	3340
727.669	1676
727.784	2631
727.899	2808
728.014	2083
728.129	2236
728.244	1819
728.359	1570
728.474	2283
728.589	2770
728.704	2135
728.819	1985
728.934	2480
729.049	1405
729.163	2423
729.278	2476
729.393	2362
729.508	1766
729.622	2356
729.737	2087
729.852	1846
729.967	1511
730.081	1852
730.196	2200
730.311	2359
730.425	2023
730.540	1655
730.655	2194
730.769	1805
730.884	2116
730.998	2317
731.113	2502
731.227	1855
731.342	1823
731.456	2024
731.571	2213
731.685	2080
731.800	1113
731.914	2325
732.028	2542
732.143	1884
732.257	2258
732.371	2930
732.486	4210
732.600	14565
732.714	19081
732.829	3640
732.943	2092
733.057	1857
733.171	2198
733.285	2714
733.399	2708
733.514	2193
733.628	2906
733.742	2397
733.856	2293
733.970	2522
734.084	2213
734.198	2049
734.312	1616
734.426	3366
734.540	4855
734.654	2467
734.768	1350
734.882	2330
734.996	2265
735.109	1903
735.223	2050
735.337	2632
735.451	1834
735.565	2048
735.679	1899
735.792	3996
735.906	3002
736.020	1787
736.134	1849
736.247	2361
736.361	1511
736.475	3366
736.588	2931
736.702	2058
736.815	1753
736.929	2137
737.043	1801
737.156	2105
737.270	1397
737.383	1483
737.497	1249
737.610	1649
737.723	2121
737.837	1253
737.950	1176
738.064	1868
738.177	1680
738.290	1396
738.404	1663
738.517	1602
738.630	2140
738.744	1967
738.857	1703
738.970	1793
739.083	2531
739.197	2333
739.310	1380
739.423	1358
739.536	942
739.649	864
739.762	1119
739.875	842
739.988	1461
740.102	1768
740.215	1271
740.328	574
740.441	1566
740.553	1159
740.667	2148
740.779	1076
740.892	1046
741.005	636
741.118	2357
741.231	2054
741.344	1478
741.457	1245
741.569	951
741.682	1732
741.795	1388
741.908	1199
742.020	1038
742.133	1250
742.246	1900
742.358	1180
742.471	1428
742.584	505
742.696	356
742.809	1155
742.922	1543
743.034	1558
743.147	715
743.259	1278
743.372	1398
743.484	1438
743.597	1274
743.709	884
743.822	1033
743.934	1106
744.046	1992
744.159	1460
744.271	1406
744.383	988
744.496	1121
744.608	1522
744.720	1056
744.832	1334
744.945	1305
745.057	1773
745.169	913
745.281	897
745.393	1343
745.506	1328
745.618	1305
745.730	1025
745.842	929
745.954	433
746.066	1163
746.178	1072
746.290	700
746.402	2088
746.514	1089
746.626	857
746.738	1381
746.850	1348
746.962	1054
747.074	682
747.185	935
747.297	937
747.409	896
747.521	1433
747.633	698
747.744	448
747.856	1425
747.968	981
748.080	603
748.191	910
748.303	1186
748.414	1280
748.526	665
748.638	897
748.749	546
748.861	601
748.972	1114
749.084	769
749.195	1244
749.307	865
749.418	796
749.530	1391
749.641	630
749.753	931
749.864	683
749.975	508
750.087	1138
750.198	1086
750.310	-225
750.421	397
750.532	-296
750.643	17
750.755	132
750.866	563
750.977	240
751.088	1751
751.199	1373
751.310	320
751.422	574
751.533	575
751.644	998
751.755	843
751.866	520
751.977	795
752.088	10
752.199	369
752.310	395
752.421	492
752.532	316
752.643	501
752.753	1520
752.864	191
752.975	351
753.086	894
753.197	354
753.308	483
753.418	1006
753.529	319
753.640	533
753.751	1250
753.861	660
753.972	1084
754.083	465
754.193	827
754.304	496
754.415	697
754.525	772
754.636	1097
754.746	397
754.857	1548
754.967	900
755.078	106
755.188	337
755.299	507
755.409	195
755.520	670
755.630	1136
755.740	808
755.851	557
755.961	413
756.071	593
756.182	830
756.292	-24
756.402	747
756.512	-556
756.623	291
756.733	51
756.843	432
756.953	618
757.063	249
757.173	63
757.283	604
757.393	-452
757.504	-187
757.614	124
757.724	-73
757.834	-706
757.944	7
758.053	448
758.164	1045
758.273	422
758.383	673
758.493	778
758.603	259
758.713	762
758.823	542
758.932	-283
759.042	299
759.152	951
759.262	136
759.372	362
759.481	632
759.591	932
759.701	608
759.810	888
759.920	484
760.029	21
760.139	789
760.249	1044
760.358	169
760.468	-276
760.577	343
760.687	766
760.796	857
760.906	226
761.015	835
761.124	1216
761.234	596
761.343	157
761.453	703
761.562	382
761.671	479
761.781	1332
761.890	-621
761.999	207
762.108	316
762.218	365
762.327	-420
762.436	716
762.545	669
762.654	1037
762.763	354
762.872	122
762.982	853
763.091	138
763.200	399
763.309	590
763.418	813
763.527	92
763.635	390
763.744	969
763.853	725
763.962	413
764.071	220
764.180	-36
764.289	-391
764.398	567
764.506	-236
764.615	429
764.724	435
764.833	269
764.941	-24
765.050	806
765.159	772
765.268	1180
765.376	936
765.485	1423
765.593	1271
765.702	1058
765.810	447
765.919	1296
766.028	3646
766.136	6047
766.245	14397
766.353	39624
766.461	157869
766.570	243466
766.678	36066
766.787	8576
766.895	4566
767.003	1913
767.112	2584
767.220	1598
767.328	2153
767.437	324
767.545	651
767.653	1431
767.761	1368
767.870	810
767.978	1379
768.086	905
768.194	962
768.302	1206
768.410	706
768.518	1007
768.626	1177
768.734	1593
768.842	762
768.950	386
769.058	48
769.166	1276
769.274	1074
769.382	1612
769.490	2958
769.598	6199
769.706	13844
769.813	51813
769.921	182325
770.029	84857
770.137	7528
770.245	3150
770.352	2784
770.460	1940
770.568	2384
770.675	1312
770.783	333
770.891	1022
770.998	685
771.106	738
771.213	1333
771.321	968
771.428	1063
771.536	843
771.643	1852
771.751	1341
771.858	2366
771.966	1424
772.073	1410
772.181	1260
772.288	504
772.395	1654
772.503	1535
772.610	1178
772.717	1177
772.825	1217
772.932	900
773.039	1607
773.146	1333
773.253	685
773.361	1183
773.468	1216
773.575	1497
773.682	388
773.789	1427
773.896	531
774.003	1736
774.110	1211
774.217	885
774.324	841
774.431	1641
774.538	891
774.645	910
774.752	1321
774.859	1245
774.966	1443
775.073	1121
775.179	2231
775.286	1302
775.393	381
775.500	838
775.607	1536
775.713	682
775.820	812
775.927	780
776.033	1080
776.140	841
776.247	1221
776.353	954
776.460	517
776.566	954
776.673	1090
776.779	628
776.886	-301
776.992	1975
777.099	1023
777.205	1716
777.312	828
777.418	1704
777.524	1563
777.631	469
777.737	359
777.843	677
777.950	687
778.056	1847
778.162	1403
778.268	436
778.375	-317
778.481	803
778.587	720
778.693	982
778.799	269
778.906	629
779.012	-193
779.118	1235
779.224	806
779.330	147
779.436	572
779.542	-403
779.648	1422
779.754	165
779.860	1364
779.966	1085
780.071	2362
780.177	1858
780.283	1227
780.389	1144
780.495	857
780.601	293
780.706	485
780.812	1208
780.918	273
781.024	1029
781.129	547
781.235	367
781.341	702
781.446	830
781.552	108
781.657	170
781.763	-196
781.869	1125
781.974	320
782.080	559
782.185	346
782.291	97
782.396	-360
782.501	232
782.607	655
782.712	502
782.818	-344
782.923	96
783.028	-54
783.134	1595
783.239	341
783.344	1268
783.449	18
783.555	592
783.660	804
783.765	569
783.870	350
783.975	188
784.080	-243
784.185	329
784.291	461
784.396	571
784.501	404
784.606	183
784.711	-50
784.816	32
784.921	-529
785.026	1070
785.130	197
785.235	433
785.340	77
785.445	-245
785.550	-174
785.655	278
785.760	-44
785.864	421
785.969	201
786.074	-189
786.178	-323
786.283	-72
786.388	-363
786.492	-93
786.597	100
786.702	178
786.806	456
786.911	226
787.015	494
787.120	-108
787.224	485
787.329	-48
787.433	-230
787.538	-446
787.642	148
787.747	-448
787.851	-430
787.955	-405
788.060	244
788.164	-361
788.268	136
788.372	-395
788.477	89
788.581	375
788.685	-841
788.789	-264
788.894	-15
788.998	189
789.102	764
789.206	-148
789.310	-373
789.414	-338
789.518	190
789.622	256
789.726	-99
789.830	-273
789.934	-31
790.038	-70
790.142	-253
790.246	-155
790.350	689
790.454	213
790.557	-458
790.661	-33
790.765	619
790.869	291
790.973	-333
791.076	1161
791.180	-843
791.284	-256
791.388	527
791.491	691
791.595	-323
791.698	-1294
791.802	437
791.906	141
792.009	30
792.113	-203
792.216	-606
792.320	-663
792.423	-235
792.527	234
792.630	-744
792.733	-702
792.837	-874
792.940	-334
793.043	-223
793.147	-937
793.250	-435
793.353	-98
793.457	-971
793.560	467
793.663	23
793.766	452
793.869	248
793.973	-141
794.076	-449
794.179	276
794.282	-675
794.385	-720
794.488	-18
794.591	-425
794.694	603
794.797	592
794.900	-126
795.003	147
795.106	-357
795.209	916
795.312	-364
795.415	515
795.517	-1092
795.620	-149
795.723	-831
795.826	-250
795.929	-802
796.031	101
796.134	-184
796.237	-910
796.339	18
796.442	-408
796.545	-321
796.647	-369
796.750	-23
796.852	-472
796.955	-742
797.057	-158
797.160	-440
797.262	-1308
797.365	340
797.467	-542
797.570	-628
797.672	-878
797.775	-251
797.877	-173
797.979	-81
798.082	-898
798.184	-1138
798.286	100
798.388	-843
798.491	-394
798.593	-610
798.695	-998
798.797	-140
798.899	-921
799.001	-998
799.104	-693
799.206	-894
799.308	135
799.410	-73
799.512	-472
799.614	-819
799.716	-188
799.818	595
799.920	-1504
800.021	-278
800.123	-461
800.225	-476
800.327	-973
800.429	-408
800.531	-523
800.633	826
800.734	232
800.836	-781
800.938	-1303
801.039	-829
801.141	-647
801.243	-901
801.344	-513
801.446	-1330
801.548	-425
801.649	-437
801.751	-358
801.852	-689
801.954	-405
802.055	-532
802.157	-651
802.258	-719
802.360	-1260
802.461	595
802.563	-1087
802.664	-1100
802.765	-237
802.867	-316
802.968	-1116
803.069	83
803.170	-893
803.272	-718
803.373	-882
803.474	-1235
803.575	118
803.676	-1016
803.777	-602
803.879	-953
803.980	-640
804.081	-343
804.182	-1144
804.283	-273
804.384	-734
804.485	-1295
804.586	-222
804.687	-533
804.788	-1234
804.888	-1111
804.989	-816
805.090	-154
805.191	-1746
805.292	451
805.393	-1137
805.493	-843
805.594	-211
805.695	-1725
805.796	-836
805.896	-379
805.997	-695
806.098	-750
806.198	-660
806.299	-286
806.399	-1171
806.500	-1352
806.601	-89
806.701	-986
806.802	-563
806.902	-278
807.002	-575
807.103	-1514
807.203	-823
807.304	-539
807.404	-1019
807.504	-842
807.605	-1121
807.705	-338
807.805	96
807.906	-1177
808.006	-737
808.106	-909
808.206	-532
808.306	-1545
808.406	-1031
808.507	-466
808.607	-729
808.707	-1419
808.807	-457
808.907	-1180
809.007	-1371
809.107	-1480
809.207	-1455
809.307	-794
809.407	-1235
809.507	-671
809.607	-1193
809.706	-1222
809.806	-1056
809.906	-1004
810.006	-864
810.106	-443
810.205	23
810.305	-1580
810.405	-407
810.505	-1283
810.604	-688
810.704	-1399
810.804	-1858
810.903	-1269
811.003	-1501
811.102	-1334
811.202	-1180
811.301	-346
811.401	-1081
811.500	-1254
811.600	-849
811.699	-575
811.799	-1201
811.898	-790
811.997	-387
812.097	-1034
812.196	-1408
812.295	-846
812.395	-791
812.494	-999
812.593	-292
812.692	-523
812.792	-970
812.891	-1431
812.990	-1143
813.089	-108
813.188	-610
813.287	-2003
813.386	-961
813.485	-1092
813.584	-1871
813.683	-1459
813.782	-1219
813.881	-997
813.980	-783
814.079	-1266
814.178	-1040
814.277	-1294
814.376	-1860
814.475	-1118
814.574	-929
814.672	-1036
814.771	-1064
814.870	-1735
814.969	-1311
815.067	-1084
815.166	-372
815.265	-1665
815.363	-127
815.462	-791
815.560	9
815.659	-723
815.758	-352
815.856	-1159
815.955	-753
816.053	-1205
816.152	110
816.250	392
816.348	-557
816.447	-886
816.545	-358
816.644	367
816.742	-563
816.840	-1251
816.938	-1220
817.037	-1201
817.135	25
817.233	-225
817.331	-165
817.430	-867
817.528	-365
817.626	-876
817.724	-584
817.822	-1213
817.920	-363
818.018	-699
818.116	1494
818.214	3734
818.312	14641
818.410	17468
818.508	2136
818.606	-749
818.704	-106
818.802	227
818.900	-225
818.997	-672
819.095	-129
819.193	259
819.291	4152
819.389	10054
819.486	32772
819.584	24957
819.682	3142
819.779	240
819.877	135
819.975	-267
820.072	-101
820.170	-660
820.267	785
820.365	-454
820.462	-406
820.560	37
820.657	-504
820.755	-1285
820.852	-342
820.949	-1404
821.047	-498
821.144	-1269
821.241	-240
821.339	-1201
821.436	-1072
821.533	192
821.631	845
821.728	-620
821.825	-20
821.922	-675
822.019	626
822.116	-774
822.214	349
822.311	-1386
822.408	-1302
822.505	-558
822.602	-104
822.699	-293
822.796	-466
822.893	-1138
822.990	-223
823.086	-955
823.183	-1551
823.280	-730
823.377	-278
823.474	-442
823.571	-1299
823.667	-965
823.764	-1046
823.861	-561
823.958	-196
824.054	-389
824.151	-1236
824.248	-1269
824.344	-516
824.441	-1791
824.537	-248
824.634	-1092
824.731	-296
824.827	-596
824.924	-642
825.020	-277
825.116	-1308
825.213	-974
825.309	-779
825.406	-794
825.502	-799
825.598	-848
825.695	-247
825.791	-1006
825.887	-174
825.983	-1851
826.080	-1061
826.176	-786
826.272	-993
826.368	-882
826.464	-1415
826.560	-966
826.656	-763
826.753	-1275
826.849	-1889
826.945	-153
827.041	-1150
827.137	-1676
827.233	-636
827.328	-965
827.424	-668
827.520	-1107
827.616	-1369
827.712	-1548
827.808	-865
827.904	-1186
827.999	-142
828.095	-1177
828.191	-1051
828.287	-1077
828.382	-1100
828.478	-546
828.574	-1983
828.669	-1438
828.765	-695
828.860	-1679
828.956	-499
829.051	-1083
829.147	-1113
829.242	-1060
829.338	-1199
829.433	-1044
829.529	-614
829.624	-828
829.720	-1576
829.815	-1113
829.910	-828
830.005	-1282
830.101	-1464
830.196	-1667
830.291	-1393
830.386	-1498
830.482	-1285
830.577	-690
830.672	-1684
830.767	-653
830.862	-1313
830.957	-481
831.052	-1015
831.147	-663
831.242	-1036
831.337	-1434
831.432	-954
831.527	-304
831.622	-932
831.717	-1744
831.812	-938
831.907	-1196
832.002	-1094
832.097	-1625
832.191	-1985
832.286	-1078
832.381	-1225
832.476	-577
832.570	-558
832.665	-250
832.760	-274
832.854	-1799
832.949	-1353
833.044	-1730
833.138	-1110
833.233	-899
833.327	-861
833.422	-908
833.516	-867
833.611	-1669
833.705	-1112
833.799	-1209
833.894	-880
833.988	-1349
834.083	-1130
834.177	-684
834.271	-1147
834.365	-887
834.460	-702
834.554	-1665
834.648	-1278
834.742	-828
834.836	-109
834.931	-1382
835.025	-1631
835.119	-115
835.213	-1147
835.307	-1425
835.401	-1227
835.495	-559
835.589	-948
835.683	-881
835.777	-1566
835.871	-1273
835.965	-1465
836.059	-982
836.152	-1301
836.246	-1191
836.340	104
836.434	-460
836.528	-1960
836.621	-243
836.715	-1101
836.809	-2449
836.902	-358
836.996	-1965
837.090	-1069
837.183	-1519
837.277	-1553
837.370	-1085
837.464	-1254
837.557	-1269
837.651	-485
837.744	251
837.838	-705
837.931	-728
838.025	-1574
838.118	-805
838.211	-600
838.305	-617
838.398	-1042
838.491	-1792
838.584	-903
838.678	-1386
838.771	-603
838.864	-804
838.957	-2023
839.050	-945
839.144	-1778
839.237	-1518
839.330	-968
839.423	-843
839.516	-1295
839.609	-879
839.702	-534
839.795	-1658
839.888	-2088
839.981	-856
840.073	-745
840.166	-1649
840.259	-1068
840.352	-1062
840.445	-2205
840.538	-1755
840.630	-564
840.723	-1901
840.816	-1313
840.909	-1394
841.001	-1461
841.094	-1323
841.186	-576
841.279	-968
841.372	-141
841.464	-1512
841.557	-965
841.649	-2058
841.742	-953
841.834	-1142
841.927	-1467
842.019	-1407
842.111	-413
842.204	-1072
842.296	-698
842.388	-392
842.481	-1544
842.573	-292
842.665	1148
842.758	-1071
842.850	-1446
842.942	-1357
843.034	-276
843.126	-1921
843.218	-1100
843.310	-886
843.402	1770
843.495	4585
843.587	4801
843.679	-582
843.771	-977
843.862	-1364
843.954	-419
844.046	-997
844.138	-871
844.230	-1326
844.322	-1301
844.414	-1502
844.505	-588
844.597	-763
844.689	-1076
844.781	-1188
844.872	-1660
844.964	-1546
845.056	-715
845.147	-1488
845.239	-1415
845.331	-1551
845.422	-2051
845.514	-2090
845.605	-1129
845.697	-2053
845.788	-1360
845.880	-1722
845.971	-2543
846.063	-1627
846.154	-1233
846.245	-1282
846.337	-1578
846.428	-1736
846.519	-1222
846.610	-1387
846.702	-928
846.793	-961
846.884	-1327
846.975	-2453
847.066	-1947
847.158	-1475
847.249	-1313
847.340	-1385
847.431	-1737
847.522	-1356
847.613	-1604
847.704	-1951
847.795	-570
847.886	-1074
847.977	-860
848.068	-1736
848.158	-1185
848.249	-1360
848.340	-1757
848.431	-1664
848.522	-988
848.612	-1894
848.703	-676
848.794	-1954
848.885	-824
848.975	-1706
849.066	-1790
849.157	-1877
849.247	-1214
849.338	-961
849.428	-544
849.519	820
849.609	3745
849.700	6893
849.790	17984
849.881	6479
849.971	-541
850.061	-1535
850.152	-969
850.242	-1137
850.332	-2037
850.423	-1332
850.513	-1606
850.603	-1768
850.693	-504
850.784	-2463
850.874	-1700
850.964	-1159
851.054	-1842
851.144	-1226
851.234	-1494
851.324	-2182
851.414	-649
851.505	-1919
851.595	-1546
851.684	-2038
851.774	-708
851.864	-967
851.954	-1612
852.044	-818
852.134	-2020
852.224	-1313
852.314	-1644
852.403	-1714
852.493	-1495
852.583	-1408
852.673	-1654
852.762	-2258
852.852	-1380
852.942	-1596
853.031	-1159
853.121	-1243
853.210	-1105
853.300	-1463
853.389	-1845
853.479	-1260
853.568	-158
853.658	14
853.747	2621
853.837	5284
853.926	14828
854.015	28859
854.105	50129
854.194	110056
854.283	49974
854.373	4131
854.462	114
854.551	-481
854.640	-470
854.729	-1222
854.819	348
854.908	-405
854.997	-885
855.086	-1264
855.175	-1253
855.264	-1425
855.353	-1574
855.442	-712
855.531	-1669
855.620	-2204
855.709	-1613
855.798	-1515
855.887	-1230
855.975	-1393
856.064	-1401
856.153	-1159
856.242	-989
856.331	-1419
856.419	-876
856.508	-1752
856.597	-699
856.685	-1473
856.774	-1261
856.863	-1124
856.951	-1507
857.040	-1165
857.128	-876
857.217	-1119
857.305	-1734
857.394	-744
857.482	-2232
857.571	-781
857.659	-1659
857.747	-1611
857.836	-908
857.924	-1631
858.012	-1568
858.101	-974
858.189	-1574
858.277	-1471
858.365	-1879
858.454	-556
858.542	-1642
858.630	-2030
858.718	-1437
858.806	-1482
858.894	-1750
858.982	-2027
859.070	-988
859.158	-497
859.246	-2221
859.334	-471
859.422	-1883
859.510	-1416
859.598	-1083
859.686	-1428
859.773	-1575
859.861	-661
859.949	-1267
860.037	-1879
860.125	-379
860.212	-1616
860.300	-1833
860.388	-1333
860.475	-1433
860.563	-1558
860.651	-1349
860.738	-1439
860.826	-1528
860.913	-1289
861.001	-708
861.088	-1664
861.176	-1206
861.263	-1142
861.350	-1420
861.438	-1208
861.525	-1152
861.612	-968
861.700	-1289
861.787	-1853
861.874	-1365
861.962	-519
862.049	-2016
862.136	-1138
862.223	-1430
862.310	-1609
862.397	-1521
862.484	-1586
862.572	-1362
862.659	-1431
862.746	-818
862.833	-829
862.920	-469
863.007	-2069
863.094	-1603
863.180	-2021
863.267	-1188
863.354	-2469
863.441	-1096
863.528	-1391
863.615	-1203
863.701	-866
863.788	-1317
863.875	-1407
863.961	-1953
864.048	-2040
864.135	-1177
864.221	-1600
864.308	-1105
864.395	-1117
864.481	-597
864.568	-1747
864.654	-1390
864.741	-706
864.827	-596
864.914	-1234
865.000	68
865.086	-1403
865.173	-531
865.259	79
865.345	-135
865.432	-864
865.518	-742
865.604	155
865.690	840
865.776	3065
865.863	6787
865.949	15568
866.035	24174
866.121	45296
866.207	72431
866.293	20089
866.379	1579
866.465	143
866.551	217
866.637	-642
866.723	189
866.809	-119
866.895	-484
866.981	-558
867.066	-619
867.152	-102
867.238	-1276
867.324	-774
867.409	-149
867.495	-473
867.581	-394
867.667	-628
867.752	-466
867.838	-387
867.923	-219
868.009	-242
868.094	-511
868.180	-230
868.266	-855
868.351	-937
868.436	-542
868.522	-804
868.607	100
868.693	883
868.778	670
868.863	1044
868.949	-198
869.034	-655
869.119	-798
869.204	-1222
869.290	-517
869.375	-708
869.460	-1202
869.545	-1796
869.630	-1165
869.715	-1048
869.800	-69
869.885	-1253
869.970	-1672
870.055	-772
870.140	-1519
870.225	-163
870.310	-906
870.395	-1098
870.480	-1591
870.565	-1252
870.650	-1436
870.734	-1331
870.819	-2029
870.904	-1684
870.989	-1368
871.073	-565
871.158	-1022
871.243	-1705
871.327	-948
871.412	-616
871.496	-1433
871.581	-1321
871.665	-717
871.750	-1065
871.834	-1292
871.919	-930
872.003	-1370
872.088	-494
872.172	-518
872.257	-522
872.341	-1168
872.425	-1919
872.509	-1124
872.594	-1449
872.678	-767
872.762	-1335
872.846	-1209
872.930	-857
873.015	-1628
873.099	-1464
873.183	-1147
873.267	-1041
873.351	-764
873.435	-1206
873.519	-773
873.603	-1183
873.687	-301
873.771	-1682
873.855	-927
873.938	-1263
874.022	-1574
874.106	-679
874.190	-784
874.274	-1372
874.358	-1018
874.383	-1082
874.441	-1235
874.490	-1356
874.525	-1448
874.598	-737
874.609	-634
874.692	-735
874.705	-736
874.776	-761
874.813	-897
874.859	-1052
874.920	-1558
874.943	-1759
875.027	-1076
875.028	-1079
875.110	-1351
875.135	-1157
875.194	-741
875.243	-975
875.277	-1141
875.350	-1041
875.361	-1030
875.444	-1080
875.457	-973
875.527	-368
875.565	-894
875.611	-1567
875.672	-1006
875.694	-800
875.778	-1258
875.780	-1251
875.861	-1146
875.887	-957
875.944	-507
875.994	-820
876.027	-1031
876.101	-1011
876.111	-1022
876.194	-854
876.209	-909
876.277	-1076
876.316	-684
876.360	-243
876.423	-786
876.443	-955
876.526	-729
876.530	-748
876.610	-1403
876.637	-1291
876.693	-933
876.745	-1013
876.776	-1037
876.852	-593
876.859	-565
876.942	-608
876.959	-686
877.025	-1072
877.066	-1009
877.108	-890
877.173	-1249
877.190	-1332
877.273	-525
877.280	-529
877.356	-567
877.387	-533
877.439	-577
877.494	-665
877.522	-662
877.601	-1018
877.605	-1039
877.688	-228
877.708	-449
877.770	-1085
877.815	-805
877.853	-572
877.922	-964
877.936	-1038
878.018	-612
878.029	-579
878.101	-431
878.136	-520
878.184	-652
878.242	-1108
878.266	-1264
878.349	-570
878.349	-570
878.431	-729
878.456	-837
878.514	-868
878.563	-633
878.596	-685
878.670	-1003
878.679	-1007
878.761	-1141
878.776	-1125
878.844	-951
878.883	-959
878.926	-1008
878.990	-688
879.008	-574
879.091	-182
879.097	-177
879.173	-556
879.203	-764
879.255	-745
879.310	-215
879.338	-6
879.417	-180
879.420	-197
879.502	-419
879.523	-447
879.584	-537
879.630	-535
879.667	-437
879.736	-246
879.749	-211
879.831	-496
879.843	-506
879.913	-654
879.949	-667
879.995	-639
880.056	-767
880.077	-814
880.159	-409
880.162	-418
880.241	-586
880.269	-290
880.323	460
880.375	323
880.405	210
880.482	1075
880.487	1151
880.569	2240
880.588	2459
880.651	4456
880.694	4865
880.733	6156
880.801	8278
880.815	7167
880.896	1757
880.907	1101
880.978	52
881.013	-672
881.060	-670
881.120	-361
881.142	-313
881.224	-221
881.226	-228
881.305	-323
881.332	-293
881.387	-198
881.438	-125
881.469	-82
881.545	-208
881.550	-216
881.632	130
881.651	29
881.713	-195
881.757	-19
881.795	-27
881.863	-424
881.876	-455
881.958	-305
881.969	-298
882.039	-254
882.075	-306
882.121	-380
882.181	-64
882.202	21
882.284	-416
882.287	-408
882.365	644
882.393	922
882.446	1219
882.499	1205
882.528	981
882.605	971
882.609	951
882.690	-201
882.711	-390
882.771	-381
882.817	-475
882.853	-488
882.923	-434
882.934	-396
883.015	3
883.029	19
883.096	-115
883.135	-117
883.177	124
883.241	245
883.258	193
883.339	338
883.347	328
883.420	171
883.453	-71
883.501	-560
883.558	-714
883.583	-538
883.663	-81
883.664	-82
883.744	80
883.770	84
883.825	185
883.876	125
883.906	161
883.981	597
883.987	568
884.068	-136
884.087	-292
884.149	-9
884.193	198
884.230	102
884.298	-181
884.310	-142
884.391	393
884.404	371
884.472	-172
884.510	-196
884.552	-14
884.615	-35
884.633	-137
884.714	-632
884.721	-651
884.794	418
884.826	882
884.875	548
884.932	-114
884.956	-161
885.036	-56
885.037	-61
885.117	-199
885.143	-206
885.197	-155
885.248	-234
885.278	-205
885.354	98
885.358	107
885.439	240
885.459	169
885.519	-74
885.565	-243
885.599	-119
885.670	474
885.680	498
885.760	455
885.775	376
885.840	52
885.881	-19
885.921	-98
885.986	12
886.001	72
886.081	-103
886.091	-104
886.161	622
886.196	947
886.241	576
886.302	99
886.322	138
886.402	244
886.407	252
886.482	422
886.512	449
886.562	125
886.617	-266
886.642	-149
886.722	19
886.722	14
886.802	1000
886.828	1206
886.882	925
886.933	761
886.962	618
887.038	165
887.042	175
887.122	165
887.143	191
887.202	456
887.248	708
887.281	730
887.353	567
887.361	610
887.441	1032
887.458	1093
887.521	477
887.563	128
887.601	343
887.668	631
887.680	657
887.760	828
887.773	855
887.840	609
887.878	365
887.919	335
887.983	359
887.999	418
888.079	691
888.088	706
888.158	804
888.193	884
888.238	896
888.297	832
888.317	886
888.397	1151
888.402	1155
888.476	770
888.507	632
888.556	628
888.612	533
888.635	566
888.715	713
888.717	708
888.794	671
888.821	700
888.873	451
888.926	69
888.953	185
889.031	583
889.032	585
889.111	241
889.135	135
889.190	196
889.240	215
889.270	360
889.345	769
889.349	763
889.428	488
889.449	416
889.507	512
889.554	577
889.586	444
889.658	133
889.665	133
889.744	112
889.763	103
889.824	385
889.867	591
889.903	807
889.972	1224
890.076	1140
890.181	760
890.285	649
890.390	719
890.494	982
890.599	288
890.703	596
890.807	-434
890.912	921
891.016	1196
891.120	497
891.224	943
891.329	2026
891.433	734
891.537	103
891.641	143
891.745	302
891.849	197
891.953	558
892.058	1215
892.162	324
892.266	1766
892.370	311
892.474	934
892.578	663
892.682	827
892.786	1526
892.889	1419
892.993	957
893.097	728
893.201	603
893.305	432
893.409	521
893.512	764
893.616	416
893.720	1361
893.824	930
893.927	-207
894.031	664
894.135	566
894.238	909
894.342	665
894.445	999
894.549	722
894.652	1636
894.756	-112
894.859	1157
894.963	906
895.066	424
895.170	568
895.273	-204
895.377	712
895.480	458
895.583	1041
895.687	35
895.790	215
895.893	430
895.997	618
896.100	926
896.203	573
896.306	133
896.409	802
896.513	480
896.616	487
896.719	-819
896.822	-311
896.925	1539
897.028	483
897.131	599
897.234	950
897.337	946
897.440	361
897.543	564
897.646	-18
897.749	906
897.852	1197
897.954	535
898.057	89
898.160	797
898.263	911
898.366	1081
898.468	145
898.571	779
898.674	1080
898.776	-267
898.879	514
898.982	149
899.084	77
899.187	806
899.290	666
899.392	146
899.495	599
899.597	973
899.700	38
899.802	1234
899.904	154
900.007	2373
900.109	2345
900.212	393
900.314	219
900.416	98
900.519	-180
900.621	922
900.723	-456
900.826	168
900.928	555
901.030	256
901.132	375
901.234	929
901.336	674
901.439	672
901.541	189
901.643	879
901.745	549
901.847	507
901.949	-328
902.051	247
902.153	801
902.255	409
902.357	-253
902.459	537
902.560	270
902.662	487
902.764	889
902.866	289
902.968	198
903.070	96
903.171	621
903.273	480
903.375	-355
903.477	772
903.578	970
903.680	463
903.781	274
903.883	927
903.985	359
904.086	550
904.188	969
904.289	760
904.391	342
904.492	903
904.594	700
904.695	704
904.796	575
904.898	792
904.999	166
905.100	171
905.202	227
905.303	839
905.404	456
905.506	668
905.607	79
905.708	907
905.809	730
905.910	704
906.012	-368
906.113	5
906.214	614
906.315	856
906.416	244
906.517	835
906.618	770
906.719	382
906.820	1122
906.921	198
907.022	-568
907.123	190
907.224	288
907.325	232
907.425	481
907.526	681
907.627	379
907.728	-253
907.828	1112
907.929	-5
908.030	816
908.131	1239
908.231	535
908.332	5
908.433	-202
908.533	36
908.634	1111
908.734	599
908.835	644
908.935	1642
909.036	445
909.136	994
909.237	732
909.337	352
909.438	-8
909.538	458
909.638	533
909.739	879
909.839	687
909.939	1132
910.040	539
910.140	564
910.240	317
910.340	643
910.440	554
910.541	265
910.641	29
910.741	281
910.841	1124
910.941	1107
911.041	724
911.141	199
911.241	380
911.341	686
911.441	-28
911.541	-15
911.641	-38
911.741	-134
911.841	1061
911.941	811
912.040	915
912.140	617
912.240	-152
912.340	667
912.440	915
912.539	536
912.639	460
912.739	-24
912.838	58
912.938	493
913.038	843
913.137	456
913.237	-433
913.336	497
913.436	651
913.535	758
913.635	523
913.734	151
913.834	454
913.933	-792
914.033	466
914.132	295
914.231	223
914.331	496
914.430	309
914.529	866
914.629	134
914.728	236
914.827	279
914.926	71
915.025	-148
915.125	765
915.224	-27
915.323	434
915.422	592
915.521	198
915.620	-273
915.719	215
915.818	980
915.917	438
916.016	-14
916.115	785
916.214	751
916.313	321
916.412	611
916.510	662
916.609	460
916.708	383
916.807	-362
916.906	1339
917.004	-33
917.103	-67
917.202	528
917.301	12
917.399	656
917.498	614
917.596	51
917.695	405
917.794	537
917.892	289
917.991	514
918.089	275
918.188	849
918.286	-41
918.384	723
918.483	-435
918.581	406
918.680	-121
918.778	-689
918.876	854
918.975	222
919.073	729
919.171	94
919.269	801
919.368	-721
919.466	185
919.564	139
919.662	64
919.760	587
919.858	-345
919.956	211
920.054	706
920.153	-99
920.251	-202
920.349	234
920.446	227
920.544	798
920.642	450
920.740	51
920.838	388
920.936	654
921.034	646
921.132	533
921.229	-392
921.327	426
921.425	1507
921.523	362
921.620	887
921.718	-80
921.816	911
921.913	878
922.011	1202
922.109	377
922.206	271
922.304	358
922.401	1405
922.499	8
922.596	1180
922.694	-488
922.791	1470
922.888	218
922.986	1142
923.083	1456
923.181	919
923.278	749
923.375	1804
923.473	1646
923.570	1914
923.667	842
923.764	1197
923.861	885
923.959	1471
924.056	617
924.153	1936
924.250	242
924.347	2109
924.444	1598
924.541	988
924.638	1427
924.735	1252
924.832	1547
924.929	1416
925.026	1960
925.123	1074
925.220	1238
925.317	1547
925.414	1531
925.510	1732
925.607	1409
925.704	2025
925.801	1380
925.897	2045
925.994	1807
926.091	2205
926.187	1704
926.284	2431
926.381	1749
926.477	2222
926.574	1944
926.670	2072
926.767	2212
926.863	1302
926.960	1395
927.056	1835
927.153	506
927.249	1269
927.346	814
927.442	1215
927.538	1355
927.635	976
927.731	396
927.827	196
927.924	1656
928.020	1394
928.116	452
928.212	955
928.308	579
928.404	842
928.501	822
928.597	1036
928.693	-591
928.789	511
928.885	512
928.981	928
929.077	841
929.173	229
929.269	1020
929.365	568
929.461	871
929.557	1225
929.652	1094
929.748	984
929.844	1181
929.940	979
930.036	846
930.131	854
930.227	1232
930.323	563
930.419	895
930.514	1676
930.610	417
930.705	381
930.801	813
930.897	1237
930.992	314
931.088	2049
931.183	918
931.279	1675
931.374	1118
931.470	101
931.565	384
931.660	391
931.756	326
931.851	53
931.946	1060
932.042	827
932.137	350
932.232	159
932.327	1087
932.423	1281
932.518	447
932.613	744
932.708	-28
932.803	340
932.898	-93
932.994	786
933.089	527
933.184	-86
933.279	333
933.374	1121
933.469	929
933.563	1329
933.658	457
933.753	185
933.848	955
933.943	1143
934.038	785
934.133	641
934.227	-79
934.322	615
934.417	662
934.512	1051
934.606	618
934.701	155
934.796	-39
934.890	17
934.985	155
935.079	1340
935.174	21
935.269	559
935.363	471
935.458	672
935.552	357
935.646	686
935.741	266
935.835	172
935.930	464
936.024	1098
936.118	226
936.213	360
936.307	1122
936.401	-120
936.496	-91
936.590	1204
936.684	815
936.778	23
936.872	-308
936.966	587
937.060	-254
937.155	5
937.249	180
937.343	-50
937.437	-7
937.531	125
937.625	850
937.719	1047
937.813	-292
937.906	-13
938.000	1476
938.094	1144
938.188	136
938.282	556
938.376	770
938.469	376
938.563	19
938.657	406
938.751	765
938.844	1340
938.938	730
939.032	798
939.125	505
939.219	-79
939.312	711
939.406	2694
939.500	772
939.593	-29
939.686	492
939.780	72
939.873	-153
939.967	277
940.060	939
940.154	1264
940.247	-623
940.340	704
940.434	520
940.527	708
940.620	-677
940.713	942
940.806	-289
940.900	39
940.993	-46
941.086	111
941.179	369
941.272	879
941.365	427
941.458	2983
941.551	3411
941.644	1578
941.737	-604
941.830	1124
941.923	1058
942.016	921
942.109	477
942.202	43
942.295	12
942.388	663
942.480	302
942.573	651
942.666	371
942.759	690
942.851	109
942.944	614
943.037	164
943.129	-376
943.222	320
943.315	65
943.407	-180
943.500	-38
943.592	-408
943.685	-323
943.777	-397
943.870	779
943.962	582
944.055	-999
944.147	755
944.239	-647
944.332	251
944.424	604
944.516	455
944.609	109
944.701	84
944.793	788
944.885	-38
944.977	-291
945.070	546
945.162	243
945.254	128
945.346	413
945.438	-312
945.530	534
945.622	329
945.714	-129
945.806	497
945.898	583
945.990	205
946.082	1208
946.174	218
946.266	651
946.358	302
946.449	-133
946.541	502
946.633	664
946.725	956
946.816	27
946.908	-511
947.000	-233
947.091	108
947.183	-77
947.275	513
947.366	21
947.458	-45
947.549	150
947.641	-86
947.732	177
947.824	-457
947.915	-654
948.007	324
948.098	169
948.190	-705
948.281	-638
948.372	-344
948.464	51
948.555	-623
948.646	-60
948.737	-411
948.829	-63
948.920	351
949.011	117
949.102	-571
949.193	548
949.284	-804
949.376	-341
949.467	226
949.558	-141
949.649	-101
949.740	-304
949.831	-381
949.922	28
950.013	605
950.104	-218
950.194	-227
950.285	-282
950.376	271
950.467	-386
950.558	-1001
950.649	658
950.739	174
950.830	766
950.921	-277
951.011	492
951.102	-156
951.193	-9
951.283	-439
951.374	-60
951.464	-30
951.555	17
951.646	616
951.736	94
951.826	-982
951.917	-937
952.007	-161
952.098	-157
952.188	-747
952.279	161
952.369	329
952.459	-1059
952.549	-3
952.640	-469
952.730	-260
952.820	-217
952.910	-457
953.001	-542
953.091	-202
953.181	-250
953.271	-339
953.361	-4
953.451	-75
953.541	-420
953.631	-878
953.721	-458
953.811	-997
953.901	-681
953.991	49
954.081	53
954.171	-536
954.261	140
954.350	-366
954.440	152
954.530	-396
954.620	-424
954.710	1637
954.799	670
954.889	-660
954.979	190
955.068	-677
955.158	-93
955.248	-731
955.337	-886
955.427	-161
955.516	993
955.606	-514
955.695	-1097
955.785	-813
955.874	1017
955.964	-143
956.053	-330
956.142	-561
956.232	-107
956.321	-709
956.410	202
956.500	202
956.589	218
956.678	-3
956.767	-190
956.856	-402
956.946	-185
957.035	-751
957.124	-227
957.213	-719
957.302	-617
957.391	-550
957.480	-242
957.569	-540
957.658	-778
957.747	-34
957.836	-617
957.925	-504
958.014	-465
958.103	-62
958.192	432
958.280	-1367
958.369	-353
958.458	-657
958.547	-629
958.635	-707
958.724	4
958.813	-480
958.901	-934
958.990	-705
959.079	7
959.167	144
959.256	-586
959.344	-805
959.433	201
959.521	-573
959.610	-564
959.698	-720
959.787	-919
959.875	22
959.964	-279
960.052	941
960.140	318
960.228	-1212
960.317	73
960.405	-801
960.493	-570
960.581	-802
960.670	-1189
960.758	-777
960.846	137
960.934	-17
961.022	-741
961.110	-588
961.198	-509
961.286	-324
961.374	369
961.462	-531
961.550	-797
961.638	-1031
961.726	-680
961.814	-474
961.902	27
961.990	-982
962.078	-752
962.165	-961
962.253	-800
962.341	-763
962.429	-662
962.516	-999
962.604	-514
962.692	-1245
962.779	585
962.867	-1216
962.955	-664
963.042	-871
963.130	-66
963.217	-311
963.305	-521
963.392	-586
963.480	309
963.567	154
963.654	-365
963.742	583
963.829	2386
963.917	7272
964.004	3448
964.091	-306
964.178	-418
964.266	-103
964.353	-503
964.440	-251
964.527	-989
964.614	-277
964.701	-336
964.789	72
964.876	-115
964.963	-1314
965.050	-496
965.137	-849
965.224	-518
965.311	-1072
965.398	-700
965.485	-1165
965.571	-431
965.658	-1126
965.745	198
965.832	-385
965.919	-921
966.006	-1208
966.092	-924
966.179	-1143
966.266	-69
966.352	-575
966.439	-718
966.526	-1178
966.612	-513
966.699	-1351
966.786	-256
966.872	-1266
966.959	-462
967.045	-482
967.132	-1412
967.218	-1560
967.304	31
967.391	-105
967.477	-207
967.564	2162
967.650	4219
967.736	1502
967.822	-905
967.909	-640
967.995	-481
968.081	-856
968.167	-1349
968.254	-241
968.340	-267
968.426	-1495
968.512	-386
968.598	-665
968.684	-2228
968.770	-749
968.856	-175
968.942	930
969.028	-760
969.114	-1530
969.200	-381
969.286	-613
969.372	-109
969.457	-547
969.543	-486
969.629	-157
969.715	-919
969.801	-465
969.886	-949
969.972	-1061
970.058	-111
970.143	-830
970.229	501
970.315	-296
970.400	359
970.486	-18
970.571	-159
970.657	2199
970.742	884
970.828	6
970.913	-1345
970.999	-1365
971.084	-759
971.169	-1207
971.255	-1135
971.340	-728
971.425	-1129
971.511	-1206
971.596	-1066
971.681	-1247
971.766	-1366
971.852	-1020
971.937	-298
972.022	39
972.107	-1200
972.192	-331
972.277	-1177
972.362	-917
972.447	-971
972.532	-1176
972.617	-986
972.702	-641
972.787	-754
972.872	537
972.957	1119
973.042	-476
973.126	-452
973.211	-1635
973.296	-1024
973.381	-1287
973.466	-2048
973.550	-284
973.635	-1696
973.720	-1120
973.804	-845
973.889	-299
973.973	-332
974.058	-259
974.143	-890
974.227	-1247
974.312	-768
974.396	-183
974.481	133
974.565	-830
974.649	-902
974.734	-1117
974.818	-1062
974.902	-1632
974.987	-513
975.071	-1174
975.155	-1254
975.240	-883
975.324	-681
975.408	-1040
975.492	-819
975.576	-846
975.660	-1173
975.744	-2047
975.829	-2576
975.913	-100
975.997	-1253
976.081	-2701
976.165	-265
976.249	-1037
976.333	-842
976.416	-1378
976.500	-579
976.584	-1032
976.668	-1176
976.752	-836
976.836	-1388
976.919	-1136
977.003	-1206
977.087	-762
977.171	-887
977.254	-794
977.338	-1328
977.422	-1499
977.505	-681
977.589	-1018
977.672	-1204
977.756	-1711
977.839	-1130
977.923	-1347
978.006	-281
978.090	-148
978.173	-2101
978.257	-911
978.340	-654
978.423	362
978.507	184
978.590	-727
978.673	-938
978.756	-380
978.840	-278
978.923	160
979.006	-693
979.089	-2230
979.172	-496
979.255	-972
979.338	-1351
979.422	-792
979.505	-1363
979.588	-1270
979.671	-1286
979.754	-1871
979.836	-712
979.919	-1170
980.002	-882
980.085	-1646
980.168	-1220
980.251	-939
980.334	-1291
980.416	-1083
980.499	-1510
980.582	-1752
980.665	-831
980.747	-1306
980.830	-1293
980.912	-1764
980.995	-1640
981.078	-743
981.160	-1409
981.243	-624
981.325	-1193
981.408	-977
981.490	-784
981.573	-1540
981.655	-1278
981.738	-1136
981.820	-1443
981.902	-996
981.984	-1612
982.067	-1201
982.149	-903
982.231	-1757
982.314	-1389
982.396	-1501
982.478	-614
982.560	-830
982.642	-1043
982.724	-1991
982.807	-976
982.888	-912
982.971	-985
983.053	-1512
983.135	-390
983.216	-1238
983.298	-950
983.380	-2943
983.462	-219
983.544	-212
983.626	-983
983.708	-1386
983.790	-2328
983.871	-432
983.953	-2701
984.035	-1037
984.117	-1118
984.198	-1640
984.280	-1259
984.362	-1937
984.443	-808
984.525	-1421
984.606	-1834
984.688	-495
984.769	-984
984.851	-1244
984.932	-1350
985.014	-605
985.095	-152
985.177	-1367
985.258	-705
985.339	-1774
985.421	-162
985.502	-1729
985.583	-598
985.664	-1107
985.746	-1591
985.827	-2459
985.908	584
985.989	-185
986.070	-1188
986.151	-763
986.232	-1036
986.313	-380
986.395	-1525
986.476	-413
986.557	-945
986.637	-1338
986.718	-1043
986.799	-983
986.880	-628
986.961	-703
987.042	-1242
987.123	-1976
987.204	-805
987.284	-1882
987.365	-1798
987.446	-1313
987.526	-606
987.607	-1585
987.688	-1099
987.768	-1450
987.849	-1417
987.930	-589
988.010	-991
988.091	-300
988.171	-1062
988.252	-1365
988.332	-873
988.413	-2281
988.493	-726
988.573	-1586
988.654	-1398
988.734	-1852
988.814	-1871
988.895	-512
988.975	-728
989.055	-1212
989.135	-1032
989.216	-668
989.296	-876
989.376	-1327
989.456	-1398
989.536	-918
989.616	-1018
989.696	-790
989.776	-1203
989.856	-615
989.936	-837
990.016	-1130
990.096	-1097
990.176	-1633
990.256	-1941
990.336	-2015
990.416	-1245
990.495	-1372
990.575	-1019
990.655	-1254
990.735	-1208
990.814	-557
990.894	-768
990.974	-1202
991.053	-1964
991.133	-1507
991.213	-750
991.292	-1458
991.372	-709
991.451	-1878
991.531	79
991.610	-1449
991.690	-801
991.769	-1799
991.849	-1700
991.928	-2150
992.007	-1513
992.087	-1724
992.166	-1046
992.245	-1019
992.324	-1098
992.404	-1621
992.483	-1980
992.562	-582
992.641	-520
992.720	-1650
992.799	-509
992.879	-1263
992.958	-1190
993.037	-1626
993.116	-764
993.195	-918
993.274	-2229
993.353	-1424
993.432	-1537
993.510	-1950
993.589	-1945
993.668	-1765
993.747	-904
993.826	-858
993.904	-380
993.983	-1618
994.062	-1580
994.141	-465
994.219	-1409
994.298	-1332
994.377	-847
994.455	-968
994.534	-1719
994.612	-1285
994.691	-1798
994.769	-1715
994.848	-961
994.926	-2378
995.005	-1007
995.083	-1816
995.161	-1437
995.240	-1799
995.318	-1061
995.397	-1650
995.475	-2226
995.553	-1287
995.631	-1269
995.710	-1126
995.788	-1770
995.866	-2025
995.944	-901
996.022	-2242
996.100	-2268
996.178	-1047
996.256	-1711
996.334	-468
996.412	-2096
996.490	-1880
996.568	-1830
996.646	-1788
996.724	-1070
996.802	-1865
996.880	-1789
996.958	-1734
997.036	-1069
997.113	-1637
997.191	-1021
997.269	-2058
997.346	-1823
997.424	-1700
997.502	-1785
997.579	-1284
997.657	-2135
997.735	-1530
997.812	-1539
997.890	-1182
997.967	-1747
998.045	-1568
998.122	-1767
998.200	-1269
998.277	-1840
998.354	-1540
998.432	-1700
998.509	-1165
998.586	-2061
998.664	-1756
998.741	-2044
998.818	-1840
998.896	-1549
998.973	-1195
999.050	-1844
999.127	-1681
999.204	-1681
999.281	-2323
999.358	-1545
999.435	-2269
999.512	-1981
999.589	-1835
999.666	-1681
999.743	-1067
999.820	-1607
999.897	-1534
999.974	-1428
1000.051	-2065
1000.128	-1823
1000.205	-2443
1000.281	-1269
1000.358	-2348
1000.435	-1135
1000.512	-1937
1000.588	-1965
1000.665	-2627
1000.741	-1860
1000.818	-1366
1000.895	-2024
1000.971	-1681
1001.048	-998
1001.124	-1484
1001.201	-2052
1001.277	-1982
1001.354	-1888
1001.430	-2472
1001.507	-1470
1001.583	-1211
1001.659	-425
1001.736	-2520
1001.812	-1261
1001.888	-1971
1001.964	-2324
1002.041	-2541
1002.117	-1702
1002.193	-1236
1002.269	-1333
1002.345	-2046
1002.421	-1421
1002.497	-2901
1002.573	-715
1002.649	-1549
1002.725	-1726
1002.801	-2386
1002.877	-1053
1002.953	-1986
1003.029	-1872
1003.105	-2706
1003.181	-2214
1003.257	-2737
1003.333	-1441
1003.408	-1718
1003.484	-1616
1003.560	-1648
1003.636	-2198
1003.711	-1936
1003.787	-1475
1003.862	-1536
1003.938	-2418
1004.014	-2460
1004.089	-2469
1004.165	-1730
1004.240	-1377
1004.316	-1548
1004.391	-2449
1004.467	-1697
1004.542	-2310
1004.617	-1494
1004.693	-2232
1004.768	-2665
1004.844	-2220
1004.919	-1117
1004.994	-1815
1005.069	-1852
1005.145	-1319
1005.220	-2203
1005.295	-1294
1005.370	-1562
1005.445	-1951
1005.520	-1828
1005.595	-2340
1005.670	-1801
1005.745	-2769
1005.820	-2142
1005.895	-927
1005.970	-1933
1006.045	-2231
1006.120	-2164
1006.195	-1954
1006.270	-2441
1006.345	-1609
1006.419	-2043
1006.494	-2050
1006.569	-2347
1006.644	-1746
1006.718	-2510
1006.793	-1326
1006.868	-2528
1006.942	-1448
1007.017	-1693
1007.092	-2284
1007.166	-2178
1007.241	-2268
1007.315	-1924
1007.390	-1831
1007.464	-1452
1007.539	-2706
1007.613	-1732
1007.687	-1241
1007.762	-2201
1007.836	-2811
1007.910	-2222
1007.984	-2463
1008.059	-2149
1008.133	-1857
1008.207	-2958
1008.281	-1621
1008.356	-2362
1008.430	-1687
1008.504	-2986
1008.578	-1326
1008.652	-2477
1008.726	-2106
1008.800	-2210
1008.874	-2147
1008.948	-1684
1009.022	-2923
1009.096	-2424
1009.170	-2490
1009.244	-2883
1009.317	-2241
1009.391	-3027
1009.465	-1445
1009.539	-2597
1009.613	-1060
1009.686	-2524
1009.760	-2605
1009.834	-2351
1009.907	-2470
1009.981	-3109
1010.054	-1689
1010.128	-2693
1010.201	-1416
1010.275	-2310
1010.349	-2980
1010.422	-1744
1010.495	-2398
1010.569	-2284
1010.642	-989
1010.716	-1935
1010.789	-2166
1010.862	-1568
1010.936	-1895
1011.009	-1989
1011.082	-1858
1011.155	-2822
1011.229	-2639
1011.302	-1909
1011.375	-1500
1011.448	-1553
1011.521	-1618
1011.594	-1100
1011.667	-2004
1011.740	-1829
1011.813	-1723
1011.886	-2045
1011.959	-1435
1012.032	-2068
1012.105	-2434
1012.178	-2970
1012.251	-1837
1012.324	-1561
1012.396	-1276
1012.469	-1989
1012.542	-1904
1012.614	-1475
1012.687	-2340
1012.760	-1515
1012.833	-1330
1012.905	-2549
1012.978	-1530
1013.050	-1594
1013.123	-2001
1013.195	-2400
1013.268	-2065
1013.340	-2017
1013.413	-2085
1013.485	-1823
1013.558	-954
1013.630	-1735
1013.702	-1191
1013.775	-2507
1013.847	-2113
1013.919	-2655
1013.992	-2560
1014.064	-1636
1014.136	-2527
1014.208	-2323
1014.280	-1267
1014.353	-1743
1014.425	-2063
1014.497	-1097
1014.569	-1793
1014.641	-2402
1014.713	-1664
1014.785	-2510
1014.857	-2165
1014.929	-2004
1015.001	-2195
1015.072	-2546
1015.144	-2803
1015.216	-1308
1015.288	-2312
1015.360	-1709
1015.431	-1860
1015.503	-1362
1015.575	-2517
1015.647	-1655
1015.718	-2582
1015.790	-1523
1015.861	-2939
1015.933	-2256
1016.005	-882
1016.076	-2544
1016.148	-2066
1016.219	-2891
1016.291	-1443
1016.362	-2427
1016.433	-2827
1016.505	-1490
1016.576	-1937
1016.647	-1689
1016.719	-2041
1016.790	-1735
1016.861	-1502
1016.932	-1860
1017.004	-1880
1017.075	-2844
1017.146	-1556
1017.217	-2391
1017.288	-2502
1017.359	-2272
1017.430	-1832
1017.502	-1942
1017.573	-2821
1017.644	-1975
1017.714	-1688
1017.785	-2165
1017.856	-2025
1017.927	-2087
1017.998	-1426
1018.069	-2737
1018.140	-1740
1018.210	-2984
1018.281	-1837
1018.352	-2318
1018.423	-2573
1018.493	-1847
1018.564	-979
1018.635	-1382
1018.705	-2026
1018.776	-1955
1018.846	-1900
1018.917	-2462
1018.987	-2039
1019.058	-2556
1019.128	-2479
1019.199	-2385
1019.269	-2450
1019.340	-2202
1019.410	-2374
1019.480	-1691
1019.551	-2255
1019.621	-1796
1019.691	-2779
1019.761	-2218
1019.832	-1864
1019.902	-1852
1019.972	-2645
1020.042	-2652
1020.112	-2089
1020.182	-2495
1020.252	-1791
1020.322	-2050
1020.392	-1602
1020.462	-2222
1020.532	-2564
1020.602	-1118
1020.672	-1841
1020.742	-2460
1020.812	-2402
1020.882	-1969
1020.952	-1539
1021.021	-2569
1021.091	-1645
1021.161	-2032
1021.230	-1870
1021.300	-1637
1021.370	-2556
1021.440	-2117
1021.509	-1131
1021.579	-2608
1021.648	-1799
1021.718	-1742
1021.787	-1935
1021.857	-2885
1021.926	-1763
1021.996	-1817
1022.065	-2320
1022.134	-1772
1022.204	-1955
1022.273	-1018
1022.342	-2696
1022.412	-2606
1022.481	-1733
1022.550	-1843
1022.619	-2118
1022.689	-2451
1022.758	-2797
1022.827	-1906
1022.896	-2080
1022.965	-2041
1023.034	-1992
1023.103	-2858
1023.172	-1878
1023.241	-2753
1023.310	-2685
1023.379	-2260
1023.448	-2289
1023.517	-1832
1023.586	-2561
1023.654	-2919
1023.723	-2016
1023.792	-2306
1023.861	-2086
1023.929	-1985
1023.998	-2839
1024.067	-1683
1024.135	-2032
1024.204	-2658
1024.273	-2136
1024.341	-2692
1024.410	-1713
1024.478	-2560
1024.547	-2190
1024.615	-2002
1024.684	-2335
1024.752	-643
1024.820	-1579
1024.889	-2036
1024.957	-2558
1025.026	-2233
1025.094	-1639
1025.162	-2044
1025.230	-1584
1025.299	-3283
1025.367	-2355
1025.435	-1943
1025.503	-2393
1025.571	-2073
1025.639	-1897
1025.707	-2575
1025.776	-2343
1025.844	-1834
1025.912	-1943
1025.979	-2596
1026.047	-1600
1026.115	-2121
1026.183	-1913
1026.251	-2119
1026.319	-2503
1026.387	-2895
1026.454	-2573
1026.522	-1920
1026.590	-2029
1026.658	-2050
1026.725	-1727
1026.793	-1996
1026.861	-2143
1026.928	-1885
1026.996	-2228
1027.064	-2502
1027.131	-2654
1027.199	-2312
1027.266	-2898
1027.334	-1817
1027.401	-2504
1027.468	-2831
1027.536	-1828
1027.603	-2324
1027.671	-1867
1027.738	-1967
1027.805	-2744
1027.872	-2194
1027.940	-2420
1028.007	-1863
1028.074	-1922
1028.141	-1859
1028.208	-2667
1028.275	-1835
1028.342	-2799
1028.409	-2676
1028.477	-3008
1028.544	-1803
1028.610	-2989
1028.678	-1468
1028.744	-2648
1028.811	-3747
1028.878	-2430
1028.945	-2273
1029.012	-2987
1029.079	-2786
1029.146	-2114
1029.212	-2115
1029.279	-2238
1029.346	-2951
1029.412	-2635
1029.479	-2585
1029.546	-2802
1029.612	-2091
1029.679	-2482
1029.745	-2419
1029.812	-2338
1029.878	-1907
1029.945	-2379
1030.011	-2150
1030.078	-2911
1030.144	-2124
1030.210	-2315
1030.277	-1862
1030.343	-2238
1030.409	-2839
1030.476	-1910
1030.542	-2308
1030.608	-3277
1030.674	-2096
1030.740	-2518
1030.807	-2531
1030.873	-1954
1030.939	-2195
1031.005	-2603
1031.071	-2286
1031.137	-2847
1031.203	-2799
1031.269	-2701
1031.335	-2175
1031.401	-1742
1031.467	-2726
1031.533	-2124
1031.598	-2225
1031.664	-1337
1031.730	-2279
1031.796	-1946
1031.861	-2564
1031.927	-2584
1031.993	-2500
1032.058	-2508
1032.124	-2706
1032.190	-1964
1032.255	-2114
1032.321	-2566
1032.386	-2507
1032.452	-2744
1032.518	-2394
1032.583	-2160
1032.648	-1888
1032.714	-2771
1032.779	-2362
1032.844	-2289
1032.910	-2315
1032.975	-2031
1033.040	-2081
1033.106	-2477
1033.171	-2231
1033.236	-2355
1033.301	-2841
1033.366	-1947
1033.432	-2252
1033.496	-1506
1033.562	-1874
1033.627	-1606
1033.692	-2338
1033.757	-2282
1033.822	-2529
1033.887	-1942
1033.952	-2648
1034.016	-2429
1034.081	-2340
1034.146	-2525
1034.211	-2368
1034.276	-2041
1034.340	-1600
1034.405	-1311
1034.470	-1048
1034.535	-124
1034.599	-1196
1034.664	-776
1034.729	-940
1034.793	-1516
1034.858	-2065
1034.922	-2511
1034.987	-1975
1035.051	-2544
1035.116	-2384
1035.180	-1952
1035.245	-2517
1035.309	-2542
1035.373	-2378
1035.437	-2840
1035.502	-2448
1035.566	-2815
1035.630	-2971
1035.695	-1613
1035.759	-1921
1035.823	-2417
1035.887	-2703
1035.951	-2116
1036.015	-3397
1036.079	-2174
1036.143	-2274
1036.208	-2082
1036.271	-2275
1036.336	-2921
1036.399	-2529
1036.463	-2027
1036.527	-2183
1036.591	-2929
1036.655	-2069
1036.719	-1442
1036.783	-1194
1036.846	-375
1036.910	32
1036.974	-1409
1037.037	-2593
1037.101	-2231
1037.165	-2254
1037.228	-2956
1037.292	-2328
1037.355	-1671
1037.419	-2498
1037.483	-2679
1037.546	-2594
1037.609	-2943
1037.673	-1459
1037.736	-2201
1037.800	-3303
1037.863	-2148
1037.926	-2248
1037.990	-2106
1038.053	-2114
1038.116	-2123
1038.179	-2165
1038.243	-3076
1038.306	-2502
1038.369	-2055
1038.432	-2722
1038.495	-2763
1038.558	-3113
1038.621	-2139
1038.684	-1563
1038.747	-2531
1038.810	-2670
1038.873	-2597
1038.936	-3439
1038.999	-3077
1039.062	-1590
1039.125	-1929
1039.188	-2042
1039.250	-2441
1039.313	-2777
1039.376	-2561
1039.438	-3128
1039.501	-2107
1039.564	-1805
1039.627	-3288
1039.689	-2513
1039.752	-2594
1039.814	-2584
1039.877	-2341
1039.939	-2624
1040.002	-2461
1040.064	-1706
1040.127	-3352
1040.189	-1809
1040.251	-1708
1040.314	-2390
1040.376	-2367
1040.438	-2395
1040.501	-2412
1040.563	-2519
1040.625	-2703
1040.687	-2880
1040.750	-2645
1040.812	-3011
1040.874	-2972
1040.936	-3150
1040.998	-2726
1041.060	-3084
1041.122	-2967
1041.184	-2572
1041.246	-2218
1041.308	-2898
1041.370	-3111
1041.432	-2863
1041.494	-1784
1041.555	-2760
1041.617	-3086
1041.679	-2516
1041.741	-2426
1041.802	-3099
1041.864	-2528
1041.926	-3036
1041.987	-2312
1042.049	-2598
1042.111	-2986
1042.172	-2092
1042.234	-2016
1042.295	-1801
1042.357	-2255
1042.418	-3106
1042.480	-2227
1042.541	-2234
1042.603	-3466
1042.664	-2781
1042.725	-2377
1042.786	-2645
1042.848	-2580
1042.909	-3229
1042.970	-2385
1043.031	-2832
1043.093	-1968
1043.154	-2827
1043.215	-2418
1043.276	-2400
1043.337	-2223
1043.398	-2394
1043.459	-1876
1043.520	-2786
1043.581	-2346
1043.642	-2527
1043.703	-1837
1043.764	-3272
1043.825	-2092
1043.886	-2969
1043.947	-2330
1044.007	-2956
1044.068	-1797
1044.129	-2457
1044.189	-2385
1044.250	-2998
1044.311	-3072
1044.371	-2410
1044.432	-2131
1044.493	-2770
1044.553	-2884
1044.614	-2952
1044.674	-1834
1044.735	-3060
1044.795	-3052
1044.856	-1969
1044.916	-1972
1044.976	-2593
1045.037	-3391
1045.097	-2392
1045.157	-1617
1045.218	-2894
1045.278	-2914
1045.338	-1740
1045.398	-2850
1045.458	-2451
1045.519	-2219
1045.579	-2095
1045.639	-1685
1045.699	-1969
1045.759	-2133
1045.819	-2008
1045.879	-1728
1045.939	-2245
1045.999	-2308
1046.059	-2932
1046.119	-1808
1046.179	-2425
1046.238	-2898
1046.298	-2727
1046.358	-1484
1046.418	-2594
1046.477	-1816
1046.537	-1247
1046.597	-1456
1046.656	-957
1046.716	-1506
1046.776	-1607
1046.835	-1505
1046.895	-1519
1046.954	-1148
1047.014	-1820
1047.073	-1042
1047.133	0
