'Start Wavelength	183.833
'End Wavelength	1047.133
'Gate Delay	5.000
'Gate Width (ms)	1.050
'Laser Output Level	0.000
'X Position	0.000
'Y Position	0.000
'Z Position	0.000
'Grid Point Number	1.000
'Shot Number	100.000
183.833	437.000
183.903	343.000
183.973	-162
184.042	393
184.112	217
184.182	317
184.252	184
184.321	432
184.391	364
184.461	697
184.531	-317
184.600	123
184.670	-115
184.740	583
184.809	-385
184.879	360
184.949	-994
185.018	159
185.088	-426
185.158	957
185.228	-151
185.297	175
185.367	-318
185.436	167
185.506	-369
185.576	172
185.645	-225
185.715	13
185.785	-290
185.854	335
185.924	218
185.993	-93
186.063	-150
186.133	-207
186.202	-431
186.272	-336
186.341	-525
186.411	305
186.481	516
186.550	1150
186.620	-279
186.689	-409
186.759	-503
186.828	713
186.898	-578
186.967	334
187.037	-307
187.106	94
187.176	-83
187.246	406
187.315	-59
187.385	560
187.454	-258
187.524	195
187.593	470
187.662	287
187.732	717
187.801	188
187.871	717
187.940	-364
188.010	249
188.079	127
188.149	641
188.218	791
188.288	-166
188.357	758
188.426	26
188.496	305
188.565	-659
188.635	102
188.704	558
188.773	117
188.843	-352
188.912	-59
188.981	765
189.051	-376
189.120	783
189.190	265
189.259	423
189.328	256
189.398	-99
189.467	447
189.536	-584
189.606	76
189.675	388
189.744	232
189.813	-450
189.883	503
189.952	44
190.021	1433
190.091	1424
190.160	734
190.229	682
190.298	478
190.368	463
190.437	-411
190.506	-187
190.575	-116
190.645	-131
190.714	724
190.783	-6
190.852	171
190.922	-191
190.991	-602
191.060	1183
191.129	-107
191.198	-280
191.268	256
191.337	161
191.406	43
191.475	-565
191.544	271
191.613	-566
191.683	-254
191.752	-800
191.821	-72
191.890	-730
191.959	-85
192.028	-356
192.097	631
192.166	-835
192.236	-39
192.305	-161
192.374	178
192.443	382
192.512	176
192.581	-125
192.650	750
192.719	43
192.788	767
192.857	123
192.926	385
192.995	58
193.064	152
193.133	-284
193.202	539
193.271	-2
193.340	-70
193.409	397
193.478	811
193.547	647
193.616	535
193.685	-693
193.754	313
193.823	-535
193.892	391
193.961	270
194.030	145
194.099	-578
194.168	1242
194.237	-240
194.306	-438
194.375	-964
194.444	872
194.513	4
194.582	381
194.651	22
194.720	973
194.788	-185
194.857	324
194.926	69
194.995	1033
195.064	508
195.133	510
195.202	331
195.270	-86
195.339	-237
195.408	-64
195.477	-440
195.546	764
195.615	554
195.683	108
195.752	90
195.821	-64
195.890	859
195.959	1170
196.027	199
196.096	841
196.165	67
196.234	207
196.303	-77
196.371	336
196.440	-553
196.509	496
196.578	-127
196.646	365
196.715	-285
196.784	898
196.853	-76
196.921	233
196.990	-443
197.059	817
197.127	-537
197.196	100
197.265	599
197.333	-474
197.402	4
197.471	22
197.539	2
197.608	552
197.677	1840
197.745	600
197.814	613
197.883	553
197.951	881
198.020	457
198.088	220
198.157	810
198.226	1530
198.294	449
198.363	454
198.431	158
198.500	1180
198.569	1545
198.637	333
198.706	165
198.774	1179
198.843	1043
198.911	207
198.980	831
199.048	-251
199.117	708
199.185	323
199.254	-108
199.322	222
199.391	103
199.459	14
199.528	406
199.596	-298
199.665	-83
199.733	-190
199.802	545
199.870	-1009
199.939	378
200.007	522
200.076	629
200.144	-66
200.213	-609
200.281	31
200.349	258
200.418	731
200.486	290
200.555	-113
200.623	737
200.691	-153
200.760	137
200.828	-87
200.897	444
200.965	305
201.033	14
201.102	-334
201.170	477
201.238	-233
201.307	149
201.375	-811
201.443	304
201.512	-12
201.580	696
201.648	-127
201.716	555
201.785	137
201.853	-320
201.921	-409
201.990	1129
202.058	-562
202.126	652
202.194	-492
202.263	-220
202.331	-447
202.399	-81
202.467	-37
202.536	2927
202.604	1429
202.672	-326
202.740	-84
202.808	123
202.877	309
202.945	-169
203.013	-252
203.081	-127
203.149	-144
203.218	43
203.286	-156
203.354	-345
203.422	-247
203.490	824
203.558	-375
203.626	-17
203.695	40
203.763	-70
203.831	-136
203.899	-33
203.967	-286
204.035	822
204.103	-727
204.171	-249
204.239	-136
204.307	690
204.375	-114
204.443	193
204.512	-90
204.580	-670
204.648	-744
204.716	529
204.784	-228
204.852	439
204.920	-251
204.988	314
205.056	189
205.124	596
205.192	-135
205.260	257
205.328	-784
205.396	447
205.464	25
205.532	250
205.600	543
205.667	-113
205.735	1703
205.803	2543
205.871	-16
205.939	793
206.007	-419
206.075	104
206.143	-460
206.211	-541
206.279	-171
206.347	975
206.414	187
206.482	96
206.550	-801
206.618	469
206.686	-92
206.754	502
206.822	1533
206.889	-728
206.957	5
207.025	406
207.093	-545
207.161	-280
207.229	-10
207.296	298
207.364	114
207.432	14
207.500	-153
207.567	-624
207.635	-16
207.703	-132
207.771	244
207.839	169
207.906	-205
207.974	11
208.042	491
208.109	124
208.177	293
208.245	707
208.313	-239
208.380	978
208.448	570
208.516	-113
208.583	836
208.651	391
208.719	-515
208.786	2767
208.854	5843
208.922	5768
208.989	1292
209.057	732
209.125	-171
209.192	439
209.260	-479
209.327	419
209.395	612
209.463	541
209.530	-515
209.598	-565
209.665	-725
209.733	-42
209.801	314
209.868	19
209.936	-152
210.003	-126
210.071	1199
210.138	443
210.206	439
210.273	1149
210.341	-235
210.408	927
210.476	-334
210.543	27
210.611	60
210.678	277
210.746	-106
210.813	-122
210.881	474
210.948	-38
211.016	217
211.083	-453
211.151	53
211.218	689
211.285	252
211.353	470
211.420	243
211.488	-336
211.555	289
211.622	-321
211.690	192
211.757	540
211.825	-671
211.892	-426
211.959	574
212.027	498
212.094	-304
212.161	-103
212.229	314
212.296	3014
212.363	9984
212.431	3026
212.498	550
212.565	497
212.633	-192
212.700	112
212.767	-352
212.835	907
212.902	-185
212.969	480
213.036	94
213.104	154
213.171	13
213.238	119
213.305	85
213.373	502
213.440	-351
213.507	511
213.574	-11
213.641	-703
213.709	-445
213.776	658
213.843	690
213.910	318
213.977	-851
214.045	315
214.112	-145
214.179	340
214.246	-550
214.313	173
214.380	-276
214.447	548
214.515	224
214.582	427
214.649	116
214.716	451
214.783	202
214.850	623
214.917	101
214.984	784
215.051	296
215.118	440
215.185	247
215.253	267
215.320	-222
215.387	299
215.454	-6
215.521	-247
215.588	-368
215.655	59
215.722	-216
215.789	-230
215.856	383
215.923	952
215.990	-672
216.057	-213
216.124	633
216.191	-97
216.258	-378
216.325	219
216.391	-19
216.458	720
216.525	22
216.592	2479
216.659	1700
216.726	1207
216.793	155
216.860	276
216.927	122
216.994	135
217.061	462
217.127	111
217.194	224
217.261	694
217.328	3
217.395	580
217.462	67
217.529	138
217.595	414
217.662	599
217.729	1590
217.796	1652
217.863	-11
217.929	-420
217.996	236
218.063	712
218.130	-219
218.196	-243
218.263	-657
218.330	662
218.397	-346
218.463	340
218.530	-101
218.597	2381
218.664	1588
218.730	376
218.797	-243
218.864	366
218.930	-850
218.997	-121
219.064	931
219.131	2356
219.197	-87
219.264	20
219.331	259
219.397	-26
219.464	-131
219.530	1621
219.597	46
219.664	-315
219.730	-92
219.797	-1055
219.864	-2
219.930	1089
219.997	2982
220.063	1879
220.130	63
220.196	777
220.263	771
220.330	1612
220.396	2111
220.463	1106
220.529	500
220.596	1244
220.662	231
220.729	4671
220.795	1834
220.862	1895
220.928	4018
220.995	5802
221.061	5781
221.128	4244
221.194	864
221.261	-47
221.327	-182
221.394	421
221.460	930
221.526	643
221.593	6371
221.659	3191
221.726	4065
221.792	2955
221.859	939
221.925	495
221.991	1
222.058	-235
222.124	2036
222.190	721
222.257	197
222.323	204
222.390	256
222.456	-40
222.522	-697
222.589	260
222.655	-727
222.721	-302
222.788	-357
222.854	305
222.920	180
222.986	-209
223.053	-723
223.119	253
223.185	-851
223.251	-258
223.318	-855
223.384	32
223.450	-855
223.516	-304
223.583	-828
223.649	-496
223.715	-221
223.781	170
223.848	50
223.914	-683
223.980	-360
224.046	-424
224.112	322
224.178	407
224.245	-514
224.311	892
224.377	-779
224.443	114
224.509	-625
224.575	349
224.641	-1409
224.708	-265
224.774	-527
224.840	131
224.906	188
224.972	-619
225.038	-649
225.104	-955
225.170	-192
225.236	98
225.302	-693
225.368	-62
225.434	223
225.500	248
225.566	156
225.632	383
225.699	165
225.765	24
225.831	-107
225.897	562
225.963	220
226.028	616
226.094	114
226.160	1484
226.226	3087
226.292	6594
226.358	2090
226.424	1778
226.490	3
226.556	1297
226.622	282
226.688	1059
226.754	1343
226.820	9782
226.886	7142
226.951	1425
227.017	921
227.083	924
227.149	828
227.215	1012
227.281	-99
227.347	925
227.412	923
227.478	6785
227.544	4471
227.610	1004
227.676	-434
227.742	384
227.807	249
227.873	767
227.939	352
228.005	507
228.070	-683
228.136	-428
228.202	-83
228.268	556
228.333	604
228.399	1530
228.465	-840
228.531	-750
228.596	-842
228.662	1729
228.728	998
228.793	211
228.859	-472
228.925	1208
228.990	-867
229.056	309
229.122	-596
229.187	217
229.253	-866
229.319	-77
229.384	747
229.450	-230
229.516	-1091
229.581	1124
229.647	-595
229.712	2565
229.778	2573
229.844	1635
229.909	101
229.975	924
230.040	1071
230.106	779
230.171	559
230.237	1421
230.302	1690
230.368	192
230.433	361
230.499	427
230.564	429
230.630	14
230.695	-414
230.761	-367
230.826	959
230.892	616
230.957	-219
231.023	279
231.088	4
231.154	184
231.219	70
231.285	930
231.350	271
231.415	-37
231.481	-417
231.546	340
231.612	-374
231.677	-466
231.742	-104
231.808	-585
231.873	-775
231.938	1841
232.004	132
232.069	61
232.135	-214
232.200	278
232.265	-768
232.330	-104
232.396	-517
232.461	248
232.526	45
232.592	649
232.657	1356
232.722	648
232.788	662
232.853	447
232.918	-784
232.983	-333
233.048	1114
233.114	1273
233.179	1577
233.244	2541
233.309	178
233.375	1037
233.440	116
233.505	-768
233.570	-522
233.635	180
233.700	678
233.766	2174
233.831	-196
233.896	-52
233.961	146
234.026	566
234.091	325
234.156	553
234.222	788
234.287	6275
234.352	4513
234.417	1925
234.482	598
234.547	725
234.612	439
234.677	321
234.742	5350
234.807	3202
234.872	1064
234.937	608
235.002	166
235.067	304
235.132	149
235.197	64
235.262	-53
235.327	510
235.392	389
235.457	948
235.522	36
235.587	245
235.652	-945
235.717	676
235.782	279
235.847	2323
235.912	2470
235.977	3196
236.042	549
236.107	637
236.172	724
236.236	-115
236.301	482
236.366	1654
236.431	2795
236.496	1486
236.561	2230
236.626	13552
236.691	8500
236.755	3355
236.820	2380
236.885	1481
236.950	553
237.015	1764
237.079	1436
237.144	3338
237.209	14351
237.274	25002
237.339	8029
237.403	2919
237.468	1593
237.533	781
237.598	941
237.662	758
237.727	1018
237.792	1890
237.856	1817
237.921	1102
237.986	1933
238.050	2327
238.115	8913
238.180	6909
238.245	1363
238.309	2247
238.374	443
238.438	954
238.503	-32
238.568	853
238.632	246
238.697	458
238.762	3032
238.826	4102
238.891	1106
238.955	1236
239.020	665
239.085	1211
239.149	224
239.214	367
239.278	386
239.343	-116
239.407	1414
239.472	8616
239.536	5642
239.601	2230
239.665	253
239.730	3218
239.794	11885
239.859	9333
239.923	2754
239.988	674
240.052	551
240.117	332
240.181	120
240.246	652
240.310	773
240.374	4662
240.439	7994
240.503	2069
240.568	3167
240.632	4148
240.696	998
240.761	600
240.825	-510
240.890	600
240.954	4451
241.018	8188
241.083	2980
241.147	-38
241.211	1594
241.276	2776
241.340	837
241.404	801
241.469	1217
241.533	1014
241.597	721
241.661	11
241.726	720
241.790	390
241.854	413
241.919	938
241.983	494
242.047	436
242.111	58
242.175	199
242.240	857
242.304	642
242.368	438
242.432	494
242.496	-387
242.561	325
242.625	673
242.689	818
242.753	332
242.817	1017
242.881	130
242.946	-461
243.010	683
243.074	1062
243.138	-123
243.202	997
243.266	-329
243.330	1618
243.394	10637
243.458	28359
243.522	6793
243.586	2185
243.651	736
243.715	2524
243.779	2428
243.843	2949
243.907	3402
243.971	2009
244.035	866
244.099	573
244.163	1752
244.227	2504
244.291	3017
244.355	1057
244.419	277
244.483	1040
244.546	-127
244.610	546
244.674	686
244.738	1179
244.802	223
244.866	380
244.930	224
244.994	590
245.058	698
245.122	2677
245.186	1434
245.249	1777
245.313	507
245.377	593
245.441	26
245.505	797
245.569	362
245.632	1412
245.696	3913
245.760	2317
245.824	1042
245.888	685
245.951	259
246.015	833
246.079	945
246.143	7020
246.207	11862
246.270	2912
246.334	1410
246.398	1963
246.461	3295
246.525	2525
246.589	1143
246.653	1865
246.716	1797
246.780	2621
246.844	3030
246.907	996
246.971	694
247.035	1362
247.098	1369
247.162	5739
247.226	16795
247.289	6012
247.353	2235
247.416	4851
247.480	3053
247.544	2601
247.607	2248
247.671	1673
247.734	1439
247.798	1337
247.861	6086
247.925	15065
247.989	4721
248.052	1770
248.116	2453
248.179	5174
248.243	26460
248.306	22973
248.370	15070
248.433	4522
248.497	4024
248.560	6003
248.624	6974
248.687	10679
248.751	26679
248.814	12240
248.877	13262
248.941	19082
249.004	32158
249.068	25790
249.131	8213
249.194	5587
249.258	5694
249.321	4864
249.385	4063
249.448	3296
249.511	5581
249.575	36321
249.638	55041
249.701	69474
249.765	29687
249.828	10330
249.891	7072
249.955	4259
250.018	13329
250.081	13311
250.145	5237
250.208	4770
250.271	4492
250.334	3927
250.398	2663
250.461	3988
250.524	5840
250.587	33369
250.651	48451
250.714	12853
250.777	7855
250.840	5148
250.903	4962
250.967	7618
251.030	16402
251.093	6363
251.156	5993
251.219	5375
251.282	8015
251.345	46042
251.409	36010
251.472	22829
251.535	84099
251.598	48667
251.661	15302
251.724	20774
251.787	20030
251.850	52166
251.913	21962
251.976	8220
252.039	6062
252.103	5525
252.166	11831
252.229	29613
252.292	29464
252.355	67971
252.418	21691
252.481	10277
252.544	6422
252.607	8327
252.670	23183
252.733	29223
252.796	64792
252.858	34800
252.921	15992
252.984	8777
253.047	5102
253.110	3933
253.173	7312
253.236	4808
253.299	4209
253.362	5072
253.425	5703
253.488	13931
253.550	6798
253.613	7545
253.676	6706
253.739	3224
253.802	4169
253.865	3705
253.928	3304
253.990	9210
254.053	13845
254.116	8271
254.179	6050
254.242	3237
254.304	6890
254.367	6853
254.430	4761
254.493	9845
254.555	15394
254.618	6504
254.681	2985
254.743	2840
254.806	2844
254.869	11070
254.932	9363
254.994	3278
255.057	2048
255.120	1776
255.182	583
255.245	2135
255.308	559
255.370	1079
255.433	1047
255.496	387
255.558	599
255.621	1638
255.683	88
255.746	1417
255.809	499
255.871	747
255.934	504
255.996	89
256.059	203
256.121	1792
256.184	4821
256.246	3365
256.309	2526
256.371	1948
256.434	1085
256.496	435
256.559	826
256.621	1131
256.684	6702
256.746	17262
256.809	5627
256.871	1314
256.934	1981
256.996	1481
257.059	1040
257.121	1350
257.183	742
257.246	253
257.308	256
257.371	4842
257.433	26449
257.495	20636
257.558	10943
257.620	6062
257.683	2337
257.745	2173
257.807	-5
257.870	973
257.932	561
257.994	284
258.056	566
258.119	1466
258.181	4115
258.243	1384
258.306	946
258.368	7054
258.430	5613
258.492	9787
258.555	10150
258.617	2073
258.679	1817
258.741	3382
258.803	929
258.866	1090
258.928	1106
258.990	185
259.052	922
259.114	2444
259.177	1342
259.239	1462
259.301	5649
259.363	2439
259.425	1666
259.487	665
259.549	766
259.611	182
259.674	1793
259.736	8085
259.798	14612
259.860	25825
259.922	16897
259.984	3096
260.046	1143
260.108	2062
260.170	719
260.232	687
260.294	1167
260.356	1162
260.418	1237
260.480	5514
260.542	3268
260.604	11336
260.666	14552
260.728	3109
260.790	1669
260.852	904
260.914	1390
260.976	998
261.038	1791
261.100	15127
261.161	11545
261.223	3120
261.285	6493
261.347	9266
261.409	971
261.471	1485
261.533	498
261.595	900
261.656	3446
261.718	10323
261.780	1877
261.842	1503
261.904	747
261.966	1249
262.027	901
262.089	3145
262.151	2126
262.213	1914
262.274	3964
262.336	2577
262.398	2350
262.460	3889
262.521	8894
262.583	2133
262.645	947
262.706	2439
262.768	8204
262.830	2990
262.892	1181
262.953	2141
263.015	19226
263.077	43521
263.138	10448
263.200	4415
263.261	1293
263.323	2284
263.385	265
263.446	772
263.508	4794
263.569	2251
263.631	928
263.693	121
263.754	-51
263.816	-453
263.877	-672
263.939	253
264.000	-189
264.062	959
264.123	748
264.185	-501
264.246	-913
264.308	2455
264.369	3339
264.431	452
264.492	28
264.554	333
264.615	261
264.677	836
264.738	29
264.800	-165
264.861	1015
264.922	-140
264.984	51
265.045	229
265.107	643
265.168	7791
265.229	5232
265.291	1092
265.352	463
265.413	713
265.475	-746
265.536	-64
265.597	347
265.659	-411
265.720	-765
265.781	243
265.843	-946
265.904	1212
265.965	14712
266.026	8142
266.088	1973
266.149	1366
266.210	1036
266.271	-241
266.333	871
266.394	210
266.455	-540
266.516	52
266.577	1342
266.639	3323
266.700	359
266.761	287
266.822	1
266.883	-381
266.944	-611
267.005	783
267.067	264
267.128	46
267.189	-410
267.250	1009
267.311	-164
267.372	-180
267.433	388
267.494	-2
267.555	-251
267.616	-694
267.677	-30
267.738	-566
267.799	2480
267.860	5959
267.921	683
267.982	649
268.043	274
268.104	-295
268.165	-815
268.226	170
268.287	-361
268.348	524
268.409	432
268.470	-1041
268.531	-762
268.592	-97
268.653	-1053
268.714	-804
268.775	224
268.836	3164
268.896	2644
268.957	972
269.018	-1021
269.079	747
269.140	-379
269.201	-257
269.262	-660
269.322	11
269.383	-736
269.444	472
269.505	621
269.565	1882
269.626	957
269.687	181
269.748	-259
269.809	970
269.869	1349
269.930	555
269.991	-807
270.051	-420
270.112	-636
270.173	-349
270.234	-677
270.294	576
270.355	-292
270.416	31
270.476	86
270.537	2382
270.598	6174
270.658	1460
270.719	172
270.779	1100
270.840	-341
270.901	972
270.961	1036
271.022	332
271.082	1228
271.143	1633
271.203	279
271.264	648
271.325	1078
271.385	4203
271.446	1984
271.506	926
271.567	1246
271.627	598
271.688	274
271.748	3802
271.809	24469
271.869	33530
271.930	7332
271.990	15616
272.050	29001
272.111	7154
272.171	1984
272.232	3648
272.292	20573
272.352	8723
272.413	4345
272.473	3107
272.534	3690
272.594	2468
272.654	3094
272.715	5250
272.775	1749
272.835	2274
272.896	740
272.956	1076
273.016	1561
273.077	2340
273.137	1186
273.197	1766
273.257	10703
273.318	22677
273.378	6332
273.438	7356
273.498	16201
273.559	5909
273.619	11738
273.679	27571
273.739	7306
273.799	4500
273.860	11262
273.920	19237
273.980	3398
274.040	2262
274.100	4518
274.160	30708
274.221	24385
274.281	13799
274.341	19040
274.401	10518
274.461	3819
274.521	3475
274.581	16570
274.641	19807
274.701	6015
274.761	3321
274.821	8247
274.882	29389
274.942	31903
275.002	17528
275.062	4252
275.122	2326
275.182	1386
275.242	2307
275.302	3981
275.362	4740
275.421	2910
275.481	13840
275.541	29508
275.601	15703
275.661	7313
275.721	3989
275.781	1595
275.841	655
275.901	2003
275.961	1468
276.021	425
276.081	3815
276.140	10833
276.200	4090
276.260	2149
276.320	2069
276.380	1904
276.440	1017
276.499	765
276.559	651
276.619	1612
276.679	6698
276.738	4292
276.798	2031
276.858	2275
276.918	1313
276.978	714
277.037	1717
277.097	2373
277.157	10808
277.216	3497
277.276	1415
277.336	1199
277.395	1466
277.455	1096
277.515	2127
277.574	13251
277.634	22036
277.694	5103
277.753	26698
277.813	17335
277.873	16795
277.932	57800
277.992	15569
278.051	16868
278.111	21453
278.171	8098
278.230	26709
278.290	13088
278.349	5080
278.409	2299
278.468	2460
278.528	1891
278.587	1846
278.647	1922
278.706	11381
278.766	29868
278.825	7330
278.885	3528
278.944	3810
279.004	7129
279.063	6715
279.122	2644
279.182	3736
279.241	3959
279.301	5366
279.360	10834
279.419	52805
279.479	177568
279.538	139579
279.598	30782
279.657	16730
279.716	24313
279.776	40642
279.835	14146
279.894	7935
279.953	6225
280.013	13030
280.072	21793
280.131	20158
280.191	122312
280.250	123674
280.309	26444
280.368	16537
280.428	12141
280.487	6699
280.546	4783
280.605	7864
280.664	9105
280.724	3788
280.783	2769
280.842	2643
280.901	1044
280.960	2070
281.019	1153
281.079	2390
281.138	551
281.197	3032
281.256	16012
281.315	11406
281.374	2513
281.433	2021
281.492	655
281.551	1087
281.611	1013
281.670	1279
281.729	862
281.788	811
281.847	95
281.906	1025
281.965	911
282.024	921
282.083	362
282.142	88
282.201	777
282.260	6527
282.319	3713
282.378	1090
282.436	1874
282.495	9391
282.554	4531
282.613	1487
282.672	576
282.731	1415
282.790	1088
282.849	1598
282.908	411
282.967	346
283.025	534
283.084	1530
283.143	5781
283.202	12523
283.261	2695
283.319	1018
283.378	748
283.437	1757
283.496	2133
283.555	2105
283.613	1392
283.672	989
283.731	4052
283.790	3794
283.848	732
283.907	1807
283.966	2808
284.024	3072
284.083	738
284.142	2208
284.201	877
284.259	3108
284.318	15427
284.376	11387
284.435	3776
284.494	4701
284.552	3500
284.611	3287
284.670	3154
284.728	4928
284.787	6384
284.845	7547
284.904	8004
284.962	11558
285.021	23816
285.079	81286
285.138	279534
285.197	249387
285.255	83305
285.314	39436
285.372	23856
285.431	16034
285.489	12386
285.547	8262
285.606	6426
285.664	4434
285.723	4119
285.781	3428
285.840	2514
285.898	2063
285.957	860
286.015	1874
286.073	730
286.132	1627
286.190	2145
286.248	1610
286.307	3126
286.365	2050
286.423	1203
286.482	695
286.540	634
286.598	2290
286.657	1542
286.715	1039
286.773	1847
286.832	2964
286.890	4349
286.948	1362
287.006	1010
287.064	1148
287.123	1329
287.181	2792
287.239	1753
287.297	1788
287.356	4730
287.414	3149
287.472	2192
287.530	1174
287.588	752
287.646	1881
287.704	2678
287.763	1559
287.821	1761
287.879	2577
287.937	4164
287.995	13099
288.053	85272
288.111	259316
288.169	95771
288.227	26769
288.285	14313
288.343	9395
288.401	7802
288.459	5852
288.517	3906
288.575	1909
288.633	1019
288.691	1930
288.749	1003
288.807	820
288.865	674
288.923	1177
288.981	463
289.039	367
289.097	667
289.155	659
289.213	640
289.271	484
289.329	928
289.386	2170
289.444	2175
289.502	641
289.560	514
289.618	182
289.676	-582
289.734	-143
289.791	-42
289.849	1777
289.907	828
289.965	702
290.022	-43
290.080	-483
290.138	783
290.196	46
290.253	188
290.311	141
290.369	13
290.427	-380
290.484	-168
290.542	7
290.600	-256
290.657	32
290.715	890
290.773	-103
290.830	657
290.888	1247
290.946	338
291.003	773
291.061	-211
291.118	3845
291.176	8576
291.234	2004
291.291	317
291.349	101
291.406	-318
291.464	701
291.521	216
291.579	-28
291.636	-282
291.694	208
291.751	2118
291.809	1356
291.866	89
291.924	-294
291.981	488
292.039	767
292.096	30
292.154	601
292.211	966
292.268	2564
292.326	2537
292.383	2245
292.441	754
292.498	1943
292.555	795
292.613	1525
292.670	515
292.727	1038
292.785	4298
292.842	14208
292.899	6426
292.957	1700
293.014	1149
293.071	424
293.129	338
293.186	554
293.243	981
293.300	1446
293.358	341
293.415	127
293.472	476
293.529	2028
293.586	15241
293.644	36991
293.701	14141
293.758	5666
293.815	3007
293.872	3947
293.929	2395
293.987	2029
294.044	5178
294.101	8769
294.158	6107
294.215	2656
294.272	636
294.329	2122
294.386	1589
294.443	1091
294.500	692
294.558	528
294.615	2070
294.672	8006
294.729	36429
294.786	22511
294.843	8297
294.900	4667
294.957	3350
295.014	3351
295.070	1545
295.127	1398
295.184	850
295.241	2536
295.298	14474
295.355	28600
295.412	9175
295.469	2732
295.526	3610
295.583	6507
295.640	9970
295.696	20349
295.753	5999
295.810	2959
295.867	1162
295.924	4228
295.981	2898
296.037	1333
296.094	682
296.151	954
296.208	380
296.265	766
296.321	279
296.378	792
296.435	8448
296.492	14707
296.548	8927
296.605	36176
296.662	47308
296.718	14252
296.775	5481
296.832	5588
296.888	11897
296.945	26691
297.002	17625
297.058	5941
297.115	3786
297.172	7307
297.228	38136
297.285	63819
297.341	19355
297.398	7280
297.454	3100
297.511	2844
297.568	2532
297.624	1896
297.681	479
297.737	366
297.794	556
297.850	944
297.907	620
297.963	935
298.020	3746
298.076	13834
298.133	12052
298.189	5426
298.245	14172
298.302	44764
298.358	22688
298.415	9964
298.471	5392
298.527	4003
298.584	3761
298.640	8214
298.697	19740
298.753	14273
298.809	4877
298.866	2282
298.922	2134
298.978	2182
299.035	2155
299.091	1505
299.147	1209
299.203	1513
299.260	1773
299.316	8874
299.372	41358
299.428	42896
299.485	16299
299.541	6256
299.597	5301
299.653	11696
299.710	10669
299.766	4481
299.822	6898
299.878	25122
299.934	28034
299.990	29464
300.046	54672
300.103	25414
300.159	8472
300.215	8543
300.271	8046
300.327	4485
300.383	2290
300.439	2150
300.495	2251
300.551	5541
300.607	24296
300.663	33199
300.719	28366
300.775	36124
300.831	23420
300.887	28111
300.943	16366
300.999	7536
301.055	4465
301.111	3535
301.167	2198
301.223	1742
301.279	953
301.335	1114
301.391	971
301.447	1811
301.503	2021
301.559	3593
301.614	3320
301.670	7236
301.726	10081
301.782	7823
301.838	12017
301.894	14662
301.949	41162
302.005	120946
302.061	111280
302.117	45989
302.173	16669
302.228	9848
302.284	8261
302.340	15977
302.396	11835
302.451	11513
302.507	31373
302.563	33642
302.618	15284
302.674	6474
302.730	2998
302.785	2326
302.841	2406
302.897	3179
302.952	4885
303.008	4569
303.064	6216
303.119	8267
303.175	3560
303.230	2143
303.286	957
303.341	1723
303.397	932
303.453	1380
303.508	877
303.564	2322
303.619	10210
303.675	35684
303.730	26575
303.786	9325
303.841	4016
303.897	3309
303.952	5093
304.008	5614
304.063	5667
304.118	9791
304.174	9244
304.229	6507
304.285	3016
304.340	2194
304.372	1940
304.395	1762
304.451	1732
304.463	1624
304.506	1260
304.554	1799
304.562	1897
304.617	6308
304.644	16668
304.672	27498
304.728	39705
304.735	36898
304.783	18563
304.825	9576
304.838	6893
304.894	3387
304.916	2869
304.949	2245
305.004	2472
305.006	2383
305.059	485
305.097	924
305.115	1140
305.170	699
305.188	782
305.225	980
305.278	970
305.280	971
305.336	2004
305.369	1869
305.391	1800
305.446	2211
305.459	2195
305.501	2142
305.550	2420
305.556	2469
305.612	6328
305.640	14520
305.667	22522
305.722	26377
305.731	25192
305.777	18033
305.821	26723
305.832	29208
305.887	30697
305.912	23859
305.942	14414
305.997	6288
306.002	5948
306.053	3205
306.092	2679
306.108	2537
306.163	1559
306.183	1593
306.218	1646
306.273	755
306.273	758
306.328	948
306.364	1060
306.383	1138
306.438	1135
306.454	1022
306.493	715
306.545	2716
306.548	2884
306.603	7129
306.635	12483
306.658	16459
306.713	15401
306.725	13925
306.768	7348
306.816	3116
306.823	2643
306.878	1674
306.906	1230
306.933	959
306.988	1153
306.997	1156
307.043	1107
307.087	1226
307.098	1271
307.152	1282
307.177	1492
307.207	1696
307.262	2226
307.268	2177
307.317	1689
307.358	1316
307.372	1215
307.427	2497
307.448	4297
307.482	7750
307.536	11921
307.538	11768
307.591	6517
307.629	4299
307.646	3262
307.701	1691
307.719	1564
307.756	1965
307.809	3441
307.810	3470
307.865	2835
307.900	2636
307.920	2519
307.975	2951
307.990	3532
308.029	5540
308.080	15251
308.084	16575
308.139	56563
308.170	63578
308.194	65144
308.248	39243
308.261	36973
308.303	23477
308.351	12792
308.358	12058
308.412	7089
308.441	5381
308.467	4034
308.522	2745
308.531	2469
308.576	2264
308.621	2671
308.631	2675
308.686	2621
308.712	3084
308.740	3892
308.795	3664
308.802	3609
308.849	2841
308.892	2405
308.904	2283
308.959	3169
308.982	3811
309.013	5191
309.068	10256
309.072	11004
309.122	22009
309.162	44241
309.177	56084
309.231	105168
309.253	103039
309.286	80102
309.340	43450
309.343	42506
309.395	22049
309.433	11115
309.449	9538
309.504	7131
309.523	6845
309.558	7923
309.613	12007
309.613	12037
309.667	16912
309.703	16867
309.722	14816
309.776	9510
309.793	8279
309.830	6559
309.883	5958
309.885	6055
309.939	12828
309.973	14990
309.994	15241
310.048	13037
310.063	12266
310.102	7274
310.153	2360
310.157	2266
310.211	1590
310.243	1441
310.265	1403
310.320	1048
310.333	1044
310.374	992
310.423	754
310.428	723
310.483	477
310.513	305
310.537	282
310.591	449
310.603	487
310.646	659
310.693	717
310.700	724
310.754	833
310.783	971
310.808	995
310.862	783
310.873	804
310.917	705
310.963	407
310.971	409
311.025	686
311.053	644
311.079	389
311.133	63
311.143	-6
311.188	1
311.233	82
311.242	139
311.296	415
311.323	591
311.350	624
311.404	605
311.413	621
311.458	521
311.503	391
311.512	429
311.567	692
311.593	822
311.621	803
311.675	693
311.683	677
311.729	473
311.772	359
311.783	385
311.837	487
311.862	564
311.891	765
311.945	1120
311.952	1171
311.999	781
312.042	433
312.053	424
312.107	408
312.132	407
312.222	367
312.311	295
312.401	615
312.491	1450
312.581	1247
312.671	643
312.760	394
312.850	394
312.940	1142
313.030	570
313.119	748
313.209	413
313.299	373
313.389	203
313.478	546
313.568	632
313.658	479
313.747	473
313.837	207
313.927	694
314.016	1065
314.106	726
314.195	761
314.285	1539
314.375	1221
314.464	806
314.554	615
314.643	845
314.733	711
314.823	1286
314.912	1110
315.002	547
315.091	1091
315.181	1342
315.270	778
315.360	1752
315.449	-110
315.539	888
315.628	1255
315.718	1486
315.807	5414
315.896	13496
315.986	2475
316.075	1828
316.165	1062
316.254	873
316.344	128
316.433	1050
316.522	967
316.612	1785
316.701	980
316.790	928
316.880	1324
316.969	845
317.058	992
317.148	621
317.237	674
317.326	116
317.415	-297
317.505	1837
317.594	1058
317.683	795
317.772	1901
317.862	10242
317.951	21742
318.040	5319
318.129	4907
318.219	1403
318.308	2581
318.397	3103
318.486	1813
318.575	3004
318.664	2709
318.754	1026
318.843	896
318.932	884
319.021	497
319.110	1756
319.199	4628
319.288	3347
319.377	1627
319.466	374
319.555	1135
319.644	2905
319.733	1949
319.822	507
319.911	2718
320.000	5977
320.089	2108
320.178	462
320.267	165
320.356	789
320.445	791
320.534	1332
320.623	543
320.712	754
320.801	965
320.890	1364
320.979	1982
321.068	3057
321.157	3385
321.245	2757
321.334	2928
321.423	5193
321.512	2737
321.601	2085
321.690	1926
321.779	1387
321.867	1490
321.956	2787
322.045	1186
322.134	2121
322.222	6495
322.311	2932
322.400	2054
322.489	3920
322.577	8947
322.666	3116
322.755	2824
322.843	3060
322.932	2047
323.021	1709
323.110	1138
323.198	1094
323.287	1122
323.375	2471
323.464	4469
323.553	890
323.641	3446
323.730	1195
323.819	444
323.907	2282
323.996	1372
324.084	832
324.173	1435
324.261	975
324.350	1296
324.438	1674
324.527	-148
324.615	1051
324.704	1729
324.792	2120
324.881	286
324.969	886
325.058	765
325.146	626
325.235	1630
325.323	36
325.412	1220
325.500	323
325.588	-240
325.677	1039
325.765	-121
325.853	1011
325.942	118
326.030	-127
326.118	668
326.207	562
326.295	1029
326.383	382
326.472	988
326.560	1794
326.648	524
326.737	267
326.825	238
326.913	642
327.001	194
327.090	1767
327.178	1123
327.266	398
327.354	1151
327.442	1144
327.531	1219
327.619	360
327.707	347
327.795	780
327.883	350
327.971	-169
328.060	510
328.148	379
328.236	259
328.324	601
328.412	337
328.500	720
328.588	2207
328.676	3406
328.764	583
328.852	165
328.940	926
329.028	468
329.116	-116
329.204	1989
329.292	869
329.380	-80
329.468	-26
329.556	368
329.644	-138
329.732	50
329.820	331
329.908	507
329.996	-215
330.084	234
330.172	1813
330.259	2766
330.347	1033
330.435	70
330.523	1587
330.611	4402
330.699	1322
330.787	709
330.874	615
330.962	-228
331.050	-228
331.138	-516
331.226	-130
331.313	287
331.401	238
331.489	716
331.577	183
331.664	503
331.752	12
331.840	250
331.927	304
332.015	-34
332.103	-1
332.190	502
332.278	456
332.366	244
332.453	562
332.541	-626
332.629	-799
332.716	-81
332.804	476
332.891	551
332.979	1304
333.066	602
333.154	1305
333.242	1784
333.329	371
333.417	-185
333.504	5
333.592	1460
333.679	2963
333.767	654
333.854	22
333.942	851
334.029	744
334.117	2171
334.204	3299
334.291	1596
334.379	1863
334.466	1981
334.554	1266
334.641	444
334.728	613
334.816	2879
334.903	7104
334.990	7203
335.078	2547
335.165	793
335.252	456
335.340	1213
335.427	3406
335.514	2012
335.602	945
335.689	544
335.776	715
335.863	1327
335.951	1881
336.038	5440
336.125	11655
336.212	7095
336.299	1973
336.387	1113
336.474	617
336.561	736
336.648	241
336.735	434
336.822	439
336.910	843
336.997	1977
337.084	4538
337.171	4280
337.258	2689
337.345	768
337.432	-351
337.519	609
337.606	711
337.693	1400
337.780	1975
337.867	912
337.954	266
338.041	223
338.128	307
338.215	1060
338.302	727
338.389	2127
338.476	462
338.563	2159
338.650	80
338.737	588
338.824	863
338.911	-182
338.998	472
339.085	-310
339.171	867
339.258	1311
339.345	1022
339.432	51
339.519	396
339.606	-526
339.692	387
339.779	258
339.866	723
339.953	895
340.040	46
340.126	311
340.213	765
340.300	-147
340.387	165
340.473	1341
340.560	284
340.647	1233
340.733	4533
340.820	381
340.907	99
340.993	268
341.080	424
341.167	176
341.253	309
341.340	1199
341.426	564
341.513	165
341.600	83
341.686	273
341.773	1632
341.859	753
341.946	55
342.032	-239
342.119	-241
342.205	410
342.292	641
342.378	689
342.465	672
342.551	769
342.638	2739
342.724	3682
342.811	801
342.897	-430
342.984	162
343.070	376
343.156	826
343.243	406
343.329	167
343.416	-565
343.502	-557
343.588	548
343.675	456
343.761	51
343.847	349
343.934	2016
344.020	22163
344.106	21096
344.193	2407
344.279	2179
344.365	8009
344.451	2959
344.538	971
344.624	925
344.710	467
344.796	-1030
344.882	193
344.969	164
345.055	683
345.141	-637
345.227	966
345.313	386
345.399	-110
345.486	-604
345.572	-318
345.658	-649
345.744	232
345.830	67
345.916	-419
346.002	-240
346.088	404
346.174	-375
346.260	440
346.346	-65
346.432	253
346.518	5931
346.604	8093
346.690	362
346.776	213
346.862	688
346.948	-232
347.034	107
347.120	691
347.206	-524
347.292	146
347.378	323
347.464	7173
347.549	11846
347.635	7949
347.721	2984
347.807	49
347.893	131
347.979	412
348.065	155
348.150	-303
348.236	-66
348.322	667
348.408	558
348.493	1007
348.579	852
348.665	533
348.751	1936
348.836	-263
348.922	1643
349.008	10482
349.094	6561
349.179	272
349.265	475
349.351	-276
349.436	3
349.522	-99
349.608	682
349.693	2882
349.779	5987
349.864	429
349.950	-121
350.036	-147
350.121	-215
350.207	-211
350.292	-892
350.378	298
350.463	-326
350.549	108
350.634	-498
350.720	-340
350.805	29
350.891	-31
350.976	805
351.062	500
351.147	-214
351.233	640
351.318	3152
351.404	2407
351.489	-107
351.574	544
351.660	97
351.745	226
351.830	-2
351.916	385
352.001	697
352.086	4123
352.172	1788
352.257	94
352.342	344
352.428	475
352.513	2517
352.598	7371
352.684	2118
352.769	616
352.854	-94
352.939	494
353.024	312
353.110	78
353.195	715
353.280	844
353.365	-10
353.450	325
353.536	-129
353.621	1096
353.706	613
353.791	905
353.876	-546
353.961	948
354.046	1626
354.131	2996
354.216	1080
354.302	356
354.387	-226
354.472	336
354.557	-248
354.642	-234
354.727	1244
354.812	-379
354.897	-301
354.982	619
355.067	-40
355.152	-233
355.237	483
355.321	1225
355.406	2188
355.491	3169
355.576	641
355.661	1297
355.746	2059
355.831	7262
355.916	1528
356.001	771
356.085	-329
356.170	347
356.255	-225
356.340	375
356.425	2625
356.509	17113
356.594	4529
356.679	76
356.764	1188
356.849	1104
356.933	15542
357.018	23431
357.103	3165
357.187	644
357.272	260
357.357	985
357.441	237
357.526	-72
357.611	39
357.695	448
357.780	422
357.865	423
357.949	680
358.034	13380
358.118	26299
358.203	3847
358.288	133
358.372	687
358.457	6337
358.541	10308
358.626	6224
358.710	5704
358.795	537
358.879	1184
358.964	146
359.048	-1075
359.133	118
359.217	317
359.302	32
359.386	573
359.470	233
359.555	208
359.639	-383
359.724	-201
359.808	-591
359.892	817
359.977	95
360.061	760
360.145	232
360.230	291
360.314	267
360.398	-542
360.483	1632
360.567	2386
360.651	3068
360.735	1529
360.820	12781
360.904	11433
360.988	2463
361.072	-26
361.157	52
361.241	78
361.325	77
361.409	-279
361.493	355
361.577	-241
361.662	388
361.746	2533
361.830	17987
361.914	8356
361.998	1128
362.082	1545
362.166	1518
362.250	2393
362.334	5664
362.418	5818
362.502	1055
362.586	834
362.671	684
362.754	446
362.839	773
362.922	3442
363.006	18754
363.090	31160
363.174	11826
363.258	1922
363.342	284
363.426	1411
363.510	3990
363.594	511
363.678	-225
363.762	867
363.846	912
363.929	1139
364.013	1611
364.097	552
364.181	1874
364.265	8191
364.349	19105
364.432	28663
364.516	6789
364.600	2846
364.684	6706
364.767	17291
364.851	3537
364.935	2176
365.019	625
365.102	889
365.186	-309
365.270	3128
365.353	3747
365.437	56
365.521	245
365.604	-712
365.688	150
365.771	281
365.855	-575
365.939	-859
366.022	536
366.106	-589
366.189	-564
366.273	-90
366.357	219
366.440	-736
366.524	-42
366.607	189
366.691	226
366.774	-449
366.858	535
366.941	605
367.024	-362
367.108	-732
367.191	147
367.275	-412
367.358	-192
367.442	780
367.525	-91
367.608	79
367.692	418
367.775	978
367.858	532
367.942	7553
368.025	2986
368.108	-215
368.192	1389
368.275	817
368.358	157
368.442	203
368.525	1599
368.608	692
368.691	7327
368.775	3800
368.858	630
368.941	818
369.024	-215
369.107	-671
369.190	-233
369.274	-498
369.357	1120
369.440	400
369.523	-159
369.606	-1202
369.689	628
369.772	-954
369.855	111
369.939	-572
370.022	-77
370.105	386
370.188	1085
370.271	1203
370.354	903
370.437	2000
370.520	11707
370.603	6950
370.686	603
370.769	3462
370.852	6596
370.935	6484
371.018	1020
371.100	-836
371.183	-86
371.266	-114
371.349	-398
371.432	331
371.515	-439
371.598	388
371.681	200
371.763	267
371.846	1516
371.929	17870
372.012	12236
372.095	2743
372.177	6464
372.260	8636
372.343	865
372.426	666
372.508	1688
372.591	504
372.674	6199
372.757	8052
372.839	1133
372.922	1657
373.005	1837
373.087	-981
373.170	1497
373.253	6536
373.335	7590
373.418	22449
373.500	17842
373.583	7317
373.666	27027
373.748	8919
373.831	388
373.913	1044
373.996	53
374.078	2057
374.161	825
374.243	3191
374.326	6435
374.408	2902
374.491	17578
374.573	17957
374.656	2718
374.738	8051
374.821	15074
374.903	25859
374.985	8561
375.068	882
375.150	342
375.233	2105
375.315	2171
375.397	670
375.480	-425
375.562	30
375.644	870
375.727	7548
375.809	17599
375.891	4162
375.973	238
376.056	849
376.138	717
376.220	454
376.302	9930
376.385	10759
376.467	1623
376.549	1198
376.631	7160
376.713	10668
376.795	469
376.878	179
376.960	-328
377.042	-439
377.124	418
377.206	-293
377.288	-159
377.370	-368
377.452	-249
377.534	280
377.616	-348
377.699	-663
377.781	-79
377.863	375
377.945	124
378.027	-55
378.109	144
378.190	-731
378.272	-250
378.354	-123
378.436	-1208
378.518	-484
378.600	966
378.682	2544
378.764	5391
378.846	365
378.928	-242
379.010	208
379.091	-305
379.173	-235
379.255	-357
379.337	-382
379.419	4527
379.501	6131
379.582	478
379.664	-250
379.746	1670
379.828	4833
379.909	7116
379.991	1674
380.073	28
380.155	-78
380.236	-544
380.318	-543
380.400	-20
380.481	897
380.563	-68
380.645	748
380.726	145
380.808	206
380.889	-419
380.971	-1252
381.053	92
381.134	512
381.216	2101
381.297	3523
381.379	283
381.460	3602
381.542	15924
381.623	5422
381.705	-59
381.786	145
381.868	1100
381.949	10935
382.031	18459
382.112	4208
382.193	1113
382.275	1844
382.356	6962
382.438	9433
382.519	18077
382.600	11465
382.682	7346
382.763	14056
382.844	15915
382.926	18968
383.007	4786
383.088	11324
383.170	50422
383.251	25624
383.332	12164
383.413	13008
383.495	3292
383.576	2834
383.657	8315
383.738	49549
383.820	58029
383.901	11795
383.982	13407
384.063	17076
384.144	2689
384.225	677
384.306	522
384.388	332
384.469	-2
384.550	-356
384.631	595
384.712	703
384.793	-293
384.874	900
384.955	5501
385.036	909
385.117	369
385.198	839
385.279	545
385.360	195
385.441	190
385.522	3212
385.603	10796
385.684	1683
385.765	369
385.846	1110
385.927	16991
386.008	8967
386.089	311
386.169	924
386.250	706
386.331	211
386.412	116
386.493	3948
386.574	1796
386.654	420
386.735	143
386.816	1069
386.897	-626
386.977	367
387.058	407
387.139	2085
387.220	5600
387.300	2022
387.381	1428
387.462	-82
387.542	1280
387.623	425
387.704	3607
387.784	13263
387.865	5796
387.946	738
388.026	-530
388.107	-1131
388.187	627
388.268	785
388.349	-172
388.429	1131
388.510	3800
388.590	13812
388.671	5867
388.751	3197
388.832	3673
388.912	324
388.993	-1156
389.073	794
389.154	570
389.234	-867
389.314	911
389.395	-1130
389.475	3568
389.556	3858
389.636	1062
389.716	976
389.797	-24
389.877	4254
389.957	5938
390.038	424
390.118	-1138
390.198	2783
390.279	4000
390.359	235
390.439	2765
390.519	7504
390.600	3188
390.680	1092
390.760	-418
390.840	-22
390.920	-445
391.001	-730
391.081	536
391.161	-167
391.241	-1080
391.321	66
391.401	205
391.481	483
391.562	-1009
391.642	-627
391.722	519
391.802	1033
391.882	563
391.962	4520
392.042	2013
392.122	1352
392.202	3863
392.282	5585
392.362	1512
392.442	1152
392.522	247
392.602	1359
392.682	3840
392.762	7945
392.842	2429
392.921	6027
393.001	11115
393.081	9283
393.161	19267
393.241	66468
393.321	136710
393.401	69585
393.480	20591
393.560	7615
393.640	5077
393.720	2228
393.800	1219
393.879	1884
393.959	540
394.039	877
394.119	1251
394.198	1678
394.278	13113
394.358	45018
394.437	13661
394.517	1657
394.597	79
394.676	824
394.756	2399
394.836	2637
394.915	1069
394.995	652
395.075	788
395.154	443
395.234	-32
395.313	1454
395.393	-1041
395.472	1224
395.552	1495
395.631	6224
395.711	4691
395.790	2411
395.870	788
395.949	1473
396.029	17537
396.108	57176
396.188	19010
396.267	4045
396.346	1944
396.426	1646
396.505	3799
396.585	4703
396.664	14820
396.743	66538
396.823	99950
396.902	35261
396.981	7953
397.061	4677
397.140	533
397.219	2509
397.298	6310
397.378	5106
397.457	1848
397.536	531
397.615	-1789
397.694	1171
397.774	-705
397.853	-311
397.932	-286
398.011	-233
398.090	79
398.169	1619
398.249	-585
398.328	172
398.407	-229
398.486	-522
398.565	-372
398.644	-846
398.723	-66
398.802	-84
398.881	1273
398.960	1005
399.039	-430
399.118	-782
399.197	-226
399.276	18
399.355	-1490
399.434	-228
399.513	335
399.592	-825
399.671	46
399.750	193
399.829	2969
399.908	1006
399.986	-933
400.065	-1010
400.144	-1445
400.223	924
400.302	-559
400.380	-1516
400.459	4129
400.538	1199
400.617	-502
400.696	548
400.774	-349
400.853	-42
400.932	-840
401.011	1237
401.089	-935
401.168	-841
401.247	-532
401.325	430
401.404	-691
401.483	-439
401.561	-97
401.640	-57
401.718	137
401.797	-1018
401.876	-724
401.954	-584
402.033	-1304
402.111	-178
402.190	-818
402.268	-107
402.347	-695
402.425	-286
402.504	-1299
402.582	-277
402.661	-487
402.739	-645
402.818	-280
402.896	-100
402.974	1650
403.053	3332
403.131	951
403.210	2490
403.288	1804
403.366	1995
403.445	715
403.523	-58
403.601	-278
403.680	-1024
403.758	251
403.836	-259
403.915	-413
403.993	-928
404.071	880
404.149	-43
404.228	-577
404.306	-83
404.384	620
404.462	4149
404.540	15530
404.618	2226
404.697	-254
404.775	-191
404.853	-358
404.931	-755
405.009	-273
405.087	-633
405.165	-336
405.243	-1467
405.321	102
405.399	-1038
405.478	266
405.556	406
405.634	-460
405.712	-962
405.790	126
405.868	-21
405.945	-74
406.023	-1266
406.101	-1528
406.179	-73
406.257	4022
406.335	9249
406.413	1522
406.491	-386
406.569	-393
406.647	360
406.724	-807
406.802	-1208
406.880	-488
406.958	153
407.036	432
407.113	8749
407.191	2428
407.269	375
407.347	-941
407.424	-473
407.502	-1229
407.580	-112
407.658	81
407.735	193
407.813	-146
407.891	-276
407.968	-877
408.046	-24
408.124	-1332
408.201	-679
408.279	-1005
408.356	-921
408.434	364
408.512	-488
408.589	-579
408.667	-51
408.744	-365
408.822	-684
408.899	-600
408.977	-438
409.054	-563
409.132	-532
409.209	107
409.287	150
409.364	537
409.441	1509
409.519	1603
409.596	708
409.674	191
409.751	159
409.828	1401
409.906	1523
409.983	-882
410.060	-232
410.138	566
410.215	120
410.292	-647
410.370	-284
410.447	4
410.524	-1156
410.601	-486
410.678	-686
410.756	-400
410.833	-1057
410.910	34
410.987	124
411.064	-260
411.142	-369
411.219	-498
411.296	-990
411.373	-829
411.450	-717
411.527	-690
411.604	-1757
411.681	-902
411.758	160
411.835	-18
411.913	-649
411.990	-832
412.067	-569
412.144	477
412.221	-1054
412.298	-233
412.374	-1011
412.451	5
412.528	-360
412.605	-413
412.682	-295
412.759	-258
412.836	-778
412.913	-1137
412.990	-1145
413.067	-481
413.143	2362
413.220	529
413.297	-997
413.374	156
413.451	-43
413.527	-474
413.604	-978
413.681	-1519
413.758	-22
413.834	-1089
413.911	-1213
413.988	-1535
414.065	71
414.141	-386
414.218	-434
414.295	2515
414.371	3043
414.448	-779
414.524	-1390
414.601	43
414.678	-710
414.754	-1388
414.831	-1200
414.907	-29
414.984	-637
415.060	-1129
415.137	-681
415.213	-196
415.290	-177
415.366	277
415.443	-47
415.519	-362
415.596	-1159
415.672	586
415.749	-939
415.825	-790
415.902	-204
415.978	-841
416.054	494
416.131	-908
416.207	-1532
416.283	-1203
416.360	-1150
416.436	475
416.512	-962
416.589	-576
416.665	-682
416.741	-884
416.817	-797
416.894	-422
416.970	-245
417.046	105
417.122	-1344
417.198	-730
417.275	-1007
417.351	-972
417.427	-916
417.503	-708
417.579	-1373
417.655	-841
417.731	-863
417.808	-1575
417.884	-508
417.960	-1012
418.036	-2181
418.112	468
418.188	-412
418.264	-553
418.340	-198
418.416	-1239
418.492	338
418.568	-483
418.644	-116
418.720	195
418.796	-45
418.872	-314
418.947	-1069
419.023	-107
419.099	533
419.175	-1382
419.251	-504
419.327	-880
419.403	-464
419.478	-623
419.554	-318
419.630	-26
419.706	-267
419.782	997
419.857	33
419.933	-299
420.009	151
420.085	304
420.160	1908
420.236	148
420.312	-1038
420.387	-640
420.463	-159
420.539	-613
420.614	-871
420.690	-267
420.766	-972
420.841	-88
420.917	-1076
420.992	-580
421.068	-1131
421.143	-376
421.219	-721
421.294	-49
421.370	-1113
421.445	-390
421.521	-64
421.596	129
421.672	195
421.747	-38
421.823	-394
421.898	448
421.974	79
422.049	1043
422.124	644
422.200	588
422.275	2962
422.350	5677
422.426	10792
422.501	30840
422.576	66738
422.652	71733
422.727	37856
422.802	14669
422.878	7116
422.953	3441
423.028	1954
423.103	1554
423.178	1232
423.254	363
423.329	764
423.404	-241
423.479	680
423.554	368
423.630	-796
423.705	442
423.780	-109
423.855	-448
423.930	-152
424.005	-674
424.080	125
424.155	-1261
424.230	-840
424.305	62
424.380	-843
424.455	-396
424.530	-148
424.605	-586
424.680	-854
424.755	-263
424.830	-414
424.905	-872
424.980	1813
425.055	1644
425.130	-238
425.204	5
425.279	-984
425.354	-343
425.429	-1720
425.504	-793
425.579	-589
425.653	-1358
425.728	-386
425.803	-1086
425.878	-837
425.952	540
426.027	2017
426.102	-643
426.177	-1259
426.251	222
426.326	-899
426.401	-776
426.475	-117
426.550	-1053
426.625	-379
426.699	-1037
426.774	-1441
426.848	-37
426.923	-719
426.998	-374
427.072	4512
427.147	5678
427.221	-393
427.296	-573
427.370	-986
427.445	-898
427.519	-1120
427.594	-265
427.668	-642
427.743	-1129
427.817	-312
427.892	-382
427.966	-827
428.040	-668
428.115	390
428.189	7557
428.263	15684
428.338	1873
428.412	-1035
428.486	-369
428.561	-881
428.635	-272
428.709	-418
428.784	1140
428.858	13384
428.932	7222
429.006	707
429.080	-786
429.155	-1108
429.229	-1092
429.303	-889
429.377	1066
429.451	-532
429.526	-459
429.600	-1007
429.674	-1025
429.748	923
429.822	12421
429.896	6977
429.970	616
430.044	233
430.118	6374
430.192	26613
430.266	9534
430.340	-716
430.414	188
430.488	-327
430.562	221
430.636	4166
430.710	21761
430.784	9123
430.858	94
430.932	-766
431.006	-823
431.080	-1013
431.153	-895
431.227	-1330
431.301	-1116
431.375	-213
431.449	-1081
431.523	-555
431.596	-1620
431.670	-309
431.744	4762
431.818	16444
431.891	2464
431.965	-657
432.039	-1140
432.112	-982
432.186	-870
432.260	-885
432.333	-877
432.407	-611
432.481	4201
432.554	6266
432.628	29
432.702	-604
432.775	-940
432.849	-718
432.922	338
432.996	-1413
433.069	-474
433.143	-1040
433.216	-358
433.290	-1123
433.363	-1296
433.437	-981
433.510	-1628
433.584	-504
433.657	-1605
433.730	-1077
433.804	-2072
433.877	-912
433.951	-900
434.024	-346
434.097	-1635
434.171	-1322
434.244	-911
434.317	-792
434.391	-1389
434.464	-856
434.537	-1389
434.610	-1098
434.684	-803
434.757	-985
434.830	-936
434.903	-1380
434.977	-1219
435.050	-1292
435.123	-532
435.196	-593
435.269	-679
435.342	-874
435.415	-649
435.489	542
435.562	-208
435.635	-291
435.708	-626
435.781	-729
435.854	-442
435.927	-926
436.000	-954
436.073	-156
436.146	-1226
436.219	-952
436.292	-1724
436.365	-885
436.438	-681
436.511	-716
436.584	-1287
436.657	-405
436.729	-687
436.802	-1349
436.875	-1084
436.948	-1279
437.021	-907
437.094	-1092
437.166	-1597
437.239	-587
437.312	-1061
437.385	-1252
437.457	-550
437.530	-445
437.603	-1294
437.676	-453
437.748	-1117
437.821	-767
437.894	-901
437.966	-642
438.039	-1448
438.112	-1251
438.184	-257
438.257	5461
438.330	8042
438.402	725
438.475	-226
438.547	-1387
438.620	-1177
438.692	-701
438.765	-1097
438.837	-127
438.910	-872
438.982	-784
439.055	-1558
439.127	-911
439.200	-931
439.272	-2150
439.345	-733
439.417	40
439.489	-1383
439.562	-896
439.634	-630
439.707	-503
439.779	-448
439.851	-516
439.923	-460
439.996	-453
440.068	-624
440.140	-992
440.213	-567
440.285	-1210
440.357	1819
440.429	5715
440.502	-22
440.574	-280
440.646	-486
440.718	-522
440.790	-128
440.862	-311
440.935	-1229
441.007	-630
441.079	-336
441.151	-1026
441.223	-255
441.295	-1031
441.367	-901
441.439	2231
441.511	420
441.583	-320
441.655	-869
441.727	-1343
441.799	-1505
441.871	-111
441.943	-290
442.015	-1141
442.087	-1391
442.159	-1358
442.231	-636
442.303	-171
442.374	645
442.446	10418
442.518	14716
442.590	1875
442.662	-380
442.734	-638
442.805	-568
442.877	-1154
442.949	-704
443.021	-711
443.092	-582
443.164	-466
443.236	-211
443.308	980
443.379	12114
443.451	34417
443.523	21918
443.594	3601
443.666	59
443.737	-413
443.809	-1298
443.881	-995
443.952	-1368
444.024	-551
444.095	-372
444.167	-1055
444.238	-87
444.310	-781
444.381	-844
444.453	-759
444.524	-815
444.596	-1036
444.667	-1141
444.739	-1157
444.810	-1025
444.882	-1119
444.953	-611
445.024	-865
445.096	-379
445.167	76
445.238	955
445.310	3632
445.381	25132
445.452	34667
445.524	19900
445.595	8326
445.666	890
445.737	412
445.809	-921
445.880	106
445.951	-938
446.022	-1001
446.094	-523
446.165	-559
446.236	-1713
446.307	-337
446.378	-1686
446.449	-1293
446.520	-129
446.591	-677
446.663	-929
446.734	-1286
446.805	-1301
446.876	-570
446.947	-1341
447.018	-1693
447.089	-1363
447.160	-769
447.231	-2066
447.302	-501
447.373	-674
447.444	-835
447.514	-989
447.585	-563
447.656	-976
447.727	-1496
447.798	-781
447.869	-1511
447.940	-1330
448.010	-727
448.081	-1185
448.152	-970
448.223	-1125
448.294	-946
448.364	-659
448.435	-1308
448.506	-400
448.577	-949
448.647	-1036
448.718	-1163
448.789	-1986
448.859	-411
448.930	-1222
449.001	-1312
449.071	-563
449.142	-894
449.213	-1090
449.283	-1196
449.354	-655
449.424	-712
449.495	-1047
449.565	-1003
449.636	-1265
449.706	-1077
449.777	-1145
449.847	-1338
449.918	-1600
449.988	-1200
450.059	-633
450.129	-1071
450.200	-1159
450.270	-988
450.340	-820
450.411	-1060
450.481	-1144
450.551	-599
450.622	-1133
450.692	-539
450.762	-1299
450.833	-480
450.903	-1080
450.973	-1375
451.043	-1388
451.114	-1173
451.184	-980
451.254	-611
451.324	-1331
451.395	-964
451.465	-900
451.535	-254
451.605	-806
451.675	-1568
451.745	-772
451.815	-356
451.885	-840
451.956	-938
452.026	-1379
452.096	-890
452.166	-1128
452.236	-378
452.306	-563
452.376	-1502
452.446	-380
452.516	-1303
452.586	751
452.656	494
452.725	216
452.795	-108
452.865	-523
452.935	-1069
453.005	-56
453.075	-872
453.145	-971
453.215	-769
453.284	-424
453.354	-89
453.424	271
453.494	-117
453.564	24
453.633	-1447
453.703	-965
453.773	-1360
453.843	-910
453.895	-1181
453.912	-1332
453.976	-1273
453.982	-1338
454.052	-636
454.057	-579
454.121	-684
454.139	-795
454.191	-1296
454.220	-975
454.261	-757
454.301	-239
454.330	2
454.382	-540
454.400	-777
454.463	-306
454.469	-328
454.539	225
454.544	271
454.608	90
454.625	300
454.678	427
454.707	563
454.748	424
454.788	649
454.817	688
454.869	811
454.887	831
454.950	522
454.956	447
455.026	642
455.031	774
455.095	1247
455.112	1597
455.165	2239
455.193	2418
455.234	2329
455.274	2220
455.303	1910
455.355	1904
455.373	1871
455.436	2326
455.442	2254
455.512	2066
455.517	2082
455.581	1646
455.598	1644
455.650	1565
455.679	1606
455.720	1542
455.760	1767
455.789	1919
455.841	2428
455.858	2508
455.922	2360
455.928	2297
455.997	2256
456.003	2281
456.066	2185
456.084	2401
456.136	2733
456.165	2761
456.205	2535
456.245	3205
456.274	3519
456.326	3392
456.343	3434
456.407	3637
456.412	3548
456.482	3512
456.488	3530
456.551	3163
456.569	3255
456.620	3748
456.650	3996
456.689	4060
456.730	3851
456.758	3673
456.811	3795
456.827	3904
456.892	5160
456.897	5180
456.966	5588
456.973	5724
457.035	6179
457.054	6103
457.104	5476
457.134	5279
457.173	5136
457.215	5308
457.242	5523
457.296	6152
457.311	6227
457.377	6989
457.380	7050
457.449	9113
457.457	9407
457.518	14326
457.538	15820
457.587	29279
457.619	38950
457.656	54022
457.699	72217
457.725	61183
457.780	38293
457.794	39291
457.861	44252
457.863	45493
457.932	89098
457.941	95894
458.001	97185
458.022	98147
458.070	57584
458.103	28982
458.138	25942
458.183	20426
458.207	23563
458.264	32313
458.276	40461
458.344	88449
458.345	88835
458.414	165091
458.425	178320
458.483	108435
458.506	81044
458.551	50365
458.586	24064
458.620	19929
458.667	14753
458.689	13965
458.747	13416
458.758	13213
458.826	11299
458.828	11300
458.895	11427
458.908	11238
458.964	11599
458.989	12000
459.033	12677
459.069	13267
459.101	13039
459.150	12387
459.170	12413
459.230	13017
459.239	12873
459.307	11063
459.311	11012
459.376	11939
459.391	11968
459.444	11073
459.471	10765
459.513	10887
459.552	10912
459.582	11524
459.632	12988
459.650	12996
459.713	12705
459.719	12726
459.787	12759
459.793	12733
459.856	12722
459.873	12715
459.924	13020
459.954	13300
459.993	14493
460.034	15655
460.061	16618
460.114	18838
460.130	18286
460.195	15058
460.198	14994
460.267	13576
460.275	13395
460.335	14116
460.355	14309
460.404	17273
460.436	19396
460.472	26159
460.516	33839
460.540	34990
460.596	37995
460.609	34430
460.676	14598
460.677	14618
460.745	13311
460.757	13148
460.814	13831
460.837	14015
460.882	15931
460.917	17646
460.950	17314
460.997	15951
461.019	15602
461.077	15090
461.087	15262
461.155	16675
461.158	16671
461.224	15598
461.238	15253
461.292	15238
461.318	15217
461.360	16204
461.398	16949
461.428	18175
461.478	20246
461.496	20877
461.558	22785
461.565	22520
461.633	18878
461.638	18544
461.701	19409
461.719	19397
461.769	19197
461.799	19159
461.837	18751
461.879	18348
461.905	18380
461.959	17956
461.973	18207
462.039	18970
462.042	19048
462.110	19738
462.119	19684
462.178	19317
462.199	19282
462.246	19153
462.279	18747
462.314	20320
462.359	22500
462.382	21980
462.439	20053
462.450	19974
462.518	19180
462.519	19091
462.586	19599
462.599	19697
462.654	20356
462.679	20495
462.722	21577
462.759	22332
462.790	21992
462.839	21164
462.858	21120
462.919	20705
462.926	20768
462.993	20800
462.999	20671
463.061	21737
463.078	22055
463.129	21471
463.158	20859
463.197	21199
463.238	21598
463.265	21782
463.318	21630
463.333	21913
463.398	22848
463.401	22976
463.468	23711
463.478	23711
463.536	23927
463.558	23802
463.604	24844
463.637	25504
463.672	25413
463.717	24884
463.739	26684
463.797	31481
463.807	31003
463.875	26323
463.877	26079
463.943	22726
463.957	21928
464.010	22346
464.036	22299
464.078	22782
464.116	23090
464.146	24362
464.196	26307
464.213	26060
464.275	24533
464.281	24686
464.349	25267
464.355	25182
464.416	25558
464.435	25542
464.484	27406
464.515	28386
464.551	29642
464.594	30854
464.619	30226
464.674	28203
464.686	28083
464.754	26767
464.754	26902
464.821	27105
464.833	27028
464.889	26490
464.913	26137
464.956	27330
464.992	27930
465.024	28315
465.072	28650
465.091	27968
465.152	25217
465.159	25840
465.226	30426
465.231	30612
465.294	33217
465.311	33623
465.361	32305
465.390	31481
465.429	34197
465.470	36550
465.496	34777
465.549	30670
465.563	30238
465.629	27360
465.631	27511
465.698	27755
465.708	27624
465.765	28329
465.788	28441
465.833	28695
465.867	28655
465.900	29806
465.947	30993
465.967	30967
466.026	30250
466.035	30158
466.102	28127
466.106	27854
466.169	29604
466.185	29849
466.236	28727
466.265	27835
466.304	28766
466.344	29538
466.371	32153
466.423	36674
466.438	37605
466.503	40769
466.505	41314
466.572	51027
466.582	52193
466.639	44754
466.662	41498
466.707	37106
466.741	33364
466.774	34048
466.820	34595
466.841	35811
466.900	38495
466.908	38607
466.975	37819
466.979	37561
467.042	38057
467.058	37927
467.109	36073
467.138	34712
467.176	35375
467.217	35677
467.243	36100
467.296	36364
467.310	36872
467.375	38092
467.377	38366
467.455	40618
467.534	36111
467.613	36501
467.692	45442
467.772	43254
467.851	40089
467.930	47386
468.009	55212
468.088	48099
468.167	51179
468.246	63832
468.326	70171
468.405	60624
468.484	47678
468.563	44139
468.642	41156
468.721	41546
468.800	41570
468.879	39824
468.958	43396
469.037	40380
469.116	38615
469.195	37312
469.274	40123
469.353	40014
469.432	37607
469.511	37361
469.590	39403
469.669	44028
469.748	42201
469.827	40474
469.905	44650
469.984	45116
470.063	53025
470.142	74015
470.221	67281
470.300	51414
470.378	43913
470.457	44274
470.536	46540
470.615	44284
470.694	39155
470.772	43058
470.851	49634
470.930	38688
471.008	39404
471.087	38325
471.166	36002
471.245	38190
471.323	38510
471.402	39269
471.480	41785
471.559	41249
471.638	39111
471.716	37767
471.795	39792
471.873	38729
471.952	39082
472.031	41791
472.109	42569
472.188	41287
472.266	38023
472.345	38051
472.423	38166
472.502	39520
472.580	43353
472.659	41957
472.737	43779
472.815	42517
472.894	40091
472.972	38920
473.051	36912
473.129	41175
473.207	43728
473.286	41141
473.364	42553
473.443	51100
473.521	58208
473.599	42010
473.677	39524
473.756	41267
473.834	40473
473.912	40525
473.991	43069
474.069	43542
474.147	39482
474.225	40139
474.303	40587
474.382	39497
474.460	38606
474.538	40330
474.616	42567
474.694	42015
474.772	38340
474.851	37798
474.929	41495
475.007	37867
475.085	37867
475.163	43394
475.241	57380
475.319	42725
475.397	40097
475.475	38105
475.553	41906
475.631	47233
475.709	43069
475.787	40945
475.865	38826
475.943	42048
476.021	48002
476.099	48569
476.177	36720
476.255	37007
476.333	40505
476.410	46623
476.488	44523
476.566	36105
476.644	38603
476.722	39335
476.800	37978
476.877	36255
476.955	34478
477.033	34908
477.111	38398
477.189	39171
477.266	35094
477.344	34038
477.422	35213
477.499	36399
477.577	37624
477.655	35319
477.732	34844
477.810	32855
477.888	33753
477.965	39161
478.043	38841
478.121	45161
478.198	52329
478.276	36422
478.353	36827
478.431	38240
478.508	38872
478.586	32560
478.664	34346
478.741	39042
478.819	41762
478.896	36207
478.974	33389
479.051	33658
479.128	36709
479.206	32329
479.283	32301
479.361	30562
479.438	33386
479.516	33285
479.593	34497
479.670	35733
479.748	33743
479.825	36496
479.902	38273
479.980	34785
480.057	31445
480.134	32561
480.211	31303
480.289	31081
480.366	36957
480.443	38218
480.520	38593
480.598	34971
480.675	34210
480.752	35028
480.829	34051
480.906	32824
480.984	34800
481.061	33863
481.138	30964
481.215	31022
481.292	35074
481.369	37095
481.446	34951
481.523	35249
481.600	35579
481.677	31590
481.754	32390
481.831	39418
481.908	39155
481.985	38126
482.062	41481
482.139	57053
482.216	62323
482.293	38092
482.370	37505
482.447	40139
482.524	35433
482.601	32802
482.678	32449
482.755	35600
482.832	33737
482.908	34416
482.985	39450
483.062	40985
483.139	41834
483.216	41897
483.293	40677
483.369	40789
483.446	35704
483.523	32385
483.600	32970
483.676	33740
483.753	32532
483.830	36298
483.906	47360
483.983	44551
484.060	47853
484.136	48434
484.213	44598
484.290	42841
484.366	39091
484.443	43733
484.519	49048
484.596	47983
484.673	43725
484.749	40244
484.826	38323
484.902	38109
484.979	38631
485.055	37557
485.132	39724
485.208	40590
485.285	40510
485.361	42692
485.437	43464
485.514	37252
485.590	38829
485.667	39971
485.743	48102
485.819	68982
485.896	41524
485.972	40978
486.049	41146
486.125	41875
486.201	38840
486.277	37544
486.354	37319
486.430	37868
486.506	41793
486.583	44472
486.659	49650
486.735	47002
486.811	52050
486.887	67783
486.964	129330
487.040	112420
487.116	66707
487.192	50402
487.268	54338
487.344	65789
487.420	81261
487.497	116843
487.573	290468
487.649	743544
487.725	401109
487.801	105131
487.877	64099
487.953	61530
488.029	59405
488.105	48836
488.181	47596
488.257	46411
488.333	53543
488.409	48075
488.485	46807
488.561	45345
488.637	45885
488.712	53942
488.788	58241
488.864	95864
488.940	185401
489.016	171960
489.092	51390
489.168	45623
489.243	42964
489.319	40405
489.395	39763
489.471	42497
489.547	40758
489.622	41277
489.698	42813
489.774	49625
489.849	51539
489.925	43210
490.001	42230
490.076	47899
490.152	62835
490.228	53836
490.303	43087
490.379	41687
490.455	40093
490.530	42725
490.606	43050
490.681	43891
490.757	47363
490.833	48288
490.908	47933
490.984	47381
491.059	43505
491.135	46685
491.210	51850
491.286	44390
491.361	46193
491.436	45695
491.512	47839
491.587	53007
491.663	74212
491.738	142090
491.814	132790
491.889	276308
491.964	95053
492.040	47388
492.115	46684
492.190	46032
492.266	48276
492.341	45824
492.416	43727
492.491	42658
492.567	45441
492.642	47658
492.717	41460
492.792	42860
492.868	42586
492.943	40951
493.018	42231
493.093	44973
493.168	50856
493.243	61240
493.318	47074
493.394	44077
493.469	42340
493.544	43746
493.619	46950
493.694	57978
493.769	54077
493.844	44461
493.919	41925
493.994	41308
494.069	40342
494.144	40332
494.219	40362
494.294	41783
494.369	43051
494.444	45393
494.519	44441
494.594	40135
494.669	41554
494.744	43397
494.818	43424
494.893	41519
494.968	40322
495.043	41461
495.118	43641
495.193	44596
495.267	47948
495.342	53168
495.417	57318
495.492	106057
495.566	338930
495.641	284825
495.716	54540
495.791	42283
495.865	43341
495.940	41653
496.015	41358
496.089	41989
496.164	39195
496.239	38648
496.313	40960
496.388	44038
496.462	50070
496.537	41191
496.612	41534
496.686	43035
496.761	40387
496.835	40618
496.910	42714
496.984	39277
497.059	39061
497.133	42009
497.208	42471
497.282	40529
497.357	40132
497.431	40491
497.505	39189
497.580	41293
497.654	45212
497.729	47040
497.803	46083
497.877	53714
497.952	90110
498.026	172479
498.100	73847
498.175	63403
498.249	55629
498.323	48113
498.397	56157
498.472	42130
498.546	37298
498.620	36938
498.694	42812
498.768	45489
498.843	51033
498.917	110262
498.991	96912
499.065	37504
499.139	37595
499.213	41483
499.287	41420
499.362	37385
499.436	38309
499.510	38554
499.584	38439
499.658	41142
499.732	64086
499.806	109145
499.880	43023
499.954	44944
500.028	56871
500.102	42499
500.176	37304
500.250	37763
500.324	44595
500.397	70007
500.471	91880
500.545	94272
500.619	62038
500.693	37371
500.767	35998
500.841	34891
500.914	34441
500.988	43748
501.062	58633
501.136	44624
501.210	60033
501.283	92537
501.357	54227
501.431	42464
501.505	38872
501.578	31690
501.652	37865
501.726	36756
501.799	42529
501.873	47606
501.947	34079
502.020	40939
502.094	49512
502.167	43441
502.241	33586
502.315	42729
502.388	39373
502.462	35305
502.535	36983
502.609	33522
502.682	34019
502.756	29495
502.829	30846
502.903	32648
502.976	30640
503.050	29527
503.123	29174
503.196	29807
503.270	32096
503.343	34686
503.417	54144
503.490	57779
503.563	41056
503.637	44670
503.710	56141
503.783	63820
503.857	95702
503.930	163805
504.003	354169
504.076	199099
504.150	74509
504.223	53367
504.296	41575
504.369	36528
504.443	33235
504.516	33729
504.589	32798
504.662	35137
504.735	35419
504.808	51263
504.881	40238
504.954	33302
505.028	44270
505.101	33467
505.174	30853
505.247	27808
505.320	28749
505.393	29684
505.466	28751
505.539	27630
505.612	30660
505.685	25227
505.758	29281
505.831	28816
505.904	28339
505.977	27747
506.049	30089
506.122	27278
506.195	28745
506.268	44480
506.341	55251
506.414	31809
506.487	26370
506.559	28179
506.632	31772
506.705	37771
506.778	31852
506.851	28028
506.923	29345
506.996	30141
507.069	27404
507.141	27249
507.214	28297
507.287	40252
507.360	33714
507.432	26650
507.505	27205
507.577	28736
507.650	33420
507.723	33229
507.795	40791
507.868	28083
507.940	27118
508.013	29350
508.086	27641
508.158	33472
508.231	26894
508.303	27549
508.376	28892
508.448	25236
508.520	26175
508.593	27615
508.665	26101
508.738	28346
508.810	30423
508.883	27410
508.955	25302
509.027	23387
509.100	26850
509.172	28352
509.244	27743
509.317	25852
509.389	24318
509.461	26379
509.534	28714
509.606	28857
509.678	35341
509.750	34146
509.822	26771
509.895	26016
509.967	23053
510.039	28514
510.111	30925
510.183	27377
510.255	27984
510.328	26789
510.400	28545
510.472	28189
510.544	32631
510.616	39106
510.688	26501
510.760	27274
510.832	34503
510.904	36264
510.976	28581
511.048	29076
511.120	28687
511.192	27841
511.264	24233
511.336	24780
511.408	25891
511.480	26185
511.552	28586
511.624	30833
511.695	25240
511.767	23784
511.839	25661
511.911	26954
511.983	26815
512.055	30751
512.126	31723
512.198	35357
512.270	32875
512.342	34257
512.414	32050
512.485	29191
512.557	30062
512.629	32595
512.700	31858
512.772	28788
512.844	27698
512.915	28355
512.987	31391
513.059	29726
513.130	34395
513.202	46652
513.273	37304
513.345	31856
513.416	28905
513.488	32238
513.560	36788
513.631	34302
513.703	40032
513.774	77522
513.845	52841
513.917	31460
513.988	31224
514.060	34368
514.131	38782
514.203	34389
514.274	28970
514.345	32946
514.417	33304
514.488	32345
514.560	30632
514.631	34508
514.702	33631
514.773	33377
514.845	31579
514.916	34031
514.987	33658
515.059	38560
515.130	32993
515.201	31995
515.272	30077
515.343	29638
515.414	31568
515.486	33524
515.557	32161
515.628	33013
515.699	34411
515.770	36603
515.841	32615
515.912	34638
515.983	37444
516.055	43571
516.126	49687
516.197	45486
516.268	47581
516.339	60535
516.410	76886
516.481	126890
516.552	439434
516.622	505739
516.693	77309
516.764	68011
516.835	74712
516.906	95835
516.977	159824
517.048	372945
517.119	1282454
517.190	358803
517.260	72638
517.331	44778
517.402	43227
517.473	43131
517.544	40916
517.614	46054
517.685	47348
517.756	55754
517.827	64851
517.897	78172
517.968	102299
518.039	140217
518.109	296936
518.180	1226031
518.250	1288490
518.321	136279
518.392	72378
518.462	72658
518.533	87086
518.603	124473
518.674	252000
518.745	419115
518.815	161342
518.886	74012
518.956	68709
519.027	80323
519.097	87957
519.168	61423
519.238	40112
519.309	50030
519.379	52880
519.449	39544
519.520	36018
519.590	33946
519.660	31615
519.731	33896
519.801	31120
519.871	31185
519.942	32382
520.012	32604
520.082	40216
520.153	34443
520.223	29869
520.293	34219
520.363	30184
520.434	32684
520.504	30351
520.574	28659
520.644	33014
520.714	41054
520.784	33354
520.855	43855
520.925	46986
520.995	31272
521.065	29773
521.135	27802
521.205	29466
521.275	28732
521.345	32967
521.415	35762
521.485	38397
521.555	32510
521.625	33052
521.695	30131
521.765	30014
521.835	27491
521.905	27830
521.975	28147
522.045	27143
522.115	30053
522.185	29119
522.254	32861
522.324	34362
522.394	35503
522.464	44111
522.534	109110
522.603	105757
522.673	31280
522.743	29747
522.813	34899
522.883	33588
522.952	30580
523.022	35352
523.092	54929
523.161	110527
523.231	37114
523.301	26439
523.370	28399
523.440	27586
523.509	26707
523.579	24505
523.649	24493
523.718	26721
523.788	25218
523.857	25484
523.927	26640
523.996	25485
524.066	25498
524.135	29121
524.205	24559
524.274	24338
524.344	25212
524.413	25895
524.483	22881
524.552	23904
524.621	23571
524.691	25066
524.760	24690
524.830	24723
524.899	29336
524.968	25367
525.038	24120
525.107	25229
525.176	26263
525.245	27053
525.315	28215
525.384	26680
525.453	28071
525.522	29702
525.591	35706
525.661	40030
525.730	49788
525.799	67403
525.868	109275
525.937	168961
526.006	465625
526.076	668061
526.145	235328
526.214	212168
526.283	497058
526.352	425269
526.421	881286
526.490	216780
526.559	106691
526.628	101170
526.697	143922
526.766	354048
526.835	915732
526.904	1219512
526.973	157398
527.042	53390
527.110	39542
527.179	40558
527.248	29212
527.317	27738
527.386	24145
527.455	23772
527.523	23530
527.592	23923
527.661	22795
527.730	24626
527.799	22719
527.867	21930
527.936	23556
528.005	30769
528.074	31348
528.142	26165
528.211	38796
528.280	27132
528.348	21888
528.417	19051
528.485	19800
528.554	19861
528.623	18594
528.691	20243
528.760	17952
528.828	20187
528.897	18863
528.965	19865
529.034	20666
529.102	19333
529.171	22563
529.239	21103
529.308	19500
529.376	18634
529.445	21332
529.513	19561
529.581	20402
529.650	22060
529.718	22649
529.786	20981
529.855	20941
529.923	20814
529.992	23452
530.060	27952
530.128	26139
530.196	22652
530.265	20353
530.333	19584
530.401	19540
530.469	17698
530.537	20255
530.606	21467
530.674	19524
530.742	20406
530.810	20999
530.878	19780
530.946	22185
531.014	20062
531.083	21636
531.151	19283
531.219	19718
531.287	20658
531.355	18063
531.423	19992
531.491	21191
531.559	20264
531.627	19923
531.695	20179
531.763	19677
531.831	19512
531.898	20512
531.966	22580
532.034	23861
532.102	25914
532.170	30024
532.238	48882
532.306	59742
532.374	28731
532.441	28757
532.509	32728
532.577	55694
532.645	182787
532.712	117212
532.780	26543
532.848	21316
532.916	20025
532.983	19467
533.051	20138
533.119	21775
533.186	21615
533.254	21229
533.322	21752
533.389	20697
533.457	20966
533.524	19175
533.592	19721
533.659	20680
533.727	20084
533.794	24872
533.862	34566
533.930	34035
533.997	32643
534.064	21655
534.132	21983
534.199	22076
534.267	22768
534.334	23609
534.402	25294
534.469	29396
534.536	33585
534.604	40272
534.671	58407
534.738	133035
534.806	400146
534.873	105682
534.940	28084
535.008	22461
535.075	21781
535.142	20874
535.209	21340
535.276	18717
535.344	19971
535.411	19769
535.478	18712
535.545	21077
535.612	22399
535.679	21717
535.747	20840
535.814	20288
535.881	19231
535.948	21404
536.015	21103
536.082	20410
536.149	20498
536.216	21530
536.283	24605
536.350	29445
536.417	24276
536.484	24731
536.551	29418
536.618	31378
536.685	26052
536.752	27838
536.818	38516
536.885	44645
536.952	64594
537.019	129452
537.086	30091
537.153	21427
537.219	21672
537.286	19183
537.353	19097
537.420	19372
537.487	20130
537.553	19983
537.620	20639
537.687	19689
537.753	20802
537.820	22385
537.887	20953
537.953	20344
538.020	22046
538.087	24922
538.153	36104
538.220	37532
538.286	22215
538.353	21591
538.419	20693
538.486	19332
538.553	20411
538.619	19869
538.685	19309
538.752	20784
538.818	22149
538.885	19434
538.951	20170
539.018	21244
539.084	23026
539.150	26483
539.217	28032
539.283	22448
539.350	24881
539.416	25224
539.482	28716
539.549	62165
539.615	51611
539.681	22198
539.747	21912
539.814	20813
539.880	23650
539.946	23345
540.012	23427
540.078	23922
540.145	26280
540.211	35201
540.277	46913
540.343	38225
540.409	69655
540.475	63295
540.541	23409
540.607	22429
540.673	22165
540.740	23012
540.806	24019
540.872	24882
540.937	30535
541.004	25884
541.069	21874
541.135	23904
541.201	24280
541.267	26878
541.333	34125
541.399	34185
541.465	23985
541.531	21498
541.597	22078
541.663	22056
541.728	20730
541.794	21735
541.860	22449
541.926	23494
541.992	25233
542.057	24420
542.123	27219
542.189	32771
542.255	45063
542.320	32575
542.386	24302
542.452	23697
542.517	23027
542.583	24301
542.648	26645
542.714	29554
542.780	51280
542.845	84843
542.911	28774
542.976	23905
543.042	23938
543.107	24909
543.173	27581
543.238	31145
543.304	53024
543.369	36660
543.435	24169
543.500	22529
543.566	25818
543.631	23598
543.697	24318
543.762	23054
543.827	23170
543.893	22750
543.958	23965
544.023	22955
544.089	25155
544.154	26385
544.219	26038
544.284	29766
544.350	33281
544.415	32723
544.480	38930
544.545	79371
544.610	42973
544.676	26235
544.741	27336
544.806	25151
544.871	25769
544.936	25539
545.001	26337
545.066	28211
545.132	28134
545.197	28378
545.262	30759
545.327	36000
545.392	56100
545.457	54053
545.522	29190
545.587	28566
545.652	28130
545.717	28851
545.781	27303
545.846	29769
545.911	29427
545.976	32044
546.041	30255
546.106	33421
546.171	35508
546.236	34366
546.300	32999
546.365	30753
546.430	32295
546.495	34158
546.559	34180
546.624	34173
546.689	35325
546.754	36362
546.818	38873
546.883	40466
546.948	44035
547.012	47064
547.077	50722
547.142	55319
547.206	59202
547.271	61723
547.335	61421
547.400	64233
547.464	66151
547.529	65380
547.594	62457
547.658	59789
547.722	60259
547.787	62165
547.852	63236
547.916	65281
547.980	64988
548.045	65040
548.109	67342
548.174	69664
548.238	65819
548.302	61455
548.367	59496
548.431	60909
548.495	60247
548.560	63900
548.624	68403
548.688	69743
548.752	65657
548.817	64327
548.881	60993
548.945	57789
549.009	56901
549.073	61006
549.138	66354
549.202	70414
549.266	67712
549.330	66022
549.394	64450
549.458	67352
549.522	75114
549.586	77560
549.650	83392
549.715	86401
549.779	81141
549.843	83132
549.907	85411
549.971	83318
550.034	78229
550.098	74898
550.162	72534
550.226	72022
550.290	75075
550.354	80074
550.418	86767
550.482	94167
550.546	103470
550.609	98831
550.673	97895
550.737	100904
550.801	105377
550.865	109920
550.928	119573
550.992	130888
551.056	148467
551.120	177293
551.183	157882
551.247	114664
551.311	105741
551.374	101777
551.438	99384
551.502	91789
551.565	87693
551.629	86111
551.692	85166
551.756	82234
551.819	81498
551.883	81462
551.946	82315
552.010	82800
552.073	84469
552.137	81942
552.200	78377
552.264	76743
552.327	76554
552.391	80953
552.454	79030
552.517	81252
552.581	80993
552.644	86809
552.708	103631
552.771	98363
552.834	82127
552.897	78356
552.961	78305
553.024	74579
553.087	77146
553.151	78235
553.214	77700
553.277	80722
553.340	82118
553.403	85702
553.466	81408
553.530	81521
553.593	81222
553.656	82752
553.719	78351
553.782	78374
553.845	78490
553.908	75740
553.971	78247
554.034	75687
554.097	73984
554.160	76200
554.223	77453
554.286	77881
554.349	81163
554.412	76716
554.475	76239
554.538	76372
554.601	76282
554.664	73636
554.727	73084
554.789	69414
554.852	66435
554.915	67191
554.978	70223
555.041	68942
555.104	67559
555.166	68746
555.229	67739
555.292	64105
555.354	65748
555.417	63997
555.480	60561
555.542	58601
555.605	58899
555.668	60103
555.730	57054
555.793	55999
555.856	55171
555.918	55501
555.981	55913
556.043	55615
556.106	56419
556.168	55522
556.231	55068
556.293	55059
556.356	52824
556.418	53193
556.481	52665
556.543	49985
556.606	48616
556.668	50070
556.730	50309
556.793	52904
556.855	55191
556.918	48753
556.980	48045
557.042	48304
557.104	54962
557.167	61954
557.229	46397
557.291	43423
557.354	42933
557.416	44438
557.478	48385
557.540	45717
557.602	42880
557.664	45080
557.727	49691
557.789	53131
557.851	61465
557.913	74461
557.975	107740
558.037	241699
558.099	234609
558.161	62700
558.223	59508
558.285	61564
558.347	71130
558.409	85651
558.471	107374
558.533	155957
558.595	211346
558.657	354573
558.719	917912
558.781	814813
558.843	280429
558.905	284932
558.966	96009
559.028	87859
559.090	100233
559.152	135525
559.214	218450
559.275	511982
559.337	701708
559.399	146970
559.461	91453
559.522	103432
559.584	139630
559.646	237341
559.707	581927
559.769	307623
559.831	97717
559.892	115637
559.954	214974
560.015	311155
560.077	147174
560.139	268485
560.200	169175
560.262	49474
560.323	45127
560.385	40434
560.446	39840
560.508	40074
560.569	37636
560.631	38113
560.692	37944
560.753	39294
560.815	39684
560.876	39134
560.937	37971
560.999	39060
561.060	39222
561.122	38847
561.183	39379
561.244	43056
561.305	44826
561.367	51784
561.428	71612
561.489	53121
561.550	38563
561.612	38220
561.673	38087
561.734	39633
561.795	40105
561.856	40257
561.917	39079
561.978	38525
562.039	39189
562.101	40386
562.162	38634
562.223	39888
562.284	41532
562.345	44354
562.406	41667
562.467	39582
562.528	39070
562.589	39022
562.649	39764
562.710	39797
562.771	39293
562.832	39101
562.893	40384
562.954	40072
563.015	40293
563.076	37910
563.136	39042
563.197	40088
563.258	39465
563.319	39446
563.380	38381
563.440	40323
563.501	39714
563.562	40291
563.622	40101
563.683	39382
563.744	38992
563.804	38268
563.865	38251
563.926	38199
563.986	37921
564.047	38045
564.107	38844
564.168	38871
564.229	38366
564.289	39671
564.350	37213
564.410	37078
564.471	37697
564.531	36487
564.591	36210
564.652	37440
564.712	37066
564.773	37920
564.833	38183
564.893	36702
564.954	37807
565.014	35606
565.074	35324
565.135	36729
565.195	35014
565.255	36661
565.316	36210
565.376	35206
565.436	36100
565.496	34770
565.557	35972
565.617	36157
565.677	36141
565.737	38918
565.797	35755
565.857	34734
565.917	34183
565.978	35005
566.038	33728
566.098	36334
566.158	36486
566.218	33862
566.278	33624
566.338	34571
566.398	34661
566.458	33818
566.518	32641
566.578	32567
566.638	32604
566.698	31762
566.757	32498
566.817	33290
566.877	34439
566.937	32539
566.997	31716
567.057	32782
567.116	32429
567.176	31481
567.236	32660
567.296	33178
567.355	31269
567.415	32557
567.475	31404
567.535	30974
567.594	31439
567.654	30565
567.714	31116
567.773	31700
567.833	30881
567.892	31648
567.952	32117
568.012	33779
568.071	35360
568.131	38760
568.190	38776
568.250	35777
568.309	36255
568.369	35581
568.428	32715
568.488	33659
568.547	35715
568.607	37231
568.666	41107
568.725	45575
568.785	40873
568.844	35983
568.903	34983
568.963	32471
569.022	31817
569.081	29597
569.141	29863
569.200	28978
569.259	29176
569.318	27050
569.378	26501
569.437	27961
569.496	27388
569.555	26565
569.614	28068
569.673	27443
569.732	28699
569.792	26848
569.851	26981
569.910	26680
569.969	26859
570.028	28228
570.087	26093
570.146	26040
570.205	27637
570.264	27556
570.323	26449
570.382	26292
570.441	26975
570.500	27179
570.559	26058
570.618	26107
570.676	27530
570.735	28861
570.794	28593
570.853	28094
570.912	26442
570.971	26503
571.029	25651
571.088	25860
571.147	25349
571.206	25645
571.264	25146
571.323	24085
571.382	25916
571.440	24961
571.499	25106
571.558	25845
571.616	27242
571.675	27805
571.733	26156
571.792	24578
571.851	23661
571.909	24590
571.968	23422
572.026	25057
572.085	24253
572.143	24766
572.202	26358
572.260	24668
572.319	24312
572.377	24332
572.435	24819
572.494	24438
572.552	26011
572.611	24460
572.669	23584
572.727	23353
572.786	22798
572.844	23705
572.902	23904
572.960	23729
573.019	24400
573.077	23716
573.135	24723
573.193	23680
573.251	23743
573.310	24034
573.368	23776
573.426	24162
573.484	24998
573.542	24155
573.600	24035
573.658	23770
573.716	22934
573.774	23524
573.832	23552
573.891	23709
573.948	23959
574.006	23248
574.064	23815
574.122	23399
574.180	24086
574.238	24347
574.296	23286
574.354	24100
574.412	22761
574.470	23080
574.528	23534
574.585	22873
574.643	22707
574.701	22985
574.759	22503
574.817	22119
574.874	21010
574.932	21748
574.990	22064
575.047	21335
575.105	22813
575.163	22025
575.221	23284
575.278	22258
575.336	23293
575.393	23384
575.451	22211
575.509	22250
575.566	22672
575.624	22456
575.681	22345
575.739	23480
575.796	22513
575.854	22076
575.911	21622
575.969	21629
576.026	22157
576.083	22648
576.141	23968
576.198	25201
576.256	23942
576.313	23877
576.370	22958
576.428	23465
576.485	22120
576.542	22421
576.599	22197
576.657	22816
576.714	21332
576.771	23351
576.828	22521
576.886	22645
576.943	22392
577.000	21582
577.057	22134
577.114	22749
577.171	22505
577.228	22268
577.286	23318
577.343	22234
577.400	22540
577.457	21474
577.514	21323
577.571	21637
577.628	21206
577.685	22569
577.742	23320
577.799	21677
577.855	22051
577.912	22100
577.969	22198
578.026	23434
578.083	21318
578.140	22685
578.197	23260
578.254	22111
578.310	22988
578.367	22801
578.424	22950
578.481	21402
578.537	22430
578.594	21497
578.651	21969
578.707	21978
578.764	22524
578.821	23023
578.877	23551
578.934	21894
578.991	21506
579.047	22623
579.104	21643
579.160	22122
579.217	22458
579.273	22559
579.330	22109
579.387	22131
579.443	22147
579.499	22255
579.556	22428
579.612	22815
579.669	22532
579.725	22438
579.782	22416
579.838	21947
579.894	23854
579.951	24432
580.007	23112
580.063	23018
580.120	23120
580.176	22252
580.232	22310
580.288	23858
580.345	23724
580.401	22984
580.457	23896
580.513	24004
580.569	23016
580.619	22831
580.625	22902
580.682	23333
580.692	23171
580.738	22948
580.765	23183
580.794	23621
580.838	23408
580.850	23469
580.906	23362
580.911	23194
580.962	22421
580.984	22556
581.018	22991
581.057	23217
581.074	23439
581.130	22569
581.130	22653
581.186	22923
581.203	22733
581.242	22602
581.276	22438
581.298	22448
581.349	22220
581.354	22288
581.410	21781
581.422	21693
581.466	21702
581.494	22264
581.522	23013
581.567	23652
581.577	23873
581.633	21347
581.640	21195
581.689	20857
581.713	21047
581.745	21437
581.786	21510
581.801	21625
581.857	20499
581.859	20508
581.912	22552
581.932	21860
581.968	20851
582.004	20952
582.024	21014
582.077	20751
582.080	20826
582.135	20980
582.150	21062
582.191	21468
582.223	20894
582.247	20577
582.296	20639
582.302	20728
582.358	20715
582.368	20644
582.414	20859
582.441	20590
582.469	20243
582.514	20470
582.525	20680
582.581	21032
582.587	20936
582.636	20434
582.659	20412
582.692	20673
582.732	20382
582.747	20305
582.803	20432
582.805	20360
582.858	20341
582.877	20205
582.914	20034
582.950	20253
582.969	20438
583.023	20112
583.025	20172
583.080	20649
583.095	20318
583.135	19515
583.168	19521
583.191	19587
583.240	19661
583.246	19736
583.302	19126
583.313	19104
583.357	19345
583.385	19807
583.412	20346
583.458	19478
583.468	19321
583.523	19521
583.531	19306
583.578	18469
583.603	18855
583.634	19324
583.676	19173
583.689	19203
583.744	18353
583.748	18378
583.799	19426
583.820	19300
583.854	19231
583.893	18932
583.910	18776
583.965	17956
583.965	17919
584.020	18546
584.038	18555
584.075	18613
584.110	18724
584.130	18883
584.183	18410
584.185	18413
584.240	18456
584.255	18190
584.296	17829
584.328	18011
584.351	18078
584.400	17075
584.406	17044
584.461	18262
584.472	18407
584.516	18648
584.545	18426
584.571	18462
584.617	18277
584.626	18279
584.681	18525
584.689	18553
584.736	18858
584.762	18666
584.791	18564
584.834	18549
584.846	18552
584.900	19754
584.906	19723
584.955	19694
584.978	19810
585.010	20292
585.051	20979
585.065	21088
585.120	22252
585.123	22289
585.175	24283
585.195	25201
585.230	26509
585.267	28964
585.284	30227
585.339	35015
585.340	35020
585.394	42291
585.412	46331
585.449	54991
585.484	66218
585.503	72535
585.556	100527
585.558	101738
585.613	178446
585.628	180390
585.667	188374
585.700	116492
585.722	69559
585.772	45917
585.777	42886
585.831	29175
585.845	26375
585.886	23109
585.917	21425
585.941	20437
585.989	19313
585.995	19260
586.050	18652
586.061	18608
586.104	18598
586.133	18148
586.159	17758
586.205	17267
586.213	17160
586.268	18281
586.277	18180
586.322	17948
586.349	17897
586.377	17648
586.421	17338
586.431	17361
586.486	17994
586.493	18116
586.540	18642
586.565	18529
586.595	18512
586.637	19083
586.649	19185
586.703	19221
586.709	19025
586.758	17672
586.781	17371
586.812	16504
586.853	16603
586.866	16808
586.921	16467
586.925	16512
586.975	16682
586.996	16557
587.029	16305
587.068	16139
587.083	16214
587.138	17095
587.140	17125
587.192	17639
587.212	17636
587.246	17248
587.284	17253
587.300	17317
587.355	17222
587.356	17240
587.409	17257
587.427	17358
587.463	17823
587.499	18274
587.517	18203
587.571	18229
587.571	18210
587.625	17109
587.643	17398
587.679	18033
587.715	18046
587.733	18064
587.786	18972
587.787	18956
587.841	18666
587.858	18963
587.895	19837
587.930	20146
587.949	20360
588.001	21168
588.003	21136
588.057	21517
588.073	21711
588.111	22401
588.145	23276
588.165	23885
588.217	25685
588.219	25706
588.273	28267
588.288	28905
588.327	30901
588.360	33680
588.381	34966
588.431	40104
588.435	40397
588.489	47973
588.503	50756
588.542	57303
588.575	64860
588.596	69699
588.646	87235
588.650	88229
588.704	113594
588.718	123782
588.757	151822
588.789	183963
588.811	206830
588.861	294888
588.865	302239
588.919	310120
588.932	284266
588.972	215061
589.004	208460
589.026	164667
589.075	101876
589.080	98632
589.133	68163
589.147	62081
589.187	60881
589.218	63354
589.241	66160
589.290	76808
589.294	77402
589.348	96441
589.361	104149
589.401	126598
589.433	163707
589.455	192829
589.504	220700
589.508	223834
589.562	166539
589.576	167562
589.615	119336
589.647	98986
589.669	78177
589.718	35810
589.722	35025
589.776	27967
589.790	26405
589.829	24010
589.861	22483
589.883	21683
589.932	20677
589.936	20524
589.989	19795
590.004	19719
590.043	19537
590.075	19656
590.096	19138
590.146	18335
590.149	18238
590.203	18585
590.218	18763
590.256	18297
590.289	17971
590.309	17743
590.360	17864
590.362	17736
590.416	17450
590.431	17517
590.469	17594
590.503	17718
590.522	17369
590.574	17265
590.575	17165
590.629	17617
590.645	18022
590.682	17401
590.716	16930
590.735	16973
590.787	17523
590.788	17387
590.841	17275
590.859	17303
590.894	17060
590.930	17140
590.947	16750
591.000	16046
591.001	16186
591.053	16675
591.072	17184
591.106	16778
591.143	16509
591.159	16326
591.212	16202
591.214	16360
591.265	16127
591.285	16175
591.318	16312
591.356	16937
591.371	16589
591.424	15769
591.427	15897
591.477	15493
591.498	15532
591.530	15386
591.569	15626
591.583	15294
591.636	14734
591.640	14854
591.689	14782
591.711	15071
591.741	14837
591.782	14940
591.794	14785
591.847	14905
591.853	15113
591.900	15078
591.924	15349
591.953	14897
591.995	14713
592.005	14547
592.058	14740
592.066	14964
592.111	14615
592.137	14744
592.164	14486
592.208	14636
592.216	14340
592.269	13803
592.279	13907
592.322	13989
592.350	14447
592.374	14008
592.421	13792
592.427	13530
592.479	13240
592.491	13408
592.532	12824
592.562	12554
592.585	12596
592.633	12924
592.704	12363
592.775	13753
592.846	12865
592.916	14523
592.987	14032
593.058	13641
593.128	13310
593.199	14199
593.270	13966
593.341	14402
593.411	13879
593.482	14120
593.553	15672
593.623	14948
593.694	14314
593.764	15353
593.835	14947
593.906	15078
593.976	14653
594.047	15080
594.117	15492
594.188	15221
594.258	15512
594.329	16130
594.399	15343
594.470	15969
594.540	16653
594.611	16423
594.681	15751
594.751	16700
594.822	16183
594.892	16235
594.963	16600
595.033	16547
595.103	15946
595.174	16590
595.244	16690
595.314	17180
595.384	16147
595.455	17517
595.525	16488
595.595	17590
595.665	17032
595.736	16845
595.806	16820
595.876	16603
595.946	16762
596.016	16808
596.087	16995
596.157	16885
596.227	16198
596.297	16940
596.367	17954
596.437	17903
596.507	17568
596.577	17371
596.647	18001
596.717	17845
596.787	17871
596.857	18193
596.927	17581
596.997	17090
597.067	17190
597.137	19176
597.207	17045
597.277	16708
597.347	16322
597.417	16358
597.487	16137
597.557	17287
597.626	16858
597.696	16882
597.766	16170
597.836	16306
597.906	14689
597.975	14938
598.045	14168
598.115	15556
598.185	15142
598.254	18172
598.324	17510
598.394	16899
598.464	16520
598.533	17368
598.603	15701
598.672	15684
598.742	15771
598.812	15767
598.881	14636
598.951	16176
599.020	15867
599.090	16636
599.159	15870
599.229	16238
599.299	14595
599.368	15789
599.437	15169
599.507	14859
599.576	13784
599.646	14394
599.715	13054
599.785	12959
599.854	12268
599.924	13496
599.993	12334
600.062	13085
600.132	12560
600.201	14351
600.270	15101
600.340	14985
600.409	14780
600.478	15382
600.547	14628
600.617	15115
600.686	11108
600.755	11028
600.824	10781
600.894	10370
600.963	10367
601.032	10279
601.101	9827
601.170	9156
601.239	9359
601.308	8956
601.378	9378
601.447	9653
601.516	8895
601.585	9572
601.654	9270
601.723	10476
601.792	9040
601.861	9078
601.930	9433
601.999	9814
602.068	9735
602.137	10108
602.206	9788
602.275	10199
602.343	9458
602.412	10193
602.481	9973
602.550	10455
602.619	9519
602.688	9992
602.756	9978
602.825	9900
602.894	10054
602.963	11499
603.032	10267
603.100	11163
603.169	9895
603.238	10986
603.307	10706
603.375	11457
603.444	11105
603.513	11405
603.581	10805
603.650	10912
603.719	10084
603.787	10459
603.856	11250
603.924	12460
603.993	11792
604.061	12614
604.130	12048
604.198	13696
604.267	13257
604.335	13550
604.404	13560
604.472	13686
604.541	12427
604.609	13146
604.678	14092
604.746	13758
604.815	14181
604.883	13917
604.951	14265
605.020	15818
605.088	14600
605.156	15034
605.225	14693
605.293	15011
605.361	14708
605.429	15347
605.498	15057
605.566	15231
605.634	16370
605.702	17827
605.771	17459
605.839	18153
605.907	17024
605.975	17874
606.043	17139
606.111	16639
606.180	17118
606.248	16180
606.316	16137
606.384	14948
606.452	15359
606.520	15730
606.588	17275
606.656	17068
606.724	15335
606.792	15604
606.860	14054
606.928	13491
606.996	12294
607.064	11606
607.132	12159
607.200	13665
607.267	13030
607.335	13746
607.403	13949
607.471	14268
607.539	12560
607.607	12734
607.674	11090
607.742	11412
607.810	10906
607.878	11851
607.946	11091
608.013	12010
608.081	12225
608.149	13066
608.216	12309
608.284	13570
608.352	13308
608.419	12591
608.487	12364
608.555	12707
608.622	13006
608.690	14556
608.757	14242
608.825	15320
608.893	14276
608.960	14125
609.028	12500
609.095	14000
609.163	12534
609.230	12379
609.298	10830
609.365	11784
609.432	12401
609.500	13257
609.567	15588
609.635	17600
609.702	18301
609.769	17694
609.837	13774
609.904	11687
609.971	11184
610.039	13918
610.106	15987
610.173	23755
610.241	43373
610.308	33639
610.375	14894
610.442	11934
610.509	11038
610.577	12391
610.644	11463
610.711	12908
610.778	14070
610.845	13721
610.912	13788
610.980	14576
611.047	14140
611.114	14656
611.181	14092
611.248	13299
611.315	14584
611.382	15209
611.449	15180
611.516	15881
611.583	15794
611.650	15424
611.717	15925
611.784	16031
611.851	16357
611.918	18024
611.984	18895
612.051	27148
612.118	42379
612.185	79409
612.252	64881
612.319	22873
612.386	19254
612.452	18109
612.519	17385
612.586	17597
612.653	17282
612.719	18122
612.786	16914
612.853	15668
612.919	14965
612.986	16198
613.053	14715
613.120	14279
613.186	12974
613.253	14354
613.319	13417
613.386	13822
613.453	13174
613.519	14402
613.586	13203
613.652	14497
613.719	12929
613.785	14471
613.852	13533
613.918	13465
613.985	14146
614.051	13800
614.118	13801
614.184	13402
614.250	13091
614.317	14289
614.383	13765
614.449	13529
614.516	13229
614.582	13895
614.648	12710
614.715	12808
614.781	13060
614.847	12967
614.914	12988
614.980	12018
615.046	12883
615.112	12272
615.179	12703
615.245	12977
615.311	12652
615.377	12349
615.443	13031
615.509	13278
615.575	13608
615.642	15075
615.708	13423
615.774	14127
615.840	15073
615.906	16831
615.972	19290
616.038	26703
616.104	46267
616.170	84892
616.236	87173
616.302	28274
616.368	19744
616.434	15689
616.500	14932
616.565	16195
616.631	16965
616.697	16821
616.763	16742
616.829	20625
616.895	32334
616.961	33069
617.026	16899
617.092	13813
617.158	13151
617.224	12764
617.289	11130
617.355	11347
617.421	10839
617.487	10757
617.552	10926
617.618	10247
617.684	9100
617.749	11032
617.815	10102
617.880	9161
617.946	9852
618.012	10434
618.077	8476
618.143	9528
618.208	9987
618.274	10501
618.339	9879
618.405	8568
618.470	9520
618.536	8282
618.601	8700
618.667	7536
618.732	8079
618.798	7221
618.863	7413
618.928	7200
618.994	6635
619.059	7601
619.124	7685
619.190	6715
619.255	6401
619.320	7110
619.386	7440
619.451	5725
619.516	6379
619.581	6159
619.647	6901
619.712	7994
619.777	6199
619.842	6414
619.907	6695
619.972	7506
620.038	6132
620.103	6555
620.168	6887
620.233	6742
620.298	6265
620.363	7178
620.428	6592
620.493	7723
620.558	7219
620.623	7427
620.688	6606
620.753	6778
620.818	6445
620.883	8005
620.948	7559
621.013	7358
621.078	6586
621.143	5952
621.207	8580
621.272	7406
621.337	7227
621.402	7522
621.467	6176
621.532	7107
621.596	6503
621.661	6885
621.726	6498
621.791	6352
621.855	6096
621.920	6877
621.985	5921
622.049	7698
622.114	6493
622.179	5996
622.243	6372
622.308	7282
622.373	8235
622.437	7750
622.502	6483
622.566	6586
622.631	6344
622.695	7965
622.760	7103
622.824	7891
622.889	6660
622.953	7227
623.018	7495
623.082	8314
623.147	7153
623.211	7768
623.276	7041
623.340	7286
623.404	6501
623.469	6769
623.533	6184
623.597	6424
623.662	6772
623.726	5494
623.790	4695
623.854	4957
623.919	5519
623.983	5748
624.047	5914
624.111	4753
624.176	5419
624.240	6252
624.304	5869
624.368	5609
624.432	5810
624.496	6523
624.560	6368
624.625	6094
624.689	5711
624.753	7118
624.817	5955
624.881	5977
624.945	4736
625.009	4964
625.073	5471
625.137	5433
625.201	4999
625.265	6354
625.329	5599
625.393	5592
625.456	5299
625.520	5921
625.584	5479
625.648	5761
625.712	5672
625.776	6145
625.839	6570
625.903	5507
625.967	3879
626.031	5303
626.095	5404
626.158	5703
626.222	4037
626.286	4365
626.349	2914
626.413	2662
626.477	3686
626.540	3054
626.604	3219
626.668	4264
626.731	2838
626.795	3570
626.858	3179
626.922	3177
626.986	2701
627.049	3117
627.113	2989
627.176	3717
627.240	2723
627.303	4084
627.366	2830
627.430	2736
627.493	3389
627.557	2379
627.620	3902
627.684	3366
627.747	3095
627.810	2738
627.874	2045
627.937	1181
628.000	2777
628.064	2707
628.127	926
628.190	2232
628.253	2037
628.317	1852
628.380	991
628.443	1527
628.506	1504
628.569	2015
628.632	1120
628.696	944
628.759	1287
628.822	1970
628.885	557
628.948	1608
629.011	762
629.074	1216
629.137	1556
629.200	393
629.263	1139
629.326	811
629.389	1339
629.452	1647
629.515	1359
629.578	1080
629.641	2060
629.704	1409
629.767	817
629.830	1565
629.892	636
629.955	397
630.018	1417
630.081	811
630.144	756
630.207	787
630.269	771
630.332	460
630.395	488
630.458	2090
630.520	-346
630.583	1300
630.646	569
630.708	452
630.771	-106
630.834	1657
630.896	894
630.959	772
631.021	661
631.084	695
631.146	13
631.209	806
631.272	387
631.334	967
631.397	656
631.459	948
631.522	789
631.584	901
631.646	1242
631.709	853
631.771	297
631.834	1480
631.896	296
631.958	849
632.021	907
632.083	373
632.145	118
632.208	495
632.270	908
632.332	885
632.395	420
632.457	1688
632.519	-981
632.581	1402
632.643	202
632.706	1441
632.768	110
632.830	480
632.892	446
632.954	1102
633.016	388
633.078	273
633.141	310
633.203	261
633.265	529
633.327	969
633.389	283
633.451	1352
633.513	501
633.575	577
633.637	-203
633.698	1052
633.760	417
633.822	989
633.884	790
633.946	473
634.008	44
634.070	1365
634.132	1426
634.193	1435
634.255	1139
634.317	777
634.379	632
634.441	936
634.502	354
634.564	676
634.626	384
634.687	930
634.749	768
634.811	1340
634.873	-206
634.934	755
634.996	105
635.057	268
635.119	-228
635.181	465
635.242	490
635.304	-837
635.365	1739
635.427	-564
635.488	-9
635.550	-198
635.611	950
635.673	-210
635.734	669
635.796	172
635.857	589
635.918	467
635.980	938
636.041	901
636.102	750
636.164	1377
636.225	1136
636.286	-108
636.348	669
636.409	83
636.470	-199
636.531	303
636.593	398
636.654	478
636.715	640
636.776	1379
636.838	350
636.899	836
636.960	26
637.021	246
637.082	41
637.143	243
637.204	-429
637.265	-171
637.326	532
637.387	983
637.448	-767
637.509	792
637.570	-261
637.631	367
637.692	-422
637.753	-674
637.814	-649
637.875	331
637.936	41
637.997	-300
638.058	125
638.119	670
638.179	54
638.240	-47
638.301	-163
638.362	487
638.423	-569
638.483	634
638.544	-967
638.605	1059
638.666	-603
638.726	301
638.787	-2
638.848	-621
638.908	-184
638.969	601
639.030	-246
639.090	304
639.151	-788
639.211	114
639.272	209
639.332	144
639.393	-84
639.453	-386
639.514	-460
639.574	-181
639.635	437
639.695	328
639.756	-1658
639.816	828
639.877	-464
639.937	449
639.997	427
640.058	291
640.118	-517
640.178	793
640.239	-597
640.299	466
640.359	-361
640.420	-79
640.480	-737
640.540	239
640.600	201
640.661	-71
640.721	-1660
640.781	954
640.841	-998
640.901	360
640.961	-19
641.021	-185
641.082	-831
641.142	412
641.202	-52
641.262	-1046
641.322	413
641.382	-1246
641.442	108
641.502	113
641.562	98
641.622	22
641.682	-444
641.742	-83
641.802	-533
641.861	631
641.921	-230
641.981	257
642.041	-17
642.101	358
642.161	-1521
642.221	-519
642.280	-1023
642.340	-440
642.400	-1171
642.460	920
642.519	-177
642.579	-724
642.639	-257
642.698	-1659
642.758	358
642.818	-535
642.877	-622
642.937	-277
642.997	-319
643.056	-216
643.116	-1573
643.175	672
643.235	-743
643.294	-795
643.354	-444
643.414	165
643.473	248
643.532	163
643.592	-333
643.651	1598
643.711	3306
643.770	8592
643.830	16657
643.889	36762
643.948	17725
644.008	1465
644.067	-248
644.126	-429
644.186	85
644.245	342
644.304	-1628
644.363	657
644.423	-1220
644.482	-1160
644.541	455
644.600	-1393
644.659	216
644.719	-583
644.778	471
644.837	1146
644.896	4240
644.955	9651
645.014	5377
645.073	526
645.132	-1215
645.191	203
645.250	-719
645.309	1093
645.368	-988
645.427	299
645.486	-1234
645.545	1769
645.604	-279
645.663	-227
645.722	-902
645.781	-179
645.840	150
645.898	-842
645.957	688
646.016	615
646.075	3720
646.134	7433
646.192	15825
646.251	30111
646.310	8419
646.369	1107
646.427	624
646.486	-1325
646.545	-643
646.603	37
646.662	-103
646.721	-729
646.779	-823
646.838	-1246
646.896	788
646.955	198
647.014	125
647.072	1305
647.131	5177
647.189	4719
647.248	-571
647.306	-528
647.365	-904
647.423	-1786
647.481	94
647.540	-2148
647.598	-550
647.657	-1367
647.715	-565
647.773	-587
647.832	-496
647.890	-1144
647.948	-1168
648.007	205
648.065	-2294
648.123	-520
648.181	165
648.240	-1292
648.298	-1517
648.356	-1364
648.414	-1283
648.472	-63
648.531	-800
648.589	-304
648.647	-1599
648.705	-1228
648.763	-760
648.821	227
648.879	-996
648.937	36
648.995	-731
649.053	-746
649.111	-367
649.169	1426
649.227	2115
649.285	4996
649.343	14272
649.401	13275
649.459	342
649.516	1321
649.574	-2911
649.632	-188
649.690	-837
649.748	453
649.806	-1854
649.863	1158
649.921	2586
649.979	3821
650.037	270
650.094	-1883
650.152	-1302
650.210	-1341
650.268	-866
650.325	-941
650.383	-1523
650.440	-1774
650.498	-1095
650.556	-704
650.613	-1554
650.671	-807
650.728	-1328
650.786	-764
650.843	-1306
650.901	-2027
650.958	-1030
651.016	-595
651.073	-1502
651.131	-1566
651.188	-1711
651.246	-1158
651.303	-1896
651.360	-978
651.418	-1185
651.475	-1182
651.532	-2279
651.590	-402
651.647	-2152
651.704	-915
651.762	-1842
651.819	-810
651.876	-2384
651.933	-641
651.990	-706
652.048	-1669
652.105	-1757
652.162	-1344
652.219	-1392
652.276	-974
652.333	-1517
652.390	-1557
652.448	-1376
652.505	-1045
652.562	-1514
652.619	-982
652.676	-1103
652.733	-685
652.790	-1553
652.847	-2774
652.904	-1328
652.961	-1893
653.017	-2026
653.074	-495
653.131	-2021
653.188	-1746
653.245	-1592
653.302	-252
653.359	-2088
653.415	-1143
653.472	-1631
653.529	-970
653.586	-2395
653.642	-1362
653.699	-494
653.756	-2065
653.813	-1629
653.869	-433
653.926	-2446
653.983	-1294
654.039	-1933
654.096	-1904
654.152	-547
654.209	-1923
654.266	-1780
654.322	-2310
654.379	-1222
654.435	-1311
654.492	-1619
654.548	-1622
654.605	-2250
654.661	-1004
654.717	-1161
654.774	-1083
654.830	-1478
654.887	-1888
654.943	-1796
655.000	-1247
655.056	-1885
655.112	-970
655.168	-1815
655.225	-1544
655.281	-1068
655.337	-1381
655.394	-2143
655.450	-1119
655.506	-1376
655.562	-2044
655.618	-823
655.675	-1762
655.731	-859
655.787	-1523
655.843	-1427
655.899	-876
655.955	-1013
656.011	-1396
656.067	-2192
656.123	-1366
656.179	-2063
656.235	-484
656.291	-2121
656.347	-911
656.403	-1728
656.459	-1234
656.515	-2234
656.571	-1127
656.627	-1415
656.683	-1608
656.739	-899
656.795	-1226
656.850	-1872
656.906	-877
656.962	-489
657.018	-2367
657.074	-2173
657.129	-1572
657.185	-990
657.241	-1068
657.297	-1630
657.352	-676
657.408	-2049
657.464	-1051
657.519	-1989
657.575	-939
657.630	-1320
657.686	-1180
657.742	-1951
657.797	-1386
657.853	-2475
657.908	-713
657.964	-2232
658.019	-1144
658.075	-1130
658.130	-847
658.186	-1715
658.241	-916
658.297	-2782
658.352	-2034
658.407	-1181
658.463	-1800
658.518	-1672
658.573	-793
658.629	-1659
658.684	-1240
658.739	-1571
658.795	-1807
658.850	-1509
658.905	-1840
658.960	-1060
659.016	-1823
659.071	-1885
659.126	-1267
659.181	-1952
659.236	-1340
659.291	-969
659.346	-1736
659.401	-1367
659.457	-743
659.512	-1283
659.567	-1326
659.622	-1353
659.677	-1963
659.732	-1964
659.787	-1649
659.842	-1915
659.897	-1539
659.952	-1972
660.007	-1145
660.061	-1403
660.116	-2632
660.171	-2637
660.226	-965
660.281	-251
660.336	-2388
660.391	-393
660.445	-1782
660.500	-1526
660.555	-1027
660.610	-2785
660.664	-1177
660.719	-1959
660.774	-1190
660.828	-1194
660.883	-711
660.938	-1264
660.992	-2093
661.047	-1532
661.101	-1242
661.156	-1867
661.211	-1513
661.265	-1984
661.320	-1087
661.374	-1948
661.429	-1641
661.483	-1841
661.538	-1340
661.592	-2266
661.647	-2570
661.701	-1210
661.755	-1409
661.810	-1425
661.864	-1928
661.919	-1724
661.973	-308
662.027	-2137
662.081	-1845
662.136	-2400
662.190	-1756
662.244	-1689
662.299	-2225
662.353	-1118
662.407	-1952
662.461	-1464
662.515	-617
662.569	-2321
662.624	-816
662.678	-1702
662.732	-1995
662.786	-1861
662.840	-1278
662.894	-1032
662.948	-1786
663.002	-1823
663.056	-1629
663.110	-2275
663.164	-1632
663.218	-1339
663.272	-1118
663.326	-1768
663.380	-1216
663.434	-1408
663.488	-1904
663.542	-1014
663.595	-2122
663.649	-2687
663.703	-1830
663.757	-2405
663.811	-2107
663.864	-1801
663.918	-1339
663.972	-2733
664.026	-1405
664.079	-2259
664.133	-1240
664.187	-1589
664.240	-1912
664.294	-1419
664.348	-798
664.401	-1692
664.455	-1836
664.508	-1914
664.562	-1582
664.615	-974
664.669	-1587
664.722	-1810
664.776	-1743
664.829	-2289
664.883	-1601
664.936	-2077
664.990	-1679
665.043	-1517
665.097	-2013
665.150	-1138
665.203	-1525
665.257	-2552
665.310	-1008
665.363	-2070
665.417	-1712
665.470	-2007
665.523	-932
665.576	-1248
665.630	-1466
665.683	-1628
665.736	-1333
665.789	-1864
665.842	-2106
665.895	-2558
665.949	-1778
666.002	-2446
666.055	-1358
666.108	-1796
666.161	-1875
666.214	-1900
666.267	-1185
666.320	-1799
666.373	-1271
666.426	-1797
666.479	-2401
666.532	-1473
666.585	-1787
666.638	-1895
666.691	-2703
666.744	-1956
666.796	-2664
666.849	-1752
666.902	-574
666.955	-1976
667.008	-1425
667.060	-2115
667.113	-1871
667.166	-2072
667.219	-845
667.271	-2282
667.324	-1284
667.377	-2480
667.430	-1612
667.482	-2432
667.535	-1216
667.587	-1716
667.640	-1251
667.693	-2626
667.745	-1563
667.798	-1428
667.850	-1895
667.903	-2053
667.955	-1776
668.008	-2273
668.060	-1255
668.113	-1804
668.165	-1452
668.218	-2039
668.270	-1986
668.322	-2139
668.375	-1733
668.427	-1275
668.479	-1867
668.532	-2099
668.584	-1491
668.636	-898
668.689	-1413
668.741	-1758
668.793	-1408
668.845	-3036
668.898	-1422
668.950	-2113
669.002	-1422
669.054	-2422
669.106	-1945
669.158	-1826
669.211	-1637
669.263	-2178
669.315	-1538
669.367	-2052
669.419	-2427
669.471	-1743
669.523	-1745
669.575	-2115
669.627	-1649
669.679	-1870
669.731	-1879
669.783	-2061
669.835	-1977
669.886	-1715
669.938	-1821
669.990	-1763
670.042	-2263
670.094	-1689
670.146	-2371
670.197	-1974
670.249	-1355
670.301	-1990
670.353	-842
670.404	-1291
670.456	-1501
670.508	-859
670.560	216
670.611	175
670.663	1172
670.715	4648
670.766	10235
670.818	6149
670.869	-373
670.921	-1676
670.972	-1112
671.024	-2792
671.075	-1923
671.127	-1524
671.178	-1553
671.230	-1402
671.281	-1697
671.333	-2015
671.384	-2453
671.436	-1957
671.487	-773
671.538	-1446
671.590	-672
671.641	-445
671.692	-496
671.744	840
671.795	2236
671.846	-1104
671.897	-1647
671.949	-1847
672.000	-1080
672.051	-1715
672.102	-1448
672.153	-2025
672.204	-1602
672.256	-2216
672.307	-1748
672.358	-2485
672.409	-1704
672.460	-1804
672.511	-1486
672.562	-2380
672.613	-2143
672.664	-1147
672.715	-1446
672.766	-2148
672.817	-1779
672.868	-2722
672.919	-1534
672.970	-2014
673.021	-2166
673.071	-2191
673.122	-1273
673.173	-1802
673.224	-1576
673.275	-1665
673.326	-1906
673.376	-1978
673.427	-2690
673.478	-2769
673.528	-921
673.579	-1542
673.630	-1308
673.680	-1116
673.731	-1950
673.782	-2095
673.832	-1903
673.883	-2795
673.934	-2211
673.984	-1898
674.035	-2003
674.085	-1863
674.136	-2011
674.186	-1769
674.237	-1970
674.287	-2662
674.338	-1194
674.388	-2074
674.438	-2345
674.489	-1458
674.539	-1686
674.589	-2379
674.640	-2116
674.690	-1786
674.740	-1964
674.791	-2159
674.841	-1539
674.891	-2095
674.942	-1718
674.992	-2677
675.042	-1621
675.092	-1717
675.142	-1717
675.193	-1818
675.243	-1704
675.293	-2432
675.343	-2360
675.393	-2045
675.443	-1534
675.493	-1898
675.543	-1630
675.593	-2116
675.643	-2135
675.693	-2302
675.743	-1809
675.793	-1538
675.843	-1512
675.893	-1921
675.943	-136
675.993	-2191
676.043	-1858
676.093	-970
676.142	-1625
676.192	-1533
676.242	-1385
676.292	-2167
676.341	-1700
676.391	-2323
676.441	-2193
676.491	-2327
676.540	-1699
676.590	-2400
676.640	-2092
676.689	-1986
676.739	-1602
676.789	-1784
676.838	-2028
676.888	-2425
676.937	-2147
676.987	-1932
677.037	-1867
677.086	-2357
677.136	-1796
677.185	-2152
677.235	-1857
677.284	-2067
677.333	-1854
677.383	-2114
677.432	-2590
677.482	-1706
677.531	-1467
677.580	-2799
677.630	-1813
677.679	-2305
677.728	-1530
677.778	-1859
677.827	-1779
677.876	-2226
677.925	-1397
677.975	-1931
678.024	-1770
678.073	-1836
678.122	-2077
678.171	-1550
678.220	-1117
678.269	-2235
678.319	-1603
678.368	-1793
678.417	-1767
678.466	-1943
678.515	-2070
678.564	-2572
678.613	-1266
678.662	-2507
678.711	-1450
678.760	-2428
678.809	-1558
678.857	-2772
678.906	-1825
678.955	-2246
679.004	-1033
679.053	-2366
679.102	-1895
679.151	-1591
679.199	-2591
679.248	-2422
679.297	-2396
679.346	-2754
679.394	-1590
679.443	-2290
679.492	-1779
679.540	-2190
679.589	-2460
679.638	-2197
679.686	-1066
679.735	-1797
679.784	-1465
679.832	-1512
679.881	-1906
679.929	-1896
679.978	-1952
680.026	-1946
680.075	-1558
680.123	-2289
680.172	-1726
680.220	-1812
680.268	-1626
680.317	-1697
680.365	-2768
680.414	-2467
680.462	-1905
680.510	-2252
680.559	-2048
680.607	-2282
680.655	-971
680.703	-2510
680.752	-2143
680.800	-1633
680.848	-2259
680.896	-2318
680.945	-2154
680.993	-2329
681.041	-1887
681.089	-1306
681.137	-1971
681.185	-2381
681.233	-1969
681.281	-2222
681.308	-1759
681.329	-1394
681.377	-2063
681.425	-1363
681.430	-1447
681.473	-2309
681.521	-2353
681.552	-2813
681.569	-3087
681.617	-1670
681.665	-2480
681.674	-2234
681.713	-1169
681.761	-2413
681.796	-2443
681.809	-2459
681.857	-2198
681.904	-1951
681.918	-2025
681.952	-2262
682.000	-1437
682.039	-1931
682.048	-2039
682.096	-1550
682.143	-2338
682.161	-2110
682.191	-1756
682.239	-1762
682.283	-1482
682.286	-1466
682.334	-2274
682.382	-1073
682.405	-1434
682.430	-1833
682.477	-1407
682.525	-1865
682.527	-1853
682.572	-1615
682.620	-2142
682.648	-2027
682.667	-1996
682.715	-1940
682.763	-716
682.770	-956
682.810	-2150
682.857	-1894
682.892	-2062
682.905	-2129
682.952	-699
683.000	-1832
683.014	-1810
683.047	-1781
683.095	-813
683.135	-1020
683.142	-1061
683.190	-1191
683.237	-982
683.257	-1171
683.284	-1447
683.332	-1525
683.379	-1727
683.379	-1723
683.426	-1634
683.473	-1675
683.501	-1361
683.521	-1118
683.568	-1214
683.615	-1511
683.622	-1465
683.662	-1305
683.709	-1933
683.744	-2127
683.757	-2182
683.804	-955
683.851	-1578
683.865	-1510
683.898	-1389
683.945	-1515
683.987	-1269
683.992	-1243
684.039	-1295
684.086	-884
684.109	-1289
684.133	-1749
684.180	-1325
684.227	-1571
684.230	-1524
684.274	-745
684.321	-1312
684.352	-902
684.368	-748
684.415	-1028
684.462	-704
684.473	-897
684.509	-1370
684.556	-775
684.595	-1120
684.603	-1206
684.649	-906
684.696	-1623
684.716	-1373
684.743	-995
684.790	-490
684.837	-1111
684.838	-1115
684.883	-1346
684.930	-918
684.959	-1343
684.977	-1564
685.023	-873
685.070	-1330
685.081	-1305
685.117	-1268
685.164	-1662
685.202	-1277
685.210	-1185
685.257	-1207
685.303	-337
685.324	-691
685.350	-1193
685.396	-805
685.443	-1214
685.445	-1201
685.490	-765
685.536	-459
685.566	-473
685.583	-539
685.629	-888
685.675	-511
685.688	-678
685.722	-1034
685.768	-586
685.809	-765
685.815	-801
685.861	-472
685.908	-712
685.930	-755
685.954	-702
686.000	-636
686.047	-766
686.052	-814
686.093	-1306
686.139	-311
686.173	-987
686.185	-1209
686.232	-383
686.278	-536
686.294	-582
686.324	-716
686.370	-1200
686.416	-1126
686.416	-1118
686.463	-962
686.509	-313
686.537	-557
686.555	-784
686.601	-1242
686.647	-661
686.658	-670
686.693	-567
686.739	-50
686.779	-419
686.785	-482
686.831	-377
686.877	-608
686.900	-798
686.923	-882
686.969	-278
687.015	-519
687.022	-459
687.061	-320
687.107	-352
687.143	-306
687.153	-223
687.199	-428
687.245	-76
687.264	-195
687.291	-462
687.336	-179
687.382	-658
687.385	-660
687.428	-537
687.474	-477
687.506	-203
687.520	-63
687.565	-389
687.611	-129
687.627	-278
687.657	-608
687.702	-91
687.748	-666
687.748	-670
687.794	-159
687.839	-320
687.869	-58
687.885	12
687.931	-209
687.976	-337
687.990	-381
688.022	-427
688.067	-31
688.111	-554
688.113	-565
688.158	-374
688.204	-798
688.233	-381
688.249	-81
688.295	-663
688.340	-78
688.354	-187
688.386	-390
688.431	-82
688.474	-246
688.477	-251
688.522	51
688.567	208
688.595	33
688.613	-5
688.658	-4
688.703	6
688.716	-117
688.749	-531
688.794	490
688.837	-253
688.839	-266
688.884	37
688.930	181
688.958	202
688.975	162
689.020	96
689.065	-244
689.079	-198
689.110	68
689.155	49
689.200	228
689.201	238
689.246	596
689.291	605
689.321	390
689.336	297
689.381	288
689.426	230
689.442	239
689.471	208
689.516	248
689.561	63
689.562	38
689.606	-102
689.651	-311
689.683	130
689.696	228
689.741	-300
689.785	482
689.804	72
689.830	-266
689.875	346
689.920	305
689.925	416
689.965	1107
690.010	187
690.046	517
690.054	648
690.099	-247
690.144	534
690.166	482
690.189	377
690.233	583
690.278	-94
690.287	20
690.323	649
690.367	325
690.408	608
690.412	642
690.457	-140
690.501	666
690.528	367
690.546	272
690.590	679
690.635	166
690.649	343
690.680	563
690.724	148
690.769	607
690.770	596
690.813	735
690.857	279
690.890	305
690.902	316
690.946	405
690.991	477
691.011	397
691.035	456
691.080	570
691.124	465
691.132	502
691.168	482
691.213	549
691.252	331
691.257	355
691.301	548
691.346	762
691.373	890
691.390	896
691.434	353
691.478	186
691.493	296
691.522	631
691.567	740
691.611	1067
691.614	1049
691.655	850
691.699	141
691.734	435
691.743	567
691.787	477
691.831	800
691.855	750
691.875	649
691.919	802
691.964	472
691.975	621
692.008	1066
692.052	762
692.096	540
692.096	526
692.139	660
692.183	1034
692.216	1105
692.227	1056
692.271	898
692.315	572
692.337	609
692.359	782
692.403	650
692.447	722
692.457	681
692.490	724
692.534	1297
692.577	1505
692.578	1521
692.622	1372
692.666	1489
692.698	1556
692.709	1543
692.753	950
692.797	662
692.818	549
692.840	666
692.884	1059
692.928	1162
692.938	1179
692.971	1150
693.015	1116
693.059	917
693.059	899
693.102	1141
693.146	1117
693.179	1075
693.189	1073
693.233	1006
693.276	544
693.299	738
693.320	1010
693.363	894
693.407	1172
693.420	1205
693.450	1256
693.493	1068
693.537	937
693.540	913
693.580	1021
693.624	1228
693.660	1487
693.667	1522
693.710	1332
693.753	1369
693.780	1047
693.797	908
693.840	1188
693.883	1221
693.901	1186
693.926	1301
693.970	1438
694.013	1699
694.021	1709
694.056	1459
694.099	1193
694.141	764
694.142	784
694.185	1264
694.229	1259
694.261	1447
694.272	1426
694.315	1214
694.358	697
694.381	636
694.401	835
694.444	1137
694.487	1143
694.501	1235
694.530	1235
694.573	1172
694.616	939
694.621	882
694.659	967
694.702	1576
694.741	1795
694.745	1806
694.787	1508
694.830	1370
694.862	1453
694.873	1517
694.916	1241
694.959	1197
694.982	1011
695.002	885
695.044	999
695.087	920
695.102	910
695.130	1220
695.172	1542
695.215	1795
695.222	1825
695.258	1655
695.301	1416
695.342	1053
695.343	1072
695.386	1412
695.428	1292
695.462	1387
695.471	1398
695.514	1223
695.556	1003
695.582	950
695.599	1156
695.641	1482
695.684	1790
695.701	2026
695.726	2105
695.769	1785
695.811	1743
695.821	1666
695.854	1699
695.896	1798
695.938	1901
695.941	1897
695.981	2241
696.023	2139
696.061	2397
696.065	2432
696.108	2236
696.150	2310
696.181	2180
696.192	2149
696.235	1932
696.277	1845
696.301	1837
696.319	2044
696.361	2081
696.404	2549
696.421	2596
696.446	2380
696.488	2103
696.530	1822
696.541	1723
696.572	2023
696.614	2267
696.656	2761
696.660	2765
696.698	2551
696.740	2323
696.780	2147
696.783	2176
696.825	2301
696.867	2226
696.900	2224
696.909	2277
696.951	2418
696.992	2675
697.020	2655
697.034	2617
697.076	2751
697.118	2511
697.139	2440
697.160	2485
697.202	2542
697.244	2665
697.259	2641
697.286	2597
697.327	2621
697.369	2489
697.379	2450
697.411	2199
697.453	1837
697.494	1435
697.499	1371
697.536	1755
697.578	2240
697.618	2599
697.620	2627
697.661	2657
697.703	2485
697.738	2430
697.744	2475
697.786	2567
697.828	2631
697.858	2668
697.869	2677
697.911	2587
697.952	2485
697.977	2421
697.994	2512
698.035	2653
698.077	2794
698.097	2830
698.118	2743
698.160	2522
698.201	2289
698.216	2189
698.243	2346
698.284	2521
698.325	2730
698.336	2749
698.367	2677
698.408	2538
698.449	2415
698.455	2371
698.491	2524
698.532	2667
698.573	2828
698.575	2809
698.614	2741
698.656	2622
698.694	2496
698.697	2551
698.738	3047
698.779	3518
698.814	3894
698.820	3848
698.862	3334
698.903	2837
698.933	2420
698.944	2537
698.985	2927
699.026	3315
699.053	3548
699.067	3481
699.172	2786
699.292	4002
699.411	2845
699.530	3063
699.650	2218
699.769	4154
699.889	2995
700.008	3752
700.127	2839
700.246	2402
700.366	3145
700.485	2967
700.604	2257
700.723	3187
700.843	2196
700.962	2687
701.081	1662
701.200	2370
701.319	2896
701.438	3228
701.557	2769
701.676	2529
701.796	2660
701.915	3013
702.034	2894
702.153	2791
702.272	2767
702.391	2551
702.509	2365
702.628	3006
702.747	3482
702.866	2797
702.985	1792
703.104	2950
703.223	2806
703.342	2614
703.460	1990
703.579	3138
703.698	2902
703.817	2868
703.935	3016
704.054	1870
704.173	2060
704.292	2299
704.410	2423
704.529	1800
704.648	1792
704.766	2659
704.885	1625
705.003	2841
705.122	1713
705.240	1927
705.359	1870
705.477	2424
705.596	2339
705.714	1822
705.833	1480
705.951	2068
706.070	2217
706.188	1444
706.307	2211
706.425	2174
706.543	1633
706.662	2180
706.780	1207
706.898	2783
707.016	1436
707.135	3016
707.253	1988
707.371	2410
707.489	1530
707.608	1645
707.726	911
707.844	2674
707.962	1402
708.080	2593
708.198	1221
708.316	2262
708.434	1577
708.552	2169
708.670	1956
708.788	1482
708.906	1964
709.024	2477
709.142	2804
709.260	3417
709.378	1972
709.496	2030
709.614	1835
709.732	2751
709.850	1636
709.968	1808
710.085	1761
710.203	1799
710.321	1558
710.439	2498
710.556	2102
710.674	2106
710.792	1140
710.910	2206
711.027	1253
711.145	1576
711.263	2019
711.380	2129
711.498	942
711.615	1841
711.733	2231
711.851	2265
711.968	1198
712.086	2220
712.203	1591
712.321	1911
712.438	1609
712.555	1339
712.673	2103
712.790	2349
712.908	2269
713.025	2419
713.142	2234
713.260	1870
713.377	2359
713.494	2474
713.612	1372
713.729	2458
713.846	2018
713.963	1760
714.081	1355
714.198	1860
714.315	2933
714.432	3597
714.549	6606
714.666	15865
714.783	77429
714.901	170783
715.018	14282
715.135	2970
715.252	2547
715.369	3390
715.486	1621
715.603	1718
715.720	1724
715.837	2305
715.953	1579
716.070	2464
716.187	1769
716.304	2047
716.421	2237
716.538	2096
716.655	1254
716.771	2592
716.888	26
717.005	1598
717.122	1009
717.238	2004
717.355	1455
717.472	2319
717.589	1312
717.705	1911
717.822	917
717.938	1598
718.055	1070
718.172	839
718.288	1167
718.405	1608
718.521	542
718.638	1846
718.754	2161
718.871	2012
718.987	918
719.104	1629
719.220	790
719.336	1751
719.453	1905
719.569	1456
719.685	1486
719.802	1726
719.918	2632
720.034	6498
720.151	19773
720.267	78580
720.383	19659
720.499	2836
720.616	1592
720.732	1680
720.848	2010
720.964	2530
721.080	1934
721.196	1701
721.312	638
721.428	938
721.544	1325
721.660	1266
721.776	1647
721.892	1267
722.008	779
722.124	722
722.240	962
722.356	1397
722.472	713
722.588	1472
722.704	684
722.820	1192
722.936	716
723.051	1549
723.167	169
723.283	1929
723.399	1041
723.515	1180
723.630	1317
723.746	789
723.862	775
723.977	1170
724.093	1001
724.209	1310
724.324	1940
724.440	1710
724.555	940
724.671	735
724.786	884
724.902	1468
725.017	1078
725.133	592
725.248	1050
725.364	1507
725.479	795
725.595	723
725.710	898
725.826	1355
725.941	541
726.056	473
726.172	525
726.287	454
726.402	42
726.517	1163
726.633	1039
726.748	499
726.863	403
726.978	571
727.093	257
727.208	909
727.324	837
727.439	1534
727.554	524
727.669	756
727.784	361
727.899	873
728.014	990
728.129	1727
728.244	626
728.359	1070
728.474	1051
728.589	1407
728.704	53
728.819	983
728.934	698
729.049	1426
729.163	806
729.278	1233
729.393	973
729.508	1390
729.622	271
729.737	8
729.852	703
729.967	1027
730.081	298
730.196	1253
730.311	222
730.425	1559
730.540	353
730.655	930
730.769	534
730.884	1122
730.998	811
731.113	741
731.227	1036
731.342	1922
731.456	-104
731.571	1123
731.685	712
731.800	1335
731.914	636
732.028	840
732.143	1461
732.257	2109
732.371	3430
732.486	8242
732.600	31345
732.714	41312
732.829	4760
732.943	2583
733.057	2605
733.171	2140
733.285	1976
733.399	2077
733.514	1744
733.628	2193
733.742	1449
733.856	2051
733.970	1208
734.084	1649
734.198	713
734.312	1195
734.426	1274
734.540	1974
734.654	907
734.768	2079
734.882	689
734.996	2121
735.109	1097
735.223	1504
735.337	997
735.451	1518
735.565	1506
735.679	1880
735.792	696
735.906	1448
736.020	663
736.134	1167
736.247	851
736.361	1805
736.475	496
736.588	1222
736.702	1097
736.815	963
736.929	970
737.043	1237
737.156	1037
737.270	1057
737.383	1684
737.497	634
737.610	787
737.723	553
737.837	833
737.950	1285
738.064	307
738.177	659
738.290	623
738.404	1746
738.517	1040
738.630	1529
738.744	428
738.857	1152
738.970	910
739.083	1417
739.197	855
739.310	1097
739.423	721
739.536	1288
739.649	353
739.762	1105
739.875	616
739.988	1143
740.102	453
740.215	1029
740.328	986
740.441	1490
740.553	241
740.667	1732
740.779	157
740.892	1305
741.005	404
741.118	296
741.231	899
741.344	1070
741.457	622
741.569	1099
741.682	1004
741.795	985
741.908	739
742.020	141
742.133	623
742.246	570
742.358	973
742.471	1072
742.584	-79
742.696	1115
742.809	-14
742.922	827
743.034	677
743.147	1350
743.259	480
743.372	856
743.484	705
743.597	865
743.709	177
743.822	714
743.934	31
744.046	1364
744.159	1113
744.271	1015
744.383	589
744.496	1057
744.608	683
744.720	1205
744.832	-425
744.945	1165
745.057	1110
745.169	496
745.281	607
745.393	1240
745.506	-3
745.618	976
745.730	346
745.842	1315
745.954	138
746.066	231
746.178	74
746.290	1009
746.402	1519
746.514	1063
746.626	6
746.738	950
746.850	588
746.962	1134
747.074	441
747.185	-210
747.297	317
747.409	1004
747.521	408
747.633	467
747.744	247
747.856	624
747.968	72
748.080	477
748.191	-133
748.303	666
748.414	-651
748.526	879
748.638	720
748.749	635
748.861	753
748.972	427
749.084	344
749.195	703
749.307	454
749.418	504
749.530	968
749.641	906
749.753	296
749.864	675
749.975	-271
750.087	148
750.198	-328
750.310	524
750.421	248
750.532	336
750.643	174
750.755	968
750.866	665
750.977	526
751.088	363
751.199	1052
751.310	-47
751.422	207
751.533	50
751.644	508
751.755	312
751.866	440
751.977	-82
752.088	-8
752.199	499
752.310	651
752.421	-204
752.532	816
752.643	380
752.753	1105
752.864	-391
752.975	648
753.086	285
753.197	1600
753.308	-138
753.418	1716
753.529	398
753.640	1069
753.751	228
753.861	50
753.972	-395
754.083	405
754.193	-162
754.304	220
754.415	-563
754.525	478
754.636	-10
754.746	1113
754.857	173
754.967	575
755.078	-158
755.188	549
755.299	-190
755.409	314
755.520	19
755.630	215
755.740	527
755.851	271
755.961	-223
756.071	-41
756.182	703
756.292	1256
756.402	133
756.512	985
756.623	905
756.733	427
756.843	-37
756.953	712
757.063	289
757.173	-366
757.283	-790
757.393	567
757.504	-642
757.614	320
757.724	-286
757.834	4
757.944	295
758.053	-197
758.164	90
758.273	432
758.383	-227
758.493	274
758.603	-177
758.713	549
758.823	-223
758.932	668
759.042	-318
759.152	198
759.262	-609
759.372	153
759.481	-181
759.591	-57
759.701	211
759.810	608
759.920	979
760.029	-164
760.139	302
760.249	784
760.358	-100
760.468	513
760.577	-205
760.687	547
760.796	431
760.906	-146
761.015	422
761.124	1066
761.234	150
761.343	159
761.453	438
761.562	547
761.671	-430
761.781	245
761.890	-894
761.999	316
762.108	-705
762.218	-123
762.327	-1057
762.436	603
762.545	153
762.654	-9
762.763	-169
762.872	531
762.982	334
763.091	355
763.200	-863
763.309	467
763.418	150
763.527	167
763.635	249
763.744	267
763.853	-365
763.962	843
764.071	316
764.180	465
764.289	-464
764.398	74
764.506	-405
764.615	-759
764.724	-650
764.833	-144
764.941	-387
765.050	958
765.159	653
765.268	400
765.376	640
765.485	524
765.593	771
765.702	607
765.810	-246
765.919	1452
766.028	1577
766.136	3259
766.245	6315
766.353	17452
766.461	70894
766.570	135060
766.678	20248
766.787	3588
766.895	1943
767.003	939
767.112	1329
767.220	1063
767.328	435
767.437	-126
767.545	12
767.653	1093
767.761	527
767.870	167
767.978	226
768.086	381
768.194	-63
768.302	445
768.410	149
768.518	41
768.626	-90
768.734	891
768.842	-482
768.950	-477
769.058	-379
769.166	-2
769.274	224
769.382	1059
769.490	1442
769.598	2394
769.706	5225
769.813	22009
769.921	84910
770.029	46690
770.137	3518
770.245	1195
770.352	642
770.460	970
770.568	577
770.675	1135
770.783	263
770.891	434
770.998	-438
771.106	134
771.213	856
771.321	923
771.428	755
771.536	482
771.643	354
771.751	678
771.858	477
771.966	164
772.073	919
772.181	1165
772.288	1043
772.395	1719
772.503	522
772.610	803
772.717	155
772.825	590
772.932	397
773.039	237
773.146	404
773.253	-701
773.361	436
773.468	569
773.575	245
773.682	575
773.789	756
773.896	602
774.003	-14
774.110	875
774.217	736
774.324	1120
774.431	-338
774.538	576
774.645	818
774.752	710
774.859	-170
774.966	116
775.073	143
775.179	472
775.286	471
775.393	-136
775.500	-173
775.607	680
775.713	194
775.820	249
775.927	-57
776.033	417
776.140	228
776.247	207
776.353	186
776.460	669
776.566	517
776.673	1562
776.779	-244
776.886	6
776.992	49
777.099	396
777.205	1229
777.312	-100
777.418	816
777.524	1992
777.631	242
777.737	511
777.843	46
777.950	685
778.056	55
778.162	930
778.268	656
778.375	177
778.481	-112
778.587	102
778.693	-370
778.799	443
778.906	-791
779.012	722
779.118	-16
779.224	253
779.330	-1450
779.436	470
779.542	-1160
779.648	747
779.754	-1083
779.860	461
779.966	213
780.071	1941
780.177	841
780.283	763
780.389	-135
780.495	1176
780.601	-690
780.706	442
780.812	351
780.918	-120
781.024	-780
781.129	31
781.235	-260
781.341	166
781.446	-862
781.552	362
781.657	159
781.763	208
781.869	-260
781.974	681
782.080	-246
782.185	491
782.291	-973
782.396	142
782.501	-265
782.607	272
782.712	-721
782.818	-375
782.923	-1328
783.028	-233
783.134	-282
783.239	60
783.344	-397
783.449	-128
783.555	67
783.660	316
783.765	-486
783.870	562
783.975	-470
784.080	304
784.185	-31
784.291	-224
784.396	-1277
784.501	-143
784.606	-113
784.711	-438
784.816	-251
784.921	-749
785.026	-256
785.130	308
785.235	-1197
785.340	-1166
785.445	-688
785.550	28
785.655	189
785.760	-312
785.864	-368
785.969	-695
786.074	-227
786.178	-93
786.283	-203
786.388	6
786.492	-284
786.597	8
786.702	-1178
786.806	-908
786.911	-584
787.015	-239
787.120	-507
787.224	-1018
787.329	-699
787.433	-1035
787.538	-435
787.642	-516
787.747	-1081
787.851	-519
787.955	-932
788.060	46
788.164	-23
788.268	-352
788.372	-1318
788.477	-193
788.581	-315
788.685	-75
788.789	-1066
788.894	-113
788.998	-475
789.102	124
789.206	-667
789.310	-473
789.414	-262
789.518	-142
789.622	-959
789.726	-306
789.830	-646
789.934	-13
790.038	-803
790.142	-872
790.246	-987
790.350	-879
790.454	-575
790.557	-312
790.661	-1611
790.765	-884
790.869	-726
790.973	-1021
791.076	82
791.180	92
791.284	-827
791.388	190
791.491	-393
791.595	-438
791.698	-1661
791.802	-251
791.906	-599
792.009	-364
792.113	-481
792.216	-614
792.320	-822
792.423	-282
792.527	-59
792.630	-836
792.733	-1016
792.837	-1207
792.940	-295
793.043	-269
793.147	-2277
793.250	-794
793.353	-799
793.457	-1064
793.560	-1105
793.663	-398
793.766	-580
793.869	-695
793.973	-1386
794.076	-1100
794.179	178
794.282	-295
794.385	-289
794.488	-545
794.591	-955
794.694	129
794.797	268
794.900	-422
795.003	-299
795.106	-948
795.209	-538
795.312	-519
795.415	-1225
795.517	-381
795.620	-427
795.723	-821
795.826	-252
795.929	-765
796.031	-337
796.134	-766
796.237	-1241
796.339	472
796.442	-1452
796.545	-563
796.647	-766
796.750	483
796.852	-1213
796.955	-184
797.057	-110
797.160	-927
797.262	-2007
797.365	276
797.467	-329
797.570	-720
797.672	-656
797.775	-525
797.877	-427
797.979	-238
798.082	-1152
798.184	38
798.286	411
798.388	-1962
798.491	-231
798.593	-457
798.695	-1009
798.797	-358
798.899	-873
799.001	-59
799.104	-885
799.206	-690
799.308	-572
799.410	-390
799.512	266
799.614	-964
799.716	-1623
799.818	415
799.920	-1293
800.021	-652
800.123	-94
800.225	-1014
800.327	-1938
800.429	-359
800.531	-226
800.633	136
800.734	-1022
800.836	-714
800.938	-1436
801.039	167
801.141	-1077
801.243	-748
801.344	-620
801.446	-881
801.548	-560
801.649	-429
801.751	-461
801.852	-1252
801.954	-758
802.055	-965
802.157	-1384
802.258	-19
802.360	-1952
802.461	455
802.563	-1805
802.664	-973
802.765	-521
802.867	-460
802.968	-2072
803.069	-188
803.170	-1267
803.272	-557
803.373	-1328
803.474	-714
803.575	-1534
803.676	-1032
803.777	-695
803.879	-781
803.980	-1415
804.081	-330
804.182	-1490
804.283	-520
804.384	-1247
804.485	-183
804.586	-1202
804.687	-967
804.788	-645
804.888	-1137
804.989	-993
805.090	-611
805.191	-2110
805.292	-819
805.393	-1286
805.493	-855
805.594	-1209
805.695	-1217
805.796	-782
805.896	-786
805.997	-756
806.098	-1211
806.198	-926
806.299	-549
806.399	-1348
806.500	-657
806.601	-1090
806.701	-647
806.802	-963
806.902	-1514
807.002	-1453
807.103	-971
807.203	-397
807.304	166
807.404	-824
807.504	-206
807.605	-1860
807.705	299
807.805	-193
807.906	-693
808.006	-742
808.106	-93
808.206	-960
808.306	-1335
808.406	-887
808.507	-211
808.607	-924
808.707	-909
808.807	-464
808.907	-1403
809.007	-1145
809.107	-1224
809.207	-1669
809.307	-754
809.407	-1798
809.507	-659
809.607	-1826
809.706	-1559
809.806	-1569
809.906	-337
810.006	-1116
810.106	-239
810.205	-1034
810.305	-1590
810.405	-52
810.505	-695
810.604	-1211
810.704	-865
810.804	-950
810.903	-896
811.003	-1658
811.102	-1153
811.202	-1235
811.301	-376
811.401	-1049
811.500	-1263
811.600	-1915
811.699	-156
811.799	-2229
811.898	-241
811.997	-1565
812.097	-611
812.196	-1700
812.295	-802
812.395	-1840
812.494	-1230
812.593	-1212
812.692	-465
812.792	-1250
812.891	-775
812.990	-1310
813.089	-969
813.188	-994
813.287	-319
813.386	-142
813.485	-1722
813.584	-1641
813.683	-606
813.782	-1048
813.881	-101
813.980	-1121
814.079	-1372
814.178	-572
814.277	-234
814.376	-1544
814.475	-257
814.574	-1058
814.672	-998
814.771	-811
814.870	-433
814.969	-1159
815.067	-499
815.166	-446
815.265	-529
815.363	-214
815.462	-191
815.560	-234
815.659	-476
815.758	-419
815.856	548
815.955	-691
816.053	-758
816.152	-192
816.250	-208
816.348	-912
816.447	-79
816.545	203
816.644	679
816.742	33
816.840	246
816.938	-47
817.037	1059
817.135	32
817.233	928
817.331	-796
817.430	200
817.528	584
817.626	-123
817.724	-348
817.822	-478
817.920	689
818.018	810
818.116	1766
818.214	6919
818.312	19419
818.410	18955
818.508	2451
818.606	1063
818.704	454
818.802	545
818.900	-283
818.997	1021
819.095	73
819.193	2010
819.291	6177
819.389	14367
819.486	41432
819.584	28418
819.682	4203
819.779	679
819.877	393
819.975	-412
820.072	-1213
820.170	570
820.267	-437
820.365	-382
820.462	-1106
820.560	455
820.657	-351
820.755	-450
820.852	-806
820.949	194
821.047	125
821.144	-407
821.241	-253
821.339	-359
821.436	-641
821.533	-98
821.631	-447
821.728	279
821.825	-271
821.922	-181
822.019	284
822.116	-241
822.214	283
822.311	-17
822.408	172
822.505	149
822.602	-273
822.699	-950
822.796	-30
822.893	-356
822.990	-1144
823.086	-363
823.183	-708
823.280	-107
823.377	-502
823.474	152
823.571	-397
823.667	-529
823.764	-1033
823.861	-146
823.958	-766
824.054	342
824.151	-782
824.248	-1006
824.344	-35
824.441	-657
824.537	-732
824.634	-536
824.731	-931
824.827	-610
824.924	-524
825.020	-571
825.116	-1401
825.213	-453
825.309	-653
825.406	39
825.502	-482
825.598	-1288
825.695	-543
825.791	675
825.887	-322
825.983	-1631
826.080	-560
826.176	-503
826.272	-1187
826.368	92
826.464	-1356
826.560	-425
826.656	-1799
826.753	-337
826.849	-931
826.945	656
827.041	-567
827.137	-1822
827.233	-118
827.328	-643
827.424	-917
827.520	-288
827.616	-1326
827.712	-619
827.808	-33
827.904	-1427
827.999	-107
828.095	-1580
828.191	-862
828.287	-147
828.382	-1363
828.478	-306
828.574	-954
828.669	-1546
828.765	-300
828.860	-705
828.956	-777
829.051	-357
829.147	-477
829.242	-445
829.338	-1153
829.433	246
829.529	-1264
829.624	-200
829.720	-1446
829.815	-426
829.910	-802
830.005	-223
830.101	-1425
830.196	-551
830.291	-454
830.386	-236
830.482	-356
830.577	-606
830.672	-1488
830.767	-83
830.862	-455
830.957	-337
831.052	-438
831.147	79
831.242	-1237
831.337	-652
831.432	-779
831.527	-1387
831.622	66
831.717	-1115
831.812	-405
831.907	-132
832.002	-219
832.097	-547
832.191	-1732
832.286	-133
832.381	-328
832.476	-153
832.570	-324
832.665	1284
832.760	93
832.854	-469
832.949	-784
833.044	-1205
833.138	-568
833.233	-20
833.327	-1323
833.422	-144
833.516	-1045
833.611	-1824
833.705	-747
833.799	-138
833.894	-1047
833.988	-600
834.083	-971
834.177	-384
834.271	-1451
834.365	-582
834.460	-908
834.554	-1105
834.648	-328
834.742	-886
834.836	-1843
834.931	-819
835.025	-283
835.119	-1036
835.213	-1114
835.307	-770
835.401	-1409
835.495	-434
835.589	-284
835.683	-163
835.777	-1558
835.871	-1403
835.965	-1838
836.059	-635
836.152	-328
836.246	-449
836.340	-926
836.434	-1149
836.528	-2149
836.621	108
836.715	-1595
836.809	-1224
836.902	-329
836.996	-801
837.090	-824
837.183	-229
837.277	-1294
837.370	-1037
837.464	-500
837.557	-452
837.651	-1143
837.744	-450
837.838	-1583
837.931	-411
838.025	-1576
838.118	-529
838.211	-1236
838.305	-1133
838.398	-1002
838.491	-1097
838.584	-973
838.678	-728
838.771	375
838.864	213
838.957	-2170
839.050	-568
839.144	-1675
839.237	-1082
839.330	-1402
839.423	-643
839.516	-1936
839.609	-904
839.702	-1273
839.795	-1192
839.888	-1610
839.981	-914
840.073	-1511
840.166	-998
840.259	-1182
840.352	-259
840.445	-1262
840.538	-875
840.630	-791
840.723	-1668
840.816	-623
840.909	-806
841.001	-1797
841.094	-711
841.186	-253
841.279	-1314
841.372	-955
841.464	-1084
841.557	-1845
841.649	-1610
841.742	-1361
841.834	-1326
841.927	-1243
842.019	-1315
842.111	-1082
842.204	-966
842.296	-839
842.388	-100
842.481	-987
842.573	-981
842.665	-935
842.758	-1224
842.850	-1285
842.942	-1657
843.034	-1192
843.126	-592
843.218	-954
843.310	-1229
843.402	-489
843.495	881
843.587	818
843.679	-937
843.771	-424
843.862	-1327
843.954	-192
844.046	-682
844.138	-1543
844.230	-993
844.322	-1575
844.414	-772
844.505	-658
844.597	-714
844.689	-652
844.781	-371
844.872	-917
844.964	-364
845.056	-965
845.147	-475
845.239	-1166
845.331	-177
845.422	-2514
845.514	-907
845.605	-1154
845.697	-1130
845.788	-616
845.880	-699
845.971	-1704
846.063	-822
846.154	-777
846.245	-503
846.337	-1786
846.428	-625
846.519	-1392
846.610	481
846.702	-745
846.793	-133
846.884	-702
846.975	-1162
847.066	-1203
847.158	-1084
847.249	-1465
847.340	-616
847.431	-1476
847.522	-929
847.613	-1942
847.704	-904
847.795	-1270
847.886	-599
847.977	55
848.068	-714
848.158	-1345
848.249	-933
848.340	-1501
848.431	-884
848.522	-1908
848.612	-711
848.703	-999
848.794	-307
848.885	-1050
848.975	-1389
849.066	-891
849.157	-56
849.247	-1262
849.338	681
849.428	2343
849.519	6386
849.609	13385
849.700	25196
849.790	52652
849.881	24115
849.971	1754
850.061	-100
850.152	-183
850.242	-394
850.332	-536
850.423	-1027
850.513	-1416
850.603	-856
850.693	-424
850.784	-323
850.874	-1162
850.964	-1008
851.054	-791
851.144	-476
851.234	-1680
851.324	-606
851.414	-784
851.505	-390
851.595	-1357
851.684	-1005
851.774	-719
851.864	-896
851.954	-1527
852.044	-428
852.134	-1511
852.224	-320
852.314	-1385
852.403	-644
852.493	-1285
852.583	-1808
852.673	-870
852.762	261
852.852	-1683
852.942	-236
853.031	-665
853.121	-132
853.210	-1203
853.300	247
853.389	-345
853.479	512
853.568	2336
853.658	3441
853.747	8408
853.837	15113
853.926	33127
854.015	65941
854.105	113970
854.194	212141
854.283	111714
854.373	17999
854.462	5064
854.551	2807
854.640	813
854.729	654
854.819	874
854.908	236
854.997	739
855.086	-325
855.175	-1140
855.264	-286
855.353	-622
855.442	161
855.531	-1088
855.620	-806
855.709	-1089
855.798	-405
855.887	-481
855.975	-1443
856.064	-760
856.153	-132
856.242	-1282
856.331	-725
856.419	-1328
856.508	-749
856.597	-905
856.685	-888
856.774	-1260
856.863	-209
856.951	-1158
857.040	-767
857.128	-1133
857.217	-235
857.305	-1848
857.394	-891
857.482	-1659
857.571	-554
857.659	-1663
857.747	-763
857.836	-1514
857.924	-610
858.012	-1686
858.101	-611
858.189	-680
858.277	-823
858.365	-567
858.454	147
858.542	-1833
858.630	-620
858.718	-1378
858.806	-980
858.894	-1541
858.982	-1555
859.070	-1139
859.158	-789
859.246	-1950
859.334	-696
859.422	-1077
859.510	-574
859.598	-1191
859.686	-1366
859.773	-1229
859.861	-731
859.949	-928
860.037	-1215
860.125	-1725
860.212	-289
860.300	-1315
860.388	-537
860.475	-1783
860.563	-1275
860.651	-1074
860.738	-1165
860.826	-1274
860.913	-1207
861.001	-1300
861.088	-920
861.176	-1638
861.263	-771
861.350	-1431
861.438	-368
861.525	-1442
861.612	-225
861.700	-1052
861.787	-1612
861.874	-1533
861.962	82
862.049	-477
862.136	-707
862.223	-1509
862.310	-728
862.397	-753
862.484	-1236
862.572	-1390
862.659	-640
862.746	-1194
862.833	-1203
862.920	-1070
863.007	-354
863.094	-878
863.180	-351
863.267	-654
863.354	-1988
863.441	-796
863.528	-1272
863.615	-1057
863.701	-522
863.788	-1255
863.875	-684
863.961	-710
864.048	-1032
864.135	-1500
864.221	-1357
864.308	-393
864.395	-451
864.481	-831
864.568	-559
864.654	-1033
864.741	-559
864.827	-1135
864.914	-1272
865.000	-262
865.086	-47
865.173	843
865.259	1886
865.345	1080
865.432	2694
865.518	1140
865.604	3212
865.690	5246
865.776	9021
865.863	19443
865.949	38305
866.035	59955
866.121	104423
866.207	152718
866.293	53349
866.379	9795
866.465	3968
866.551	2333
866.637	2130
866.723	1567
866.809	1327
866.895	978
866.981	1426
867.066	984
867.152	1660
867.238	-174
867.324	387
867.409	675
867.495	58
867.581	7
867.667	635
867.752	166
867.838	401
867.923	-239
868.009	1210
868.094	470
868.180	228
868.266	-131
868.351	630
868.436	657
868.522	1251
868.607	1034
868.693	1352
868.778	2195
868.863	2781
868.949	264
869.034	-660
869.119	63
869.204	179
869.290	86
869.375	140
869.460	321
869.545	-316
869.630	-259
869.715	-426
869.800	-251
869.885	-274
869.970	-124
870.055	-79
870.140	-240
870.225	466
870.310	148
870.395	-842
870.480	-445
870.565	473
870.650	-101
870.734	171
870.819	-337
870.904	-595
870.989	-451
871.073	1363
871.158	-373
871.243	257
871.327	45
871.412	-356
871.496	-326
871.581	-357
871.665	-284
871.750	71
871.834	123
871.919	516
872.003	-821
872.088	628
872.172	-370
872.257	-312
872.341	10
872.425	17
872.509	-450
872.594	-576
872.678	-1067
872.762	-138
872.846	-811
872.930	504
873.015	-453
873.099	-1104
873.183	-715
873.267	317
873.351	-524
873.435	-426
873.519	-871
873.603	-477
873.687	-833
873.771	-514
873.855	-371
873.938	199
874.022	-991
874.106	-209
874.190	-321
874.274	73
874.358	-243
874.383	-487
874.441	-1061
874.490	-956
874.525	-890
874.598	-332
874.609	-249
874.692	-382
874.705	-324
874.776	-28
874.813	-241
874.859	-518
874.920	-503
874.943	-509
875.027	-754
875.028	-745
875.110	-167
875.135	-104
875.194	-39
875.243	-166
875.277	-226
875.350	-962
875.361	-1078
875.444	-493
875.457	-294
875.527	820
875.565	393
875.611	-198
875.672	-692
875.694	-857
875.778	-171
875.780	-193
875.861	-1235
875.887	-785
875.944	236
875.994	172
876.027	127
876.101	12
876.111	-14
876.194	-446
876.209	-444
876.277	-338
876.316	-261
876.360	-224
876.423	-428
876.443	-471
876.526	-581
876.530	-554
876.610	-183
876.637	-392
876.693	-796
876.745	-188
876.776	214
876.852	156
876.859	150
876.942	-361
876.959	-428
877.025	-659
877.066	-459
877.108	-397
877.173	-177
877.190	-95
877.273	-204
877.280	-227
877.356	-308
877.387	-115
877.439	95
877.494	-117
877.522	-228
877.601	-145
877.605	-140
877.688	113
877.708	78
877.770	45
877.815	-107
877.853	-391
877.922	-4
877.936	96
878.018	-612
878.029	-522
878.101	194
878.136	-120
878.184	-521
878.242	-136
878.266	-52
878.349	-157
878.349	-156
878.431	182
878.456	150
878.514	41
878.563	-166
878.596	-298
878.670	-593
878.679	-630
878.761	-126
878.776	-127
878.844	-165
878.883	169
878.926	573
878.990	141
879.008	27
879.091	79
879.097	75
879.173	-349
879.203	-360
879.255	-104
879.310	-149
879.338	-176
879.417	111
879.420	122
879.502	-49
879.523	124
879.584	713
879.630	433
879.667	-4
879.736	-208
879.749	-201
879.831	-38
879.843	-19
879.913	441
879.949	500
879.995	266
880.056	142
880.077	188
880.159	124
880.162	157
880.241	919
880.269	1084
880.323	1552
880.375	2029
880.405	2259
880.482	2141
880.487	2160
880.569	4551
880.588	4957
880.651	7024
880.694	6198
880.733	6078
880.801	6877
880.815	5983
880.896	2876
880.907	2317
880.978	774
881.013	406
881.060	592
881.120	587
881.142	492
881.224	214
881.226	196
881.305	83
881.332	253
881.387	682
881.438	581
881.469	407
881.545	205
881.550	180
881.632	289
881.651	127
881.713	143
881.757	372
881.795	518
881.863	834
881.876	786
881.958	104
881.969	24
882.039	96
882.075	339
882.121	485
882.181	465
882.202	593
882.284	514
882.287	581
882.365	1559
882.393	1232
882.446	802
882.499	1169
882.528	1368
882.605	1340
882.609	1311
882.690	837
882.711	500
882.771	253
882.817	744
882.853	881
882.923	415
882.934	411
883.015	842
883.029	825
883.096	358
883.135	471
883.177	749
883.241	534
883.258	487
883.339	465
883.347	431
883.420	424
883.453	606
883.501	394
883.558	219
883.583	270
883.663	6
883.664	1
883.744	351
883.770	613
883.825	1004
883.876	803
883.906	848
883.981	1538
883.987	1554
884.068	1006
884.087	1015
884.149	916
884.193	468
884.230	348
884.298	775
884.310	852
884.391	856
884.404	883
884.472	963
884.510	909
884.552	729
884.615	797
884.633	842
884.714	413
884.721	416
884.794	705
884.826	730
884.875	906
884.932	1190
884.956	1328
885.036	1480
885.037	1474
885.117	1060
885.143	962
885.197	631
885.248	405
885.278	446
885.354	290
885.358	288
885.439	580
885.459	483
885.519	523
885.565	717
885.599	744
885.670	835
885.680	864
885.760	1178
885.775	1192
885.840	1137
885.881	1019
885.921	995
885.986	1111
886.001	1065
886.081	596
886.091	554
886.161	978
886.196	1168
886.241	935
886.302	634
886.322	651
886.402	498
886.407	489
886.482	848
886.512	1049
886.562	1197
886.617	1095
886.642	986
886.722	868
886.722	859
886.802	1141
886.828	1266
886.882	982
886.933	637
886.962	706
887.038	906
887.042	926
887.122	1185
887.143	1216
887.202	1573
887.248	1921
887.281	1594
887.353	906
887.361	930
887.441	867
887.458	890
887.521	392
887.563	68
887.601	584
887.668	1483
887.680	1456
887.760	1083
887.773	1022
887.840	824
887.878	728
887.919	545
887.983	277
887.999	348
888.079	613
888.088	648
888.158	682
888.193	623
888.238	1106
888.297	1774
888.317	1725
888.397	1540
888.402	1514
888.476	1368
888.507	1301
888.556	1147
888.612	955
888.635	872
888.715	616
888.717	605
888.794	1038
888.821	1183
888.873	1605
888.926	2051
888.953	1872
889.031	1275
889.032	1280
889.111	1058
889.135	971
889.190	905
889.240	874
889.270	1029
889.345	1358
889.349	1364
889.428	1352
889.449	1343
889.507	1204
889.554	1077
889.586	1209
889.658	1487
889.665	1475
889.744	1268
889.763	1210
889.824	772
889.867	455
889.903	822
889.972	1539
890.076	1284
890.181	1157
890.285	1177
890.390	1503
890.494	1288
890.599	1812
890.703	1143
890.807	1073
890.912	1873
891.016	1810
891.120	1728
891.224	1823
891.329	2547
891.433	1710
891.537	1639
891.641	2088
891.745	1776
891.849	927
891.953	1239
892.058	1102
892.162	1583
892.266	827
892.370	1020
892.474	1382
892.578	1129
892.682	2369
892.786	2676
892.889	3505
892.993	811
893.097	1177
893.201	948
893.305	2475
893.409	1780
893.512	742
893.616	648
893.720	90
893.824	339
893.927	1891
894.031	1123
894.135	1578
894.238	1600
894.342	714
894.445	609
894.549	2174
894.652	1269
894.756	953
894.859	941
894.963	597
895.066	1365
895.170	700
895.273	581
895.377	1561
895.480	1364
895.583	1094
895.687	366
895.790	542
895.893	998
895.997	1158
896.100	1458
896.203	521
896.306	824
896.409	1685
896.513	1030
896.616	793
896.719	742
896.822	754
896.925	1038
897.028	916
897.131	1054
897.234	1096
897.337	919
897.440	973
897.543	475
897.646	472
897.749	821
897.852	1911
897.954	412
898.057	578
898.160	323
898.263	670
898.366	1263
898.468	1103
898.571	873
898.674	781
898.776	802
898.879	741
898.982	698
899.084	-138
899.187	1608
899.290	1314
899.392	641
899.495	728
899.597	882
899.700	397
899.802	288
899.904	353
900.007	1849
900.109	2184
900.212	719
900.314	1419
900.416	927
900.519	792
900.621	388
900.723	1026
900.826	1144
900.928	284
901.030	378
901.132	1066
901.234	1058
901.336	878
901.439	176
901.541	1032
901.643	100
901.745	310
901.847	1137
901.949	696
902.051	241
902.153	1001
902.255	779
902.357	1156
902.459	457
902.560	-46
902.662	1378
902.764	1473
902.866	72
902.968	891
903.070	911
903.171	1192
903.273	973
903.375	-52
903.477	477
903.578	1156
903.680	307
903.781	1028
903.883	1125
903.985	1378
904.086	-376
904.188	982
904.289	-354
904.391	264
904.492	406
904.594	1069
904.695	725
904.796	985
904.898	431
904.999	822
905.100	1005
905.202	453
905.303	2129
905.404	808
905.506	551
905.607	93
905.708	-152
905.809	491
905.910	710
906.012	539
906.113	986
906.214	681
906.315	261
906.416	783
906.517	319
906.618	930
906.719	413
906.820	1135
906.921	284
907.022	-9
907.123	843
907.224	715
907.325	853
907.425	374
907.526	58
907.627	533
907.728	-3
907.828	-284
907.929	701
908.030	446
908.131	726
908.231	987
908.332	570
908.433	213
908.533	207
908.634	1359
908.734	377
908.835	303
908.935	759
909.036	986
909.136	1331
909.237	292
909.337	-331
909.438	761
909.538	253
909.638	367
909.739	132
909.839	-482
909.939	1314
910.040	372
910.140	17
910.240	745
910.340	1463
910.440	572
910.541	265
910.641	253
910.741	861
910.841	7
910.941	933
911.041	-282
911.141	735
911.241	61
911.341	127
911.441	689
911.541	-162
911.641	76
911.741	166
911.841	616
911.941	670
912.040	961
912.140	-390
912.240	-112
912.340	1012
912.440	635
912.539	686
912.639	763
912.739	545
912.838	-412
912.938	688
913.038	798
913.137	491
913.237	253
913.336	-141
913.436	286
913.535	-84
913.635	14
913.734	100
913.834	597
913.933	1334
914.033	496
914.132	319
914.231	573
914.331	267
914.430	102
914.529	1876
914.629	731
914.728	673
914.827	685
914.926	943
915.025	600
915.125	80
915.224	963
915.323	828
915.422	433
915.521	156
915.620	481
915.719	-92
915.818	233
915.917	281
916.016	601
916.115	-57
916.214	698
916.313	413
916.412	-83
916.510	924
916.609	907
916.708	576
916.807	1426
916.906	102
917.004	1289
917.103	449
917.202	653
917.301	170
917.399	212
917.498	57
917.596	417
917.695	450
917.794	895
917.892	1168
917.991	859
918.089	1293
918.188	697
918.286	893
918.384	761
918.483	909
918.581	528
918.680	1547
918.778	764
918.876	454
918.975	490
919.073	640
919.171	-69
919.269	1068
919.368	673
919.466	350
919.564	757
919.662	1303
919.760	545
919.858	1319
919.956	892
920.054	812
920.153	767
920.251	359
920.349	1003
920.446	1339
920.544	604
920.642	1053
920.740	9
920.838	777
920.936	1539
921.034	1663
921.132	1407
921.229	581
921.327	635
921.425	543
921.523	775
921.620	1304
921.718	2151
921.816	1175
921.913	2131
922.011	1339
922.109	1339
922.206	1242
922.304	1504
922.401	1700
922.499	1241
922.596	2361
922.694	1485
922.791	1391
922.888	2810
922.986	4080
923.083	4440
923.181	3023
923.278	3540
923.375	4795
923.473	5298
923.570	5297
923.667	4670
923.764	3984
923.861	4528
923.959	4957
924.056	3317
924.153	4009
924.250	4822
924.347	4132
924.444	5015
924.541	4040
924.638	4007
924.735	4310
924.832	4371
924.929	3133
925.026	4021
925.123	3900
925.220	3287
925.317	3506
925.414	2602
925.510	4784
925.607	4487
925.704	5312
925.801	5065
925.897	4281
925.994	5459
926.091	4774
926.187	4289
926.284	4348
926.381	4481
926.477	4452
926.574	3900
926.670	3903
926.767	4743
926.863	4552
926.960	3503
927.056	4765
927.153	4283
927.249	4212
927.346	3738
927.442	2730
927.538	3752
927.635	4070
927.731	2547
927.827	2869
927.924	4343
928.020	3387
928.116	2831
928.212	4120
928.308	3834
928.404	4018
928.501	3379
928.597	3812
928.693	3054
928.789	3549
928.885	3597
928.981	2897
929.077	3818
929.173	3211
929.269	3713
929.365	2986
929.461	2753
929.557	2902
929.652	3510
929.748	3089
929.844	3719
929.940	3302
930.036	2021
930.131	2935
930.227	3482
930.323	1938
930.419	4357
930.514	2866
930.610	3177
930.705	2059
930.801	2854
930.897	2103
930.992	2705
931.088	2534
931.183	2951
931.279	3325
931.374	4472
931.470	2519
931.565	2012
931.660	3548
931.756	4044
931.851	2051
931.946	2021
932.042	3127
932.137	1220
932.232	1819
932.327	2818
932.423	3046
932.518	2912
932.613	2365
932.708	2859
932.803	2793
932.898	2018
932.994	2723
933.089	3170
933.184	2335
933.279	2834
933.374	2429
933.469	2908
933.563	2563
933.658	2897
933.753	2241
933.848	2123
933.943	3148
934.038	3229
934.133	3290
934.227	2247
934.322	1887
934.417	3043
934.512	2371
934.606	3745
934.701	1828
934.796	2325
934.890	1962
934.985	2927
935.079	2971
935.174	2277
935.269	1554
935.363	1695
935.458	3280
935.552	2553
935.646	1892
935.741	2032
935.835	2684
935.930	2712
936.024	2880
936.118	1854
936.213	1028
936.307	2919
936.401	1925
936.496	1409
936.590	2545
936.684	3022
936.778	2278
936.872	2024
936.966	1272
937.060	1589
937.155	2197
937.249	2651
937.343	1912
937.437	2484
937.531	1632
937.625	2397
937.719	1984
937.813	1964
937.906	1964
938.000	1884
938.094	1569
938.188	3348
938.282	2479
938.376	2299
938.469	1838
938.563	2195
938.657	3409
938.751	2325
938.844	2392
938.938	1777
939.032	2411
939.125	2563
939.219	1636
939.312	2205
939.406	2192
939.500	3023
939.593	2384
939.686	1053
939.780	1461
939.873	1524
939.967	2398
940.060	2276
940.154	2138
940.247	1764
940.340	2112
940.434	2924
940.527	2951
940.620	1668
940.713	1697
940.806	1575
940.900	1522
940.993	1566
941.086	2505
941.179	1423
941.272	1916
941.365	1960
941.458	2744
941.551	2921
941.644	1882
941.737	1945
941.830	2157
941.923	2502
942.016	2266
942.109	2061
942.202	1307
942.295	1694
942.388	879
942.480	1956
942.573	1060
942.666	1408
942.759	1316
942.851	1298
942.944	1203
943.037	1459
943.129	1501
943.222	1795
943.315	1387
943.407	1707
943.500	1280
943.592	257
943.685	1737
943.777	1081
943.870	2067
943.962	1962
944.055	278
944.147	1650
944.239	572
944.332	1912
944.424	1265
944.516	1447
944.609	1287
944.701	2397
944.793	1447
944.885	1948
944.977	2002
945.070	2163
945.162	872
945.254	1888
945.346	1847
945.438	1434
945.530	2558
945.622	2190
945.714	2167
945.806	2211
945.898	2085
945.990	2207
946.082	2914
946.174	1391
946.266	1389
946.358	1316
946.449	1018
946.541	1663
946.633	1824
946.725	1878
946.816	747
946.908	1605
947.000	1492
947.091	942
947.183	999
947.275	1632
947.366	875
947.458	798
947.549	1213
947.641	857
947.732	476
947.824	1265
947.915	390
948.007	968
948.098	1830
948.190	1448
948.281	945
948.372	712
948.464	266
948.555	706
948.646	951
948.737	1342
948.829	905
948.920	585
949.011	379
949.102	285
949.193	857
949.284	770
949.376	1080
949.467	1407
949.558	404
949.649	1654
949.740	1173
949.831	1674
949.922	1106
950.013	364
950.104	872
950.194	288
950.285	234
950.376	128
950.467	1077
950.558	439
950.649	534
950.739	396
950.830	678
950.921	1608
951.011	958
951.102	1008
951.193	1509
951.283	1825
951.374	824
951.464	1736
951.555	1059
951.646	1398
951.736	1695
951.826	-232
951.917	141
952.007	-99
952.098	375
952.188	658
952.279	581
952.369	1006
952.459	524
952.549	1181
952.640	313
952.730	723
952.820	10
952.910	258
953.001	727
953.091	646
953.181	884
953.271	41
953.361	645
953.451	521
953.541	1107
953.631	936
953.721	-158
953.811	1273
953.901	332
953.991	50
954.081	116
954.171	781
954.261	1253
954.350	1363
954.440	775
954.530	930
954.620	900
954.710	1407
954.799	318
954.889	927
954.979	681
955.068	-462
955.158	305
955.248	106
955.337	1096
955.427	575
955.516	989
955.606	815
955.695	970
955.785	804
955.874	629
955.964	564
956.053	-82
956.142	555
956.232	86
956.321	1047
956.410	775
956.500	103
956.589	1098
956.678	290
956.767	595
956.856	617
956.946	197
957.035	830
957.124	1049
957.213	201
957.302	133
957.391	758
957.480	860
957.569	-143
957.658	502
957.747	855
957.836	-43
957.925	866
958.014	99
958.103	-124
958.192	835
958.280	-267
958.369	401
958.458	1065
958.547	-250
958.635	-663
958.724	745
958.813	-313
958.901	1086
958.990	171
959.079	585
959.167	558
959.256	528
959.344	585
959.433	364
959.521	560
959.610	733
959.698	295
959.787	-481
959.875	316
959.964	821
960.052	1069
960.140	-136
960.228	630
960.317	-256
960.405	282
960.493	102
960.581	384
960.670	-357
960.758	-97
960.846	196
960.934	-328
961.022	293
961.110	202
961.198	940
961.286	386
961.374	645
961.462	458
961.550	505
961.638	-89
961.726	182
961.814	257
961.902	-197
961.990	750
962.078	157
962.165	173
962.253	838
962.341	262
962.429	567
962.516	-200
962.604	16
962.692	549
962.779	611
962.867	249
962.955	-423
963.042	-2
963.130	241
963.217	669
963.305	382
963.392	336
963.480	156
963.567	566
963.654	323
963.742	98
963.829	885
963.917	990
964.004	535
964.091	60
964.178	155
964.266	-185
964.353	-889
964.440	830
964.527	125
964.614	-354
964.701	178
964.789	813
964.876	-253
964.963	-583
965.050	-25
965.137	-160
965.224	431
965.311	17
965.398	196
965.485	332
965.571	56
965.658	406
965.745	-52
965.832	399
965.919	-710
966.006	407
966.092	388
966.179	514
966.266	704
966.352	193
966.439	383
966.526	835
966.612	1243
966.699	680
966.786	-52
966.872	-203
966.959	-761
967.045	553
967.132	803
967.218	-4
967.304	333
967.391	397
967.477	-256
967.564	258
967.650	865
967.736	255
967.822	127
967.909	-557
967.995	412
968.081	392
968.167	-312
968.254	21
968.340	-364
968.426	-499
968.512	585
968.598	301
968.684	-796
968.770	676
968.856	324
968.942	1419
969.028	1219
969.114	-653
969.200	-759
969.286	-778
969.372	593
969.457	-35
969.543	-351
969.629	-177
969.715	-280
969.801	692
969.886	114
969.972	209
970.058	234
970.143	1505
970.229	2127
970.315	2005
970.400	181
970.486	-419
970.571	-34
970.657	745
970.742	-544
970.828	503
970.913	-166
970.999	-693
971.084	-813
971.169	-171
971.255	-593
971.340	-704
971.425	-92
971.511	124
971.596	-322
971.681	-365
971.766	-464
971.852	183
971.937	813
972.022	85
972.107	-717
972.192	19
972.277	153
972.362	-310
972.447	-630
972.532	116
972.617	-756
972.702	237
972.787	-940
972.872	-73
972.957	-265
973.042	259
973.126	-171
973.211	-393
973.296	386
973.381	-97
973.466	-547
973.550	569
973.635	-29
973.720	201
973.804	449
973.889	-79
973.973	-203
974.058	1192
974.143	101
974.227	-149
974.312	-12
974.396	-147
974.481	-281
974.565	-117
974.649	-469
974.734	-987
974.818	-69
974.902	-439
974.987	203
975.071	-292
975.155	28
975.240	-470
975.324	-215
975.408	529
975.492	-623
975.576	-656
975.660	33
975.744	-544
975.829	-257
975.913	223
975.997	-527
976.081	-786
976.165	245
976.249	-646
976.333	197
976.416	-87
976.500	-167
976.584	-280
976.668	69
976.752	-432
976.836	35
976.919	-209
977.003	-110
977.087	705
977.171	-620
977.254	-431
977.338	368
977.422	-9
977.505	79
977.589	455
977.672	294
977.756	1112
977.839	450
977.923	-41
978.006	661
978.090	681
978.173	-106
978.257	86
978.340	320
978.423	557
978.507	245
978.590	-13
978.673	-406
978.756	1180
978.840	-181
978.923	52
979.006	-984
979.089	-859
979.172	324
979.255	271
979.338	-1439
979.422	-509
979.505	-60
979.588	-85
979.671	-384
979.754	261
979.836	430
979.919	-301
980.002	-312
980.085	-75
980.168	-292
980.251	-37
980.334	-788
980.416	393
980.499	84
980.582	-1211
980.665	111
980.747	1018
980.830	649
980.912	366
980.995	101
981.078	647
981.160	-441
981.243	-1005
981.325	262
981.408	-196
981.490	562
981.573	-373
981.655	-322
981.738	329
981.820	-276
981.902	665
981.984	-674
982.067	-197
982.149	268
982.231	-453
982.314	188
982.396	529
982.478	-379
982.560	-406
982.642	-131
982.724	-531
982.807	292
982.888	62
982.971	692
983.053	-248
983.135	-396
983.216	-525
983.298	-148
983.380	-513
983.462	565
983.544	119
983.626	-236
983.708	565
983.790	372
983.871	611
983.953	208
984.035	-149
984.117	-50
984.198	209
984.280	293
984.362	-66
984.443	971
984.525	486
984.606	37
984.688	-53
984.769	104
984.851	124
984.932	-309
985.014	351
985.095	83
985.177	165
985.258	-485
985.339	439
985.421	632
985.502	-902
985.583	-564
985.664	915
985.746	-402
985.827	-1493
985.908	1016
985.989	1127
986.070	-707
986.151	-54
986.232	-213
986.313	675
986.395	42
986.476	792
986.557	-355
986.637	435
986.718	267
986.799	327
986.880	-352
986.961	412
987.042	463
987.123	636
987.204	68
987.284	177
987.365	138
987.446	635
987.526	929
987.607	757
987.688	216
987.768	289
987.849	513
987.930	432
988.010	135
988.091	68
988.171	889
988.252	291
988.332	931
988.413	85
988.493	832
988.573	518
988.654	648
988.734	-251
988.814	-465
988.895	818
988.975	41
989.055	400
989.135	-57
989.216	695
989.296	287
989.376	269
989.456	346
989.536	-12
989.616	81
989.696	156
989.776	503
989.856	839
989.936	-380
990.016	-494
990.096	1038
990.176	730
990.256	-4
990.336	-771
990.416	-318
990.495	-29
990.575	662
990.655	152
990.735	77
990.814	491
990.894	514
990.974	506
991.053	104
991.133	-734
991.213	-32
991.292	-319
991.372	441
991.451	-278
991.531	-228
991.610	-278
991.690	77
991.769	173
991.849	-544
991.928	-258
992.007	-761
992.087	-179
992.166	145
992.245	-313
992.324	460
992.404	-848
992.483	-193
992.562	537
992.641	-361
992.720	-431
992.799	472
992.879	-490
992.958	-9
993.037	-101
993.116	-368
993.195	-72
993.274	70
993.353	183
993.432	332
993.510	-637
993.589	49
993.668	-345
993.747	-251
993.826	15
993.904	186
993.983	-900
994.062	-478
994.141	479
994.219	-1011
994.298	-1091
994.377	-574
994.455	112
994.534	-854
994.612	-23
994.691	-1315
994.769	-693
994.848	67
994.926	-267
995.005	348
995.083	-425
995.161	275
995.240	-1203
995.318	-961
995.397	-759
995.475	-281
995.553	-308
995.631	-616
995.710	-803
995.788	-814
995.866	-993
995.944	98
996.022	-267
996.100	-560
996.178	-153
996.256	-1248
996.334	-147
996.412	-554
996.490	-899
996.568	-1429
996.646	-110
996.724	466
996.802	-490
996.880	-1207
996.958	135
997.036	-829
997.113	-748
997.191	-403
997.269	1049
997.346	-1236
997.424	-742
997.502	-1415
997.579	-567
997.657	-378
997.735	-15
997.812	-992
997.890	-935
997.967	-1386
998.045	-391
998.122	-788
998.200	-269
998.277	-911
998.354	-384
998.432	-1308
998.509	581
998.586	-1580
998.664	-711
998.741	-916
998.818	-401
998.896	-987
998.973	-1414
999.050	-1679
999.127	-519
999.204	-509
999.281	-915
999.358	-483
999.435	-676
999.512	-1540
999.589	-1157
999.666	-774
999.743	-489
999.820	-1404
999.897	-241
999.974	-765
1000.051	-992
1000.128	-952
1000.205	-112
1000.281	-407
1000.358	-907
1000.435	-838
1000.512	-577
1000.588	-1349
1000.665	-974
1000.741	-1601
1000.818	-836
1000.895	-832
1000.971	134
1001.048	-871
1001.124	-981
1001.201	-514
1001.277	-432
1001.354	-303
1001.430	-1389
1001.507	-456
1001.583	-673
1001.659	-1075
1001.736	-1298
1001.812	-356
1001.888	-867
1001.964	-1262
1002.041	-905
1002.117	-173
1002.193	-774
1002.269	-523
1002.345	-370
1002.421	-1585
1002.497	-1553
1002.573	-1583
1002.649	-899
1002.725	-1022
1002.801	-1479
1002.877	-175
1002.953	-1581
1003.029	-1249
1003.105	-1243
1003.181	-1207
1003.257	-1464
1003.333	-547
1003.408	-1444
1003.484	-1054
1003.560	-664
1003.636	-1169
1003.711	-881
1003.787	-833
1003.862	-1128
1003.938	-1513
1004.014	-1299
1004.089	-1918
1004.165	-2182
1004.240	-476
1004.316	-908
1004.391	-1910
1004.467	-700
1004.542	-2157
1004.617	-403
1004.693	-747
1004.768	-1334
1004.844	-945
1004.919	-1205
1004.994	-1089
1005.069	-1109
1005.145	-485
1005.220	-905
1005.295	-1320
1005.370	-923
1005.445	-1880
1005.520	-973
1005.595	-1447
1005.670	-544
1005.745	-1733
1005.820	-1193
1005.895	-502
1005.970	-1542
1006.045	-1035
1006.120	-568
1006.195	-872
1006.270	-1201
1006.345	-1188
1006.419	-1123
1006.494	-1157
1006.569	-1616
1006.644	-1048
1006.718	-1040
1006.793	-505
1006.868	-1038
1006.942	-1162
1007.017	-1396
1007.092	-1366
1007.166	-1165
1007.241	-931
1007.315	-600
1007.390	-981
1007.464	-872
1007.539	-1325
1007.613	-871
1007.687	-1453
1007.762	-712
1007.836	-1399
1007.910	-770
1007.984	-1787
1008.059	-955
1008.133	-1089
1008.207	-1584
1008.281	-514
1008.356	-1297
1008.430	-1328
1008.504	-792
1008.578	-1337
1008.652	-1055
1008.726	-697
1008.800	-2085
1008.874	-1532
1008.948	-1042
1009.022	-1819
1009.096	-983
1009.170	-1212
1009.244	-1298
1009.317	-1292
1009.391	-1447
1009.465	-923
1009.539	-1593
1009.613	-880
1009.686	-824
1009.760	-1420
1009.834	-1125
1009.907	-1822
1009.981	-1006
1010.054	-429
1010.128	-1864
1010.201	-1359
1010.275	-1435
1010.349	-1480
1010.422	-762
1010.495	-1616
1010.569	-1477
1010.642	-1977
1010.716	-845
1010.789	-1241
1010.862	-575
1010.936	-1254
1011.009	-1609
1011.082	-1900
1011.155	-1329
1011.229	-1382
1011.302	-1145
1011.375	-814
1011.448	-965
1011.521	-947
1011.594	-1220
1011.667	-1857
1011.740	-782
1011.813	-1618
1011.886	-1598
1011.959	-1545
1012.032	-1001
1012.105	-2132
1012.178	-1437
1012.251	-524
1012.324	-1537
1012.396	-575
1012.469	-1310
1012.542	-2036
1012.614	-794
1012.687	-1982
1012.760	-1259
1012.833	-1442
1012.905	-1735
1012.978	-744
1013.050	-905
1013.123	-1213
1013.195	-1284
1013.268	-1461
1013.340	-1987
1013.413	-1135
1013.485	-1889
1013.558	-1544
1013.630	-1993
1013.702	-1507
1013.775	-1732
1013.847	-1242
1013.919	-1285
1013.992	-1753
1014.064	-972
1014.136	-2066
1014.208	-1165
1014.280	-1015
1014.353	-627
1014.425	-1157
1014.497	-93
1014.569	-2302
1014.641	-1807
1014.713	-1665
1014.785	-1694
1014.857	-1991
1014.929	-1530
1015.001	-2442
1015.072	-1698
1015.144	-2474
1015.216	-866
1015.288	-1323
1015.360	-2006
1015.431	-2184
1015.503	-1300
1015.575	-1482
1015.647	-1490
1015.718	-1834
1015.790	-2414
1015.861	-1240
1015.933	-1137
1016.005	-1179
1016.076	-2154
1016.148	-1778
1016.219	-1424
1016.291	-1557
1016.362	-1192
1016.433	-2515
1016.505	-1341
1016.576	-1449
1016.647	-2379
1016.719	-823
1016.790	-1826
1016.861	-1718
1016.932	-1338
1017.004	-1523
1017.075	-1889
1017.146	-1057
1017.217	-2090
1017.288	-1845
1017.359	-1170
1017.430	-1951
1017.502	-2011
1017.573	-1848
1017.644	-1790
1017.714	-1252
1017.785	-1233
1017.856	-1618
1017.927	-2104
1017.998	-2278
1018.069	-2142
1018.140	-1476
1018.210	-1410
1018.281	-1155
1018.352	-1705
1018.423	-2006
1018.493	-1701
1018.564	-966
1018.635	-1415
1018.705	-2308
1018.776	-1827
1018.846	-2383
1018.917	-1639
1018.987	-1182
1019.058	-2436
1019.128	-1199
1019.199	-1859
1019.269	-1660
1019.340	-1453
1019.410	-2829
1019.480	-1400
1019.551	-2476
1019.621	-1496
1019.691	-2205
1019.761	-1152
1019.832	-1718
1019.902	-1457
1019.972	-1699
1020.042	-1430
1020.112	-2528
1020.182	-2307
1020.252	-1674
1020.322	-2497
1020.392	-1943
1020.462	-1951
1020.532	-2774
1020.602	-2339
1020.672	-1987
1020.742	-2717
1020.812	-1237
1020.882	-1866
1020.952	-2175
1021.021	-2124
1021.091	-1272
1021.161	-2023
1021.230	-1856
1021.300	-2512
1021.370	-2159
1021.440	-2374
1021.509	-1928
1021.579	-2038
1021.648	-2108
1021.718	-1540
1021.787	-1939
1021.857	-2761
1021.926	-1593
1021.996	-1811
1022.065	-1566
1022.134	-2068
1022.204	-1499
1022.273	-2001
1022.342	-2677
1022.412	-1633
1022.481	-2055
1022.550	-2569
1022.619	-2647
1022.689	-2124
1022.758	-2327
1022.827	-2002
1022.896	-2977
1022.965	-2774
1023.034	-1387
1023.103	-2009
1023.172	-1753
1023.241	-1808
1023.310	-2146
1023.379	-1601
1023.448	-1648
1023.517	-1112
1023.586	-2256
1023.654	-2225
1023.723	-1273
1023.792	-2469
1023.861	-1622
1023.929	-1774
1023.998	-2705
1024.067	-934
1024.135	-1787
1024.204	-2127
1024.273	-1847
1024.341	-1663
1024.410	-1952
1024.478	-737
1024.547	-1862
1024.615	-2222
1024.684	-2260
1024.752	-2259
1024.820	-1850
1024.889	-1962
1024.957	-2353
1025.026	-1852
1025.094	-2412
1025.162	-2671
1025.230	-2270
1025.299	-1735
1025.367	-2276
1025.435	-1561
1025.503	-1935
1025.571	-1942
1025.639	-2046
1025.707	-2212
1025.776	-1690
1025.844	-1612
1025.912	-1918
1025.979	-1846
1026.047	-1150
1026.115	-1702
1026.183	-2164
1026.251	-2147
1026.319	-2077
1026.387	-2124
1026.454	-2083
1026.522	-1602
1026.590	-1735
1026.658	-1938
1026.725	-2087
1026.793	-2153
1026.861	-2314
1026.928	-1997
1026.996	-1469
1027.064	-1614
1027.131	-2054
1027.199	-2203
1027.266	-2269
1027.334	-1460
1027.401	-2145
1027.468	-2662
1027.536	-1445
1027.603	-1796
1027.671	-2593
1027.738	-1925
1027.805	-2612
1027.872	-968
1027.940	-1607
1028.007	-1697
1028.074	-1770
1028.141	-2431
1028.208	-1884
1028.275	-1832
1028.342	-2347
1028.409	-1554
1028.477	-1725
1028.544	-2192
1028.610	-2164
1028.678	-2548
1028.744	-2378
1028.811	-2502
1028.878	-1991
1028.945	-2269
1029.012	-2094
1029.079	-1685
1029.146	-1620
1029.212	-2546
1029.279	-2697
1029.346	-1927
1029.412	-2371
1029.479	-2755
1029.546	-2021
1029.612	-1444
1029.679	-2566
1029.745	-1886
1029.812	-2645
1029.878	-1758
1029.945	-1878
1030.011	-1387
1030.078	-2525
1030.144	-1421
1030.210	-2465
1030.277	-2432
1030.343	-1238
1030.409	-2921
1030.476	-2323
1030.542	-1906
1030.608	-2304
1030.674	-1850
1030.740	-2403
1030.807	-1243
1030.873	-2080
1030.939	-1968
1031.005	-1837
1031.071	-1751
1031.137	-2908
1031.203	-1889
1031.269	-2168
1031.335	-1858
1031.401	-1635
1031.467	-1552
1031.533	-2436
1031.598	-1691
1031.664	-2293
1031.730	-1455
1031.796	-1302
1031.861	-1754
1031.927	-2434
1031.993	-2044
1032.058	-2072
1032.124	-2027
1032.190	-2588
1032.255	-1947
1032.321	-1557
1032.386	-1775
1032.452	-1833
1032.518	-1579
1032.583	-1895
1032.648	-1610
1032.714	-2530
1032.779	-2334
1032.844	-2121
1032.910	-1898
1032.975	-1605
1033.040	-1620
1033.106	-2402
1033.171	-2045
1033.236	-2800
1033.301	-1809
1033.366	-1718
1033.432	-2078
1033.496	-807
1033.562	-2255
1033.627	-1551
1033.692	-1191
1033.757	-2253
1033.822	-1371
1033.887	-1335
1033.952	-1938
1034.016	-1207
1034.081	-1055
1034.146	-1242
1034.211	-885
1034.276	-696
1034.340	6
1034.405	-258
1034.470	701
1034.535	2573
1034.599	1070
1034.664	-197
1034.729	-303
1034.793	-846
1034.858	-1148
1034.922	-2281
1034.987	-1493
1035.051	-2146
1035.116	-1602
1035.180	-1751
1035.245	-1376
1035.309	-1653
1035.373	-1229
1035.437	-2137
1035.502	-1652
1035.566	-2401
1035.630	-1752
1035.695	-1524
1035.759	-1564
1035.823	-978
1035.887	-2383
1035.951	-2014
1036.015	-1994
1036.079	-2167
1036.143	-2364
1036.208	-1371
1036.271	-1281
1036.336	-1335
1036.399	-1455
1036.463	-1235
1036.527	-1949
1036.591	-1647
1036.655	-896
1036.719	-606
1036.783	-1586
1036.846	-1312
1036.910	271
1036.974	-1233
1037.037	-1497
1037.101	-1205
1037.165	-1599
1037.228	-1889
1037.292	-805
1037.355	-1485
1037.419	-1384
1037.483	-1795
1037.546	-1130
1037.609	-1984
1037.673	-1106
1037.736	-1714
1037.800	-1634
1037.863	-1847
1037.926	-1366
1037.990	-1653
1038.053	-1493
1038.116	-2098
1038.179	-783
1038.243	-1459
1038.306	-1731
1038.369	-1456
1038.432	-645
1038.495	-2197
1038.558	-2108
1038.621	-2933
1038.684	-1692
1038.747	-2471
1038.810	-1827
1038.873	-2019
1038.936	-1305
1038.999	-1575
1039.062	-1653
1039.125	-1351
1039.188	-1714
1039.250	-1690
1039.313	-1608
1039.376	-1510
1039.438	-1990
1039.501	-1893
1039.564	-1714
1039.627	-2449
1039.689	-1885
1039.752	-1682
1039.814	-1810
1039.877	-1713
1039.939	-1470
1040.002	-1501
1040.064	-2005
1040.127	-1966
1040.189	-2062
1040.251	-2136
1040.314	-2426
1040.376	-2285
1040.438	-1476
1040.501	-2053
1040.563	-1819
1040.625	-1556
1040.687	-1205
1040.750	-2067
1040.812	-1206
1040.874	-2142
1040.936	-2264
1040.998	-1300
1041.060	-1840
1041.122	-1433
1041.184	-1881
1041.246	-1507
1041.308	-1530
1041.370	-2218
1041.432	-1028
1041.494	-2555
1041.555	-1633
1041.617	-1664
1041.679	-1820
1041.741	-2682
1041.802	-2132
1041.864	-1930
1041.926	-2198
1041.987	-1671
1042.049	-2584
1042.111	-1811
1042.172	-1128
1042.234	-2102
1042.295	-1949
1042.357	-1411
1042.418	-2006
1042.480	-1612
1042.541	-1857
1042.603	-2038
1042.664	-1157
1042.725	-1656
1042.786	-639
1042.848	-1456
1042.909	-1859
1042.970	-1775
1043.031	-1501
1043.093	-2028
1043.154	-1780
1043.215	-2481
1043.276	-1864
1043.337	-2218
1043.398	-1966
1043.459	-1590
1043.520	-2297
1043.581	-1907
1043.642	-2154
1043.703	-1616
1043.764	-2186
1043.825	-2036
1043.886	-1644
1043.947	-2107
1044.007	-2319
1044.068	-1642
1044.129	-1695
1044.189	-1668
1044.250	-1169
1044.311	-2187
1044.371	-1459
1044.432	-1404
1044.493	-1901
1044.553	-1193
1044.614	-892
1044.674	-1525
1044.735	-1831
1044.795	-1717
1044.856	-2837
1044.916	-2098
1044.976	-1698
1045.037	-2132
1045.097	-2061
1045.157	-1285
1045.218	-1928
1045.278	-1414
1045.338	-2111
1045.398	-1871
1045.458	-1072
1045.519	-1034
1045.579	-1399
1045.639	-1951
1045.699	-1621
1045.759	-1720
1045.819	-1228
1045.879	-2065
1045.939	-1554
1045.999	-1153
1046.059	-782
1046.119	-1640
1046.179	-976
1046.238	-1822
1046.298	-921
1046.358	-714
1046.418	-1845
1046.477	-1670
1046.537	-546
1046.597	-1318
1046.656	-844
1046.716	-310
1046.776	-958
1046.835	-1002
1046.895	-1066
1046.954	-222
1047.014	-821
1047.073	-660
1047.133	0
