'Start Wavelength	183.833
'End Wavelength	1047.133
'Gate Delay	5.000
'Gate Width (ms)	1.050
'Laser Output Level	0.000
'X Position	0.000
'Y Position	0.000
'Z Position	0.000
'Grid Point Number	1.000
'Shot Number	100.000
183.833	128.000
183.903	424.000
183.973	272
184.042	379
184.112	-133
184.182	-78
184.252	430
184.321	-224
184.391	895
184.461	-381
184.531	-235
184.600	276
184.670	-22
184.740	-21
184.809	327
184.879	-98
184.949	259
185.018	-50
185.088	281
185.158	411
185.228	-164
185.297	524
185.367	74
185.436	-206
185.506	-1
185.576	262
185.645	477
185.715	-5
185.785	279
185.854	262
185.924	305
185.993	-1080
186.063	-159
186.133	264
186.202	199
186.272	-489
186.341	407
186.411	-525
186.481	410
186.550	894
186.620	581
186.689	415
186.759	882
186.828	126
186.898	107
186.967	597
187.037	1325
187.106	147
187.176	-31
187.246	447
187.315	137
187.385	90
187.454	204
187.524	294
187.593	5
187.662	-102
187.732	241
187.801	707
187.871	1099
187.940	395
188.010	-371
188.079	734
188.149	1242
188.218	484
188.288	194
188.357	616
188.426	-140
188.496	12
188.565	33
188.635	-199
188.704	-764
188.773	-245
188.843	350
188.912	168
188.981	161
189.051	52
189.120	-121
189.190	39
189.259	1039
189.328	115
189.398	509
189.467	49
189.536	70
189.606	730
189.675	787
189.744	550
189.813	564
189.883	705
189.952	728
190.021	2023
190.091	2603
190.160	880
190.229	676
190.298	153
190.368	-581
190.437	717
190.506	188
190.575	197
190.645	-181
190.714	169
190.783	235
190.852	87
190.922	-118
190.991	253
191.060	349
191.129	196
191.198	482
191.268	489
191.337	914
191.406	-123
191.475	-310
191.544	258
191.613	-312
191.683	269
191.752	393
191.821	537
191.890	313
191.959	372
192.028	1123
192.097	169
192.166	28
192.236	400
192.305	-420
192.374	581
192.443	137
192.512	421
192.581	800
192.650	661
192.719	-51
192.788	-275
192.857	254
192.926	930
192.995	425
193.064	751
193.133	823
193.202	1442
193.271	1405
193.340	1138
193.409	1190
193.478	1046
193.547	2032
193.616	2141
193.685	920
193.754	668
193.823	317
193.892	448
193.961	801
194.030	998
194.099	-273
194.168	197
194.237	1008
194.306	184
194.375	-177
194.444	648
194.513	676
194.582	1350
194.651	1531
194.720	50
194.788	682
194.857	316
194.926	650
194.995	76
195.064	442
195.133	936
195.202	1286
195.270	835
195.339	816
195.408	525
195.477	369
195.546	422
195.615	11
195.683	1257
195.752	800
195.821	128
195.890	1442
195.959	1113
196.027	1472
196.096	692
196.165	1229
196.234	605
196.303	720
196.371	752
196.440	758
196.509	593
196.578	380
196.646	37
196.715	886
196.784	82
196.853	842
196.921	1058
196.990	1168
197.059	265
197.127	374
197.196	-59
197.265	1346
197.333	558
197.402	1159
197.471	708
197.539	614
197.608	1351
197.677	2376
197.745	1294
197.814	3044
197.883	1900
197.951	2435
198.020	1742
198.088	598
198.157	1274
198.226	3895
198.294	905
198.363	315
198.431	627
198.500	2374
198.569	3086
198.637	1432
198.706	1476
198.774	4705
198.843	3371
198.911	530
198.980	389
199.048	172
199.117	721
199.185	370
199.254	409
199.322	733
199.391	691
199.459	7
199.528	7
199.596	222
199.665	1014
199.733	799
199.802	516
199.870	769
199.939	-329
200.007	647
200.076	848
200.144	-67
200.213	-33
200.281	643
200.349	904
200.418	1422
200.486	279
200.555	379
200.623	740
200.691	803
200.760	476
200.828	730
200.897	50
200.965	520
201.033	-123
201.102	329
201.170	248
201.238	28
201.307	-65
201.375	377
201.443	617
201.512	551
201.580	902
201.648	204
201.716	-71
201.785	311
201.853	570
201.921	-279
201.990	851
202.058	47
202.126	175
202.194	310
202.263	202
202.331	514
202.399	28
202.467	218
202.536	3998
202.604	1163
202.672	321
202.740	965
202.808	429
202.877	625
202.945	404
203.013	-694
203.081	736
203.149	277
203.218	-31
203.286	295
203.354	-61
203.422	152
203.490	143
203.558	541
203.626	717
203.695	375
203.763	554
203.831	969
203.899	959
203.967	674
204.035	903
204.103	825
204.171	372
204.239	581
204.307	577
204.375	320
204.443	312
204.512	545
204.580	726
204.648	-195
204.716	220
204.784	699
204.852	1073
204.920	69
204.988	45
205.056	1178
205.124	428
205.192	286
205.260	616
205.328	246
205.396	487
205.464	976
205.532	-89
205.600	270
205.667	-467
205.735	4284
205.803	5011
205.871	494
205.939	1028
206.007	282
206.075	863
206.143	433
206.211	814
206.279	255
206.347	513
206.414	773
206.482	571
206.550	487
206.618	1090
206.686	357
206.754	1325
206.822	1722
206.889	72
206.957	798
207.025	350
207.093	603
207.161	96
207.229	221
207.296	1352
207.364	285
207.432	483
207.500	785
207.567	586
207.635	281
207.703	557
207.771	424
207.839	305
207.906	777
207.974	679
208.042	586
208.109	1012
208.177	1484
208.245	2075
208.313	780
208.380	2814
208.448	1805
208.516	641
208.583	1711
208.651	1793
208.719	721
208.786	380
208.854	1207
208.922	721
208.989	1269
209.057	1440
209.125	244
209.192	793
209.260	880
209.327	1455
209.395	1270
209.463	888
209.530	1031
209.598	522
209.665	745
209.733	1168
209.801	604
209.868	925
209.936	1230
210.003	1030
210.071	957
210.138	1481
210.206	1292
210.273	824
210.341	1350
210.408	365
210.476	825
210.543	1346
210.611	2101
210.678	367
210.746	970
210.813	1028
210.881	1581
210.948	619
211.016	2276
211.083	987
211.151	813
211.218	2072
211.285	1096
211.353	1323
211.420	1078
211.488	607
211.555	958
211.622	270
211.690	1008
211.757	706
211.825	1235
211.892	1084
211.959	1215
212.027	609
212.094	1456
212.161	1043
212.229	3354
212.296	6930
212.363	21156
212.431	7860
212.498	2510
212.565	1565
212.633	1312
212.700	1691
212.767	1823
212.835	1817
212.902	1668
212.969	674
213.036	927
213.104	1319
213.171	1467
213.238	1055
213.305	1231
213.373	689
213.440	1477
213.507	1743
213.574	2496
213.641	481
213.709	803
213.776	1823
213.843	1153
213.910	1963
213.977	698
214.045	506
214.112	670
214.179	644
214.246	954
214.313	1466
214.380	995
214.447	2122
214.515	1926
214.582	1110
214.649	1313
214.716	917
214.783	710
214.850	1955
214.917	2064
214.984	2635
215.051	2749
215.118	1369
215.185	1456
215.253	1458
215.320	798
215.387	877
215.454	1049
215.521	542
215.588	755
215.655	1129
215.722	1562
215.789	973
215.856	1345
215.923	815
215.990	550
216.057	790
216.124	1105
216.191	1144
216.258	408
216.325	1497
216.391	1203
216.458	708
216.525	1734
216.592	5174
216.659	5337
216.726	2686
216.793	3249
216.860	1918
216.927	1547
216.994	1653
217.061	2436
217.127	1099
217.194	2808
217.261	4177
217.328	5318
217.395	3640
217.462	1877
217.529	1254
217.595	1004
217.662	1407
217.729	4998
217.796	3769
217.863	1105
217.929	1117
217.996	1425
218.063	948
218.130	437
218.196	879
218.263	293
218.330	604
218.397	1423
218.463	801
218.530	1798
218.597	4811
218.664	4675
218.730	1584
218.797	811
218.864	359
218.930	1506
218.997	783
219.064	1404
219.131	4763
219.197	1928
219.264	1000
219.331	752
219.397	632
219.464	884
219.530	3598
219.597	1720
219.664	7
219.730	1433
219.797	-226
219.864	68
219.930	1793
219.997	5872
220.063	2727
220.130	1316
220.196	1727
220.263	2152
220.330	5087
220.396	9270
220.463	3887
220.529	2825
220.596	2258
220.662	2889
220.729	11675
220.795	6779
220.862	8279
220.928	16876
220.995	17069
221.061	15976
221.128	12086
221.194	3921
221.261	2107
221.327	1353
221.394	1109
221.460	1800
221.526	2468
221.593	15415
221.659	8882
221.726	9671
221.792	7330
221.859	2535
221.925	1598
221.991	2010
222.058	837
222.124	2304
222.190	1431
222.257	1109
222.323	793
222.390	1065
222.456	359
222.522	83
222.589	687
222.655	166
222.721	432
222.788	975
222.854	557
222.920	555
222.986	196
223.053	650
223.119	883
223.185	-345
223.251	26
223.318	155
223.384	868
223.450	-414
223.516	-1
223.583	180
223.649	804
223.715	-22
223.781	102
223.848	-396
223.914	73
223.980	476
224.046	469
224.112	-113
224.178	-16
224.245	-116
224.311	340
224.377	905
224.443	382
224.509	647
224.575	397
224.641	193
224.708	195
224.774	750
224.840	1288
224.906	220
224.972	489
225.038	420
225.104	-245
225.170	461
225.236	461
225.302	446
225.368	782
225.434	482
225.500	186
225.566	400
225.632	569
225.699	1095
225.765	1594
225.831	1451
225.897	3287
225.963	1739
226.028	917
226.094	1565
226.160	2283
226.226	10369
226.292	24330
226.358	8635
226.424	4404
226.490	2848
226.556	1468
226.622	2588
226.688	4298
226.754	7541
226.820	33112
226.886	28373
226.951	6763
227.017	3744
227.083	2854
227.149	2475
227.215	1323
227.281	804
227.347	1703
227.412	1063
227.478	5027
227.544	5504
227.610	2483
227.676	1328
227.742	688
227.807	1046
227.873	984
227.939	2198
228.005	1082
228.070	858
228.136	619
228.202	669
228.268	1753
228.333	2163
228.399	671
228.465	986
228.531	-218
228.596	594
228.662	2854
228.728	1236
228.793	647
228.859	194
228.925	1816
228.990	901
229.056	1151
229.122	649
229.187	1415
229.253	845
229.319	1165
229.384	1926
229.450	397
229.516	268
229.581	1596
229.647	1229
229.712	6826
229.778	7226
229.844	2863
229.909	2491
229.975	1698
230.040	831
230.106	1687
230.171	1760
230.237	4014
230.302	3110
230.368	1591
230.433	1400
230.499	1224
230.564	395
230.630	1059
230.695	42
230.761	495
230.826	3427
230.892	1899
230.957	57
231.023	69
231.088	614
231.154	439
231.219	2704
231.285	2243
231.350	405
231.415	-27
231.481	622
231.546	747
231.612	1008
231.677	952
231.742	843
231.808	436
231.873	-264
231.938	3277
232.004	3094
232.069	878
232.135	132
232.200	651
232.265	366
232.330	-172
232.396	400
232.461	295
232.526	1141
232.592	1305
232.657	2667
232.722	2604
232.788	884
232.853	426
232.918	821
232.983	525
233.048	3317
233.114	1863
233.179	5394
233.244	6891
233.309	1016
233.375	1195
233.440	744
233.505	937
233.570	161
233.635	1002
233.700	3042
233.766	4759
233.831	1581
233.896	1382
233.961	1973
234.026	1212
234.091	1340
234.156	1242
234.222	3865
234.287	14188
234.352	12197
234.417	5558
234.482	2785
234.547	2279
234.612	2089
234.677	3183
234.742	13185
234.807	7248
234.872	2435
234.937	1970
235.002	1422
235.067	1037
235.132	1391
235.197	1261
235.262	585
235.327	1691
235.392	2342
235.457	2090
235.522	1430
235.587	1604
235.652	941
235.717	1457
235.782	2561
235.847	5994
235.912	8135
235.977	8389
236.042	3159
236.107	2395
236.172	3044
236.236	1532
236.301	2000
236.366	4462
236.431	8056
236.496	3697
236.561	8923
236.626	45880
236.691	28764
236.755	9445
236.820	7265
236.885	5550
236.950	3651
237.015	4249
237.079	4745
237.144	11100
237.209	44915
237.274	79816
237.339	26602
237.403	9193
237.468	7411
237.533	4981
237.598	3053
237.662	1912
237.727	4485
237.792	8201
237.856	6320
237.921	3198
237.986	5821
238.050	6669
238.115	21697
238.180	17983
238.245	7871
238.309	4281
238.374	2872
238.438	3679
238.503	1397
238.568	2492
238.632	1958
238.697	2236
238.762	8210
238.826	10817
238.891	4649
238.955	3684
239.020	2054
239.085	3142
239.149	1444
239.214	1623
239.278	1436
239.343	1140
239.407	2950
239.472	20594
239.536	16613
239.601	3955
239.665	2314
239.730	3015
239.794	9597
239.859	15241
239.923	5928
239.988	2595
240.052	2635
240.117	836
240.181	2030
240.246	1646
240.310	2327
240.374	10841
240.439	19579
240.503	5914
240.568	9080
240.632	9692
240.696	3038
240.761	2011
240.825	1159
240.890	1907
240.954	10565
241.018	17926
241.083	7578
241.147	2671
241.211	4592
241.276	8882
241.340	3119
241.404	1667
241.469	1688
241.533	1697
241.597	2277
241.661	1410
241.726	2303
241.790	1176
241.854	1929
241.919	1308
241.983	1593
242.047	670
242.111	1680
242.175	512
242.240	1185
242.304	2058
242.368	2392
242.432	1106
242.496	829
242.561	1601
242.625	1582
242.689	885
242.753	860
242.817	1724
242.881	2198
242.946	1695
243.010	2018
243.074	1531
243.138	1480
243.202	1214
243.266	985
243.330	2832
243.394	19185
243.458	56804
243.522	14702
243.586	4744
243.651	3575
243.715	2235
243.779	5424
243.843	7658
243.907	8699
243.971	4938
244.035	2866
244.099	1733
244.163	3505
244.227	5855
244.291	5731
244.355	2892
244.419	2430
244.483	2024
244.546	1727
244.610	1151
244.674	3106
244.738	2875
244.802	1199
244.866	1398
244.930	884
244.994	1440
245.058	1955
245.122	5142
245.186	3202
245.249	2448
245.313	2346
245.377	2323
245.441	1142
245.505	2087
245.569	2379
245.632	2934
245.696	8714
245.760	3626
245.824	2551
245.888	1282
245.951	2501
246.015	1890
246.079	3898
246.143	14417
246.207	27040
246.270	8951
246.334	4773
246.398	5210
246.461	8547
246.525	5299
246.589	3860
246.653	3548
246.716	4254
246.780	4956
246.844	6868
246.907	2676
246.971	2820
247.035	2537
247.098	3241
247.162	12870
247.226	37827
247.289	13563
247.353	5975
247.416	9556
247.480	5436
247.544	4749
247.607	4920
247.671	2782
247.734	2736
247.798	4517
247.861	13380
247.925	32581
247.989	8844
248.052	4736
248.116	4627
248.179	8211
248.243	56164
248.306	49401
248.370	33738
248.433	10382
248.497	8373
248.560	9815
248.624	12810
248.687	18445
248.751	58405
248.814	24492
248.877	26739
248.941	39993
249.004	70780
249.068	55009
249.131	17009
249.194	10354
249.258	11770
249.321	7810
249.385	6387
249.448	5443
249.511	6686
249.575	10562
249.638	8496
249.701	6007
249.765	5621
249.828	6109
249.891	5442
249.955	5864
250.018	22528
250.081	27837
250.145	9400
250.208	6887
250.271	7472
250.334	5961
250.398	6070
250.461	7641
250.524	12270
250.587	66101
250.651	102147
250.714	27468
250.777	14735
250.840	9940
250.903	8432
250.967	16412
251.030	38297
251.093	14706
251.156	12127
251.219	10902
251.282	16037
251.345	94852
251.409	77229
251.472	41126
251.535	172980
251.598	101248
251.661	31377
251.724	42742
251.787	43199
251.850	110252
251.913	49225
251.976	17672
252.039	13034
252.103	11779
252.166	25618
252.229	64790
252.292	60234
252.355	145386
252.418	49629
252.481	22077
252.544	15039
252.607	16046
252.670	51715
252.733	60030
252.796	139275
252.858	74840
252.921	35432
252.984	19338
253.047	13913
253.110	11273
253.173	15825
253.236	11758
253.299	11337
253.362	10554
253.425	11232
253.488	29811
253.550	16408
253.613	16441
253.676	15661
253.739	7733
253.802	10697
253.865	8074
253.928	7281
253.990	19116
254.053	32634
254.116	18460
254.179	15607
254.242	6934
254.304	14490
254.367	14602
254.430	11817
254.493	19608
254.555	35605
254.618	14730
254.681	7622
254.743	7154
254.806	6762
254.869	23255
254.932	23728
254.994	7566
255.057	6262
255.120	3384
255.182	2520
255.245	4036
255.308	2140
255.370	2004
255.433	2610
255.496	2260
255.558	2655
255.621	2711
255.683	1336
255.746	2522
255.809	2473
255.871	1977
255.934	1399
255.996	1976
256.059	1904
256.121	3302
256.184	14334
256.246	9796
256.309	7954
256.371	3449
256.434	3079
256.496	2155
256.559	3154
256.621	5569
256.684	21104
256.746	60945
256.809	17744
256.871	6105
256.934	5565
256.996	6120
257.059	3470
257.121	2596
257.183	2572
257.246	2734
257.308	2985
257.371	11880
257.433	83799
257.495	65606
257.558	24422
257.620	14415
257.683	7490
257.745	7656
257.807	4001
257.870	3650
257.932	3095
257.994	2865
258.056	2673
258.119	3410
258.181	9729
258.243	5080
258.306	3722
258.368	14323
258.430	13705
258.492	21914
258.555	27014
258.617	5949
258.679	4903
258.741	8007
258.803	4895
258.866	3128
258.928	2424
258.990	2815
259.052	3770
259.114	5495
259.177	3564
259.239	4257
259.301	10939
259.363	5713
259.425	3467
259.487	2324
259.549	2394
259.611	2514
259.674	2916
259.736	19527
259.798	36737
259.860	58861
259.922	42281
259.984	9625
260.046	5185
260.108	4278
260.170	3820
260.232	2804
260.294	3657
260.356	1737
260.418	4256
260.480	8328
260.542	7889
260.604	25874
260.666	36848
260.728	7506
260.790	5796
260.852	3844
260.914	4341
260.976	3272
261.038	7682
261.100	35330
261.161	29187
261.223	6900
261.285	16346
261.347	22527
261.409	5934
261.471	4500
261.533	3195
261.595	2942
261.656	9863
261.718	21902
261.780	7704
261.842	5040
261.904	2992
261.966	3673
262.027	3222
262.089	7980
262.151	6218
262.213	3423
262.274	10231
262.336	8187
262.398	4040
262.460	9914
262.521	23393
262.583	5895
262.645	3402
262.706	5177
262.768	22602
262.830	8317
262.892	4276
262.953	4785
263.015	39691
263.077	95496
263.138	24580
263.200	10492
263.261	5754
263.323	3588
263.385	2920
263.446	3407
263.508	8911
263.569	4874
263.631	2629
263.693	1910
263.754	1929
263.816	1454
263.877	1064
263.939	1366
264.000	2440
264.062	5929
264.123	3345
264.185	1036
264.246	1133
264.308	5284
264.369	11968
264.431	2365
264.492	1751
264.554	3822
264.615	6798
264.677	2829
264.738	1574
264.800	1222
264.861	1377
264.922	935
264.984	1066
265.045	1032
265.107	2743
265.168	28828
265.229	21288
265.291	3740
265.352	2762
265.413	1828
265.475	553
265.536	1705
265.597	1424
265.659	820
265.720	1402
265.781	695
265.843	843
265.904	5047
265.965	54073
266.026	31765
266.088	7600
266.149	5147
266.210	2906
266.271	608
266.333	2538
266.394	2390
266.455	1440
266.516	719
266.577	4118
266.639	7890
266.700	2552
266.761	1059
266.822	907
266.883	2038
266.944	996
267.005	1078
267.067	1067
267.128	108
267.189	101
267.250	2124
267.311	640
267.372	-547
267.433	345
267.494	941
267.555	663
267.616	-639
267.677	1027
267.738	927
267.799	4166
267.860	11432
267.921	3038
267.982	3397
268.043	1491
268.104	1288
268.165	917
268.226	709
268.287	611
268.348	1454
268.409	2015
268.470	293
268.531	319
268.592	676
268.653	592
268.714	619
268.775	989
268.836	6270
268.896	8172
268.957	2575
269.018	382
269.079	1225
269.140	457
269.201	990
269.262	1249
269.322	802
269.383	719
269.444	2749
269.505	3480
269.565	4825
269.626	1851
269.687	1744
269.748	650
269.809	1623
269.869	4965
269.930	1684
269.991	627
270.051	201
270.112	1447
270.173	871
270.234	839
270.294	849
270.355	1712
270.416	742
270.476	582
270.537	4191
270.598	11662
270.658	3532
270.719	1831
270.779	3503
270.840	1580
270.901	1591
270.961	2270
271.022	2261
271.082	4905
271.143	4815
271.203	1877
271.264	993
271.325	2808
271.385	10937
271.446	4891
271.506	2207
271.567	3020
271.627	1605
271.688	2735
271.748	8846
271.809	52335
271.869	76668
271.930	16846
271.990	33617
272.050	67354
272.111	14642
272.171	7340
272.232	8283
272.292	42955
272.352	18596
272.413	10432
272.473	8578
272.534	9104
272.594	5171
272.654	7523
272.715	13447
272.775	5452
272.835	5128
272.896	2677
272.956	3017
273.016	5722
273.077	4683
273.137	3246
273.197	2866
273.257	21222
273.318	45655
273.378	12748
273.438	14061
273.498	31669
273.559	11680
273.619	22513
273.679	57439
273.739	15633
273.799	7506
273.860	24274
273.920	45650
273.980	9587
274.040	6404
274.100	9345
274.160	62658
274.221	54336
274.281	33348
274.341	40486
274.401	23993
274.461	8107
274.521	7597
274.581	37803
274.641	48038
274.701	16054
274.761	7994
274.821	19830
274.882	71003
274.942	68312
275.002	37789
275.062	11663
275.122	6438
275.182	5381
275.242	6660
275.302	9415
275.362	8669
275.421	6135
275.481	30184
275.541	67686
275.601	32730
275.661	14726
275.721	9436
275.781	4925
275.841	4488
275.901	4700
275.961	3822
276.021	2351
276.081	7526
276.140	20808
276.200	8610
276.260	6166
276.320	4190
276.380	4698
276.440	3089
276.499	1878
276.559	1930
276.619	4225
276.679	14125
276.738	9925
276.798	4748
276.858	4351
276.918	4190
276.978	2934
277.037	2785
277.097	5503
277.157	19261
277.216	7556
277.276	3606
277.336	3151
277.395	3399
277.455	3938
277.515	3332
277.574	10884
277.634	19515
277.694	6852
277.753	26254
277.813	19850
277.873	18365
277.932	59066
277.992	19086
278.051	14837
278.111	19774
278.171	8156
278.230	21314
278.290	15336
278.349	6147
278.409	5067
278.468	3828
278.528	4107
278.587	3242
278.647	5016
278.706	21222
278.766	60176
278.825	15198
278.885	7835
278.944	8306
279.004	15992
279.063	17251
279.122	8653
279.182	6978
279.241	8480
279.301	9781
279.360	16176
279.419	69887
279.479	296422
279.538	258720
279.598	57208
279.657	29668
279.716	43031
279.776	68659
279.835	24868
279.894	13642
279.953	10560
280.013	17352
280.072	27392
280.131	28811
280.191	210937
280.250	243983
280.309	50256
280.368	28903
280.428	23955
280.487	15791
280.546	11477
280.605	15287
280.664	19004
280.724	6874
280.783	5599
280.842	3667
280.901	3851
280.960	3907
281.019	3737
281.079	3496
281.138	2882
281.197	4610
281.256	32001
281.315	22121
281.374	5848
281.433	3688
281.492	3259
281.551	3536
281.611	3021
281.670	2467
281.729	3054
281.788	2650
281.847	2876
281.906	2343
281.965	2161
282.024	1272
282.083	1816
282.142	1848
282.201	3073
282.260	10807
282.319	7638
282.378	2394
282.436	3927
282.495	17096
282.554	8595
282.613	2680
282.672	2120
282.731	3628
282.790	2916
282.849	2437
282.908	1513
282.967	1017
283.025	1868
283.084	3008
283.143	10995
283.202	24012
283.261	6217
283.319	2875
283.378	2633
283.437	3138
283.496	4957
283.555	4968
283.613	2232
283.672	1822
283.731	6670
283.790	7433
283.848	2105
283.907	2402
283.966	4282
284.024	4622
284.083	2922
284.142	3902
284.201	2025
284.259	6060
284.318	25613
284.376	20388
284.435	5522
284.494	6291
284.552	5383
284.611	3783
284.670	3805
284.728	4038
284.787	6400
284.845	6426
284.904	6114
284.962	7944
285.021	16840
285.079	67098
285.138	365813
285.197	333301
285.255	86075
285.314	39192
285.372	24792
285.431	17795
285.489	12947
285.547	9171
285.606	6785
285.664	4462
285.723	4466
285.781	4347
285.840	4005
285.898	3516
285.957	2574
286.015	3088
286.073	1875
286.132	2272
286.190	2986
286.248	3033
286.307	5702
286.365	3483
286.423	2063
286.482	2488
286.540	1331
286.598	3222
286.657	2719
286.715	2753
286.773	3111
286.832	4026
286.890	7748
286.948	3176
287.006	2317
287.064	2129
287.123	2631
287.181	3391
287.239	3123
287.297	4006
287.356	9813
287.414	5105
287.472	3444
287.530	2455
287.588	2886
287.646	4834
287.704	5320
287.763	3791
287.821	4086
287.879	5144
287.937	9031
287.995	25583
288.053	173007
288.111	578590
288.169	226789
288.227	62414
288.285	33375
288.343	24804
288.401	19549
288.459	13295
288.517	9666
288.575	6782
288.633	4864
288.691	3333
288.749	3476
288.807	3367
288.865	2219
288.923	3021
288.981	2253
289.039	1832
289.097	1524
289.155	2529
289.213	2606
289.271	1568
289.329	2371
289.386	3804
289.444	4758
289.502	2328
289.560	1255
289.618	746
289.676	913
289.734	1861
289.791	2118
289.849	2556
289.907	2699
289.965	1004
290.022	492
290.080	1408
290.138	2988
290.196	1218
290.253	562
290.311	616
290.369	109
290.427	-151
290.484	922
290.542	401
290.600	664
290.657	727
290.715	1336
290.773	1262
290.830	1429
290.888	1303
290.946	1019
291.003	957
291.061	1394
291.118	7670
291.176	17344
291.234	5013
291.291	1320
291.349	766
291.406	406
291.464	-319
291.521	826
291.579	571
291.636	511
291.694	1240
291.751	4706
291.809	2101
291.866	1137
291.924	764
291.981	1117
292.039	1743
292.096	1378
292.154	1404
292.211	2075
292.268	4369
292.326	5971
292.383	3164
292.441	1137
292.498	2758
292.555	2432
292.613	3929
292.670	2059
292.727	2120
292.785	9376
292.842	26276
292.899	13362
292.957	3427
293.014	2223
293.071	2675
293.129	1355
293.186	1939
293.243	3072
293.300	3665
293.358	1580
293.415	590
293.472	1644
293.529	4720
293.586	28695
293.644	75726
293.701	27534
293.758	9844
293.815	6538
293.872	8103
293.929	6273
293.987	4143
294.044	9125
294.101	17168
294.158	14640
294.215	5328
294.272	2797
294.329	3928
294.386	4648
294.443	2537
294.500	2321
294.558	1243
294.615	2695
294.672	16127
294.729	71743
294.786	48001
294.843	16487
294.900	11631
294.957	8696
295.014	5770
295.070	3798
295.127	2456
295.184	1983
295.241	4146
295.298	26218
295.355	52500
295.412	17553
295.469	6648
295.526	11743
295.583	17641
295.640	21088
295.696	36373
295.753	11927
295.810	5080
295.867	4518
295.924	7559
295.981	6376
296.037	2333
296.094	2366
296.151	1051
296.208	1499
296.265	1708
296.321	2099
296.378	2861
296.435	14691
296.492	25687
296.548	18188
296.605	71220
296.662	100777
296.718	28715
296.775	11721
296.832	9865
296.888	20626
296.945	47167
297.002	31928
297.058	10401
297.115	7621
297.172	12409
297.228	68950
297.285	121794
297.341	37869
297.398	12912
297.454	8148
297.511	6489
297.568	5462
297.624	3641
297.681	2743
297.737	1325
297.794	1327
297.850	1938
297.907	1424
297.963	2328
298.020	5619
298.076	25013
298.133	20387
298.189	9381
298.245	26187
298.302	88858
298.358	48338
298.415	19954
298.471	13321
298.527	9838
298.584	7650
298.640	15063
298.697	41374
298.753	31617
298.809	11428
298.866	4446
298.922	4474
298.978	4934
299.035	4048
299.091	3066
299.147	3411
299.203	2620
299.260	4205
299.316	16212
299.372	77639
299.428	70645
299.485	21544
299.541	9074
299.597	6585
299.653	7270
299.710	7137
299.766	4385
299.822	9424
299.878	36667
299.934	39818
299.990	43604
300.046	92375
300.103	42159
300.159	15533
300.215	15529
300.271	14982
300.327	7615
300.383	4807
300.439	4075
300.495	3787
300.551	4058
300.607	15129
300.663	29323
300.719	40068
300.775	59666
300.831	31076
300.887	33223
300.943	24233
300.999	10547
301.055	7054
301.111	6045
301.167	4833
301.223	2377
301.279	2558
301.335	1528
301.391	2013
301.447	2323
301.503	3459
301.559	6585
301.614	5010
301.670	11674
301.726	18720
301.782	11818
301.838	20096
301.894	23927
301.949	73042
302.005	237424
302.061	223283
302.117	88454
302.173	32171
302.228	18448
302.284	17239
302.340	27373
302.396	21004
302.451	19202
302.507	56559
302.563	59988
302.618	27230
302.674	10776
302.730	6481
302.785	5235
302.841	4307
302.897	6134
302.952	10077
303.008	9261
303.064	11022
303.119	13896
303.175	6802
303.230	3539
303.286	3102
303.341	2811
303.397	1955
303.453	1358
303.508	2353
303.564	4741
303.619	17880
303.675	65840
303.730	49564
303.786	17313
303.841	7896
303.897	5726
303.952	7165
304.008	10084
304.063	9539
304.118	15736
304.174	16306
304.229	11999
304.285	5942
304.340	4112
304.372	4055
304.395	4026
304.451	3585
304.463	3435
304.506	2950
304.554	3753
304.562	3903
304.617	11690
304.644	31191
304.672	51563
304.728	77106
304.735	71324
304.783	33907
304.825	17403
304.838	12463
304.894	7308
304.916	6859
304.949	6404
305.004	5002
305.006	4948
305.059	4153
305.097	3425
305.115	3107
305.170	1800
305.188	1821
305.225	1879
305.278	2963
305.280	3015
305.336	3144
305.369	3431
305.391	3655
305.446	4608
305.459	4724
305.501	5179
305.550	4748
305.556	4702
305.612	12568
305.640	28240
305.667	43169
305.722	48831
305.731	46046
305.777	31227
305.821	50258
305.832	55436
305.887	56732
305.912	43481
305.942	25712
305.997	10739
306.002	10290
306.053	6658
306.092	5005
306.108	4514
306.163	3648
306.183	3335
306.218	2807
306.273	2941
306.273	2937
306.328	3179
306.364	3721
306.383	4034
306.438	3414
306.454	3607
306.493	3970
306.545	9215
306.548	9618
306.603	16511
306.635	24079
306.658	29543
306.713	23989
306.725	21601
306.768	12507
306.816	6277
306.823	5482
306.878	3707
306.906	3184
306.933	2788
306.988	2444
306.997	2345
307.043	1970
307.087	2850
307.098	3103
307.152	5537
307.177	6468
307.207	7548
307.262	8635
307.268	8373
307.317	5855
307.358	4964
307.372	4745
307.427	8794
307.448	12593
307.482	18995
307.536	21556
307.538	21184
307.591	10995
307.629	7557
307.646	6069
307.701	4207
307.719	5218
307.756	7903
307.809	13898
307.810	14029
307.865	10729
307.900	8883
307.920	7578
307.975	7686
307.990	9673
308.029	16381
308.080	48930
308.084	52886
308.139	177786
308.170	203007
308.194	213973
308.248	131406
308.261	121355
308.303	67488
308.351	30758
308.358	28149
308.412	16918
308.441	13963
308.467	12051
308.522	8956
308.531	8505
308.576	7056
308.621	6039
308.631	5898
308.686	8371
308.712	11831
308.740	15903
308.795	13573
308.802	13155
308.849	8470
308.892	6205
308.904	5754
308.959	5581
308.982	6543
309.013	8699
309.068	18737
309.072	21037
309.122	51304
309.162	121058
309.177	158170
309.231	311783
309.253	303969
309.286	236278
309.340	122300
309.343	119281
309.395	55570
309.433	25512
309.449	21210
309.504	15142
309.523	14026
309.558	13210
309.613	13756
309.613	13785
309.667	14496
309.703	12682
309.722	11243
309.776	7491
309.793	6797
309.830	5797
309.883	7393
309.885	7475
309.939	15611
309.973	17775
309.994	18465
310.048	14426
310.063	13170
310.102	7986
310.153	4544
310.157	4391
310.211	2595
310.243	1846
310.265	1707
310.320	1744
310.333	1708
310.374	1664
310.423	1571
310.428	1512
310.483	1267
310.513	1172
310.537	1195
310.591	1232
310.603	1166
310.646	1063
310.693	925
310.700	843
310.754	601
310.783	339
310.808	466
310.862	908
310.873	987
310.917	629
310.963	436
310.971	488
311.025	747
311.053	859
311.079	790
311.133	546
311.143	532
311.188	437
311.233	281
311.242	294
311.296	498
311.323	611
311.350	643
311.404	596
311.413	616
311.458	540
311.503	374
311.512	386
311.567	568
311.593	670
311.621	748
311.675	831
311.683	858
311.729	1124
311.772	1361
311.783	1226
311.837	566
311.862	273
311.891	461
311.945	831
311.952	889
311.999	807
312.042	765
312.053	752
312.107	741
312.132	746
312.222	638
312.311	494
312.401	77
312.491	-137
312.581	1083
312.671	-45
312.760	1024
312.850	234
312.940	553
313.030	216
313.119	646
313.209	272
313.299	643
313.389	-200
313.478	190
313.568	198
313.658	-304
313.747	167
313.837	455
313.927	-97
314.016	-198
314.106	735
314.195	497
314.285	921
314.375	85
314.464	55
314.554	315
314.643	108
314.733	413
314.823	351
314.912	364
315.002	716
315.091	118
315.181	407
315.270	71
315.360	440
315.449	236
315.539	1349
315.628	-670
315.718	1229
315.807	2931
315.896	8047
315.986	2067
316.075	2056
316.165	1700
316.254	2313
316.344	762
316.433	286
316.522	454
316.612	795
316.701	462
316.790	1452
316.880	2276
316.969	217
317.058	-623
317.148	495
317.237	163
317.326	122
317.415	-325
317.505	772
317.594	382
317.683	881
317.772	1430
317.862	7117
317.951	13746
318.040	3443
318.129	1735
318.219	882
318.308	1190
318.397	674
318.486	993
318.575	1411
318.664	3188
318.754	104
318.843	645
318.932	251
319.021	689
319.110	1909
319.199	5074
319.288	2869
319.377	1550
319.466	-17
319.555	840
319.644	1864
319.733	1464
319.822	531
319.911	2403
320.000	6947
320.089	1452
320.178	516
320.267	515
320.356	175
320.445	325
320.534	603
320.623	260
320.712	671
320.801	72
320.890	797
320.979	917
321.068	772
321.157	2675
321.245	2198
321.334	1519
321.423	3073
321.512	1129
321.601	978
321.690	1555
321.779	1475
321.867	893
321.956	1863
322.045	1273
322.134	1941
322.222	3834
322.311	2661
322.400	45
322.489	2044
322.577	5121
322.666	1000
322.755	1297
322.843	2113
322.932	2054
323.021	830
323.110	716
323.198	647
323.287	1301
323.375	3826
323.464	9015
323.553	2619
323.641	5702
323.730	2080
323.819	1269
323.907	4628
323.996	1510
324.084	578
324.173	3095
324.261	1980
324.350	356
324.438	872
324.527	274
324.615	567
324.704	1791
324.792	2728
324.881	1146
324.969	-569
325.058	153
325.146	907
325.235	2359
325.323	1548
325.412	1672
325.500	682
325.588	-56
325.677	-585
325.765	454
325.853	530
325.942	262
326.030	-349
326.118	843
326.207	1390
326.295	-538
326.383	45
326.472	-292
326.560	717
326.648	-159
326.737	862
326.825	497
326.913	374
327.001	-93
327.090	865
327.178	968
327.266	-67
327.354	1483
327.442	1243
327.531	-156
327.619	645
327.707	-300
327.795	284
327.883	727
327.971	-337
328.060	-97
328.148	364
328.236	123
328.324	-484
328.412	270
328.500	11
328.588	432
328.676	2258
328.764	198
328.852	371
328.940	59
329.028	-252
329.116	334
329.204	1242
329.292	350
329.380	289
329.468	-211
329.556	-286
329.644	177
329.732	14
329.820	478
329.908	279
329.996	-885
330.084	571
330.172	4614
330.259	9851
330.347	3280
330.435	180
330.523	508
330.611	3004
330.699	1047
330.787	25
330.874	361
330.962	250
331.050	-41
331.138	49
331.226	-586
331.313	9
331.401	285
331.489	488
331.577	-44
331.664	-95
331.752	-470
331.840	238
331.927	-299
332.015	-323
332.103	305
332.190	220
332.278	2781
332.366	1060
332.453	231
332.541	-32
332.629	83
332.716	95
332.804	-189
332.891	887
332.979	1510
333.066	-290
333.154	716
333.242	54
333.329	-284
333.417	140
333.504	983
333.592	368
333.679	458
333.767	492
333.854	-352
333.942	509
334.029	709
334.117	3591
334.204	5910
334.291	75
334.379	907
334.466	-263
334.554	-151
334.641	112
334.728	-79
334.816	2412
334.903	13571
334.990	7517
335.078	833
335.165	248
335.252	450
335.340	404
335.427	3791
335.514	2226
335.602	54
335.689	-91
335.776	-184
335.863	65
335.951	-47
336.038	4011
336.125	11187
336.212	2278
336.299	240
336.387	311
336.474	62
336.561	303
336.648	72
336.735	197
336.822	-337
336.910	440
336.997	1283
337.084	4675
337.171	5915
337.258	6707
337.345	2263
337.432	-216
337.519	236
337.606	370
337.693	866
337.780	2299
337.867	716
337.954	1371
338.041	798
338.128	-37
338.215	111
338.302	2232
338.389	5302
338.476	79
338.563	1871
338.650	551
338.737	960
338.824	1468
338.911	-70
338.998	372
339.085	633
339.171	-268
339.258	28
339.345	661
339.432	399
339.519	209
339.606	-100
339.692	509
339.779	-590
339.866	201
339.953	817
340.040	-195
340.126	-116
340.213	260
340.300	-191
340.387	82
340.473	265
340.560	111
340.647	637
340.733	2221
340.820	-23
340.907	-516
340.993	25
341.080	238
341.167	300
341.253	568
341.340	729
341.426	-359
341.513	-417
341.600	-250
341.686	317
341.773	359
341.859	-350
341.946	-51
342.032	-893
342.119	263
342.205	0
342.292	224
342.378	433
342.465	462
342.551	251
342.638	1690
342.724	1724
342.811	615
342.897	20
342.984	-701
343.070	-112
343.156	-403
343.243	-61
343.329	-29
343.416	-337
343.502	-219
343.588	-708
343.675	-132
343.761	-196
343.847	772
343.934	2568
344.020	26779
344.106	25079
344.193	2415
344.279	1730
344.365	5156
344.451	1499
344.538	1001
344.624	-370
344.710	-446
344.796	-468
344.882	263
344.969	461
345.055	215
345.141	-342
345.227	467
345.313	-74
345.399	-42
345.486	-387
345.572	-785
345.658	-481
345.744	288
345.830	34
345.916	-59
346.002	345
346.088	443
346.174	19
346.260	375
346.346	-818
346.432	45
346.518	3790
346.604	6219
346.690	151
346.776	-171
346.862	-337
346.948	-1433
347.034	453
347.120	-78
347.206	-199
347.292	-528
347.378	-4
347.464	4269
347.549	9967
347.635	5349
347.721	2349
347.807	104
347.893	-533
347.979	-181
348.065	30
348.150	20
348.236	-305
348.322	-306
348.408	-641
348.493	-667
348.579	-462
348.665	-57
348.751	-130
348.836	-720
348.922	1434
349.008	7625
349.094	6482
349.179	-109
349.265	-932
349.351	-290
349.436	411
349.522	197
349.608	168
349.693	715
349.779	4106
349.864	394
349.950	-460
350.036	-183
350.121	-790
350.207	-272
350.292	-289
350.378	-208
350.463	114
350.549	-374
350.634	-265
350.720	132
350.805	-437
350.891	-651
350.976	-606
351.062	111
351.147	-123
351.233	-350
351.318	1350
351.404	1189
351.489	334
351.574	-254
351.660	-681
351.745	-524
351.830	-25
351.916	159
352.001	384
352.086	1964
352.172	552
352.257	614
352.342	-970
352.428	-845
352.513	541
352.598	4296
352.684	677
352.769	-278
352.854	-194
352.939	-672
353.024	-158
353.110	188
353.195	129
353.280	318
353.365	288
353.450	-648
353.536	-4
353.621	708
353.706	141
353.791	326
353.876	-1006
353.961	-309
354.046	-61
354.131	1302
354.216	186
354.302	-215
354.387	-337
354.472	-190
354.557	-644
354.642	-297
354.727	380
354.812	-1091
354.897	-24
354.982	-422
355.067	-417
355.152	106
355.237	84
355.321	41
355.406	974
355.491	2170
355.576	333
355.661	536
355.746	780
355.831	5098
355.916	641
356.001	198
356.085	-493
356.170	-390
356.255	-361
356.340	22
356.425	2111
356.509	14880
356.594	4032
356.679	-137
356.764	429
356.849	724
356.933	16208
357.018	29262
357.103	3016
357.187	390
357.272	88
357.357	652
357.441	-124
357.526	-64
357.611	-1008
357.695	-493
357.780	165
357.865	-52
357.949	941
358.034	18253
358.118	43621
358.203	6015
358.288	505
358.372	375
358.457	3294
358.541	6372
358.626	3589
358.710	3886
358.795	559
358.879	295
358.964	-566
359.048	-472
359.133	-1160
359.217	206
359.302	50
359.386	312
359.470	-792
359.555	-207
359.639	-49
359.724	-330
359.808	-484
359.892	-212
359.977	-215
360.061	-18
360.145	226
360.230	-86
360.314	-345
360.398	-397
360.483	286
360.567	1632
360.651	2255
360.735	462
360.820	10568
360.904	11657
360.988	1865
361.072	730
361.157	-46
361.241	-558
361.325	224
361.409	-615
361.493	-683
361.577	-294
361.662	51
361.746	2041
361.830	17069
361.914	9412
361.998	-102
362.082	339
362.166	897
362.250	495
362.334	884
362.418	1011
362.502	140
362.586	-352
362.671	-380
362.754	-174
362.839	-105
362.922	-284
363.006	3951
363.090	18803
363.174	11932
363.258	1083
363.342	-7
363.426	660
363.510	4406
363.594	1270
363.678	-155
363.762	-105
363.846	343
363.929	-52
364.013	723
364.097	-747
364.181	1353
364.265	5882
364.349	2375
364.432	6032
364.516	607
364.600	500
364.684	4555
364.767	16054
364.851	2749
364.935	760
365.019	68
365.102	1040
365.186	444
365.270	1982
365.353	4785
365.437	-149
365.521	-559
365.604	-309
365.688	-527
365.771	-585
365.855	-92
365.939	-184
366.022	183
366.106	-809
366.189	-1230
366.273	307
366.357	-55
366.440	-17
366.524	-83
366.607	-801
366.691	33
366.774	-455
366.858	-40
366.941	543
367.024	-62
367.108	-370
367.191	3
367.275	-1405
367.358	-861
367.442	-72
367.525	-544
367.608	572
367.692	-391
367.775	-439
367.858	612
367.942	3799
368.025	1472
368.108	-650
368.192	600
368.275	563
368.358	-152
368.442	1130
368.525	2412
368.608	152
368.691	3753
368.775	2504
368.858	41
368.941	728
369.024	632
369.107	-177
369.190	-843
369.274	-409
369.357	195
369.440	-193
369.523	-171
369.606	-823
369.689	-68
369.772	112
369.855	-29
369.939	-178
370.022	-123
370.105	-345
370.188	618
370.271	-840
370.354	497
370.437	1118
370.520	8503
370.603	3986
370.686	-85
370.769	2123
370.852	4048
370.935	4670
371.018	379
371.100	-1133
371.183	-46
371.266	112
371.349	-868
371.432	-518
371.515	-565
371.598	11
371.681	600
371.763	518
371.846	2005
371.929	28772
372.012	22650
372.095	3239
372.177	4926
372.260	6546
372.343	-87
372.426	609
372.508	553
372.591	-286
372.674	2792
372.757	5563
372.839	1218
372.922	1517
373.005	778
373.087	325
373.170	1237
373.253	3814
373.335	6745
373.418	29795
373.500	28768
373.583	6807
373.666	31274
373.748	13040
373.831	938
373.913	-144
373.996	30
374.078	2054
374.161	802
374.243	2295
374.326	4359
374.408	1813
374.491	17329
374.573	19498
374.656	1668
374.738	6341
374.821	14647
374.903	31553
374.985	11360
375.068	116
375.150	534
375.233	3762
375.315	2518
375.397	400
375.480	-1319
375.562	-130
375.644	-103
375.727	6744
375.809	19596
375.891	5146
375.973	-32
376.056	919
376.138	1389
376.220	97
376.302	7344
376.385	9481
376.467	935
376.549	780
376.631	3983
376.713	8213
376.795	631
376.878	69
376.960	-867
377.042	96
377.124	-248
377.206	-556
377.288	-697
377.370	-496
377.452	-815
377.534	-469
377.616	-360
377.699	-819
377.781	-944
377.863	-715
377.945	9
378.027	-1425
378.109	-73
378.190	-1238
378.272	-272
378.354	-306
378.436	-488
378.518	-514
378.600	-745
378.682	402
378.764	2450
378.846	307
378.928	-329
379.010	61
379.091	-835
379.173	-702
379.255	-1211
379.337	-112
379.419	1944
379.501	3012
379.582	-653
379.664	-437
379.746	490
379.828	2749
379.909	3816
379.991	797
380.073	-563
380.155	-463
380.236	-580
380.318	-582
380.400	-401
380.481	310
380.563	-412
380.645	-122
380.726	-337
380.808	525
380.889	-1016
380.971	-1161
381.053	-136
381.134	-551
381.216	664
381.297	2077
381.379	-525
381.460	2317
381.542	13320
381.623	4350
381.705	-327
381.786	75
381.868	490
381.949	12063
382.031	25259
382.112	5047
382.193	-1104
382.275	764
382.356	3398
382.438	7039
382.519	16931
382.600	13509
382.682	4022
382.763	8450
382.844	2607
382.926	3841
383.007	1301
383.088	849
383.170	9718
383.251	6081
383.332	5377
383.413	10109
383.495	790
383.576	-455
383.657	226
383.738	9562
383.820	15892
383.901	2309
383.982	6851
384.063	11135
384.144	1399
384.225	71
384.306	-353
384.388	-1323
384.469	-379
384.550	-207
384.631	-88
384.712	-441
384.793	-463
384.874	16
384.955	2819
385.036	572
385.117	-1012
385.198	-153
385.279	-777
385.360	-336
385.441	25
385.522	1540
385.603	7553
385.684	2073
385.765	-251
385.846	993
385.927	20348
386.008	13130
386.089	-168
386.169	-570
386.250	-860
386.331	-292
386.412	-31
386.493	1820
386.574	882
386.654	-604
386.735	-852
386.816	-319
386.897	-658
386.977	222
387.058	-497
387.139	-44
387.220	2168
387.300	1821
387.381	-25
387.462	-1324
387.542	-393
387.623	-290
387.704	1001
387.784	7685
387.865	4035
387.946	278
388.026	-834
388.107	-2306
388.187	607
388.268	104
388.349	-1224
388.429	849
388.510	1848
388.590	12507
388.671	4126
388.751	1434
388.832	1296
388.912	-250
388.993	-1882
389.073	-748
389.154	-369
389.234	-836
389.314	626
389.395	-1399
389.475	1571
389.556	2550
389.636	-243
389.716	-455
389.797	-635
389.877	1677
389.957	4151
390.038	132
390.118	-1252
390.198	1012
390.279	2832
390.359	-643
390.439	3523
390.519	12236
390.600	2747
390.680	-196
390.760	-266
390.840	-122
390.920	-667
391.001	-1244
391.081	-274
391.161	-400
391.241	-1363
391.321	-616
391.401	-846
391.481	374
391.562	-1865
391.642	-1000
391.722	-98
391.802	305
391.882	-1037
391.962	1689
392.042	132
392.122	701
392.202	1899
392.282	3374
392.362	-282
392.442	463
392.522	-306
392.602	1583
392.682	1397
392.762	4016
392.842	1600
392.921	3165
393.001	5809
393.081	2490
393.161	5008
393.241	42517
393.321	179873
393.401	62250
393.480	7938
393.560	2016
393.640	611
393.720	-149
393.800	-971
393.879	70
393.959	636
394.039	192
394.119	325
394.198	2644
394.278	25500
394.358	117701
394.437	33460
394.517	3006
394.597	-127
394.676	172
394.756	1653
394.836	704
394.915	209
394.995	-88
395.075	289
395.154	-406
395.234	-699
395.313	-549
395.393	-1333
395.472	1097
395.552	235
395.631	2951
395.711	1883
395.790	3059
395.870	823
395.949	3194
396.029	33266
396.108	146968
396.188	45868
396.267	6006
396.346	1052
396.426	-544
396.505	1207
396.585	1823
396.664	5227
396.743	58741
396.823	128251
396.902	27123
396.981	2295
397.061	1560
397.140	-1353
397.219	360
397.298	432
397.378	-58
397.457	-416
397.536	-626
397.615	-2356
397.694	283
397.774	-99
397.853	-1071
397.932	-1190
398.011	-702
398.090	-236
398.169	1294
398.249	-1497
398.328	5
398.407	-701
398.486	-770
398.565	-550
398.644	-1778
398.723	-798
398.802	-931
398.881	214
398.960	1471
399.039	-946
399.118	-1515
399.197	-788
399.276	-280
399.355	-996
399.434	-1255
399.513	-683
399.592	-1663
399.671	-689
399.750	125
399.829	2845
399.908	164
399.986	-553
400.065	-805
400.144	-1557
400.223	359
400.302	-925
400.380	-1033
400.459	1726
400.538	143
400.617	-1096
400.696	-421
400.774	-993
400.853	-749
400.932	-1353
401.011	872
401.089	-1275
401.168	-205
401.247	-1383
401.325	-1515
401.404	-538
401.483	-1654
401.561	-756
401.640	-1009
401.718	-724
401.797	-1224
401.876	-1351
401.954	-1004
402.033	-536
402.111	-248
402.190	-1275
402.268	-986
402.347	-1063
402.425	285
402.504	-1416
402.582	-383
402.661	-1526
402.739	-1349
402.818	-230
402.896	-850
402.974	53
403.053	-110
403.131	-595
403.210	-857
403.288	-995
403.366	-855
403.445	-324
403.523	-978
403.601	-856
403.680	-1594
403.758	-154
403.836	-633
403.915	-893
403.993	-1060
404.071	131
404.149	-1922
404.228	-1156
404.306	62
404.384	-121
404.462	1831
404.540	13199
404.618	2480
404.697	-802
404.775	-482
404.853	-1543
404.931	-1690
405.009	-857
405.087	-902
405.165	-1233
405.243	-1825
405.321	-355
405.399	-1522
405.478	-12
405.556	-679
405.634	-1575
405.712	-1830
405.790	-432
405.868	-623
405.945	-494
406.023	-689
406.101	-1709
406.179	319
406.257	1787
406.335	7317
406.413	933
406.491	-1593
406.569	-797
406.647	-142
406.724	-1641
406.802	-1811
406.880	-1787
406.958	-506
407.036	-1217
407.113	4701
407.191	1231
407.269	-754
407.347	-1247
407.424	-922
407.502	-1721
407.580	-736
407.658	650
407.735	5611
407.813	972
407.891	-1451
407.968	-1442
408.046	-656
408.124	-1394
408.201	-56
408.279	-2074
408.356	-1603
408.434	-1176
408.512	-1090
408.589	-1721
408.667	-1067
408.744	-1374
408.822	-714
408.899	-1827
408.977	-1321
409.054	-1642
409.132	-1441
409.209	-735
409.287	-1515
409.364	-1436
409.441	-834
409.519	-462
409.596	-1135
409.674	-1255
409.751	-1008
409.828	-641
409.906	-488
409.983	-1822
410.060	-1923
410.138	-988
410.215	-1128
410.292	-772
410.370	-1245
410.447	-1160
410.524	-1077
410.601	-606
410.678	-1097
410.756	-826
410.833	-2066
410.910	-682
410.987	-1011
411.064	-1861
411.142	-1785
411.219	-657
411.296	-1693
411.373	-1141
411.450	-902
411.527	-1682
411.604	-2151
411.681	-1556
411.758	-734
411.835	-884
411.913	-1698
411.990	-1445
412.067	-955
412.144	-852
412.221	-1417
412.298	-1197
412.374	-1135
412.451	-723
412.528	-1446
412.605	-1505
412.682	-1027
412.759	-1117
412.836	-655
412.913	-2124
412.990	-806
413.067	-1046
413.143	443
413.220	267
413.297	-2104
413.374	-266
413.451	-2130
413.527	-1171
413.604	-402
413.681	-1523
413.758	-1531
413.834	-1384
413.911	-1144
413.988	-1482
414.065	-733
414.141	-476
414.218	-1099
414.295	208
414.371	912
414.448	-1273
414.524	-1298
414.601	-917
414.678	-731
414.754	-933
414.831	-1281
414.907	-887
414.984	-1218
415.060	-1897
415.137	-1733
415.213	-1277
415.290	-1074
415.366	31
415.443	-1372
415.519	-1062
415.596	-1543
415.672	-985
415.749	-1337
415.825	-1246
415.902	-877
415.978	-1447
416.054	-676
416.131	-1632
416.207	-1992
416.283	-1217
416.360	-1132
416.436	-151
416.512	-1186
416.589	-1616
416.665	-1255
416.741	-508
416.817	-1322
416.894	-1393
416.970	-1131
417.046	-638
417.122	-1151
417.198	-1522
417.275	-914
417.351	-1413
417.427	-861
417.503	-1497
417.579	-1440
417.655	-876
417.731	-854
417.808	-2209
417.884	-1133
417.960	-845
418.036	-1208
418.112	-945
418.188	-1131
418.264	-596
418.340	-186
418.416	-1540
418.492	-1258
418.568	-1320
418.644	-799
418.720	-918
418.796	220
418.872	-1479
418.947	-2022
419.023	-562
419.099	-457
419.175	-1419
419.251	-699
419.327	-1655
419.403	-1159
419.478	-1279
419.554	-931
419.630	-891
419.706	-1317
419.782	-730
419.857	-1070
419.933	-1202
420.009	-49
420.085	-1593
420.160	162
420.236	-264
420.312	-1073
420.387	-1066
420.463	-1252
420.539	14
420.614	-1698
420.690	-974
420.766	-2130
420.841	-961
420.917	-1885
420.992	-1218
421.068	-1634
421.143	-1036
421.219	-1522
421.294	-1260
421.370	-1866
421.445	365
421.521	1841
421.596	-539
421.672	-421
421.747	-1259
421.823	-2372
421.898	-513
421.974	-1570
422.049	-1198
422.124	-1098
422.200	-833
422.275	-478
422.350	-10
422.426	288
422.501	5703
422.576	49211
422.652	72544
422.727	13429
422.802	1331
422.878	-370
422.953	-1428
423.028	-432
423.103	-593
423.178	-493
423.254	-1121
423.329	-336
423.404	-1250
423.479	-269
423.554	-958
423.630	-1339
423.705	-1310
423.780	-1341
423.855	-993
423.930	-1042
424.005	-1626
424.080	-947
424.155	-2003
424.230	-1003
424.305	-1102
424.380	-1284
424.455	-1324
424.530	-672
424.605	-2089
424.680	-1183
424.755	-1347
424.830	-1919
424.905	-1913
424.980	-157
425.055	-211
425.130	-1562
425.204	-512
425.279	-1479
425.354	-1219
425.429	-1959
425.504	-1480
425.579	-1758
425.653	-1255
425.728	-1404
425.803	-1065
425.878	-845
425.952	-747
426.027	283
426.102	-1259
426.177	-910
426.251	-745
426.326	-1785
426.401	-1005
426.475	-648
426.550	-1416
426.625	-1006
426.699	-926
426.774	-1433
426.848	-907
426.923	-1026
426.998	-1721
427.072	1541
427.147	2975
427.221	99
427.296	-648
427.370	-1662
427.445	-1431
427.519	-2226
427.594	-1077
427.668	-926
427.743	-1722
427.817	-1019
427.892	-1742
427.966	-1856
428.040	-1995
428.115	-983
428.189	905
428.263	3737
428.338	-516
428.412	-1483
428.486	-1281
428.561	-1576
428.635	-1084
428.709	-1234
428.784	-979
428.858	3100
428.932	1507
429.006	-981
429.080	-772
429.155	-2092
429.229	-1373
429.303	-653
429.377	-952
429.451	-1088
429.526	-902
429.600	-1226
429.674	-1930
429.748	-97
429.822	1763
429.896	2054
429.970	109
430.044	394
430.118	1164
430.192	10362
430.266	3879
430.340	-1439
430.414	-1521
430.488	-756
430.562	-711
430.636	-292
430.710	6942
430.784	4193
430.858	-1224
430.932	-1675
431.006	-1458
431.080	-1729
431.153	-1455
431.227	-1912
431.301	-892
431.375	-233
431.449	-1815
431.523	-476
431.596	-1520
431.670	-1397
431.744	-612
431.818	4299
431.891	249
431.965	-1225
432.039	-1219
432.112	-981
432.186	-1674
432.260	-1691
432.333	-768
432.407	-1110
432.481	1564
432.554	3607
432.628	-551
432.702	-1625
432.775	-1506
432.849	-1210
432.922	-883
432.996	-1864
433.069	-1279
433.143	-1398
433.216	-961
433.290	-1740
433.363	-2574
433.437	-1183
433.510	-1952
433.584	-1479
433.657	-1836
433.730	-648
433.804	-1483
433.877	-1556
433.951	-1829
434.024	-984
434.097	-2085
434.171	-1805
434.244	-1675
434.317	-1647
434.391	-1527
434.464	-1669
434.537	-1814
434.610	-1798
434.684	-1825
434.757	-1211
434.830	-1667
434.903	-1203
434.977	-1664
435.050	-1860
435.123	-1236
435.196	-1553
435.269	-1069
435.342	-1818
435.415	-1228
435.489	-1064
435.562	-1681
435.635	-1413
435.708	-1735
435.781	-1684
435.854	-1767
435.927	-1624
436.000	-1722
436.073	-592
436.146	-1605
436.219	-1455
436.292	-1566
436.365	-1781
436.438	-835
436.511	-1100
436.584	-2039
436.657	-2111
436.729	-1621
436.802	-1175
436.875	-1387
436.948	-1608
437.021	-1235
437.094	-1319
437.166	-2123
437.239	-993
437.312	-2029
437.385	-1539
437.457	-1880
437.530	-1425
437.603	-1446
437.676	-1675
437.748	-1453
437.821	-1577
437.894	-1352
437.966	-1338
438.039	-1986
438.112	-1228
438.184	-1020
438.257	3102
438.330	7207
438.402	-68
438.475	-856
438.547	-1565
438.620	-2262
438.692	-1644
438.765	-1157
438.837	-1942
438.910	-1578
438.982	-1862
439.055	-2133
439.127	-1128
439.200	-1521
439.272	-1925
439.345	-1736
439.417	-953
439.489	-1957
439.562	-1799
439.634	-1681
439.707	-2092
439.779	-2470
439.851	-1490
439.923	-2273
439.996	-1962
440.068	-1924
440.140	-2412
440.213	-1872
440.285	-1104
440.357	30
440.429	3606
440.502	-856
440.574	-1731
440.646	-969
440.718	-1458
440.790	-1569
440.862	-1640
440.935	-1852
441.007	-1560
441.079	-1086
441.151	-1545
441.223	-1614
441.295	-1793
441.367	-1467
441.439	-911
441.511	-963
441.583	-1684
441.655	-2142
441.727	-1761
441.799	-1966
441.871	-1954
441.943	-1190
442.015	-1242
442.087	-1608
442.159	-1415
442.231	-1351
442.303	-1230
442.374	-1726
442.446	-113
442.518	2104
442.590	-503
442.662	-1580
442.734	-1591
442.805	-1916
442.877	-1927
442.949	-2204
443.021	-1273
443.092	-1380
443.164	-1643
443.236	-1937
443.308	-1100
443.379	458
443.451	6070
443.523	2673
443.594	-826
443.666	-1448
443.737	-1707
443.809	-2243
443.881	-812
443.952	-2049
444.024	-1778
444.095	-2076
444.167	-1955
444.238	-1407
444.310	-1699
444.381	-1487
444.453	-1519
444.524	-1437
444.596	-1345
444.667	-1627
444.739	-1645
444.810	-1300
444.882	-1950
444.953	-1947
445.024	-1399
445.096	-1669
445.167	-1732
445.238	-1194
445.310	-1190
445.381	4925
445.452	10656
445.524	2468
445.595	1013
445.666	-1440
445.737	-1276
445.809	-2575
445.880	-1853
445.951	-1532
446.022	-2382
446.094	-2140
446.165	-1022
446.236	-1932
446.307	-1716
446.378	-1595
446.449	-1809
446.520	-2228
446.591	-1895
446.663	-1441
446.734	-2353
446.805	-1363
446.876	-1269
446.947	-1857
447.018	-1702
447.089	-1788
447.160	-1278
447.231	-2100
447.302	-1778
447.373	-1766
447.444	-1363
447.514	-1824
447.585	-2117
447.656	-1885
447.727	-2872
447.798	-1986
447.869	-2856
447.940	-1989
448.010	-1829
448.081	-2246
448.152	-1680
448.223	-2186
448.294	-1605
448.364	-1072
448.435	-1996
448.506	-1224
448.577	-1339
448.647	-1481
448.718	-2011
448.789	-1870
448.859	-1150
448.930	-1814
449.001	-1173
449.071	-1614
449.142	-2037
449.213	-1730
449.283	-1636
449.354	-2073
449.424	-1659
449.495	-1093
449.565	-1701
449.636	-1810
449.706	-1927
449.777	-1895
449.847	-2177
449.918	-2498
449.988	-1802
450.059	-2045
450.129	-1375
450.200	-1479
450.270	-1079
450.340	-1945
450.411	-1769
450.481	-1899
450.551	-1257
450.622	-954
450.692	-1729
450.762	-2021
450.833	-1716
450.903	-1732
450.973	-1569
451.043	-2019
451.114	-2252
451.184	-2027
451.254	-1478
451.324	-1816
451.395	-1965
451.465	-1067
451.535	-1927
451.605	-2200
451.675	-1479
451.745	-1719
451.815	-1486
451.885	-2004
451.956	-2160
452.026	-2600
452.096	-1172
452.166	-1461
452.236	-1056
452.306	-1960
452.376	-1810
452.446	-1347
452.516	-1990
452.586	-1611
452.656	-1900
452.725	-1336
452.795	-1609
452.865	-1660
452.935	-1792
453.005	-1891
453.075	-1703
453.145	-1943
453.215	-970
453.284	-927
453.354	-882
453.424	-411
453.494	-627
453.564	-312
453.633	-2188
453.703	-1729
453.773	-1344
453.843	-2122
453.895	-1530
453.912	-1356
453.976	-2013
453.982	-2103
454.052	-1862
454.057	-1830
454.121	-1754
454.139	-1802
454.191	-2014
454.220	-1947
454.261	-1938
454.301	-1704
454.330	-1640
454.382	-1581
454.400	-1564
454.463	-1700
454.469	-1740
454.539	-1206
454.544	-1193
454.608	-1356
454.625	-1190
454.678	-688
454.707	-685
454.748	-1007
454.788	-313
454.817	-113
454.869	-483
454.887	-523
454.950	-1237
454.956	-1308
455.026	-100
455.031	-28
455.095	1512
455.112	2208
455.165	5821
455.193	7786
455.234	6925
455.274	7748
455.303	5564
455.355	2048
455.373	2194
455.436	659
455.442	467
455.512	-995
455.517	-1020
455.581	-1207
455.598	-1217
455.650	-1351
455.679	-1356
455.720	-1271
455.760	-1018
455.789	-928
455.841	-771
455.858	-757
455.922	-891
455.928	-916
455.997	-1093
456.003	-1056
456.066	-579
456.084	-361
456.136	173
456.165	219
456.205	139
456.245	584
456.274	621
456.326	13
456.343	-141
456.407	-488
456.412	-529
456.482	-506
456.488	-507
456.551	-680
456.569	-660
456.620	-448
456.650	-371
456.689	-401
456.730	-308
456.758	-284
456.811	-248
456.827	-170
456.892	395
456.897	457
456.966	939
456.973	1117
457.035	2273
457.054	2536
457.104	1085
457.134	268
457.173	131
457.215	-395
457.242	-596
457.296	-162
457.311	-32
457.377	274
457.380	277
457.449	373
457.457	477
457.518	1313
457.538	1553
457.587	3065
457.619	3778
457.656	5343
457.699	7288
457.725	6181
457.780	4513
457.794	4600
457.861	4906
457.863	5015
457.932	8850
457.941	9396
458.001	10850
458.022	11697
458.070	7203
458.103	4137
458.138	3995
458.183	2874
458.207	3018
458.264	4032
458.276	4664
458.344	8685
458.345	8734
458.414	17539
458.425	19221
458.483	13288
458.506	10868
458.551	6913
458.586	3289
458.620	2439
458.667	1757
458.689	1754
458.747	1699
458.758	1687
458.826	1835
458.828	1833
458.895	1444
458.908	1546
458.964	2007
458.989	1940
459.033	1922
459.069	2174
459.101	2375
459.150	2400
459.170	2158
459.230	1609
459.239	1667
459.307	2072
459.311	2098
459.376	2477
459.391	2472
459.444	2163
459.471	2116
459.513	2015
459.552	2036
459.582	2218
459.632	2314
459.650	2257
459.713	2283
459.719	2347
459.787	2906
459.793	2919
459.856	2171
459.873	2105
459.924	2714
459.954	2948
459.993	3204
460.034	3563
460.061	4045
460.114	4889
460.130	4558
460.195	2935
460.198	2921
460.267	2488
460.275	2471
460.335	3447
460.355	3682
460.404	6088
460.436	7854
460.472	14602
460.516	22431
460.540	25231
460.596	32010
460.609	27811
460.676	5011
460.677	5015
460.745	3778
460.757	3561
460.814	2859
460.837	2644
460.882	3735
460.917	4312
460.950	4181
460.997	4213
461.019	3892
461.077	2873
461.087	2873
461.155	3452
461.158	3438
461.224	3493
461.238	3454
461.292	2900
461.318	2875
461.360	3578
461.398	3931
461.428	4700
461.478	6025
461.496	6797
461.558	9246
461.565	8952
461.633	5703
461.638	5381
461.701	4490
461.719	4239
461.769	4084
461.799	4115
461.837	4096
461.879	3806
461.905	3755
461.959	3621
461.973	3800
462.039	4862
462.042	4913
462.110	5177
462.119	5213
462.178	6026
462.199	6323
462.246	5059
462.279	4020
462.314	4429
462.359	5078
462.382	4604
462.439	3265
462.450	3415
462.518	3963
462.519	3957
462.586	4605
462.599	4590
462.654	4751
462.679	4962
462.722	5606
462.759	5972
462.790	5358
462.839	4387
462.858	4568
462.919	5115
462.926	5029
462.993	3731
462.999	3622
463.061	5070
463.078	5414
463.129	5152
463.158	4978
463.197	5503
463.238	5896
463.265	5348
463.318	4394
463.333	4400
463.398	4013
463.401	4081
463.468	5704
463.478	5800
463.536	5782
463.558	5853
463.604	7926
463.637	9264
463.672	8821
463.717	8243
463.739	8999
463.797	11031
463.807	10593
463.875	6965
463.877	6832
463.943	5240
463.957	4843
464.010	5164
464.036	5261
464.078	5270
464.116	5301
464.146	5605
464.196	5980
464.213	6044
464.275	6201
464.281	6297
464.349	7039
464.355	7057
464.416	6613
464.435	6434
464.484	6860
464.515	7045
464.551	8221
464.594	9622
464.619	9293
464.674	8307
464.686	8184
464.754	7037
464.754	7084
464.821	7511
464.833	7538
464.889	7274
464.913	7072
464.956	7391
464.992	7571
465.024	7827
465.072	8210
465.091	8082
465.152	7359
465.159	7615
465.226	9588
465.231	9677
465.294	10410
465.311	10524
465.361	9663
465.390	9104
465.429	11367
465.470	13645
465.496	12635
465.549	10397
465.563	10132
465.629	8457
465.631	8506
465.698	8410
465.708	8355
465.765	8610
465.788	8638
465.833	8723
465.867	8650
465.900	9023
465.947	9493
465.967	9568
466.026	9505
466.035	9655
466.102	10422
466.106	10404
466.169	11113
466.185	11214
466.236	9652
466.265	8674
466.304	9427
466.344	10092
466.371	10863
466.423	12216
466.438	12683
466.503	14396
466.505	14763
466.572	23318
466.582	24457
466.639	20390
466.662	18639
466.707	16249
466.741	14233
466.774	14924
466.820	15705
466.841	15641
466.900	15102
466.908	15096
466.975	14297
466.979	14163
467.042	14314
467.058	14256
467.109	13550
467.138	13014
467.176	13083
467.217	13007
467.243	12419
467.296	11015
467.310	10947
467.375	10282
467.377	10342
467.455	10338
467.534	9367
467.613	11882
467.692	13442
467.772	15240
467.851	11247
467.930	12782
468.009	20627
468.088	15207
468.167	9449
468.246	12709
468.326	13258
468.405	11723
468.484	9235
468.563	10602
468.642	9819
468.721	10248
468.800	10027
468.879	10510
468.958	13519
469.037	9206
469.116	10130
469.195	7891
469.274	9306
469.353	9864
469.432	9809
469.511	9607
469.590	11576
469.669	10852
469.748	13302
469.827	9204
469.905	9514
469.984	10688
470.063	13682
470.142	20326
470.221	17533
470.300	13898
470.378	11929
470.457	10495
470.536	13650
470.615	12341
470.694	9582
470.772	10407
470.851	12603
470.930	9188
471.008	8531
471.087	8202
471.166	6669
471.245	9027
471.323	8189
471.402	8007
471.480	7780
471.559	9188
471.638	7965
471.716	8078
471.795	8189
471.873	8254
471.952	8028
472.031	10940
472.109	11210
472.188	8378
472.266	7343
472.345	7436
472.423	8396
472.502	8341
472.580	10185
472.659	9608
472.737	10389
472.815	7675
472.894	9554
472.972	9458
473.051	7502
473.129	9498
473.207	8520
473.286	10123
473.364	9959
473.443	13154
473.521	17464
473.599	10011
473.677	7323
473.756	9645
473.834	9469
473.912	9092
473.991	9574
474.069	10482
474.147	10651
474.225	7352
474.303	8420
474.382	9632
474.460	8507
474.538	9078
474.616	9481
474.694	9433
474.772	7892
474.851	8308
474.929	7991
475.007	10289
475.085	9328
475.163	10244
475.241	14016
475.319	10480
475.397	8738
475.475	7971
475.553	11365
475.631	13695
475.709	15076
475.787	14977
475.865	8872
475.943	8070
476.021	10631
476.099	11533
476.177	8414
476.255	6912
476.333	7852
476.410	11098
476.488	12359
476.566	8529
476.644	8767
476.722	7923
476.800	6901
476.877	6505
476.955	8016
477.033	7618
477.111	8467
477.189	7143
477.266	7010
477.344	6247
477.422	7886
477.499	7628
477.577	6102
477.655	8120
477.732	7209
477.810	7603
477.888	6635
477.965	6447
478.043	8370
478.121	10524
478.198	15552
478.276	8653
478.353	7154
478.431	7640
478.508	10631
478.586	7926
478.664	7630
478.741	10289
478.819	10813
478.896	6819
478.974	7719
479.051	8012
479.128	8664
479.206	6986
479.283	7684
479.361	7146
479.438	7240
479.516	7513
479.593	7030
479.670	7860
479.748	6658
479.825	10865
479.902	8632
479.980	7033
480.057	6529
480.134	6784
480.211	8191
480.289	7938
480.366	12335
480.443	8324
480.520	6708
480.598	7485
480.675	7667
480.752	7885
480.829	8580
480.906	7177
480.984	8081
481.061	8450
481.138	6185
481.215	5827
481.292	7599
481.369	5560
481.446	8540
481.523	6437
481.600	6439
481.677	6859
481.754	7241
481.831	9556
481.908	11033
481.985	8087
482.062	9354
482.139	12793
482.216	15919
482.293	8876
482.370	8278
482.447	8799
482.524	7714
482.601	7696
482.678	6497
482.755	7428
482.832	7429
482.908	7968
482.985	8254
483.062	9825
483.139	9004
483.216	7406
483.293	9160
483.369	6987
483.446	8809
483.523	7087
483.600	7289
483.676	8892
483.753	7965
483.830	10794
483.906	16563
483.983	15800
484.060	18472
484.136	18826
484.213	15285
484.290	13768
484.366	12793
484.443	13680
484.519	15536
484.596	13517
484.673	14089
484.749	14542
484.826	13615
484.902	14798
484.979	14190
485.055	14255
485.132	14132
485.208	14953
485.285	15915
485.361	18721
485.437	23289
485.514	18371
485.590	17606
485.667	17811
485.743	20773
485.819	32345
485.896	18510
485.972	15968
486.049	15482
486.125	15711
486.201	16563
486.277	17980
486.354	17052
486.430	16860
486.506	19429
486.583	18187
486.659	20875
486.735	18554
486.811	22083
486.887	31047
486.964	55379
487.040	51691
487.116	27059
487.192	15320
487.268	14390
487.344	15452
487.420	18591
487.497	21617
487.573	37728
487.649	91983
487.725	61960
487.801	19723
487.877	15606
487.953	16424
488.029	14688
488.105	12645
488.181	12300
488.257	14215
488.333	21842
488.409	18057
488.485	12065
488.561	12440
488.637	11986
488.712	16412
488.788	18061
488.864	34361
488.940	79152
489.016	85515
489.092	18494
489.168	10405
489.243	10811
489.319	9562
489.395	8860
489.471	9343
489.547	8738
489.622	9026
489.698	9632
489.774	15195
489.849	21711
489.925	11943
490.001	8892
490.076	10461
490.152	17347
490.228	15548
490.303	10188
490.379	8839
490.455	7260
490.530	9263
490.606	9291
490.681	9616
490.757	8504
490.833	13703
490.908	12595
490.984	11856
491.059	9918
491.135	11446
491.210	17611
491.286	11616
491.361	11952
491.436	9911
491.512	11452
491.587	14587
491.663	22016
491.738	57010
491.814	52995
491.889	122914
491.964	49472
492.040	12342
492.115	9063
492.190	11325
492.266	15225
492.341	8954
492.416	8124
492.491	6798
492.567	9178
492.642	11700
492.717	9800
492.792	10131
492.868	9396
492.943	9216
493.018	11475
493.093	16280
493.168	42021
493.243	132973
493.318	54048
493.394	12938
493.469	8693
493.544	9280
493.619	10831
493.694	17775
493.769	15480
493.844	10217
493.919	7340
493.994	7221
494.069	6592
494.144	6879
494.219	6039
494.294	6928
494.369	8313
494.444	8571
494.519	8989
494.594	6416
494.669	7557
494.744	8338
494.818	8176
494.893	7258
494.968	8635
495.043	7465
495.118	8347
495.193	8398
495.267	10230
495.342	13198
495.417	16475
495.492	35826
495.566	139042
495.641	163487
495.716	17212
495.791	7697
495.865	8429
495.940	7628
496.015	8509
496.089	8120
496.164	7218
496.239	7643
496.313	8349
496.388	10551
496.462	15369
496.537	10161
496.612	9914
496.686	10729
496.761	9410
496.835	8811
496.910	9340
496.984	8275
497.059	9490
497.133	11568
497.208	12641
497.282	11602
497.357	13513
497.431	12725
497.505	12249
497.580	14888
497.654	18649
497.729	23709
497.803	20419
497.877	26064
497.952	52470
498.026	137029
498.100	50629
498.175	35892
498.249	30520
498.323	22404
498.397	25192
498.472	16719
498.546	13762
498.620	13811
498.694	15182
498.768	18334
498.843	22735
498.917	65950
498.991	76776
499.065	12826
499.139	8934
499.213	11663
499.287	11485
499.362	10588
499.436	8746
499.510	9695
499.584	11914
499.658	14538
499.732	30016
499.806	78328
499.880	18726
499.954	15505
500.028	21819
500.102	17363
500.176	11335
500.250	10889
500.324	13740
500.397	25994
500.471	44207
500.545	53454
500.619	37611
500.693	9971
500.767	9513
500.841	8679
500.914	7998
500.988	10018
501.062	17406
501.136	15858
501.210	27649
501.283	58438
501.357	22520
501.431	14906
501.505	15311
501.578	7501
501.652	14536
501.726	16181
501.799	15427
501.873	21988
501.947	10362
502.020	13109
502.094	22177
502.167	21956
502.241	10360
502.315	17202
502.388	14992
502.462	11072
502.535	10720
502.609	10007
502.682	8938
502.756	5204
502.829	6110
502.903	6738
502.976	6319
503.050	5909
503.123	6370
503.196	6649
503.270	6675
503.343	9396
503.417	25419
503.490	32736
503.563	11846
503.637	12380
503.710	19682
503.783	16670
503.857	29504
503.930	29905
504.003	52457
504.076	32804
504.150	12191
504.223	10639
504.296	7715
504.369	5580
504.443	5720
504.516	6590
504.589	5508
504.662	7919
504.735	6697
504.808	13946
504.881	11873
504.954	5806
505.028	11451
505.101	6999
505.174	6515
505.247	6405
505.320	7409
505.393	10650
505.466	18407
505.539	14939
505.612	9208
505.685	6386
505.758	7359
505.831	4656
505.904	5886
505.977	5511
506.049	4744
506.122	6291
506.195	6223
506.268	16315
506.341	28586
506.414	9250
506.487	4807
506.559	5157
506.632	7122
506.705	8832
506.778	9098
506.851	6446
506.923	5329
506.996	6913
507.069	7573
507.141	5532
507.214	5435
507.287	9865
507.360	9309
507.432	5838
507.505	6237
507.577	4710
507.650	5065
507.723	8455
507.795	13775
507.868	7711
507.940	5472
508.013	6257
508.086	3921
508.158	7941
508.231	6545
508.303	5131
508.376	4204
508.448	5128
508.520	5934
508.593	7223
508.665	5422
508.738	5943
508.810	4491
508.883	6616
508.955	6216
509.027	4767
509.100	3711
509.172	4243
509.244	4642
509.317	3788
509.389	5432
509.461	4950
509.534	6160
509.606	6262
509.678	6963
509.750	9129
509.822	6059
509.895	6340
509.967	4816
510.039	6641
510.111	8172
510.183	7507
510.255	5563
510.328	5777
510.400	7075
510.472	5300
510.544	7664
510.616	9656
510.688	6334
510.760	5911
510.832	8858
510.904	8087
510.976	5846
511.048	4976
511.120	5289
511.192	6432
511.264	5130
511.336	4403
511.408	5110
511.480	5051
511.552	3582
511.624	5120
511.695	5361
511.767	5055
511.839	5263
511.911	7745
511.983	5073
512.055	6665
512.126	6214
512.198	8363
512.270	8865
512.342	9961
512.414	9013
512.485	7149
512.557	6744
512.629	7010
512.700	5395
512.772	7336
512.844	5629
512.915	5656
512.987	6903
513.059	6961
513.130	8902
513.202	17028
513.273	11111
513.345	6851
513.416	6118
513.488	6414
513.560	8831
513.631	9254
513.703	11508
513.774	26802
513.845	21017
513.917	6957
513.988	6515
514.060	7892
514.131	10082
514.203	7705
514.274	5057
514.345	9432
514.417	8366
514.488	6483
514.560	7246
514.631	9112
514.702	8665
514.773	11585
514.845	7099
514.916	7071
514.987	7767
515.059	9779
515.130	7771
515.201	10494
515.272	10399
515.343	7271
515.414	6938
515.486	6323
515.557	6660
515.628	5303
515.699	5730
515.770	7258
515.841	6396
515.912	6778
515.983	8298
516.055	11644
516.126	14693
516.197	10182
516.268	10421
516.339	13369
516.410	18500
516.481	30536
516.552	102627
516.622	186182
516.693	24145
516.764	25029
516.835	19541
516.906	25178
516.977	43515
517.048	99486
517.119	364100
517.190	161981
517.260	26696
517.331	10208
517.402	8750
517.473	8922
517.544	7081
517.614	10346
517.685	8286
517.756	10784
517.827	15546
517.897	17326
517.968	28023
518.039	40375
518.109	82661
518.180	326136
518.250	521772
518.321	48812
518.392	13450
518.462	13711
518.533	13441
518.603	16411
518.674	26957
518.745	53500
518.815	24927
518.886	14100
518.956	16348
519.027	25846
519.097	33002
519.168	29360
519.238	9333
519.309	11059
519.379	15337
519.449	9992
519.520	6740
519.590	6551
519.660	5826
519.731	7563
519.801	5730
519.871	5591
519.942	5493
520.012	5625
520.082	9222
520.153	5087
520.223	3423
520.293	6583
520.363	4045
520.434	7993
520.504	6779
520.574	4825
520.644	6685
520.714	11250
520.784	7318
520.855	15637
520.925	21452
520.995	6205
521.065	4942
521.135	4394
521.205	4755
521.275	4529
521.345	5660
521.415	9155
521.485	7689
521.555	7141
521.625	8532
521.695	4964
521.765	4827
521.835	4589
521.905	4369
521.975	5276
522.045	4133
522.115	4378
522.185	5041
522.254	7613
522.324	11100
522.394	8900
522.464	12097
522.534	35043
522.603	44116
522.673	6762
522.743	4873
522.813	8049
522.883	8411
522.952	6394
523.022	8131
523.092	14981
523.161	48114
523.231	13559
523.301	4829
523.370	4787
523.440	4670
523.509	4525
523.579	3833
523.649	3407
523.718	4608
523.788	4024
523.857	4039
523.927	4217
523.996	3541
524.066	4355
524.135	8307
524.205	3121
524.274	2439
524.344	3501
524.413	4388
524.483	3605
524.552	3449
524.621	2922
524.691	4305
524.760	3160
524.830	3243
524.899	5893
524.968	4022
525.038	4066
525.107	3769
525.176	3453
525.245	3204
525.315	4681
525.384	3537
525.453	3605
525.522	4044
525.591	4346
525.661	4933
525.730	5418
525.799	8101
525.868	12558
525.937	18060
526.006	47670
526.076	80067
526.145	36858
526.214	26883
526.283	56413
526.352	52622
526.421	123146
526.490	50461
526.559	27543
526.628	18149
526.697	27683
526.766	72473
526.835	191722
526.904	231749
526.973	37513
527.042	8422
527.110	7079
527.179	8031
527.248	5174
527.317	4808
527.386	3731
527.455	4147
527.523	3073
527.592	3466
527.661	2968
527.730	4838
527.799	4004
527.867	2699
527.936	5705
528.005	9439
528.074	9777
528.142	6386
528.211	10762
528.280	8795
528.348	4161
528.417	2899
528.485	3832
528.554	3255
528.623	3150
528.691	3081
528.760	1246
528.828	3300
528.897	2344
528.965	2114
529.034	2301
529.102	2646
529.171	3585
529.239	3306
529.308	2832
529.376	2170
529.445	4339
529.513	1748
529.581	1592
529.650	4948
529.718	3307
529.786	3101
529.855	3081
529.923	1876
529.992	3011
530.060	5309
530.128	6225
530.196	2550
530.265	2395
530.333	1919
530.401	3973
530.469	1687
530.537	3379
530.606	4583
530.674	3179
530.742	2716
530.810	2624
530.878	2972
530.946	4677
531.014	2155
531.083	3428
531.151	2318
531.219	2581
531.287	3390
531.355	2347
531.423	4134
531.491	4536
531.559	2409
531.627	2617
531.695	3880
531.763	2110
531.831	2397
531.898	3885
531.966	3575
532.034	3384
532.102	3561
532.170	5970
532.238	13924
532.306	24883
532.374	7356
532.441	6821
532.509	7316
532.577	16660
532.645	56900
532.712	52860
532.780	8379
532.848	4753
532.916	2576
532.983	3286
533.051	3431
533.119	3181
533.186	4201
533.254	2847
533.322	2431
533.389	3675
533.457	3476
533.524	3637
533.592	3091
533.659	3893
533.727	2659
533.794	5186
533.862	9829
533.930	8485
533.997	8640
534.064	3468
534.132	4518
534.199	3204
534.267	3490
534.334	3811
534.402	3371
534.469	3807
534.536	4685
534.604	5447
534.671	6734
534.738	14300
534.806	47189
534.873	19390
534.940	4108
535.008	2746
535.075	3425
535.142	3929
535.209	3641
535.276	3385
535.344	2985
535.411	2086
535.478	2631
535.545	3927
535.612	3996
535.679	3924
535.747	2411
535.814	3437
535.881	3102
535.948	3231
536.015	2765
536.082	2414
536.149	3462
536.216	4191
536.283	5885
536.350	8544
536.417	5541
536.484	7325
536.551	8108
536.618	10741
536.685	6306
536.752	6996
536.818	11081
536.885	14109
536.952	16507
537.019	44158
537.086	11501
537.153	3389
537.219	3329
537.286	2779
537.353	2687
537.420	3098
537.487	3835
537.553	3902
537.620	5462
537.687	2546
537.753	2942
537.820	3450
537.887	4415
537.953	3304
538.020	4957
538.087	5614
538.153	11430
538.220	16482
538.286	4873
538.353	3517
538.419	2580
538.486	2559
538.553	3147
538.619	2984
538.685	3278
538.752	3122
538.818	4605
538.885	3477
538.951	3251
539.018	3401
539.084	3977
539.150	4503
539.217	7231
539.283	2856
539.350	3624
539.416	5052
539.482	5268
539.549	15685
539.615	17273
539.681	3971
539.747	3896
539.814	3233
539.880	5593
539.946	4970
540.012	4847
540.078	4046
540.145	5606
540.211	10029
540.277	18986
540.343	11677
540.409	17894
540.475	21986
540.541	3545
540.607	3210
540.673	2939
540.740	4261
540.806	4688
540.872	5835
540.937	9551
541.004	6785
541.069	3008
541.135	3825
541.201	4986
541.267	5660
541.333	9927
541.399	13182
541.465	4983
541.531	2971
541.597	2243
541.663	3182
541.728	2321
541.794	2983
541.860	2848
541.926	2802
541.992	3479
542.057	3070
542.123	6334
542.189	8878
542.255	15083
542.320	10976
542.386	3235
542.452	3343
542.517	2788
542.583	2948
542.648	4646
542.714	5048
542.780	10033
542.845	26424
542.911	6252
542.976	2376
543.042	2594
543.107	4163
543.173	4797
543.238	6224
543.304	11937
543.369	8963
543.435	3355
543.500	2124
543.566	4591
543.631	2365
543.697	3638
543.762	1966
543.827	2100
543.893	2074
543.958	3201
544.023	1769
544.089	3216
544.154	3092
544.219	2920
544.284	4604
544.350	6205
544.415	6393
544.480	7759
544.545	20979
544.610	12796
544.676	2740
544.741	2629
544.806	1694
544.871	2614
544.936	2201
545.001	2903
545.066	3294
545.132	3647
545.197	3149
545.262	4582
545.327	7348
545.392	13498
545.457	16579
545.522	2607
545.587	3813
545.652	2056
545.717	2846
545.781	2818
545.846	2983
545.911	2100
545.976	3912
546.041	3298
546.106	5513
546.171	5527
546.236	5580
546.300	3009
546.365	2136
546.430	3628
546.495	4962
546.559	4295
546.624	3004
546.689	3375
546.754	3097
546.818	2906
546.883	3581
546.948	3624
547.012	3869
547.077	4642
547.142	5451
547.206	4918
547.271	5877
547.335	5703
547.400	6020
547.464	6908
547.529	7785
547.594	6470
547.658	5512
547.722	4655
547.787	5237
547.852	4141
547.916	6619
547.980	7966
548.045	6224
548.109	5804
548.174	5556
548.238	6141
548.302	4346
548.367	4448
548.431	5137
548.495	4770
548.560	6197
548.624	5420
548.688	7645
548.752	5465
548.817	4954
548.881	5278
548.945	4352
549.009	4215
549.073	5148
549.138	4821
549.202	7721
549.266	4930
549.330	5730
549.394	6026
549.458	5509
549.522	5778
549.586	7038
549.650	7970
549.715	8028
549.779	5365
549.843	6768
549.907	6607
549.971	6845
550.034	6678
550.098	6541
550.162	5521
550.226	6736
550.290	6070
550.354	6383
550.418	7682
550.482	6256
550.546	9946
550.609	7808
550.673	7505
550.737	8159
550.801	8196
550.865	9059
550.928	9861
550.992	10996
551.056	14274
551.120	18322
551.183	18406
551.247	10490
551.311	13020
551.374	10394
551.438	7545
551.502	7162
551.565	4709
551.629	6906
551.692	7254
551.756	5474
551.819	6793
551.883	5506
551.946	6048
552.010	6058
552.073	6432
552.137	6457
552.200	5877
552.264	5930
552.327	5269
552.391	6588
552.454	6214
552.517	7263
552.581	5793
552.644	9332
552.708	13907
552.771	13330
552.834	8138
552.897	7290
552.961	7482
553.024	6221
553.087	5053
553.151	6529
553.214	5470
553.277	7370
553.340	7411
553.403	14465
553.466	11027
553.530	6157
553.593	5190
553.656	6382
553.719	5947
553.782	6165
553.845	5019
553.908	4940
553.971	5880
554.034	4686
554.097	5495
554.160	5879
554.223	5589
554.286	5859
554.349	5679
554.412	5285
554.475	4780
554.538	5175
554.601	6064
554.664	6035
554.727	4331
554.789	4743
554.852	4812
554.915	4444
554.978	5332
555.041	4551
555.104	5231
555.166	4901
555.229	5474
555.292	4251
555.354	5442
555.417	4485
555.480	4110
555.542	3843
555.605	4776
555.668	4004
555.730	3997
555.793	3866
555.856	4730
555.918	4166
555.981	4168
556.043	3229
556.106	4981
556.168	5411
556.231	5168
556.293	4455
556.356	4050
556.418	5875
556.481	4784
556.543	5313
556.606	2914
556.668	4856
556.730	5366
556.793	5995
556.855	8586
556.918	5239
556.980	4776
557.042	5032
557.104	7679
557.167	10858
557.229	5031
557.291	3095
557.354	3835
557.416	4139
557.478	5180
557.540	3821
557.602	2708
557.664	3232
557.727	3810
557.789	4501
557.851	4484
557.913	6063
557.975	10222
558.037	23444
558.099	30550
558.161	6821
558.223	4787
558.285	6995
558.347	7420
558.409	11388
558.471	15427
558.533	28328
558.595	37138
558.657	51946
558.719	146744
558.781	183318
558.843	35450
558.905	37312
558.966	12354
559.028	9302
559.090	10692
559.152	16241
559.214	27019
559.275	63739
559.337	123894
559.399	27416
559.461	10036
559.522	12041
559.584	14710
559.646	25305
559.707	74700
559.769	54727
559.831	9609
559.892	9584
559.954	19991
560.015	38105
560.077	16369
560.139	27102
560.200	24335
560.262	3302
560.323	2725
560.385	3260
560.446	1637
560.508	1743
560.569	1592
560.631	1895
560.692	1358
560.753	943
560.815	1468
560.876	2047
560.937	2441
560.999	3371
561.060	2636
561.122	2631
561.183	2457
561.244	4202
561.305	4839
561.367	7562
561.428	17884
561.489	12035
561.550	2637
561.612	2969
561.673	2464
561.734	2367
561.795	2132
561.856	2182
561.917	2601
561.978	1170
562.039	2308
562.101	3155
562.162	1940
562.223	2673
562.284	2825
562.345	5165
562.406	3030
562.467	1842
562.528	2019
562.589	1450
562.649	1979
562.710	1723
562.771	1855
562.832	1376
562.893	2280
562.954	1853
563.015	2370
563.076	770
563.136	2976
563.197	602
563.258	3059
563.319	1988
563.380	1881
563.440	3068
563.501	1697
563.562	2467
563.622	2587
563.683	1745
563.744	2102
563.804	917
563.865	1743
563.926	2166
563.986	1496
564.047	1720
564.107	1900
564.168	1899
564.229	1946
564.289	3340
564.350	2181
564.410	1728
564.471	1954
564.531	888
564.591	946
564.652	2182
564.712	3206
564.773	2013
564.833	2582
564.893	2478
564.954	2124
565.014	2330
565.074	1814
565.135	3090
565.195	361
565.255	2674
565.316	2038
565.376	1803
565.436	2289
565.496	1413
565.557	1877
565.617	1558
565.677	1839
565.737	4380
565.797	2013
565.857	2213
565.917	3179
565.978	2648
566.038	1985
566.098	4067
566.158	4587
566.218	1978
566.278	1914
566.338	2676
566.398	3207
566.458	3452
566.518	2074
566.578	3326
566.638	4567
566.698	1616
566.757	2460
566.817	2713
566.877	3377
566.937	2709
566.997	2851
567.057	3151
567.116	2844
567.176	3106
567.236	4178
567.296	4191
567.355	4271
567.415	3278
567.475	3840
567.535	3435
567.594	4006
567.654	3501
567.714	3968
567.773	5162
567.833	4825
567.892	6051
567.952	8320
568.012	9856
568.071	12995
568.131	21048
568.190	23846
568.250	17955
568.309	17137
568.369	15200
568.428	13754
568.488	15037
568.547	17284
568.607	21741
568.666	31712
568.725	43982
568.785	34558
568.844	24904
568.903	18475
568.963	15073
569.022	12712
569.081	8744
569.141	9265
569.200	7307
569.259	6545
569.318	4813
569.378	4525
569.437	4054
569.496	4345
569.555	3056
569.614	3224
569.673	2884
569.732	3326
569.792	2150
569.851	2123
569.910	2281
569.969	2650
570.028	3292
570.087	1932
570.146	2302
570.205	2174
570.264	1907
570.323	1929
570.382	3169
570.441	2277
570.500	2459
570.559	806
570.618	1524
570.676	2783
570.735	3931
570.794	3647
570.853	2605
570.912	2501
570.971	2131
571.029	1597
571.088	1408
571.147	1948
571.206	2839
571.264	1497
571.323	1273
571.382	2172
571.440	490
571.499	1123
571.558	1485
571.616	1424
571.675	865
571.733	2009
571.792	1326
571.851	954
571.909	1907
571.968	2185
572.026	1359
572.085	826
572.143	1378
572.202	1525
572.260	1440
572.319	1271
572.377	837
572.435	1866
572.494	984
572.552	1300
572.611	1083
572.669	242
572.727	999
572.786	123
572.844	615
572.902	881
572.960	1412
573.019	1921
573.077	1442
573.135	1378
573.193	612
573.251	774
573.310	1049
573.368	580
573.426	981
573.484	1713
573.542	1406
573.600	510
573.658	1776
573.716	1727
573.774	567
573.832	1176
573.891	1971
573.948	1317
574.006	1217
574.064	503
574.122	729
574.180	1429
574.238	861
574.296	-231
574.354	1265
574.412	727
574.470	843
574.528	589
574.585	175
574.643	2193
574.701	1253
574.759	713
574.817	1950
574.874	508
574.932	359
574.990	460
575.047	649
575.105	1569
575.163	602
575.221	1207
575.278	487
575.336	707
575.393	168
575.451	1181
575.509	798
575.566	581
575.624	1404
575.681	799
575.739	864
575.796	875
575.854	100
575.911	893
575.969	462
576.026	1359
576.083	721
576.141	1600
576.198	2260
576.256	1259
576.313	1435
576.370	271
576.428	1886
576.485	971
576.542	1548
576.599	-188
576.657	547
576.714	681
576.771	739
576.828	260
576.886	1295
576.943	1414
577.000	513
577.057	994
577.114	1761
577.171	1466
577.228	1097
577.286	302
577.343	716
577.400	-67
577.457	1089
577.514	1213
577.571	429
577.628	240
577.685	17
577.742	-163
577.799	667
577.855	191
577.912	-92
577.969	648
578.026	1515
578.083	708
578.140	72
578.197	1096
578.254	729
578.310	-38
578.367	791
578.424	1578
578.481	149
578.537	734
578.594	-468
578.651	1031
578.707	691
578.764	1438
578.821	-104
578.877	1138
578.934	930
578.991	909
579.047	579
579.104	1019
579.160	279
579.217	78
579.273	1152
579.330	153
579.387	0
579.443	992
579.499	1213
579.556	375
579.612	1289
579.669	1090
579.725	1293
579.782	100
579.838	226
579.894	-29
579.951	657
580.007	461
580.063	133
580.120	346
580.176	768
580.232	-190
580.288	1087
580.345	1364
580.401	-144
580.457	1870
580.513	839
580.569	469
580.619	1274
580.625	1387
580.682	1215
580.692	1156
580.738	932
580.765	750
580.794	539
580.838	790
580.850	854
580.906	542
580.911	516
580.962	276
580.984	204
581.018	88
581.057	494
581.074	663
581.130	309
581.130	308
581.186	-672
581.203	-562
581.242	-323
581.276	-146
581.298	-40
581.349	-262
581.354	-291
581.410	38
581.422	193
581.466	744
581.494	541
581.522	362
581.567	884
581.577	997
581.633	276
581.640	315
581.689	597
581.713	667
581.745	738
581.786	650
581.801	638
581.857	396
581.859	406
581.912	407
581.932	433
581.968	482
582.004	639
582.024	757
582.077	711
582.080	701
582.135	684
582.150	587
582.191	377
582.223	242
582.247	118
582.296	341
582.302	371
582.358	1132
582.368	1051
582.414	751
582.441	662
582.469	522
582.514	641
582.525	682
582.581	602
582.587	643
582.636	804
582.659	743
582.692	710
582.732	1046
582.747	1198
582.803	160
582.805	195
582.858	1127
582.877	918
582.914	434
582.950	572
582.969	629
583.023	472
583.025	476
583.080	1473
583.095	1273
583.135	623
583.168	572
583.191	521
583.240	854
583.246	904
583.302	326
583.313	312
583.357	131
583.385	292
583.412	441
583.458	350
583.468	329
583.523	1028
583.531	953
583.578	723
583.603	807
583.634	720
583.676	878
583.689	954
583.744	1108
583.748	1087
583.799	893
583.820	804
583.854	545
583.893	755
583.910	888
583.965	82
583.965	91
584.020	646
584.038	547
584.075	328
584.110	377
584.130	398
584.183	597
584.185	606
584.240	784
584.255	836
584.296	1027
584.328	924
584.351	788
584.400	899
584.406	934
584.461	862
584.472	1010
584.516	1358
584.545	1093
584.571	838
584.617	1454
584.626	1605
584.681	1250
584.689	1297
584.736	1497
584.762	1325
584.791	1104
584.834	1427
584.846	1522
584.900	1655
584.906	1710
584.955	2152
584.978	2079
585.010	1875
585.051	1786
585.065	1791
585.120	2317
585.123	2329
585.175	2721
585.195	2966
585.230	3261
585.267	3450
585.284	3613
585.339	4320
585.340	4324
585.394	4799
585.412	5156
585.449	5894
585.484	6922
585.503	7717
585.556	11129
585.558	11252
585.613	20201
585.628	22074
585.667	27921
585.700	18894
585.722	13521
585.772	11462
585.777	10700
585.831	5434
585.845	4317
585.886	3383
585.917	2572
585.941	2326
585.989	2278
585.995	2313
586.050	2459
586.061	2572
586.104	2695
586.133	2595
586.159	2633
586.205	2569
586.213	2564
586.268	2661
586.277	2674
586.322	2504
586.349	2613
586.377	2828
586.421	2867
586.431	2865
586.486	2795
586.493	2925
586.540	3864
586.565	3823
586.595	3668
586.637	3653
586.649	3643
586.703	3079
586.709	3097
586.758	3336
586.781	3184
586.812	3061
586.853	3240
586.866	3261
586.921	3448
586.925	3439
586.975	3213
586.996	3138
587.029	3419
587.068	3984
587.083	4126
587.138	4240
587.140	4261
587.192	4438
587.212	4436
587.246	4531
587.284	4699
587.300	4794
587.355	4925
587.356	4928
587.409	5254
587.427	5455
587.463	5889
587.499	6164
587.517	6277
587.571	6372
587.571	6375
587.625	6801
587.643	6834
587.679	7604
587.715	8610
587.733	8723
587.786	8871
587.787	8890
587.841	9297
587.858	9699
587.895	10855
587.930	11650
587.949	12271
588.001	14146
588.003	14238
588.057	16236
588.073	17038
588.111	19424
588.145	21682
588.165	23390
588.217	27571
588.219	27824
588.273	33701
588.288	35518
588.327	40427
588.360	45371
588.381	49181
588.431	60017
588.435	60791
588.489	75138
588.503	79710
588.542	92181
588.575	105070
588.596	114466
588.646	143021
588.650	145265
588.704	185140
588.718	198402
588.757	244738
588.789	295258
588.811	346538
588.861	514037
588.865	534497
588.919	743153
588.932	745260
588.972	694305
589.004	705694
589.026	618360
589.075	476749
589.080	461174
589.133	266615
589.147	217872
589.187	180587
589.218	155013
589.241	154146
589.290	155043
589.294	156395
589.348	181185
589.361	190761
589.401	235040
589.433	290771
589.455	354697
589.504	494721
589.508	513601
589.562	594123
589.576	628025
589.615	518412
589.647	459756
589.669	365048
589.718	153578
589.722	148847
589.776	82043
589.790	64696
589.829	51336
589.861	40302
589.883	36753
589.932	29255
589.936	29004
589.989	24096
590.004	22846
590.043	20648
590.075	18727
590.096	17926
590.146	16371
590.149	16338
590.203	14757
590.218	14385
590.256	13684
590.289	12939
590.309	12579
590.360	11813
590.362	11806
590.416	11048
590.431	10907
590.469	10741
590.503	10428
590.522	10247
590.574	9612
590.575	9618
590.629	9450
590.645	9321
590.682	8904
590.716	8567
590.735	8797
590.787	9382
590.788	9393
590.841	8665
590.859	8418
590.894	8436
590.930	8396
590.947	8310
591.000	7769
591.001	7748
591.053	8376
591.072	8489
591.106	8481
591.143	8457
591.159	8215
591.212	7510
591.214	7467
591.265	8059
591.285	8234
591.318	7795
591.356	7281
591.371	7482
591.424	8104
591.427	8121
591.477	7093
591.498	6648
591.530	6729
591.569	6817
591.583	6807
591.636	6645
591.640	6611
591.689	6814
591.711	6967
591.741	6923
591.782	6712
591.794	6680
591.847	6483
591.853	6449
591.900	6826
591.924	6991
591.953	7046
591.995	7110
592.005	6996
592.058	6273
592.066	6151
592.111	6999
592.137	7492
592.164	7004
592.208	6084
592.216	6233
592.269	7129
592.279	7284
592.322	6969
592.350	6742
592.374	6741
592.421	6686
592.427	6751
592.479	7196
592.491	7282
592.532	7669
592.562	7918
592.585	7754
592.633	7314
592.704	6862
592.775	6885
592.846	7505
592.916	7398
592.987	6875
593.058	7294
593.128	6862
593.199	6643
593.270	7397
593.341	6367
593.411	7069
593.482	6220
593.553	7328
593.623	6996
593.694	6879
593.764	7292
593.835	7422
593.906	7486
593.976	7276
594.047	7188
594.117	7991
594.188	6709
594.258	7830
594.329	7709
594.399	7128
594.470	7841
594.540	7831
594.611	7680
594.681	7943
594.751	7749
594.822	8174
594.892	8728
594.963	8401
595.033	8946
595.103	8692
595.174	9506
595.244	9292
595.314	10165
595.384	9183
595.455	8998
595.525	9745
595.595	9839
595.665	9894
595.736	9366
595.806	9987
595.876	10201
595.946	10138
596.016	9856
596.087	10691
596.157	10695
596.227	10363
596.297	10875
596.367	11161
596.437	12250
596.507	12733
596.577	12551
596.647	12085
596.717	13110
596.787	12669
596.857	12724
596.927	12958
596.997	12865
597.067	13073
597.137	13101
597.207	13617
597.277	13430
597.347	13617
597.417	13008
597.487	13907
597.557	13762
597.626	13229
597.696	13874
597.766	13512
597.836	13257
597.906	12529
597.975	11780
598.045	11661
598.115	11941
598.185	13164
598.254	15046
598.324	15427
598.394	16890
598.464	16279
598.533	14869
598.603	14592
598.672	13562
598.742	14155
598.812	15168
598.881	14491
598.951	14474
599.020	14294
599.090	15530
599.159	15608
599.229	14908
599.299	14399
599.368	14927
599.437	14206
599.507	14035
599.576	12559
599.646	13215
599.715	13301
599.785	12492
599.854	11981
599.924	11835
599.993	11640
600.062	11257
600.132	12771
600.201	12940
600.270	13635
600.340	16197
600.409	15682
600.478	15278
600.547	15341
600.617	14934
600.686	11297
600.755	9853
600.824	9534
600.894	10046
600.963	9821
601.032	8973
601.101	9455
601.170	8168
601.239	8377
601.308	7984
601.378	7837
601.447	8007
601.516	8397
601.585	8635
601.654	8763
601.723	9163
601.792	8879
601.861	9017
601.930	9433
601.999	9782
602.068	8879
602.137	10151
602.206	9404
602.275	8747
602.343	10009
602.412	9204
602.481	9627
602.550	9942
602.619	9612
602.688	9934
602.756	9309
602.825	10682
602.894	10648
602.963	9913
603.032	10714
603.100	10047
603.169	10601
603.238	11117
603.307	11421
603.375	11117
603.444	11989
603.513	11656
603.581	11087
603.650	12277
603.719	11201
603.787	11725
603.856	12453
603.924	12437
603.993	13523
604.061	13360
604.130	13435
604.198	14716
604.267	14772
604.335	14505
604.404	14365
604.472	15083
604.541	14927
604.609	15046
604.678	16269
604.746	15882
604.815	15787
604.883	16561
604.951	16609
605.020	16008
605.088	16881
605.156	17651
605.225	18140
605.293	16989
605.361	17687
605.429	18103
605.498	18433
605.566	18184
605.634	19405
605.702	20492
605.771	20375
605.839	21291
605.907	20362
605.975	20578
606.043	19125
606.111	19720
606.180	19201
606.248	19750
606.316	19066
606.384	18873
606.452	18792
606.520	20022
606.588	20543
606.656	20387
606.724	19801
606.792	19731
606.860	16923
606.928	16100
606.996	14751
607.064	14278
607.132	13915
607.200	14534
607.267	15972
607.335	15917
607.403	16681
607.471	16054
607.539	15647
607.607	15925
607.674	13758
607.742	13234
607.810	13633
607.878	13393
607.946	13319
608.013	14081
608.081	14227
608.149	14794
608.216	15270
608.284	16259
608.352	15571
608.419	15106
608.487	14981
608.555	15702
608.622	15978
608.690	16512
608.757	18445
608.825	19037
608.893	17678
608.960	17267
609.028	15937
609.095	16113
609.163	15985
609.230	14346
609.298	13423
609.365	14108
609.432	14348
609.500	15441
609.567	18661
609.635	21192
609.702	22696
609.769	22047
609.837	17586
609.904	13133
609.971	13189
610.039	14176
610.106	15535
610.173	22156
610.241	34202
610.308	29456
610.375	16307
610.442	13321
610.509	13185
610.577	13828
610.644	14485
610.711	14728
610.778	15325
610.845	14550
610.912	16909
610.980	17605
611.047	17518
611.114	17113
611.181	16504
611.248	16197
611.315	17521
611.382	17604
611.449	18251
611.516	19133
611.583	19349
611.650	18522
611.717	19063
611.784	18696
611.851	19026
611.918	19856
611.984	22094
612.051	27910
612.118	41355
612.185	68826
612.252	62974
612.319	25598
612.386	22476
612.452	21785
612.519	20655
612.586	20577
612.653	20702
612.719	21372
612.786	21171
612.853	19645
612.919	18475
612.986	19537
613.053	17530
613.120	17364
613.186	15835
613.253	16478
613.319	16353
613.386	15352
613.453	16665
613.519	16547
613.586	16680
613.652	17775
613.719	16811
613.785	16958
613.852	16669
613.918	16584
613.985	17126
614.051	17768
614.118	17616
614.184	17080
614.250	17391
614.317	16736
614.383	16402
614.449	16091
614.516	17608
614.582	17094
614.648	17105
614.715	15615
614.781	14940
614.847	15984
614.914	16304
614.980	15571
615.046	15679
615.112	15237
615.179	15825
615.245	16519
615.311	16333
615.377	17474
615.443	17305
615.509	16466
615.575	17181
615.642	16135
615.708	17542
615.774	16983
615.840	18791
615.906	20171
615.972	23195
616.038	31103
616.104	48147
616.170	80736
616.236	90419
616.302	28662
616.368	20646
616.434	17302
616.500	17970
616.565	18260
616.631	18683
616.697	17869
616.763	17627
616.829	19852
616.895	26273
616.961	26754
617.026	17602
617.092	15379
617.158	16409
617.224	16285
617.289	14511
617.355	13976
617.421	13157
617.487	14031
617.552	13845
617.618	11900
617.684	12283
617.749	14084
617.815	13105
617.880	11474
617.946	12429
618.012	12211
618.077	13860
618.143	13470
618.208	12588
618.274	13860
618.339	13341
618.405	10966
618.470	11489
618.536	10221
618.601	10556
618.667	8764
618.732	8961
618.798	8634
618.863	8237
618.928	9117
618.994	10082
619.059	9334
619.124	10223
619.190	9806
619.255	8914
619.320	8636
619.386	8890
619.451	8047
619.516	8171
619.581	8232
619.647	8612
619.712	9357
619.777	8364
619.842	7885
619.907	8050
619.972	8971
620.038	8731
620.103	7606
620.168	7807
620.233	8527
620.298	9472
620.363	8789
620.428	9589
620.493	9462
620.558	9097
620.623	9245
620.688	9337
620.753	9240
620.818	9389
620.883	9300
620.948	9386
621.013	8963
621.078	8660
621.143	7817
621.207	10457
621.272	10262
621.337	9094
621.402	9094
621.467	8661
621.532	9475
621.596	8681
621.661	9123
621.726	8331
621.791	8891
621.855	8911
621.920	8681
621.985	8141
622.049	8353
622.114	9200
622.179	9512
622.243	9357
622.308	9902
622.373	10677
622.437	9215
622.502	9305
622.566	9584
622.631	8681
622.695	9515
622.760	8992
622.824	9110
622.889	8404
622.953	9378
623.018	9746
623.082	10425
623.147	9563
623.211	9635
623.276	8869
623.340	9383
623.404	7971
623.469	8371
623.533	9494
623.597	8358
623.662	8859
623.726	7325
623.790	6824
623.854	6683
623.919	7180
623.983	6872
624.047	7435
624.111	7211
624.176	7571
624.240	7310
624.304	7802
624.368	7665
624.432	7275
624.496	7778
624.560	8148
624.625	8106
624.689	8555
624.753	8593
624.817	8425
624.881	6981
624.945	7266
625.009	6916
625.073	7299
625.137	6382
625.201	7841
625.265	7511
625.329	7594
625.393	7303
625.456	7273
625.520	7480
625.584	7914
625.648	7748
625.712	8538
625.776	8799
625.839	8146
625.903	7173
625.967	5150
626.031	7188
626.095	7578
626.158	6898
626.222	5524
626.286	4645
626.349	4380
626.413	4072
626.477	4355
626.540	4483
626.604	4196
626.668	4355
626.731	3751
626.795	4097
626.858	4037
626.922	4267
626.986	4882
627.049	3186
627.113	3617
627.176	4626
627.240	3283
627.303	3974
627.366	4008
627.430	3081
627.493	4562
627.557	3409
627.620	4319
627.684	3336
627.747	4147
627.810	3793
627.874	3535
627.937	2692
628.000	3781
628.064	3067
628.127	3111
628.190	3044
628.253	2875
628.317	2249
628.380	2734
628.443	2266
628.506	2181
628.569	2299
628.632	1908
628.696	2388
628.759	2075
628.822	1449
628.885	2469
628.948	1782
629.011	2061
629.074	1025
629.137	1901
629.200	1051
629.263	2686
629.326	1046
629.389	1785
629.452	1675
629.515	1506
629.578	1156
629.641	1373
629.704	1545
629.767	2055
629.830	2134
629.892	1147
629.955	1576
630.018	2261
630.081	634
630.144	1777
630.207	956
630.269	1736
630.332	1530
630.395	1015
630.458	1005
630.520	1860
630.583	1969
630.646	910
630.708	874
630.771	1633
630.834	1426
630.896	541
630.959	1532
631.021	743
631.084	536
631.146	914
631.209	1116
631.272	737
631.334	1234
631.397	1014
631.459	1500
631.522	1618
631.584	646
631.646	1023
631.709	992
631.771	1370
631.834	884
631.896	1069
631.958	1291
632.021	2328
632.083	295
632.145	705
632.208	681
632.270	1514
632.332	1002
632.395	70
632.457	1850
632.519	427
632.581	1758
632.643	344
632.706	1679
632.768	919
632.830	1306
632.892	583
632.954	1483
633.016	904
633.078	1057
633.141	649
633.203	544
633.265	1446
633.327	1336
633.389	389
633.451	721
633.513	1425
633.575	672
633.637	456
633.698	518
633.760	990
633.822	695
633.884	698
633.946	983
634.008	637
634.070	1513
634.132	1046
634.193	801
634.255	1649
634.317	1117
634.379	1321
634.441	359
634.502	587
634.564	479
634.626	860
634.687	1162
634.749	838
634.811	862
634.873	810
634.934	904
634.996	1406
635.057	788
635.119	817
635.181	398
635.242	961
635.304	-180
635.365	1805
635.427	188
635.488	208
635.550	945
635.611	2045
635.673	-626
635.734	1143
635.796	31
635.857	1323
635.918	593
635.980	630
636.041	784
636.102	810
636.164	1173
636.225	1193
636.286	191
636.348	747
636.409	869
636.470	-30
636.531	563
636.593	1164
636.654	1194
636.715	928
636.776	768
636.838	-209
636.899	1505
636.960	544
637.021	-125
637.082	911
637.143	-421
637.204	494
637.265	-81
637.326	840
637.387	158
637.448	-588
637.509	1342
637.570	50
637.631	610
637.692	227
637.753	103
637.814	276
637.875	399
637.936	488
637.997	261
638.058	478
638.119	371
638.179	-622
638.240	6
638.301	501
638.362	-239
638.423	865
638.483	-50
638.544	-212
638.605	5
638.666	-832
638.726	255
638.787	494
638.848	-217
638.908	393
638.969	661
639.030	-294
639.090	-154
639.151	195
639.211	595
639.272	-180
639.332	796
639.393	322
639.453	346
639.514	-128
639.574	-73
639.635	295
639.695	726
639.756	-312
639.816	574
639.877	246
639.937	1325
639.997	453
640.058	-494
640.118	128
640.178	-110
640.239	321
640.299	-332
640.359	564
640.420	718
640.480	117
640.540	386
640.600	471
640.661	172
640.721	-832
640.781	595
640.841	-505
640.901	640
640.961	182
641.021	713
641.082	-570
641.142	-242
641.202	517
641.262	-874
641.322	1068
641.382	-535
641.442	-58
641.502	274
641.562	180
641.622	139
641.682	153
641.742	-158
641.802	-26
641.861	601
641.921	-206
641.981	134
642.041	317
642.101	-109
642.161	-946
642.221	-119
642.280	-300
642.340	-147
642.400	-687
642.460	319
642.519	113
642.579	-665
642.639	269
642.698	-1409
642.758	1787
642.818	-377
642.877	20
642.937	350
642.997	-264
643.056	207
643.116	-160
643.175	903
643.235	385
643.294	63
643.354	451
643.414	-468
643.473	-113
643.532	-503
643.592	548
643.651	1590
643.711	4385
643.770	7816
643.830	14923
643.889	28137
643.948	13587
644.008	539
644.067	241
644.126	-59
644.186	88
644.245	488
644.304	-694
644.363	924
644.423	-983
644.482	456
644.541	321
644.600	-1964
644.659	103
644.719	-1062
644.778	791
644.837	407
644.896	2255
644.955	5074
645.014	2833
645.073	-235
645.132	-892
645.191	-137
645.250	-362
645.309	809
645.368	-457
645.427	19
645.486	-650
645.545	1280
645.604	-1018
645.663	-387
645.722	-522
645.781	-815
645.840	620
645.898	92
645.957	642
646.016	-62
646.075	2926
646.134	5571
646.192	12384
646.251	20400
646.310	5847
646.369	-485
646.427	-1091
646.486	-503
646.545	-402
646.603	-244
646.662	-583
646.721	-382
646.779	-1070
646.838	-1630
646.896	90
646.955	378
647.014	455
647.072	-112
647.131	2556
647.189	1049
647.248	-566
647.306	17
647.365	49
647.423	-870
647.481	879
647.540	-1329
647.598	-31
647.657	-790
647.715	-330
647.773	-1519
647.832	-140
647.890	-1146
647.948	-1081
648.007	-339
648.065	-1291
648.123	-890
648.181	97
648.240	-417
648.298	-964
648.356	-383
648.414	-387
648.472	-799
648.531	-935
648.589	-596
648.647	-475
648.705	-1217
648.763	-371
648.821	-531
648.879	-422
648.937	-802
648.995	-512
649.053	121
649.111	-179
649.169	1127
649.227	1831
649.285	2498
649.343	8240
649.401	7314
649.459	1041
649.516	807
649.574	-859
649.632	263
649.690	63
649.748	0
649.806	-1715
649.863	516
649.921	1729
649.979	541
650.037	-124
650.094	-1761
650.152	-360
650.210	-1118
650.268	-768
650.325	-554
650.383	-1064
650.440	-1972
650.498	-151
650.556	-542
650.613	-610
650.671	-132
650.728	-696
650.786	-978
650.843	-486
650.901	-2041
650.958	-565
651.016	138
651.073	-1199
651.131	-1042
651.188	-1432
651.246	-497
651.303	-1797
651.360	-103
651.418	-1106
651.475	-1023
651.532	-1350
651.590	311
651.647	-1447
651.704	-633
651.762	-810
651.819	-1037
651.876	-1715
651.933	-1046
651.990	-811
652.048	-1625
652.105	-587
652.162	-990
652.219	-1244
652.276	-905
652.333	-489
652.390	-1488
652.448	-255
652.505	-841
652.562	-942
652.619	-962
652.676	-562
652.733	-135
652.790	-824
652.847	-1442
652.904	-697
652.961	-1510
653.017	-1032
653.074	-585
653.131	-379
653.188	-1377
653.245	-801
653.302	-919
653.359	-1244
653.415	-174
653.472	-1530
653.529	-1153
653.586	-874
653.642	-547
653.699	-1209
653.756	-1639
653.813	-1291
653.869	-1626
653.926	-1098
653.983	-1376
654.039	-639
654.096	-769
654.152	-613
654.209	-793
654.266	-1099
654.322	-1435
654.379	-920
654.435	-582
654.492	-547
654.548	-1273
654.605	-1810
654.661	-732
654.717	-1556
654.774	-1006
654.830	-996
654.887	-988
654.943	-651
655.000	-922
655.056	-927
655.112	-1226
655.168	-1354
655.225	-1284
655.281	-640
655.337	-1538
655.394	-1576
655.450	-769
655.506	-967
655.562	-741
655.618	-588
655.675	-1646
655.731	-1221
655.787	-1652
655.843	-831
655.899	-1458
655.955	-752
656.011	-329
656.067	-2728
656.123	-371
656.179	-1086
656.235	-106
656.291	-1690
656.347	262
656.403	-807
656.459	-874
656.515	-887
656.571	-731
656.627	-493
656.683	-1934
656.739	-294
656.795	-970
656.850	-548
656.906	-866
656.962	69
657.018	-1693
657.074	-1892
657.129	-992
657.185	-225
657.241	-783
657.297	-1381
657.352	-366
657.408	-1398
657.464	-363
657.519	-938
657.575	-1657
657.630	-492
657.686	-807
657.742	-1770
657.797	-1763
657.853	-1188
657.908	-430
657.964	-1362
658.019	-1668
658.075	-875
658.130	-831
658.186	-1676
658.241	-722
658.297	-1337
658.352	-1612
658.407	-599
658.463	-1314
658.518	-1336
658.573	-354
658.629	-1508
658.684	-1817
658.739	-327
658.795	-1846
658.850	-716
658.905	-1766
658.960	-948
659.016	-1400
659.071	-1020
659.126	-1279
659.181	-1302
659.236	-923
659.291	-246
659.346	-810
659.401	-1101
659.457	-938
659.512	-777
659.567	-587
659.622	-428
659.677	-1034
659.732	-2287
659.787	-1602
659.842	-1319
659.897	-1682
659.952	-236
660.007	-411
660.061	-1586
660.116	-2420
660.171	-1817
660.226	-1229
660.281	-255
660.336	-1412
660.391	-669
660.445	-1670
660.500	-886
660.555	-1909
660.610	-1875
660.664	-881
660.719	-1780
660.774	-1029
660.828	-1097
660.883	-1380
660.938	-1181
660.992	-2177
661.047	-896
661.101	-792
661.156	-1523
661.211	-1605
661.265	-1729
661.320	-1595
661.374	-1523
661.429	-1400
661.483	-740
661.538	-1320
661.592	-881
661.647	-1508
661.701	-1675
661.755	-1505
661.810	-856
661.864	-2334
661.919	-2124
661.973	-839
662.027	-853
662.081	-1347
662.136	-2069
662.190	-1565
662.244	-439
662.299	-1140
662.353	-331
662.407	-1200
662.461	-816
662.515	-747
662.569	-1691
662.624	-70
662.678	-1946
662.732	-1004
662.786	-1168
662.840	-1085
662.894	-1044
662.948	-995
663.002	-1349
663.056	-1942
663.110	-1470
663.164	-1062
663.218	-960
663.272	-1822
663.326	-453
663.380	-1475
663.434	-931
663.488	-2028
663.542	-1301
663.595	-1196
663.649	-2745
663.703	-887
663.757	-1372
663.811	-1977
663.864	-1716
663.918	-764
663.972	-1677
664.026	-1434
664.079	-2295
664.133	-1236
664.187	-1099
664.240	-1967
664.294	-1308
664.348	-900
664.401	-2153
664.455	-1451
664.508	-2080
664.562	-1452
664.615	-1336
664.669	-1182
664.722	-1117
664.776	-1658
664.829	-1084
664.883	-1021
664.936	-1349
664.990	-1545
665.043	-1280
665.097	-2089
665.150	-1359
665.203	-1917
665.257	-1854
665.310	-1404
665.363	-1704
665.417	-969
665.470	-935
665.523	-2102
665.576	-1073
665.630	-1072
665.683	-1461
665.736	-1286
665.789	-1238
665.842	-1885
665.895	-1952
665.949	-801
666.002	-1601
666.055	-1411
666.108	-1184
666.161	-876
666.214	-1624
666.267	-2135
666.320	-1607
666.373	-1034
666.426	-1482
666.479	-2106
666.532	-1088
666.585	-2170
666.638	-1216
666.691	-1423
666.744	-1499
666.796	-1874
666.849	-2172
666.902	-1048
666.955	-1147
667.008	-2317
667.060	-1747
667.113	-2684
667.166	-1437
667.219	-1566
667.271	-1272
667.324	-1740
667.377	-1666
667.430	-2014
667.482	-1548
667.535	-1555
667.587	-958
667.640	-1234
667.693	-1543
667.745	-1705
667.798	-717
667.850	-1876
667.903	-960
667.955	-1359
668.008	-1578
668.060	-998
668.113	-1746
668.165	-1154
668.218	-1840
668.270	-1216
668.322	-1873
668.375	-850
668.427	-705
668.479	-1828
668.532	-299
668.584	-1821
668.636	-1293
668.689	-1288
668.741	-1793
668.793	-1617
668.845	-1479
668.898	-520
668.950	-922
669.002	-714
669.054	-1530
669.106	-1865
669.158	-863
669.211	-933
669.263	-1084
669.315	-1391
669.367	-1197
669.419	-2077
669.471	-408
669.523	-1143
669.575	-826
669.627	-1314
669.679	-2412
669.731	-1295
669.783	-506
669.835	-1014
669.886	-1099
669.938	-1261
669.990	-1022
670.042	-2022
670.094	-1298
670.146	-1252
670.197	-1713
670.249	-1546
670.301	-1286
670.353	-548
670.404	-1334
670.456	-879
670.508	-389
670.560	1206
670.611	2424
670.663	4153
670.715	9056
670.766	16945
670.818	10686
670.869	260
670.921	-1001
670.972	-1289
671.024	-1271
671.075	-1934
671.127	-523
671.178	-1420
671.230	-1830
671.281	-1041
671.333	-1476
671.384	-2427
671.436	-1291
671.487	-1064
671.538	-2035
671.590	-1144
671.641	-1088
671.692	-729
671.744	-432
671.795	1205
671.846	-999
671.897	-834
671.949	-1060
672.000	-1735
672.051	-1337
672.102	-1276
672.153	-1252
672.204	-1146
672.256	-1253
672.307	-1688
672.358	-1721
672.409	-1687
672.460	-1123
672.511	-1152
672.562	-2207
672.613	-1819
672.664	-1557
672.715	-728
672.766	-1545
672.817	-1629
672.868	-1947
672.919	-1458
672.970	-1573
673.021	-1497
673.071	-2200
673.122	-1993
673.173	-1394
673.224	-1773
673.275	-1434
673.326	-1210
673.376	-1236
673.427	-1523
673.478	-1424
673.528	-1309
673.579	-2010
673.630	-1382
673.680	-1543
673.731	-1587
673.782	-1988
673.832	-1184
673.883	-1243
673.934	-1537
673.984	-1370
674.035	-2034
674.085	-1629
674.136	-1235
674.186	-1509
674.237	-1551
674.287	-2244
674.338	-960
674.388	-1564
674.438	-1783
674.489	-1202
674.539	-2110
674.589	-1297
674.640	-1498
674.690	-1674
674.740	-1865
674.791	-1385
674.841	-1484
674.891	-1367
674.942	-1470
674.992	-1819
675.042	-1666
675.092	-1171
675.142	-1732
675.193	-1469
675.243	-1444
675.293	-1436
675.343	-1585
675.393	-2014
675.443	-1470
675.493	-1232
675.543	-1720
675.593	-1953
675.643	-1591
675.693	-1047
675.743	-1167
675.793	-1335
675.843	-2355
675.893	-1524
675.943	-905
675.993	-1597
676.043	-1562
676.093	-1322
676.142	-1710
676.192	-1386
676.242	-1844
676.292	-1434
676.341	-1732
676.391	-1775
676.441	-2105
676.491	-1805
676.540	-1325
676.590	-1752
676.640	-939
676.689	-928
676.739	-2046
676.789	-1574
676.838	-1465
676.888	-1079
676.937	-2315
676.987	-1712
677.037	-1121
677.086	-1809
677.136	-1631
677.185	-1932
677.235	-856
677.284	-1823
677.333	-2075
677.383	-1273
677.432	-1867
677.482	-1802
677.531	-922
677.580	-1300
677.630	-1663
677.679	-1554
677.728	-1115
677.778	-2032
677.827	-1729
677.876	-1684
677.925	-2326
677.975	-1610
678.024	-2106
678.073	-1564
678.122	-1863
678.171	-2373
678.220	-2204
678.269	-1570
678.319	-1630
678.368	-1903
678.417	-1826
678.466	-1292
678.515	-1689
678.564	-1666
678.613	-1896
678.662	-1736
678.711	-1596
678.760	-1551
678.809	-1506
678.857	-2516
678.906	-1766
678.955	-1788
679.004	-1603
679.053	-1646
679.102	-1483
679.151	-1897
679.199	-1884
679.248	-2146
679.297	-1941
679.346	-1846
679.394	-1286
679.443	-1732
679.492	-1869
679.540	-1421
679.589	-1855
679.638	-2331
679.686	-1827
679.735	-1206
679.784	-2369
679.832	-1814
679.881	-1595
679.929	-2029
679.978	-2700
680.026	-1991
680.075	-1046
680.123	-2307
680.172	-1628
680.220	-2297
680.268	-1537
680.317	-1796
680.365	-1531
680.414	-2435
680.462	-1345
680.510	-1360
680.559	-1912
680.607	-1916
680.655	-2114
680.703	-2091
680.752	-1631
680.800	-1472
680.848	-1931
680.896	-1448
680.945	-1760
680.993	-1843
681.041	-1617
681.089	-1785
681.137	-1446
681.185	-1600
681.233	-2658
681.281	-1632
681.308	-1682
681.329	-1731
681.377	-2143
681.425	-2139
681.430	-2014
681.473	-927
681.521	-2281
681.552	-1681
681.569	-1357
681.617	-2316
681.665	-1335
681.674	-1346
681.713	-1439
681.761	-1474
681.796	-1530
681.809	-1569
681.857	-1486
681.904	-1920
681.918	-1690
681.952	-1101
682.000	-1641
682.039	-1741
682.048	-1775
682.096	-1209
682.143	-2044
682.161	-1733
682.191	-1226
682.239	-1093
682.283	-1035
682.286	-1040
682.334	-978
682.382	-1534
682.405	-1492
682.430	-1463
682.477	-1472
682.525	-1218
682.527	-1233
682.572	-1717
682.620	-1062
682.648	-875
682.667	-767
682.715	-1178
682.763	-1222
682.770	-1266
682.810	-1528
682.857	-734
682.892	-729
682.905	-727
682.952	-862
683.000	-1388
683.014	-1289
683.047	-1118
683.095	-135
683.135	-819
683.142	-931
683.190	-599
683.237	-1139
683.257	-1231
683.284	-1353
683.332	-1053
683.379	-749
683.379	-745
683.426	-853
683.473	-1217
683.501	-1117
683.521	-1038
683.568	-629
683.615	-780
683.622	-767
683.662	-741
683.709	-901
683.744	-921
683.757	-928
683.804	-679
683.851	-1207
683.865	-920
683.898	-291
683.945	-372
683.987	-895
683.992	-964
684.039	-519
684.086	-1365
684.109	-960
684.133	-490
684.180	-1133
684.227	-832
684.230	-844
684.274	-1129
684.321	-1233
684.352	-1166
684.368	-1089
684.415	-884
684.462	-491
684.473	-453
684.509	-407
684.556	-63
684.595	-657
684.603	-778
684.649	-233
684.696	-130
684.716	-304
684.743	-529
684.790	-778
684.837	-1053
684.838	-1049
684.883	-865
684.930	-398
684.959	-564
684.977	-605
685.023	114
685.070	295
685.081	289
685.117	48
685.164	-405
685.202	-313
685.210	-245
685.257	-43
685.303	-324
685.324	20
685.350	325
685.396	-78
685.443	198
685.445	181
685.490	-39
685.536	102
685.566	26
685.583	-29
685.629	-217
685.675	69
685.688	-16
685.722	-262
685.768	-81
685.809	-440
685.815	-473
685.861	109
685.908	447
685.930	172
685.954	-144
686.000	872
686.047	663
686.052	595
686.093	96
686.139	-70
686.173	350
686.185	515
686.232	583
686.278	487
686.294	304
686.324	-80
686.370	333
686.416	-90
686.416	-92
686.463	519
686.509	259
686.537	58
686.555	-42
686.601	219
686.647	312
686.658	331
686.693	362
686.739	677
686.779	155
686.785	90
686.831	358
686.877	679
686.900	473
686.923	302
686.969	215
687.015	360
687.022	404
687.061	653
687.107	180
687.143	501
687.153	609
687.199	648
687.245	626
687.264	640
687.291	601
687.336	631
687.382	204
687.385	215
687.428	616
687.474	400
687.506	508
687.520	581
687.565	334
687.611	29
687.627	216
687.657	573
687.702	948
687.748	797
687.748	787
687.794	873
687.839	1295
687.869	1341
687.885	1270
687.931	968
687.976	890
687.990	795
688.022	805
688.067	1079
688.111	1048
688.113	1052
688.158	348
688.204	1332
688.233	916
688.249	729
688.295	527
688.340	863
688.354	925
688.386	1017
688.431	609
688.474	594
688.477	604
688.522	822
688.567	1282
688.595	852
688.613	716
688.658	1120
688.703	1172
688.716	1192
688.749	1053
688.794	1217
688.837	1019
688.839	1027
688.884	1390
688.930	1117
688.958	964
688.975	870
689.020	1078
689.065	1020
689.079	909
689.110	740
689.155	1078
689.200	1132
689.201	1145
689.246	1264
689.291	1007
689.321	1182
689.336	1247
689.381	1251
689.426	1133
689.442	1108
689.471	1136
689.516	967
689.561	613
689.562	618
689.606	1073
689.651	1153
689.683	819
689.696	758
689.741	838
689.785	1181
689.804	1109
689.830	930
689.875	833
689.920	1149
689.925	1100
689.965	1076
690.010	1339
690.046	1462
690.054	1429
690.099	1520
690.144	1103
690.166	916
690.189	929
690.233	1121
690.278	1399
690.287	1344
690.323	1081
690.367	1308
690.408	1183
690.412	1189
690.457	1207
690.501	1157
690.528	1335
690.546	1426
690.590	1009
690.635	929
690.649	916
690.680	1080
690.724	1005
690.769	1299
690.770	1292
690.813	1510
690.857	1171
690.890	1199
690.902	1240
690.946	1475
690.991	1630
691.011	1551
691.035	1671
691.080	2177
691.124	2363
691.132	2465
691.168	2844
691.213	2456
691.252	2901
691.257	2922
691.301	2338
691.346	2054
691.373	1795
691.390	1870
691.434	1709
691.478	1782
691.493	1751
691.522	1652
691.567	1536
691.611	1814
691.614	1790
691.655	1675
691.699	1525
691.734	1519
691.743	1577
691.787	1880
691.831	1686
691.855	1929
691.875	2092
691.919	1850
691.964	1559
691.975	1514
692.008	1569
692.052	1534
692.096	1714
692.096	1696
692.139	2102
692.183	2257
692.216	2256
692.227	2163
692.271	1902
692.315	1699
692.337	1498
692.359	1458
692.403	1736
692.447	1668
692.457	1602
692.490	1453
692.534	1588
692.577	1520
692.578	1540
692.622	1749
692.666	2176
692.698	2323
692.709	2275
692.753	2113
692.797	1702
692.818	1795
692.840	2151
692.884	2068
692.928	2560
692.938	2642
692.971	2653
693.015	2114
693.059	1885
693.059	1863
693.102	1952
693.146	1618
693.179	1512
693.189	1577
693.233	1749
693.276	1878
693.299	1975
693.320	2061
693.363	2291
693.407	2092
693.420	2093
693.450	2089
693.493	2195
693.537	2098
693.540	2071
693.580	2064
693.624	2210
693.660	1980
693.667	2011
693.710	2623
693.753	2985
693.780	3035
693.797	3351
693.840	4331
693.883	5402
693.901	5648
693.926	5372
693.970	5258
694.013	5057
694.021	4952
694.056	4142
694.099	3084
694.141	2375
694.142	2401
694.185	2343
694.229	2418
694.261	2119
694.272	2077
694.315	2135
694.358	2198
694.381	2216
694.401	2282
694.444	2192
694.487	2374
694.501	2317
694.530	2204
694.573	2201
694.616	2011
694.621	1985
694.659	2123
694.702	2462
694.741	2499
694.745	2526
694.787	2654
694.830	2520
694.862	2630
694.873	2696
694.916	2661
694.959	2759
694.982	2740
695.002	2730
695.044	2677
695.087	2526
695.102	2516
695.130	2565
695.172	2468
695.215	2313
695.222	2311
695.258	2557
695.301	2437
695.342	2543
695.343	2575
695.386	2660
695.428	2745
695.462	2877
695.471	2908
695.514	2951
695.556	2621
695.582	2613
695.599	2731
695.641	2894
695.684	3077
695.701	3074
695.726	2986
695.769	2843
695.811	2818
695.821	2782
695.854	2842
695.896	2664
695.938	2721
695.941	2701
695.981	2755
696.023	2556
696.061	2488
696.065	2524
696.108	2814
696.150	2741
696.181	2895
696.192	2978
696.235	2945
696.277	2927
696.301	3000
696.319	3040
696.361	2978
696.404	2903
696.421	2892
696.446	2992
696.488	2972
696.530	2909
696.541	2903
696.572	3086
696.614	3199
696.656	3269
696.660	3264
696.698	3344
696.740	3121
696.780	3100
696.783	3130
696.825	3148
696.867	2985
696.900	2956
696.909	2961
696.951	2784
696.992	2620
697.020	2502
697.034	2562
697.076	2670
697.118	2713
697.139	2702
697.160	2812
697.202	3057
697.244	3245
697.259	3327
697.286	3411
697.327	3382
697.369	3336
697.379	3328
697.411	3396
697.453	3323
697.494	3222
697.499	3186
697.536	3254
697.578	3327
697.618	3356
697.620	3384
697.661	3319
697.703	3193
697.738	3123
697.744	3156
697.786	3167
697.828	3147
697.858	3119
697.869	3283
697.911	3782
697.952	4243
697.977	4484
697.994	4298
698.035	3771
698.077	3252
698.097	2957
698.118	3120
698.160	3387
698.201	3689
698.216	3762
698.243	3552
698.284	3162
698.325	2791
698.336	2671
698.367	3129
698.408	3715
698.449	4281
698.455	4332
698.491	4177
698.532	3924
698.573	3703
698.575	3664
698.614	3690
698.656	3693
698.694	3682
698.697	3711
698.738	3693
698.779	3676
698.814	3635
698.820	3680
698.862	3783
698.903	3874
698.933	3906
698.944	3997
698.985	4259
699.026	4518
699.053	4660
699.067	4648
699.172	4315
699.292	3911
699.411	3140
699.530	3508
699.650	3817
699.769	3341
699.889	3547
700.008	3761
700.127	4720
700.246	3323
700.366	3516
700.485	2836
700.604	3420
700.723	3437
700.843	3634
700.962	3219
701.081	3488
701.200	3141
701.319	3462
701.438	3187
701.557	3094
701.676	3226
701.796	3302
701.915	2814
702.034	3790
702.153	3803
702.272	3347
702.391	3349
702.509	3218
702.628	2936
702.747	3310
702.866	3190
702.985	3504
703.104	3002
703.223	3502
703.342	2989
703.460	2931
703.579	2685
703.698	2906
703.817	2739
703.935	4378
704.054	3533
704.173	2882
704.292	2550
704.410	2960
704.529	3086
704.648	2605
704.766	2523
704.885	2858
705.003	2591
705.122	3016
705.240	2969
705.359	2866
705.477	3836
705.596	4601
705.714	4038
705.833	3507
705.951	4407
706.070	5856
706.188	3443
706.307	3708
706.425	3082
706.543	3456
706.662	3601
706.780	3618
706.898	4006
707.016	4362
707.135	3994
707.253	3330
707.371	3437
707.489	2699
707.608	3058
707.726	3156
707.844	4165
707.962	3284
708.080	2744
708.198	3347
708.316	2706
708.434	3476
708.552	2648
708.670	2609
708.788	3888
708.906	4612
709.024	4336
709.142	3696
709.260	3851
709.378	3405
709.496	3600
709.614	4594
709.732	3726
709.850	3501
709.968	3247
710.085	3068
710.203	3958
710.321	4128
710.439	3540
710.556	2947
710.674	3760
710.792	3417
710.910	3552
711.027	3243
711.145	3509
711.263	3202
711.380	3378
711.498	3327
711.615	3465
711.733	3115
711.851	2213
711.968	3226
712.086	2648
712.203	2520
712.321	3037
712.438	2788
712.555	4283
712.673	4855
712.790	3995
712.908	4678
713.025	3508
713.142	4044
713.260	4326
713.377	3706
713.494	4041
713.612	4646
713.729	4472
713.846	3795
713.963	3919
714.081	4309
714.198	2999
714.315	5086
714.432	4660
714.549	6272
714.666	14449
714.783	65484
714.901	185673
715.018	19801
715.135	5009
715.252	4137
715.369	3491
715.486	2706
715.603	2791
715.720	2926
715.837	3622
715.953	3745
716.070	3565
716.187	3697
716.304	3284
716.421	2921
716.538	3739
716.655	3092
716.771	3372
716.888	2734
717.005	3089
717.122	3130
717.238	2941
717.355	2499
717.472	2615
717.589	2813
717.705	2315
717.822	2765
717.938	2680
718.055	2734
718.172	2428
718.288	2782
718.405	2290
718.521	2043
718.638	3483
718.754	4206
718.871	3269
718.987	3087
719.104	2518
719.220	2375
719.336	2109
719.453	2980
719.569	2655
719.685	3363
719.802	2783
719.918	3583
720.034	5623
720.151	16965
720.267	66230
720.383	22499
720.499	3625
720.616	1268
720.732	3035
720.848	3425
720.964	5006
721.080	5116
721.196	2837
721.312	1783
721.428	2458
721.544	2067
721.660	2978
721.776	2769
721.892	1964
722.008	2341
722.124	1358
722.240	1525
722.356	1481
722.472	1397
722.588	2000
722.704	2209
722.820	1959
722.936	1761
723.051	1486
723.167	1381
723.283	1474
723.399	2487
723.515	1422
723.630	2536
723.746	2186
723.862	1490
723.977	1784
724.093	1313
724.209	1441
724.324	2074
724.440	2531
724.555	4034
724.671	1963
724.786	870
724.902	1098
725.017	1486
725.133	2105
725.248	4023
725.364	2394
725.479	1788
725.595	1641
725.710	1845
725.826	1677
725.941	1508
726.056	1293
726.172	1609
726.287	1019
726.402	2101
726.517	802
726.633	844
726.748	1931
726.863	1589
726.978	1452
727.093	1926
727.208	1767
727.324	1544
727.439	1964
727.554	1664
727.669	1449
727.784	1220
727.899	918
728.014	1768
728.129	2314
728.244	1556
728.359	1411
728.474	1298
728.589	1646
728.704	945
728.819	1261
728.934	1685
729.049	1433
729.163	882
729.278	1300
729.393	1392
729.508	46
729.622	1342
729.737	776
729.852	1191
729.967	1806
730.081	1366
730.196	711
730.311	447
730.425	1844
730.540	760
730.655	1300
730.769	1521
730.884	1093
730.998	701
731.113	1852
731.227	1913
731.342	1229
731.456	1124
731.571	2000
731.685	1158
731.800	1483
731.914	1480
732.028	828
732.143	1497
732.257	2562
732.371	2908
732.486	4478
732.600	19161
732.714	37780
732.829	4276
732.943	2036
733.057	2550
733.171	2089
733.285	2212
733.399	2187
733.514	1808
733.628	1887
733.742	1409
733.856	1668
733.970	1699
734.084	1233
734.198	2124
734.312	2141
734.426	2105
734.540	2122
734.654	987
734.768	1044
734.882	1489
734.996	1303
735.109	1232
735.223	1478
735.337	1169
735.451	1489
735.565	1445
735.679	1221
735.792	1711
735.906	2319
736.020	928
736.134	1565
736.247	1253
736.361	1822
736.475	1943
736.588	1190
736.702	1795
736.815	1132
736.929	939
737.043	656
737.156	1595
737.270	689
737.383	1312
737.497	726
737.610	1073
737.723	1977
737.837	1521
737.950	889
738.064	1750
738.177	1462
738.290	1461
738.404	1502
738.517	1146
738.630	1396
738.744	1687
738.857	1498
738.970	1143
739.083	1415
739.197	538
739.310	473
739.423	972
739.536	603
739.649	1332
739.762	816
739.875	723
739.988	1089
740.102	711
740.215	463
740.328	1504
740.441	1012
740.553	1500
740.667	1765
740.779	749
740.892	1046
741.005	1401
741.118	1231
741.231	1798
741.344	854
741.457	948
741.569	602
741.682	725
741.795	1188
741.908	958
742.020	443
742.133	1118
742.246	1344
742.358	1741
742.471	1357
742.584	900
742.696	564
742.809	972
742.922	649
743.034	450
743.147	1197
743.259	946
743.372	454
743.484	425
743.597	1012
743.709	805
743.822	485
743.934	442
744.046	198
744.159	1218
744.271	1304
744.383	887
744.496	956
744.608	1065
744.720	558
744.832	203
744.945	963
745.057	499
745.169	419
745.281	278
745.393	189
745.506	791
745.618	351
745.730	88
745.842	904
745.954	217
746.066	-156
746.178	704
746.290	1148
746.402	503
746.514	671
746.626	54
746.738	216
746.850	1044
746.962	486
747.074	446
747.185	713
747.297	988
747.409	724
747.521	888
747.633	686
747.744	966
747.856	366
747.968	609
748.080	71
748.191	-318
748.303	439
748.414	343
748.526	726
748.638	205
748.749	-115
748.861	1042
748.972	479
749.084	677
749.195	83
749.307	844
749.418	846
749.530	1403
749.641	1699
749.753	325
749.864	1064
749.975	58
750.087	162
750.198	-149
750.310	348
750.421	294
750.532	755
750.643	351
750.755	770
750.866	349
750.977	138
751.088	841
751.199	1494
751.310	789
751.422	-302
751.533	-151
751.644	57
751.755	230
751.866	-167
751.977	-43
752.088	293
752.199	698
752.310	23
752.421	50
752.532	443
752.643	500
752.753	278
752.864	461
752.975	794
753.086	-466
753.197	556
753.308	27
753.418	-281
753.529	710
753.640	275
753.751	80
753.861	-327
753.972	-26
754.083	462
754.193	233
754.304	318
754.415	593
754.525	283
754.636	84
754.746	34
754.857	710
754.967	-135
755.078	-464
755.188	548
755.299	247
755.409	222
755.520	453
755.630	517
755.740	-370
755.851	-47
755.961	179
756.071	-328
756.182	400
756.292	-115
756.402	624
756.512	-6
756.623	543
756.733	688
756.843	156
756.953	-236
757.063	-177
757.173	349
757.283	-242
757.393	483
757.504	-219
757.614	180
757.724	431
757.834	54
757.944	526
758.053	602
758.164	135
758.273	302
758.383	-11
758.493	-146
758.603	642
758.713	250
758.823	25
758.932	-348
759.042	173
759.152	-2
759.262	-77
759.372	179
759.481	554
759.591	-125
759.701	289
759.810	206
759.920	457
760.029	-98
760.139	451
760.249	243
760.358	89
760.468	-265
760.577	328
760.687	360
760.796	284
760.906	337
761.015	1195
761.124	-91
761.234	970
761.343	506
761.453	490
761.562	-387
761.671	-136
761.781	108
761.890	203
761.999	112
762.108	483
762.218	1030
762.327	-47
762.436	611
762.545	316
762.654	-282
762.763	18
762.872	82
762.982	796
763.091	-227
763.200	-482
763.309	213
763.418	310
763.527	317
763.635	448
763.744	427
763.853	634
763.962	809
764.071	645
764.180	598
764.289	725
764.398	260
764.506	688
764.615	707
764.724	1478
764.833	346
764.941	563
765.050	489
765.159	668
765.268	776
765.376	1389
765.485	1883
765.593	3143
765.702	2393
765.810	2624
765.919	4813
766.028	9038
766.136	16981
766.245	36778
766.353	96451
766.461	347313
766.570	584224
766.678	136303
766.787	29119
766.895	14111
767.003	9448
767.112	7451
767.220	4502
767.328	3401
767.437	2521
767.545	2185
767.653	2235
767.761	2007
767.870	1667
767.978	1474
768.086	1806
768.194	1146
768.302	1464
768.410	464
768.518	483
768.626	1090
768.734	875
768.842	1315
768.950	588
769.058	1445
769.166	2256
769.274	2830
769.382	4395
769.490	6533
769.598	14481
769.706	35118
769.813	117800
769.921	412614
770.029	255972
770.137	29491
770.245	10092
770.352	6856
770.460	4029
770.568	3918
770.675	2606
770.783	1549
770.891	1767
770.998	1219
771.106	1213
771.213	1927
771.321	720
771.428	1439
771.536	1317
771.643	1107
771.751	1138
771.858	1526
771.966	867
772.073	876
772.181	1315
772.288	776
772.395	1638
772.503	1510
772.610	1052
772.717	1241
772.825	1708
772.932	1123
773.039	272
773.146	1211
773.253	433
773.361	1208
773.468	626
773.575	539
773.682	203
773.789	1645
773.896	128
774.003	730
774.110	587
774.217	556
774.324	1138
774.431	19
774.538	263
774.645	728
774.752	400
774.859	716
774.966	516
775.073	964
775.179	1030
775.286	808
775.393	265
775.500	804
775.607	776
775.713	1299
775.820	707
775.927	393
776.033	663
776.140	336
776.247	149
776.353	318
776.460	992
776.566	-239
776.673	296
776.779	119
776.886	-147
776.992	1469
777.099	841
777.205	1984
777.312	924
777.418	1847
777.524	1474
777.631	1803
777.737	559
777.843	97
777.950	562
778.056	-55
778.162	527
778.268	46
778.375	254
778.481	-408
778.587	648
778.693	806
778.799	86
778.906	-43
779.012	198
779.118	288
779.224	206
779.330	664
779.436	-596
779.542	-232
779.648	1443
779.754	167
779.860	1286
779.966	3076
780.071	11924
780.177	3742
780.283	909
780.389	1011
780.495	-398
780.601	-355
780.706	247
780.812	-82
780.918	-74
781.024	229
781.129	-214
781.235	-40
781.341	252
781.446	-471
781.552	-27
781.657	197
781.763	-772
781.869	-543
781.974	193
782.080	-116
782.185	-326
782.291	-408
782.396	9
782.501	-443
782.607	-535
782.712	-70
782.818	-298
782.923	-371
783.028	230
783.134	-33
783.239	-345
783.344	785
783.449	-172
783.555	1
783.660	-229
783.765	-280
783.870	-441
783.975	342
784.080	-1067
784.185	861
784.291	228
784.396	-749
784.501	-399
784.606	392
784.711	-495
784.816	-262
784.921	173
785.026	284
785.130	83
785.235	251
785.340	-528
785.445	636
785.550	-220
785.655	-190
785.760	-421
785.864	-167
785.969	-76
786.074	-11
786.178	-296
786.283	-44
786.388	-641
786.492	-559
786.597	-454
786.702	-73
786.806	-364
786.911	223
787.015	-562
787.120	-150
787.224	-743
787.329	450
787.433	-311
787.538	41
787.642	-760
787.747	-236
787.851	197
787.955	3
788.060	-109
788.164	-136
788.268	-598
788.372	-89
788.477	141
788.581	-1231
788.685	-358
788.789	-462
788.894	-886
788.998	105
789.102	-155
789.206	-70
789.310	-767
789.414	-303
789.518	-674
789.622	-399
789.726	105
789.830	-677
789.934	-32
790.038	202
790.142	-810
790.246	-570
790.350	-407
790.454	-284
790.557	-1461
790.661	-671
790.765	-141
790.869	-840
790.973	-451
791.076	350
791.180	21
791.284	-334
791.388	-177
791.491	189
791.595	-402
791.698	-649
791.802	-208
791.906	41
792.009	-658
792.113	88
792.216	-927
792.320	-54
792.423	-395
792.527	-491
792.630	-1223
792.733	-611
792.837	-1633
792.940	-449
793.043	-1369
793.147	-220
793.250	26
793.353	664
793.457	-783
793.560	160
793.663	-225
793.766	-601
793.869	-180
793.973	-971
794.076	-719
794.179	-240
794.282	103
794.385	-419
794.488	-282
794.591	99
794.694	1441
794.797	4995
794.900	1317
795.003	-331
795.106	-656
795.209	43
795.312	-378
795.415	-676
795.517	-983
795.620	-916
795.723	-649
795.826	-471
795.929	-691
796.031	29
796.134	-440
796.237	-1041
796.339	-728
796.442	-149
796.545	-342
796.647	-1903
796.750	-100
796.852	-2031
796.955	-1546
797.057	-604
797.160	-1400
797.262	-935
797.365	-871
797.467	-513
797.570	-1337
797.672	-687
797.775	-834
797.877	-575
797.979	579
798.082	-511
798.184	-701
798.286	-345
798.388	-1221
798.491	-679
798.593	-755
798.695	-1438
798.797	-1009
798.899	-204
799.001	-1263
799.104	-376
799.206	-865
799.308	233
799.410	99
799.512	-282
799.614	-1111
799.716	-642
799.818	-408
799.920	-1547
800.021	-139
800.123	-249
800.225	-1118
800.327	-364
800.429	-1010
800.531	-641
800.633	358
800.734	-937
800.836	-730
800.938	-380
801.039	-1018
801.141	-590
801.243	-1945
801.344	-724
801.446	-839
801.548	-1135
801.649	-375
801.751	-400
801.852	-914
801.954	-280
802.055	-1278
802.157	-1197
802.258	-621
802.360	-1816
802.461	323
802.563	-1132
802.664	-551
802.765	-870
802.867	-1060
802.968	-2522
803.069	-141
803.170	-1231
803.272	-295
803.373	-827
803.474	-759
803.575	-1317
803.676	-1207
803.777	-783
803.879	-1109
803.980	-504
804.081	-243
804.182	-1714
804.283	-1288
804.384	-770
804.485	-795
804.586	-771
804.687	-440
804.788	-746
804.888	-1453
804.989	-798
805.090	-1520
805.191	-688
805.292	-993
805.393	-778
805.493	-459
805.594	-1091
805.695	-1544
805.796	-419
805.896	-574
805.997	-1277
806.098	-1170
806.198	-562
806.299	-76
806.399	-912
806.500	-900
806.601	-1064
806.701	-1141
806.802	-494
806.902	-770
807.002	-942
807.103	-658
807.203	-453
807.304	-706
807.404	-500
807.504	-537
807.605	-995
807.705	-683
807.805	-289
807.906	-1880
808.006	-1065
808.106	-587
808.206	-744
808.306	-1129
808.406	-277
808.507	-1165
808.607	-471
808.707	-836
808.807	-1047
808.907	-1039
809.007	-125
809.107	-1564
809.207	-1016
809.307	-730
809.407	-784
809.507	-478
809.607	-973
809.706	-932
809.806	-816
809.906	-159
810.006	-115
810.106	-1249
810.205	-393
810.305	-1656
810.405	-5
810.505	-816
810.604	-1159
810.704	-723
810.804	-1247
810.903	-737
811.003	-1337
811.102	-1808
811.202	-670
811.301	-621
811.401	-988
811.500	-1457
811.600	-883
811.699	-538
811.799	-1452
811.898	-198
811.997	-983
812.097	-1186
812.196	-266
812.295	-829
812.395	-781
812.494	-921
812.593	-657
812.692	-415
812.792	-690
812.891	-1636
812.990	-874
813.089	-866
813.188	-1029
813.287	-803
813.386	-1358
813.485	-870
813.584	-1347
813.683	-689
813.782	-269
813.881	-1178
813.980	-992
814.079	-1461
814.178	-1132
814.277	-616
814.376	-945
814.475	-1204
814.574	-714
814.672	-717
814.771	-1089
814.870	-982
814.969	-972
815.067	-879
815.166	-1112
815.265	-498
815.363	-310
815.462	-187
815.560	-141
815.659	-497
815.758	-643
815.856	-515
815.955	-712
816.053	-1027
816.152	84
816.250	-880
816.348	-189
816.447	54
816.545	-335
816.644	-132
816.742	-171
816.840	-110
816.938	-380
817.037	124
817.135	450
817.233	358
817.331	63
817.430	514
817.528	190
817.626	65
817.724	216
817.822	633
817.920	2357
818.018	4778
818.116	12054
818.214	34308
818.312	100982
818.410	159692
818.508	31067
818.606	4770
818.704	2980
818.802	2407
818.900	3340
818.997	2849
819.095	5607
819.193	10911
819.291	26913
819.389	72748
819.486	212964
819.584	229578
819.682	36117
819.779	6548
819.877	3867
819.975	3495
820.072	1785
820.170	1690
820.267	744
820.365	-233
820.462	697
820.560	-46
820.657	-480
820.755	-426
820.852	171
820.949	244
821.047	175
821.144	-1235
821.241	-441
821.339	-625
821.436	63
821.533	691
821.631	1274
821.728	643
821.825	-334
821.922	-32
822.019	268
822.116	-458
822.214	-276
822.311	-111
822.408	-324
822.505	-956
822.602	208
822.699	-1182
822.796	-412
822.893	-1133
822.990	-126
823.086	-844
823.183	-1066
823.280	-536
823.377	-1026
823.474	-292
823.571	-1081
823.667	-1530
823.764	-872
823.861	-1136
823.958	-636
824.054	-1094
824.151	-1108
824.248	-132
824.344	-189
824.441	-683
824.537	-71
824.634	-522
824.731	-432
824.827	212
824.924	-1223
825.020	-879
825.116	-809
825.213	-166
825.309	-532
825.406	-780
825.502	-893
825.598	-1360
825.695	-570
825.791	-108
825.887	-215
825.983	-1411
826.080	-1331
826.176	-1408
826.272	-733
826.368	-1172
826.464	-952
826.560	-127
826.656	-20
826.753	-971
826.849	-190
826.945	151
827.041	-1158
827.137	-1515
827.233	-250
827.328	-1493
827.424	-508
827.520	-379
827.616	-1316
827.712	-666
827.808	-561
827.904	-1639
827.999	-384
828.095	-611
828.191	-1772
828.287	-689
828.382	-1601
828.478	-1333
828.574	-1935
828.669	-996
828.765	-161
828.860	-797
828.956	-1042
829.051	-1215
829.147	-1240
829.242	-1457
829.338	-1412
829.433	57
829.529	-1372
829.624	-1049
829.720	-966
829.815	-716
829.910	-297
830.005	-1197
830.101	-807
830.196	-1050
830.291	-962
830.386	-689
830.482	133
830.577	-895
830.672	-941
830.767	-435
830.862	-1345
830.957	-810
831.052	-985
831.147	-724
831.242	-856
831.337	-1801
831.432	-804
831.527	-1533
831.622	-666
831.717	-1001
831.812	-910
831.907	-872
832.002	-571
832.097	-1341
832.191	-1590
832.286	-319
832.381	-1550
832.476	-1006
832.570	-186
832.665	305
832.760	-619
832.854	-484
832.949	-1161
833.044	-1849
833.138	-1755
833.233	-1019
833.327	-825
833.422	-818
833.516	-1315
833.611	-1647
833.705	-590
833.799	-963
833.894	-1208
833.988	-1016
834.083	-899
834.177	-787
834.271	-1213
834.365	-2082
834.460	-1296
834.554	-1592
834.648	-836
834.742	-1653
834.836	-1544
834.931	-1392
835.025	-1377
835.119	-820
835.213	-1416
835.307	-1822
835.401	-1943
835.495	-539
835.589	-1467
835.683	-1400
835.777	-1363
835.871	-1330
835.965	-1784
836.059	-1280
836.152	-851
836.246	-1343
836.340	-916
836.434	-123
836.528	-1188
836.621	-431
836.715	-1283
836.809	-1721
836.902	-187
836.996	-1524
837.090	-1043
837.183	-1376
837.277	-833
837.370	-879
837.464	-1204
837.557	-1775
837.651	-740
837.744	-663
837.838	-1019
837.931	-521
838.025	-1717
838.118	-1055
838.211	-868
838.305	-883
838.398	-929
838.491	-522
838.584	-984
838.678	-511
838.771	-367
838.864	-541
838.957	-1115
839.050	-865
839.144	-1177
839.237	-1571
839.330	-970
839.423	-1398
839.516	-1979
839.609	-1216
839.702	-1478
839.795	-1453
839.888	-1367
839.981	-1359
840.073	-833
840.166	-810
840.259	-1354
840.352	-872
840.445	-1457
840.538	-1186
840.630	-948
840.723	-1502
840.816	-1072
840.909	-1645
841.001	-1575
841.094	-1032
841.186	-1123
841.279	-1154
841.372	146
841.464	-1391
841.557	-1243
841.649	-1590
841.742	-847
841.834	-1076
841.927	-1610
842.019	-1971
842.111	-1131
842.204	-1371
842.296	-466
842.388	-1145
842.481	-896
842.573	-296
842.665	-181
842.758	-1851
842.850	-1549
842.942	-1903
843.034	-970
843.126	-1182
843.218	-1147
843.310	-1381
843.402	-85
843.495	536
843.587	796
843.679	-630
843.771	-1315
843.862	-1119
843.954	-1321
844.046	-948
844.138	-1856
844.230	-1107
844.322	-1948
844.414	-1016
844.505	-564
844.597	42
844.689	169
844.781	-719
844.872	-1048
844.964	-1510
845.056	-1424
845.147	-1895
845.239	-1135
845.331	-995
845.422	-1532
845.514	-1223
845.605	-880
845.697	-1527
845.788	-816
845.880	-1195
845.971	-1736
846.063	-1957
846.154	-1370
846.245	-2164
846.337	-1463
846.428	-1414
846.519	-1716
846.610	-1348
846.702	-202
846.793	-1201
846.884	-925
846.975	-2621
847.066	-1402
847.158	-2071
847.249	-1308
847.340	-871
847.431	-1540
847.522	-1634
847.613	-1536
847.704	-1705
847.795	-1626
847.886	-2141
847.977	-582
848.068	-1389
848.158	-958
848.249	-1210
848.340	-1999
848.431	-1664
848.522	-1179
848.612	-1217
848.703	-1713
848.794	-1233
848.885	-1760
848.975	-1375
849.066	-738
849.157	-1528
849.247	-1420
849.338	-841
849.428	-616
849.519	654
849.609	3322
849.700	7243
849.790	18103
849.881	12191
849.971	148
850.061	-1227
850.152	-1248
850.242	-634
850.332	-909
850.423	-1076
850.513	-1792
850.603	-1692
850.693	-786
850.784	-1590
850.874	-1028
850.964	-1058
851.054	-1282
851.144	-1216
851.234	-1362
851.324	-1553
851.414	-1387
851.505	-1922
851.595	-876
851.684	-1405
851.774	-1510
851.864	-1181
851.954	-1686
852.044	-654
852.134	-1816
852.224	-1610
852.314	-1065
852.403	-2098
852.493	-1021
852.583	-943
852.673	-1729
852.762	-1944
852.852	-1865
852.942	-1380
853.031	-541
853.121	-1190
853.210	-849
853.300	-1855
853.389	-1432
853.479	-1156
853.568	-158
853.658	186
853.747	2399
853.837	5793
853.926	15646
854.015	36254
854.105	60164
854.194	134432
854.283	84986
854.373	9208
854.462	1066
854.551	970
854.640	252
854.729	-655
854.819	-789
854.908	-411
854.997	-692
855.086	-1343
855.175	-876
855.264	-1664
855.353	-899
855.442	-969
855.531	-484
855.620	-1502
855.709	-1720
855.798	-1291
855.887	-1339
855.975	-1839
856.064	-1858
856.153	-1146
856.242	-1441
856.331	-1574
856.419	-1619
856.508	-1334
856.597	-1447
856.685	-1853
856.774	-1176
856.863	-891
856.951	-1512
857.040	-1500
857.128	-1394
857.217	-930
857.305	-1917
857.394	-1443
857.482	-771
857.571	-1797
857.659	-1620
857.747	-663
857.836	-2160
857.924	-1533
858.012	-1136
858.101	-2153
858.189	-1939
858.277	-1286
858.365	-1276
858.454	-1229
858.542	-1232
858.630	-1478
858.718	-1109
858.806	-1752
858.894	-1488
858.982	-1744
859.070	-1714
859.158	-1540
859.246	-1408
859.334	-1263
859.422	-1122
859.510	-832
859.598	-1654
859.686	-2110
859.773	-624
859.861	-1373
859.949	-842
860.037	-1955
860.125	-1715
860.212	-1180
860.300	-1660
860.388	-810
860.475	-915
860.563	-1446
860.651	-967
860.738	-1736
860.826	-1651
860.913	-1277
861.001	-897
861.088	-1906
861.176	-581
861.263	-1653
861.350	-2327
861.438	-842
861.525	-1282
861.612	-796
861.700	-477
861.787	-629
861.874	-2101
861.962	-1007
862.049	-1127
862.136	-630
862.223	-2236
862.310	-1503
862.397	-1894
862.484	-1876
862.572	-1496
862.659	-1447
862.746	-1212
862.833	-1092
862.920	86
863.007	-1099
863.094	-1185
863.180	-1640
863.267	-1382
863.354	-1451
863.441	-1292
863.528	-1481
863.615	-988
863.701	-1095
863.788	-1520
863.875	-1214
863.961	-1041
864.048	-2377
864.135	-2134
864.221	-1188
864.308	-2181
864.395	-1320
864.481	-1386
864.568	-387
864.654	-1985
864.741	-1366
864.827	-1516
864.914	-973
865.000	-148
865.086	-1502
865.173	-616
865.259	-410
865.345	-1015
865.432	-537
865.518	-310
865.604	711
865.690	610
865.776	3296
865.863	7255
865.949	16879
866.035	27701
866.121	46561
866.207	86089
866.293	33520
866.379	3053
866.465	-1040
866.551	358
866.637	-72
866.723	-794
866.809	-786
866.895	-143
866.981	-2124
867.066	-554
867.152	-926
867.238	-1014
867.324	-1159
867.409	-971
867.495	-544
867.581	-724
867.667	-1058
867.752	-571
867.838	925
867.923	686
868.009	2278
868.094	577
868.180	-185
868.266	271
868.351	481
868.436	-329
868.522	-277
868.607	527
868.693	-296
868.778	298
868.863	662
868.949	-539
869.034	-891
869.119	-711
869.204	-1159
869.290	-1608
869.375	-1490
869.460	-1446
869.545	-697
869.630	-1136
869.715	-1121
869.800	-1005
869.885	-1421
869.970	-2137
870.055	-1203
870.140	-1180
870.225	-834
870.310	-725
870.395	-194
870.480	-1897
870.565	-1235
870.650	-670
870.734	-961
870.819	-838
870.904	-1321
870.989	-1630
871.073	-542
871.158	110
871.243	-917
871.327	-954
871.412	-959
871.496	-1783
871.581	-797
871.665	-961
871.750	-1135
871.834	-283
871.919	-784
872.003	-1778
872.088	-537
872.172	-1417
872.257	-1110
872.341	-684
872.425	-892
872.509	-1679
872.594	-826
872.678	-1038
872.762	-1883
872.846	-1470
872.930	-1180
873.015	-1580
873.099	-1069
873.183	-1409
873.267	-749
873.351	-1055
873.435	-1449
873.519	-1181
873.603	-1146
873.687	-1077
873.771	-993
873.855	-1024
873.938	-2316
874.022	-1958
874.106	-920
874.190	-1670
874.274	-1683
874.358	-1152
874.383	-1329
874.441	-1749
874.490	-1340
874.525	-1049
874.598	-1617
874.609	-1708
874.692	-839
874.705	-889
874.776	-1189
874.813	-1018
874.859	-796
874.920	-1272
874.943	-1451
875.027	-1022
875.028	-1019
875.110	-1120
875.135	-1006
875.194	-675
875.243	-650
875.277	-651
875.350	-1192
875.361	-1283
875.444	-2058
875.457	-1951
875.527	-1344
875.565	-1107
875.611	-843
875.672	-1263
875.694	-1409
875.778	-755
875.780	-765
875.861	-1281
875.887	-1272
875.944	-1292
875.994	-1543
876.027	-1688
876.101	-1067
876.111	-992
876.194	-1369
876.209	-1331
876.277	-1227
876.316	-1110
876.360	-874
876.423	-946
876.443	-1030
876.526	-881
876.530	-912
876.610	-1502
876.637	-1287
876.693	-860
876.745	-760
876.776	-690
876.852	-814
876.859	-826
876.942	-984
876.959	-867
877.025	-523
877.066	-619
877.108	-729
877.173	-852
877.190	-833
877.273	-373
877.280	-348
877.356	-259
877.387	-279
877.439	-262
877.494	-492
877.522	-641
877.601	-166
877.605	-145
877.688	-184
877.708	-196
877.770	-261
877.815	-738
877.853	-1053
877.922	-1108
877.936	-1136
878.018	-940
878.029	-914
878.101	-793
878.136	-808
878.184	-786
878.242	-1228
878.266	-1437
878.349	-1181
878.349	-1179
878.431	-724
878.456	-596
878.514	-327
878.563	-809
878.596	-1178
878.670	-1232
878.679	-1226
878.761	-869
878.776	-814
878.844	-575
878.883	-671
878.926	-780
878.990	-402
879.008	-317
879.091	-1052
879.097	-1051
879.173	-734
879.203	-546
879.255	-356
879.310	-220
879.338	-240
879.417	-996
879.420	-1010
879.502	-1004
879.523	-722
879.584	-154
879.630	-272
879.667	-287
879.736	-782
879.749	-863
879.831	-83
879.843	-185
879.913	-1071
879.949	-1051
879.995	-814
880.056	-700
880.077	-697
880.159	-673
880.162	-678
880.241	-653
880.269	-552
880.323	-553
880.375	-506
880.405	-311
880.482	82
880.487	91
880.569	62
880.588	342
880.651	1555
880.694	973
880.733	667
880.801	1022
880.815	830
880.896	-484
880.907	-545
880.978	-414
881.013	-533
881.060	-557
881.120	-599
881.142	-621
881.224	-875
881.226	-876
881.305	-703
881.332	-698
881.387	-778
881.438	-673
881.469	-589
881.545	-742
881.550	-734
881.632	-618
881.651	-557
881.713	-565
881.757	-441
881.795	-446
881.863	-651
881.876	-580
881.958	-754
881.969	-676
882.039	-453
882.075	-386
882.121	-368
882.181	-621
882.202	-660
882.284	-287
882.287	-284
882.365	-377
882.393	-354
882.446	-25
882.499	-73
882.528	-208
882.605	-238
882.609	-231
882.690	-286
882.711	-279
882.771	-342
882.817	-368
882.853	-366
882.923	-589
882.934	-600
883.015	-194
883.029	-191
883.096	-287
883.135	-326
883.177	-293
883.241	-8
883.258	-1
883.339	-462
883.347	-474
883.420	-125
883.453	-160
883.501	-326
883.558	-187
883.583	-189
883.663	-520
883.664	-525
883.744	-297
883.770	-217
883.825	-26
883.876	40
883.906	-77
883.981	-455
883.987	-461
884.068	-392
884.087	-425
884.149	-337
884.193	-243
884.230	-303
884.298	-417
884.310	-413
884.391	-157
884.404	-177
884.472	-167
884.510	-171
884.552	-355
884.615	-661
884.633	-605
884.714	24
884.721	38
884.794	-398
884.826	-482
884.875	-172
884.932	213
884.956	159
885.036	-423
885.037	-432
885.117	-384
885.143	-373
885.197	-430
885.248	-546
885.278	-323
885.354	426
885.358	417
885.439	-296
885.459	-395
885.519	-141
885.565	18
885.599	9
885.670	-31
885.680	-10
885.760	130
885.775	158
885.840	130
885.881	90
885.921	-26
885.986	-470
886.001	-435
886.081	-60
886.091	-21
886.161	-147
886.196	-176
886.241	-284
886.302	-397
886.322	-328
886.402	-222
886.407	-211
886.482	401
886.512	610
886.562	448
886.617	105
886.642	49
886.722	55
886.722	49
886.802	-16
886.828	-49
886.882	221
886.933	599
886.962	402
887.038	-437
887.042	-436
887.122	-213
887.143	-257
887.202	-289
887.248	-193
887.281	-161
887.353	28
887.361	69
887.441	28
887.458	66
887.521	113
887.563	82
887.601	-70
887.668	-333
887.680	-300
887.760	-149
887.773	-119
887.840	-67
887.878	-131
887.919	-167
887.983	-60
887.999	-54
888.079	-185
888.088	-202
888.158	-43
888.193	55
888.238	21
888.297	-231
888.317	-193
888.397	219
888.402	231
888.476	110
888.507	80
888.556	37
888.612	-44
888.635	32
888.715	273
888.717	271
888.794	404
888.821	478
888.873	265
888.926	-22
888.953	-39
889.031	-24
889.032	-18
889.111	127
889.135	188
889.190	-1
889.240	-204
889.270	72
889.345	783
889.349	775
889.428	509
889.449	433
889.507	518
889.554	579
889.586	517
889.658	365
889.665	385
889.744	581
889.763	624
889.824	453
889.867	325
889.903	467
889.972	747
890.076	449
890.181	456
890.285	-78
890.390	662
890.494	658
890.599	114
890.703	-313
890.807	143
890.912	-336
891.016	50
891.120	668
891.224	711
891.329	1610
891.433	1124
891.537	-9
891.641	547
891.745	-54
891.849	444
891.953	929
892.058	496
892.162	221
892.266	-392
892.370	176
892.474	400
892.578	894
892.682	889
892.786	1813
892.889	1922
892.993	1784
893.097	57
893.201	377
893.305	537
893.409	678
893.512	569
893.616	-93
893.720	346
893.824	-159
893.927	-817
894.031	-163
894.135	549
894.238	-47
894.342	294
894.445	764
894.549	279
894.652	381
894.756	69
894.859	-37
894.963	-15
895.066	354
895.170	690
895.273	-234
895.377	384
895.480	-150
895.583	247
895.687	-152
895.790	816
895.893	205
895.997	-288
896.100	-1
896.203	-772
896.306	104
896.409	188
896.513	395
896.616	767
896.719	-132
896.822	-710
896.925	818
897.028	401
897.131	-155
897.234	452
897.337	52
897.440	1
897.543	8
897.646	-38
897.749	-423
897.852	391
897.954	99
898.057	-168
898.160	191
898.263	-218
898.366	-310
898.468	653
898.571	857
898.674	987
898.776	308
898.879	-629
898.982	21
899.084	341
899.187	280
899.290	649
899.392	-326
899.495	286
899.597	606
899.700	194
899.802	-755
899.904	74
900.007	797
900.109	543
900.212	376
900.314	-543
900.416	743
900.519	713
900.621	-267
900.723	-246
900.826	-334
900.928	-311
901.030	-180
901.132	350
901.234	-609
901.336	53
901.439	724
901.541	316
901.643	248
901.745	412
901.847	-20
901.949	-356
902.051	1014
902.153	78
902.255	-264
902.357	240
902.459	239
902.560	632
902.662	429
902.764	21
902.866	-65
902.968	605
903.070	844
903.171	1508
903.273	545
903.375	-6
903.477	547
903.578	-129
903.680	601
903.781	-155
903.883	124
903.985	900
904.086	-949
904.188	434
904.289	-483
904.391	308
904.492	221
904.594	386
904.695	1460
904.796	1834
904.898	962
904.999	516
905.100	1742
905.202	618
905.303	186
905.404	103
905.506	45
905.607	880
905.708	-212
905.809	660
905.910	392
906.012	1410
906.113	1404
906.214	1731
906.315	1583
906.416	520
906.517	28
906.618	487
906.719	-248
906.820	279
906.921	-161
907.022	-923
907.123	811
907.224	-100
907.325	-399
907.425	118
907.526	87
907.627	347
907.728	378
907.828	690
907.929	158
908.030	175
908.131	205
908.231	414
908.332	-249
908.433	-387
908.533	-86
908.634	158
908.734	400
908.835	-86
908.935	927
909.036	831
909.136	147
909.237	-741
909.337	269
909.438	-53
909.538	355
909.638	683
909.739	164
909.839	610
909.939	-209
910.040	-17
910.140	344
910.240	-77
910.340	-70
910.440	148
910.541	385
910.641	-234
910.741	-179
910.841	-355
910.941	-620
911.041	124
911.141	-148
911.241	321
911.341	-530
911.441	-44
911.541	-499
911.641	-158
911.741	557
911.841	-34
911.941	324
912.040	917
912.140	-113
912.240	-533
912.340	-379
912.440	902
912.539	-26
912.639	192
912.739	-61
912.838	382
912.938	708
913.038	550
913.137	555
913.237	-131
913.336	-100
913.436	161
913.535	-111
913.635	536
913.734	231
913.834	188
913.933	-404
914.033	199
914.132	57
914.231	-838
914.331	-250
914.430	-333
914.529	259
914.629	-63
914.728	-414
914.827	721
914.926	-76
915.025	70
915.125	-35
915.224	-479
915.323	310
915.422	109
915.521	-319
915.620	400
915.719	-11
915.818	464
915.917	-501
916.016	95
916.115	-207
916.214	74
916.313	-270
916.412	-474
916.510	-808
916.609	174
916.708	-42
916.807	103
916.906	194
917.004	482
917.103	-148
917.202	-792
917.301	63
917.399	375
917.498	-41
917.596	-98
917.695	-1045
917.794	538
917.892	-241
917.991	-57
918.089	296
918.188	-28
918.286	-82
918.384	469
918.483	104
918.581	451
918.680	-143
918.778	1162
918.876	-429
918.975	-117
919.073	-1035
919.171	-374
919.269	258
919.368	-758
919.466	-340
919.564	-233
919.662	682
919.760	-179
919.858	-23
919.956	165
920.054	-478
920.153	-804
920.251	-537
920.349	-187
920.446	-44
920.544	-265
920.642	511
920.740	437
920.838	617
920.936	40
921.034	-273
921.132	80
921.229	16
921.327	81
921.425	96
921.523	-3
921.620	501
921.718	343
921.816	353
921.913	45
922.011	517
922.109	137
922.206	64
922.304	71
922.401	-565
922.499	75
922.596	773
922.694	-246
922.791	83
922.888	-121
922.986	829
923.083	785
923.181	441
923.278	509
923.375	751
923.473	540
923.570	1191
923.667	515
923.764	1227
923.861	517
923.959	519
924.056	-28
924.153	327
924.250	270
924.347	744
924.444	778
924.541	-739
924.638	37
924.735	429
924.832	531
924.929	763
925.026	892
925.123	-208
925.220	228
925.317	149
925.414	126
925.510	29
925.607	151
925.704	921
925.801	324
925.897	334
925.994	1142
926.091	1661
926.187	2201
926.284	3157
926.381	3459
926.477	4801
926.574	3145
926.670	2910
926.767	5763
926.863	3100
926.960	1566
927.056	1289
927.153	1013
927.249	926
927.346	925
927.442	246
927.538	364
927.635	294
927.731	-356
927.827	-2
927.924	579
928.020	-232
928.116	557
928.212	-650
928.308	933
928.404	-76
928.501	-54
928.597	615
928.693	54
928.789	406
928.885	68
928.981	-58
929.077	-226
929.173	835
929.269	41
929.365	-283
929.461	114
929.557	-368
929.652	-370
929.748	-756
929.844	102
929.940	283
930.036	-389
930.131	-535
930.227	-325
930.323	412
930.419	-59
930.514	-394
930.610	138
930.705	-43
930.801	-166
930.897	-895
930.992	-483
931.088	-135
931.183	-732
931.279	-408
931.374	229
931.470	284
931.565	19
931.660	646
931.756	-49
931.851	-607
931.946	750
932.042	262
932.137	261
932.232	-714
932.327	390
932.423	-554
932.518	112
932.613	-334
932.708	-508
932.803	459
932.898	-78
932.994	488
933.089	-268
933.184	-54
933.279	317
933.374	-430
933.469	-366
933.563	-99
933.658	-157
933.753	-72
933.848	249
933.943	-35
934.038	434
934.133	-308
934.227	120
934.322	-451
934.417	-224
934.512	-86
934.606	856
934.701	-677
934.796	-8
934.890	-784
934.985	-284
935.079	81
935.174	-251
935.269	685
935.363	-83
935.458	-135
935.552	-1024
935.646	-1043
935.741	-153
935.835	-355
935.930	110
936.024	151
936.118	-292
936.213	-86
936.307	147
936.401	348
936.496	-616
936.590	-625
936.684	-689
936.778	136
936.872	-242
936.966	-515
937.060	-495
937.155	46
937.249	-179
937.343	-314
937.437	-136
937.531	-703
937.625	-157
937.719	-375
937.813	-836
937.906	-58
938.000	-727
938.094	-437
938.188	143
938.282	979
938.376	-200
938.469	395
938.563	544
938.657	865
938.751	3271
938.844	7285
938.938	1207
939.032	457
939.125	1161
939.219	601
939.312	2670
939.406	12552
939.500	6594
939.593	763
939.686	227
939.780	-294
939.873	-629
939.967	-608
940.060	294
940.154	-12
940.247	39
940.340	109
940.434	741
940.527	451
940.620	-105
940.713	910
940.806	-136
940.900	-330
940.993	154
941.086	-563
941.179	-46
941.272	47
941.365	441
941.458	808
941.551	2513
941.644	822
941.737	95
941.830	773
941.923	-196
942.016	664
942.109	-332
942.202	-448
942.295	-201
942.388	-850
942.480	-175
942.573	-769
942.666	-606
942.759	-378
942.851	83
942.944	-538
943.037	-368
943.129	-412
943.222	-316
943.315	162
943.407	-418
943.500	-257
943.592	-900
943.685	430
943.777	27
943.870	61
943.962	-674
944.055	-962
944.147	691
944.239	-977
944.332	-435
944.424	-317
944.516	93
944.609	-525
944.701	-212
944.793	82
944.885	-564
944.977	-145
945.070	128
945.162	186
945.254	244
945.346	-33
945.438	80
945.530	-728
945.622	-1030
945.714	-195
945.806	-248
945.898	260
945.990	64
946.082	-384
946.174	656
946.266	812
946.358	-307
946.449	-639
946.541	-136
946.633	-703
946.725	-33
946.816	-416
946.908	-453
947.000	-518
947.091	-902
947.183	383
947.275	-147
947.366	-1088
947.458	-2
947.549	-339
947.641	-371
947.732	-464
947.824	-944
947.915	-501
948.007	-449
948.098	-237
948.190	-436
948.281	-1131
948.372	-483
948.464	-1100
948.555	-630
948.646	-679
948.737	-838
948.829	-339
948.920	-40
949.011	-1074
949.102	-292
949.193	-17
949.284	-395
949.376	-565
949.467	-473
949.558	-953
949.649	-169
949.740	-291
949.831	-271
949.922	-439
950.013	-389
950.104	-668
950.194	-1179
950.285	-761
950.376	-210
950.467	-739
950.558	-1055
950.649	-215
950.739	-674
950.830	-370
950.921	-471
951.011	-291
951.102	-617
951.193	-708
951.283	-865
951.374	-776
951.464	-434
951.555	-405
951.646	-490
951.736	-207
951.826	-362
951.917	-615
952.007	-488
952.098	-776
952.188	-518
952.279	-743
952.369	-276
952.459	-945
952.549	-70
952.640	-462
952.730	-275
952.820	-922
952.910	-640
953.001	-1104
953.091	-391
953.181	-744
953.271	-386
953.361	84
953.451	-534
953.541	-909
953.631	-558
953.721	214
953.811	-135
953.901	-980
953.991	-709
954.081	-205
954.171	149
954.261	-1196
954.350	340
954.440	-636
954.530	-63
954.620	-863
954.710	-206
954.799	-405
954.889	-1086
954.979	-368
955.068	-1327
955.158	113
955.248	-624
955.337	-4
955.427	-1330
955.516	-222
955.606	-242
955.695	17
955.785	-1392
955.874	-557
955.964	-63
956.053	-589
956.142	-935
956.232	-730
956.321	-841
956.410	-596
956.500	259
956.589	-830
956.678	-630
956.767	-1023
956.856	-1363
956.946	-625
957.035	-846
957.124	60
957.213	-1692
957.302	-486
957.391	-373
957.480	-219
957.569	-892
957.658	-1266
957.747	-706
957.836	-1404
957.925	-924
958.014	-368
958.103	-1096
958.192	-372
958.280	-1500
958.369	-310
958.458	-1105
958.547	-354
958.635	-1154
958.724	-639
958.813	-745
958.901	-1078
958.990	-1423
959.079	-980
959.167	-221
959.256	227
959.344	-437
959.433	-464
959.521	-184
959.610	-196
959.698	-905
959.787	-805
959.875	266
959.964	-817
960.052	-10
960.140	-773
960.228	-762
960.317	-505
960.405	-765
960.493	-1059
960.581	-1122
960.670	-469
960.758	-853
960.846	-1115
960.934	-1006
961.022	-914
961.110	-1085
961.198	-411
961.286	-543
961.374	-442
961.462	-853
961.550	-1018
961.638	-395
961.726	-876
961.814	-592
961.902	-1195
961.990	-375
962.078	-522
962.165	-1135
962.253	-742
962.341	-808
962.429	-1662
962.516	-1249
962.604	-395
962.692	-1584
962.779	-516
962.867	-751
962.955	-1268
963.042	-442
963.130	-558
963.217	-897
963.305	-546
963.392	-822
963.480	-306
963.567	-945
963.654	-1754
963.742	-762
963.829	-307
963.917	793
964.004	3
964.091	-504
964.178	-1142
964.266	-1582
964.353	-1092
964.440	-495
964.527	-890
964.614	-1326
964.701	-328
964.789	-688
964.876	-1165
964.963	-732
965.050	-326
965.137	-1273
965.224	-887
965.311	-668
965.398	-946
965.485	-845
965.571	-1177
965.658	-182
965.745	-549
965.832	-883
965.919	-1066
966.006	-487
966.092	-978
966.179	-689
966.266	-935
966.352	-963
966.439	-1207
966.526	-1054
966.612	-798
966.699	-654
966.786	-1180
966.872	-892
966.959	-645
967.045	-580
967.132	-1042
967.218	-1636
967.304	-334
967.391	-766
967.477	-1004
967.564	-422
967.650	-421
967.736	-820
967.822	-525
967.909	-932
967.995	-846
968.081	-739
968.167	-1267
968.254	-1055
968.340	-755
968.426	-2125
968.512	-280
968.598	-1811
968.684	-993
968.770	-488
968.856	-1668
968.942	-952
969.028	-371
969.114	-353
969.200	-1165
969.286	-930
969.372	-591
969.457	-492
969.543	-862
969.629	-1294
969.715	-906
969.801	-501
969.886	-417
969.972	-780
970.058	-764
970.143	-731
970.229	-529
970.315	-700
970.400	-334
970.486	-1096
970.571	-809
970.657	92
970.742	-1376
970.828	-603
970.913	-1278
970.999	-635
971.084	-430
971.169	-875
971.255	-719
971.340	-1397
971.425	-1175
971.511	-555
971.596	-1499
971.681	-1293
971.766	-900
971.852	-1304
971.937	-1246
972.022	-140
972.107	-1008
972.192	-506
972.277	-986
972.362	-1277
972.447	-680
972.532	-936
972.617	-1377
972.702	-888
972.787	-1555
972.872	-435
972.957	-1236
973.042	-129
973.126	-627
973.211	-1175
973.296	-1441
973.381	-446
973.466	-1373
973.550	-390
973.635	-916
973.720	-1375
973.804	-394
973.889	-1260
973.973	-875
974.058	-410
974.143	-731
974.227	-1521
974.312	-1425
974.396	-190
974.481	-1211
974.565	-1232
974.649	-756
974.734	-1050
974.818	-1335
974.902	-980
974.987	-1055
975.071	-1525
975.155	-661
975.240	-553
975.324	-1171
975.408	-709
975.492	-1429
975.576	-1148
975.660	-401
975.744	-1352
975.829	-1631
975.913	-880
975.997	-596
976.081	-2004
976.165	-452
976.249	-1427
976.333	-1183
976.416	-1381
976.500	-993
976.584	-1429
976.668	-892
976.752	-1414
976.836	-958
976.919	-842
977.003	-1224
977.087	-840
977.171	-727
977.254	-1220
977.338	-2039
977.422	-693
977.505	-1369
977.589	-1067
977.672	-1556
977.756	-1693
977.839	-1027
977.923	-2253
978.006	-309
978.090	-539
978.173	-1738
978.257	-1383
978.340	-1621
978.423	-896
978.507	-710
978.590	-1153
978.673	-1236
978.756	-1268
978.840	-475
978.923	-262
979.006	-1380
979.089	-2034
979.172	-752
979.255	-1640
979.338	-1172
979.422	-1332
979.505	-1424
979.588	-746
979.671	-1253
979.754	-1329
979.836	-1979
979.919	-774
980.002	-1408
980.085	-1136
980.168	-1947
980.251	-820
980.334	-2062
980.416	-1368
980.499	-1213
980.582	-804
980.665	-1751
980.747	-702
980.830	-1251
980.912	-903
980.995	-2109
981.078	-842
981.160	-2037
981.243	-1046
981.325	-1731
981.408	-942
981.490	-1258
981.573	-1275
981.655	-1148
981.738	-361
981.820	-2256
981.902	-1253
981.984	-992
982.067	-848
982.149	-1857
982.231	-939
982.314	-680
982.396	-946
982.478	-32
982.560	-1573
982.642	-944
982.724	-846
982.807	-828
982.888	-827
982.971	-1297
983.053	-1601
983.135	-800
983.216	-1557
983.298	-469
983.380	-2034
983.462	-971
983.544	-565
983.626	-1242
983.708	-2023
983.790	-1544
983.871	-200
983.953	-2253
984.035	-1595
984.117	-1325
984.198	-983
984.280	-826
984.362	-1051
984.443	-533
984.525	-968
984.606	-954
984.688	-1043
984.769	-1350
984.851	-1197
984.932	-1438
985.014	-1134
985.095	-1477
985.177	-1334
985.258	-1589
985.339	-1194
985.421	-1741
985.502	-1750
985.583	-1688
985.664	-920
985.746	-1407
985.827	-1845
985.908	-524
985.989	-506
986.070	-2090
986.151	-1058
986.232	-1361
986.313	-1292
986.395	-1052
986.476	-1316
986.557	-1055
986.637	-985
986.718	-1262
986.799	-646
986.880	-1471
986.961	-1744
987.042	-1000
987.123	-1029
987.204	-614
987.284	-1109
987.365	-1343
987.446	-1081
987.526	-1540
987.607	-907
987.688	-2047
987.768	-1013
987.849	-1118
987.930	-558
988.010	-1218
988.091	-1728
988.171	-2501
988.252	-1757
988.332	-944
988.413	-959
988.493	-1345
988.573	-1565
988.654	-1415
988.734	-1476
988.814	-1843
988.895	-596
988.975	-1619
989.055	-1877
989.135	-1241
989.216	-981
989.296	-2154
989.376	-1788
989.456	-1499
989.536	-1277
989.616	-1388
989.696	-1333
989.776	-1540
989.856	-1136
989.936	-1830
990.016	-1927
990.096	-1517
990.176	-1878
990.256	-1425
990.336	-1001
990.416	-1905
990.495	-1385
990.575	-1429
990.655	-689
990.735	-1766
990.814	-1472
990.894	-2216
990.974	-2252
991.053	-602
991.133	-997
991.213	-1467
991.292	-1367
991.372	-1257
991.451	-1640
991.531	-910
991.610	-1092
991.690	-1900
991.769	-1157
991.849	-1014
991.928	-1078
992.007	-1733
992.087	-1350
992.166	-1142
992.245	-1010
992.324	-1365
992.404	-1784
992.483	-3188
992.562	-669
992.641	-1250
992.720	-2224
992.799	-1285
992.879	-1209
992.958	-1098
993.037	-1993
993.116	-1689
993.195	-1345
993.274	-1580
993.353	-1449
993.432	-1251
993.510	-2101
993.589	-1687
993.668	-1948
993.747	-897
993.826	-1488
993.904	-897
993.983	-1919
994.062	-1000
994.141	-1446
994.219	-1445
994.298	-1438
994.377	-2731
994.455	-1842
994.534	-1199
994.612	-527
994.691	-2277
994.769	-2098
994.848	-1559
994.926	-1247
995.005	-1580
995.083	-2294
995.161	-273
995.240	-2605
995.318	-925
995.397	-1799
995.475	-1127
995.553	-1035
995.631	-2070
995.710	-1512
995.788	-2053
995.866	-1873
995.944	-497
996.022	-1452
996.100	-1038
996.178	-1253
996.256	-1952
996.334	-1192
996.412	-948
996.490	-1355
996.568	-2429
996.646	-1856
996.724	-737
996.802	-1631
996.880	-1475
996.958	-1019
997.036	-1158
997.113	-1956
997.191	-1259
997.269	-494
997.346	-2088
997.424	-1265
997.502	-1797
997.579	-1441
997.657	-1910
997.735	-1241
997.812	-1960
997.890	-1520
997.967	-2011
998.045	-774
998.122	-1524
998.200	-1037
998.277	-1086
998.354	-1414
998.432	-2395
998.509	-1356
998.586	-1556
998.664	-1794
998.741	-1406
998.818	-1307
998.896	-1059
998.973	-986
999.050	-1375
999.127	-1388
999.204	-938
999.281	-1785
999.358	-1170
999.435	-1302
999.512	-1424
999.589	-1942
999.666	-1273
999.743	-864
999.820	-1775
999.897	-844
999.974	-1775
1000.051	-1418
1000.128	-1447
1000.205	-1304
1000.281	-1095
1000.358	-1447
1000.435	-1359
1000.512	-341
1000.588	-1308
1000.665	-1920
1000.741	-769
1000.818	-1353
1000.895	-2067
1000.971	-2328
1001.048	-1185
1001.124	-1780
1001.201	-1446
1001.277	-1566
1001.354	-1096
1001.430	-1082
1001.507	-1150
1001.583	-1043
1001.659	-1292
1001.736	-2119
1001.812	-1398
1001.888	-1221
1001.964	-1094
1002.041	-1662
1002.117	-1472
1002.193	-1196
1002.269	-1686
1002.345	-1587
1002.421	-1649
1002.497	-2259
1002.573	-1426
1002.649	-1121
1002.725	-1379
1002.801	-2031
1002.877	-1751
1002.953	-849
1003.029	-1859
1003.105	-1196
1003.181	-1535
1003.257	-2547
1003.333	-839
1003.408	-757
1003.484	-956
1003.560	-1261
1003.636	-1126
1003.711	-1502
1003.787	-698
1003.862	-1284
1003.938	-1109
1004.014	-1837
1004.089	-1564
1004.165	-1831
1004.240	-1208
1004.316	-1440
1004.391	-1891
1004.467	-993
1004.542	-1591
1004.617	-1592
1004.693	-1533
1004.768	-1225
1004.844	-1795
1004.919	-1308
1004.994	-1602
1005.069	-1420
1005.145	-1362
1005.220	-1500
1005.295	-1256
1005.370	-896
1005.445	-2040
1005.520	-1444
1005.595	-1404
1005.670	-1539
1005.745	-1573
1005.820	-1438
1005.895	-1166
1005.970	-1864
1006.045	-2109
1006.120	-1009
1006.195	-1790
1006.270	-1143
1006.345	-2231
1006.419	-1418
1006.494	-1900
1006.569	-2069
1006.644	-1752
1006.718	-1379
1006.793	-1389
1006.868	-1310
1006.942	-1323
1007.017	-1788
1007.092	-1467
1007.166	-2378
1007.241	-1277
1007.315	-1433
1007.390	-922
1007.464	-474
1007.539	-1934
1007.613	-1543
1007.687	-788
1007.762	-801
1007.836	-1471
1007.910	-856
1007.984	-2287
1008.059	-2098
1008.133	-1236
1008.207	-2316
1008.281	-1087
1008.356	-1969
1008.430	-1063
1008.504	-1976
1008.578	-2439
1008.652	-1807
1008.726	-1234
1008.800	-1519
1008.874	-1966
1008.948	-1818
1009.022	-1697
1009.096	-1319
1009.170	-1460
1009.244	-825
1009.317	-935
1009.391	-2277
1009.465	-1695
1009.539	-1870
1009.613	-1745
1009.686	-1777
1009.760	-2373
1009.834	-1485
1009.907	-1306
1009.981	-2347
1010.054	-628
1010.128	-2043
1010.201	-1525
1010.275	-1448
1010.349	-1923
1010.422	-1570
1010.495	-1238
1010.569	-1346
1010.642	-1411
1010.716	-663
1010.789	-1437
1010.862	-462
1010.936	-1325
1011.009	23
1011.082	-873
1011.155	-1365
1011.229	-637
1011.302	-814
1011.375	746
1011.448	284
1011.521	-170
1011.594	-46
1011.667	-660
1011.740	-1953
1011.813	-619
1011.886	-1018
1011.959	-1197
1012.032	-1199
1012.105	-707
1012.178	-855
1012.251	-660
1012.324	-1733
1012.396	-650
1012.469	-1965
1012.542	-2083
1012.614	-1468
1012.687	-2172
1012.760	-890
1012.833	-1183
1012.905	-1663
1012.978	-1180
1013.050	-1575
1013.123	-1951
1013.195	-1994
1013.268	-1993
1013.340	-623
1013.413	-1566
1013.485	-1534
1013.558	-2045
1013.630	-1728
1013.702	-676
1013.775	-2128
1013.847	-1754
1013.919	-2098
1013.992	-2002
1014.064	-1285
1014.136	-1651
1014.208	-1696
1014.280	-1718
1014.353	-1271
1014.425	-1692
1014.497	-1081
1014.569	-1767
1014.641	-1214
1014.713	-1913
1014.785	-1798
1014.857	-1137
1014.929	-1696
1015.001	-1757
1015.072	-1847
1015.144	-1879
1015.216	-1628
1015.288	-1733
1015.360	-1671
1015.431	-2043
1015.503	-1026
1015.575	-1239
1015.647	-1151
1015.718	-2372
1015.790	-1776
1015.861	-1646
1015.933	-3206
1016.005	-1209
1016.076	-2729
1016.148	-133
1016.219	-1776
1016.291	-1167
1016.362	-1305
1016.433	-2334
1016.505	-1349
1016.576	-1312
1016.647	-2160
1016.719	-1518
1016.790	-1371
1016.861	-1255
1016.932	-1600
1017.004	-2510
1017.075	-2437
1017.146	-1467
1017.217	-2354
1017.288	-2465
1017.359	-1803
1017.430	-1854
1017.502	-2446
1017.573	-1482
1017.644	-1485
1017.714	-2052
1017.785	-2705
1017.856	-1681
1017.927	-2280
1017.998	-1769
1018.069	-2232
1018.140	-2288
1018.210	-2048
1018.281	-2046
1018.352	-1823
1018.423	-2246
1018.493	-1266
1018.564	-1314
1018.635	-1472
1018.705	-2490
1018.776	-1612
1018.846	-2325
1018.917	-2068
1018.987	-1657
1019.058	-2351
1019.128	-2922
1019.199	-1321
1019.269	-1363
1019.340	-1181
1019.410	-1891
1019.480	-1544
1019.551	-2355
1019.621	-1575
1019.691	-1461
1019.761	-1829
1019.832	-1297
1019.902	-2187
1019.972	-2541
1020.042	-1970
1020.112	-1564
1020.182	-2116
1020.252	-1915
1020.322	-1954
1020.392	-1450
1020.462	-1528
1020.532	-2944
1020.602	-1724
1020.672	-1585
1020.742	-2474
1020.812	-2461
1020.882	-1935
1020.952	-1853
1021.021	-1753
1021.091	-1957
1021.161	-2138
1021.230	-1944
1021.300	-1912
1021.370	-1811
1021.440	-2112
1021.509	-1315
1021.579	-1881
1021.648	-1598
1021.718	-1411
1021.787	-2268
1021.857	-1322
1021.926	-2587
1021.996	-1559
1022.065	-1809
1022.134	-1174
1022.204	-1620
1022.273	-2576
1022.342	-1824
1022.412	-1034
1022.481	-1888
1022.550	-3008
1022.619	-2053
1022.689	-1645
1022.758	-2070
1022.827	-2465
1022.896	-2072
1022.965	-2040
1023.034	-2994
1023.103	-2602
1023.172	-1041
1023.241	-1742
1023.310	-1616
1023.379	-2236
1023.448	-1869
1023.517	-1909
1023.586	-2432
1023.654	-2485
1023.723	-1660
1023.792	-2389
1023.861	-2035
1023.929	-1396
1023.998	-2727
1024.067	-2172
1024.135	-2010
1024.204	-2035
1024.273	-1423
1024.341	-1640
1024.410	-2836
1024.478	-1248
1024.547	-2370
1024.615	-1766
1024.684	-1690
1024.752	-2400
1024.820	-1575
1024.889	-1875
1024.957	-2260
1025.026	-2471
1025.094	-2163
1025.162	-1710
1025.230	-1610
1025.299	-2611
1025.367	-1649
1025.435	-2262
1025.503	-1627
1025.571	-2057
1025.639	-1747
1025.707	-2464
1025.776	-1880
1025.844	-1780
1025.912	-2774
1025.979	-2197
1026.047	-1713
1026.115	-1890
1026.183	-2651
1026.251	-2000
1026.319	-2176
1026.387	-2143
1026.454	-2449
1026.522	-1536
1026.590	-1929
1026.658	-2818
1026.725	-2058
1026.793	-2344
1026.861	-2422
1026.928	-1148
1026.996	-1831
1027.064	-1722
1027.131	-2372
1027.199	-1751
1027.266	-2020
1027.334	-1833
1027.401	-2299
1027.468	-1995
1027.536	-2064
1027.603	-2500
1027.671	-2313
1027.738	-2061
1027.805	-2669
1027.872	-2646
1027.940	-2056
1028.007	-2046
1028.074	-1869
1028.141	-1849
1028.208	-2963
1028.275	-1511
1028.342	-2825
1028.409	-1660
1028.477	-1876
1028.544	-2448
1028.610	-1935
1028.678	-1984
1028.744	-1545
1028.811	-2413
1028.878	-2613
1028.945	-1969
1029.012	-1600
1029.079	-2133
1029.146	-2417
1029.212	-2431
1029.279	-2616
1029.346	-1681
1029.412	-1550
1029.479	-1333
1029.546	-2344
1029.612	-2267
1029.679	-1894
1029.745	-1828
1029.812	-2781
1029.878	-1565
1029.945	-2136
1030.011	-1605
1030.078	-2400
1030.144	-2052
1030.210	-2486
1030.277	-1872
1030.343	-2330
1030.409	-2412
1030.476	-2348
1030.542	-1834
1030.608	-1577
1030.674	-1635
1030.740	-2544
1030.807	-1678
1030.873	-2310
1030.939	-2173
1031.005	-2252
1031.071	-1659
1031.137	-1740
1031.203	-1670
1031.269	-1795
1031.335	-1725
1031.401	-911
1031.467	-1814
1031.533	-1818
1031.598	-2024
1031.664	-2200
1031.730	-2342
1031.796	-1695
1031.861	-1396
1031.927	-2473
1031.993	-2068
1032.058	-2524
1032.124	-1751
1032.190	-2953
1032.255	-1827
1032.321	-2604
1032.386	-2339
1032.452	-1889
1032.518	-2463
1032.583	-2086
1032.648	-1960
1032.714	-2367
1032.779	-2547
1032.844	-856
1032.910	-2103
1032.975	-1900
1033.040	-1695
1033.106	-1549
1033.171	-2174
1033.236	-2358
1033.301	-1820
1033.366	-2186
1033.432	-2997
1033.496	-1727
1033.562	-1332
1033.627	-1844
1033.692	-2165
1033.757	-1778
1033.822	-2122
1033.887	-1577
1033.952	-3289
1034.016	-2150
1034.081	-1935
1034.146	-1845
1034.211	-2269
1034.276	-2195
1034.340	-1260
1034.405	-1766
1034.470	-1475
1034.535	-1163
1034.599	-1418
1034.664	-1680
1034.729	-1607
1034.793	-1507
1034.858	-1333
1034.922	-3092
1034.987	-2072
1035.051	-1014
1035.116	-2082
1035.180	-1973
1035.245	-2180
1035.309	-2431
1035.373	-1635
1035.437	-2623
1035.502	-1922
1035.566	-1881
1035.630	-1661
1035.695	-1685
1035.759	-1307
1035.823	-1618
1035.887	-2084
1035.951	-2064
1036.015	-2144
1036.079	-2062
1036.143	-2310
1036.208	-1634
1036.271	-1063
1036.336	-1976
1036.399	-1939
1036.463	-2528
1036.527	-1872
1036.591	-2702
1036.655	-2434
1036.719	-2290
1036.783	-1814
1036.846	-1928
1036.910	-1157
1036.974	-2089
1037.037	-2006
1037.101	-1498
1037.165	-2356
1037.228	-1638
1037.292	-1741
1037.355	-2534
1037.419	-1814
1037.483	-2533
1037.546	-2044
1037.609	-2905
1037.673	-2431
1037.736	-1741
1037.800	-2163
1037.863	-1684
1037.926	-1696
1037.990	-1852
1038.053	-2046
1038.116	-2709
1038.179	-2028
1038.243	-2415
1038.306	-2103
1038.369	-2332
1038.432	-2120
1038.495	-1708
1038.558	-2473
1038.621	-2439
1038.684	-2143
1038.747	-2771
1038.810	-2258
1038.873	-1337
1038.936	-2374
1038.999	-2360
1039.062	-2106
1039.125	-1442
1039.188	-1740
1039.250	-2154
1039.313	-2479
1039.376	-2514
1039.438	-2366
1039.501	-1820
1039.564	-2600
1039.627	-2426
1039.689	-2778
1039.752	-1745
1039.814	-2585
1039.877	-1980
1039.939	-2233
1040.002	-1494
1040.064	-1777
1040.127	-2105
1040.189	-2323
1040.251	-2271
1040.314	-2187
1040.376	-3027
1040.438	-1929
1040.501	-2235
1040.563	-1882
1040.625	-2457
1040.687	-1907
1040.750	-2457
1040.812	-2240
1040.874	-2258
1040.936	-2260
1040.998	-2165
1041.060	-2304
1041.122	-1602
1041.184	-2447
1041.246	-2625
1041.308	-1792
1041.370	-1862
1041.432	-2013
1041.494	-2101
1041.555	-1801
1041.617	-3011
1041.679	-2422
1041.741	-1869
1041.802	-1778
1041.864	-2421
1041.926	-2479
1041.987	-2045
1042.049	-2438
1042.111	-2036
1042.172	-2209
1042.234	-2554
1042.295	-2285
1042.357	-1648
1042.418	-2414
1042.480	-1979
1042.541	-3150
1042.603	-2122
1042.664	-1554
1042.725	-2426
1042.786	-2130
1042.848	-2264
1042.909	-2213
1042.970	-2541
1043.031	-2523
1043.093	-1959
1043.154	-2415
1043.215	-2940
1043.276	-1702
1043.337	-1970
1043.398	-2685
1043.459	-1854
1043.520	-2708
1043.581	-2573
1043.642	-2667
1043.703	-2830
1043.764	-2230
1043.825	-2369
1043.886	-2698
1043.947	-2405
1044.007	-1973
1044.068	-2219
1044.129	-2686
1044.189	-2173
1044.250	-1647
1044.311	-2526
1044.371	-2017
1044.432	-2633
1044.493	-1710
1044.553	-2270
1044.614	-2475
1044.674	-2216
1044.735	-2321
1044.795	-2261
1044.856	-2326
1044.916	-2123
1044.976	-1105
1045.037	-2309
1045.097	-2277
1045.157	-1761
1045.218	-1924
1045.278	-2386
1045.338	-2172
1045.398	-2494
1045.458	-1479
1045.519	-2013
1045.579	-1654
1045.639	-2251
1045.699	-1804
1045.759	-2153
1045.819	-2376
1045.879	-2486
1045.939	-1342
1045.999	-2109
1046.059	-1771
1046.119	-1171
1046.179	-1818
1046.238	-1887
1046.298	-2404
1046.358	-1784
1046.418	-2118
1046.477	-1805
1046.537	-2009
1046.597	-1960
1046.656	-1791
1046.716	-1985
1046.776	-1621
1046.835	-1354
1046.895	-1762
1046.954	-893
1047.014	-849
1047.073	-1204
1047.133	0
