'Start Wavelength	183.833
'End Wavelength	1047.133
'Gate Delay	5.000
'Gate Width (ms)	1.050
'Laser Output Level	0.000
'X Position	0.000
'Y Position	0.000
'Z Position	0.000
'Grid Point Number	1.000
'Shot Number	100.000
183.833	734.000
183.903	-342.000
183.973	1242
184.042	86
184.112	194
184.182	-372
184.252	354
184.321	-488
184.391	1151
184.461	-46
184.531	-615
184.600	-476
184.670	-302
184.740	365
184.809	642
184.879	-86
184.949	72
185.018	100
185.088	634
185.158	-7
185.228	298
185.297	270
185.367	553
185.436	-450
185.506	90
185.576	-365
185.645	380
185.715	-339
185.785	-632
185.854	-529
185.924	-283
185.993	-591
186.063	923
186.133	-766
186.202	-208
186.272	105
186.341	274
186.411	-239
186.481	851
186.550	1257
186.620	496
186.689	-114
186.759	284
186.828	-595
186.898	794
186.967	87
187.037	1100
187.106	-479
187.176	-238
187.246	-724
187.315	599
187.385	602
187.454	1154
187.524	454
187.593	-342
187.662	-72
187.732	-141
187.801	297
187.871	480
187.940	-238
188.010	296
188.079	-22
188.149	395
188.218	74
188.288	997
188.357	458
188.426	338
188.496	-130
188.565	-259
188.635	-200
188.704	147
188.773	185
188.843	436
188.912	-13
188.981	-174
189.051	-572
189.120	-2
189.190	603
189.259	1711
189.328	-354
189.398	194
189.467	-260
189.536	-125
189.606	131
189.675	1081
189.744	595
189.813	-165
189.883	202
189.952	822
190.021	2002
190.091	2059
190.160	-17
190.229	441
190.298	-417
190.368	480
190.437	101
190.506	321
190.575	-401
190.645	519
190.714	-586
190.783	423
190.852	-239
190.922	285
190.991	274
191.060	525
191.129	-392
191.198	251
191.268	-593
191.337	448
191.406	-352
191.475	465
191.544	-262
191.613	-33
191.683	-38
191.752	663
191.821	-619
191.890	363
191.959	-51
192.028	174
192.097	198
192.166	580
192.236	-550
192.305	592
192.374	-435
192.443	601
192.512	-266
192.581	-70
192.650	32
192.719	853
192.788	647
192.857	-44
192.926	-156
192.995	646
193.064	689
193.133	429
193.202	260
193.271	541
193.340	673
193.409	951
193.478	-247
193.547	847
193.616	866
193.685	1179
193.754	1
193.823	-224
193.892	366
193.961	667
194.030	-155
194.099	237
194.168	-884
194.237	721
194.306	-124
194.375	562
194.444	-816
194.513	569
194.582	868
194.651	-85
194.720	-139
194.788	-192
194.857	483
194.926	69
194.995	-293
195.064	130
195.133	474
195.202	432
195.270	343
195.339	258
195.408	-322
195.477	540
195.546	52
195.615	-345
195.683	-152
195.752	574
195.821	-544
195.890	432
195.959	20
196.027	523
196.096	297
196.165	991
196.234	-283
196.303	46
196.371	37
196.440	628
196.509	-124
196.578	-357
196.646	-84
196.715	-31
196.784	-208
196.853	324
196.921	217
196.990	799
197.059	-83
197.127	849
197.196	13
197.265	348
197.333	696
197.402	910
197.471	-743
197.539	-25
197.608	964
197.677	2703
197.745	1003
197.814	3215
197.883	1173
197.951	2399
198.020	865
198.088	876
198.157	301
198.226	2495
198.294	8
198.363	740
198.431	-783
198.500	1397
198.569	2102
198.637	1144
198.706	51
198.774	3333
198.843	2668
198.911	471
198.980	532
199.048	141
199.117	283
199.185	692
199.254	-395
199.322	71
199.391	-71
199.459	42
199.528	-357
199.596	-215
199.665	-655
199.733	290
199.802	1149
199.870	351
199.939	119
200.007	1081
200.076	359
200.144	-115
200.213	-223
200.281	691
200.349	-17
200.418	768
200.486	492
200.555	711
200.623	71
200.691	30
200.760	-477
200.828	1168
200.897	264
200.965	559
201.033	-567
201.102	-282
201.170	-926
201.238	929
201.307	-1
201.375	588
201.443	710
201.512	-188
201.580	369
201.648	300
201.716	331
201.785	640
201.853	271
201.921	-799
201.990	-20
202.058	140
202.126	-344
202.194	726
202.263	-447
202.331	-189
202.399	-283
202.467	1470
202.536	2842
202.604	954
202.672	-674
202.740	884
202.808	260
202.877	318
202.945	50
203.013	219
203.081	-550
203.149	152
203.218	88
203.286	155
203.354	-26
203.422	764
203.490	105
203.558	327
203.626	374
203.695	752
203.763	-622
203.831	397
203.899	178
203.967	363
204.035	-220
204.103	-315
204.171	155
204.239	30
204.307	-97
204.375	542
204.443	105
204.512	679
204.580	-35
204.648	562
204.716	-776
204.784	421
204.852	-647
204.920	574
204.988	-385
205.056	411
205.124	201
205.192	-511
205.260	150
205.328	81
205.396	-579
205.464	1189
205.532	16
205.600	-201
205.667	387
205.735	3592
205.803	4107
205.871	625
205.939	234
206.007	462
206.075	-428
206.143	763
206.211	100
206.279	-554
206.347	134
206.414	916
206.482	515
206.550	226
206.618	102
206.686	258
206.754	698
206.822	948
206.889	-803
206.957	1027
207.025	-272
207.093	78
207.161	-167
207.229	492
207.296	-521
207.364	544
207.432	-169
207.500	-73
207.567	-300
207.635	321
207.703	199
207.771	-704
207.839	590
207.906	664
207.974	-610
208.042	-298
208.109	233
208.177	723
208.245	721
208.313	1198
208.380	1988
208.448	711
208.516	-71
208.583	1079
208.651	369
208.719	158
208.786	398
208.854	369
208.922	-18
208.989	694
209.057	367
209.125	204
209.192	-293
209.260	190
209.327	1190
209.395	931
209.463	-385
209.530	-508
209.598	-236
209.665	213
209.733	-2
209.801	415
209.868	94
209.936	968
210.003	522
210.071	679
210.138	167
210.206	1271
210.273	332
210.341	-104
210.408	-503
210.476	1090
210.543	323
210.611	1442
210.678	-294
210.746	639
210.813	37
210.881	638
210.948	348
211.016	1158
211.083	496
211.151	926
211.218	659
211.285	1089
211.353	-58
211.420	-64
211.488	44
211.555	-227
211.622	200
211.690	731
211.757	706
211.825	413
211.892	-599
211.959	-458
212.027	-232
212.094	529
212.161	569
212.229	1536
212.296	4106
212.363	17718
212.431	4672
212.498	857
212.565	223
212.633	1270
212.700	510
212.767	595
212.835	773
212.902	443
212.969	154
213.036	861
213.104	101
213.171	1287
213.238	62
213.305	1097
213.373	-515
213.440	476
213.507	520
213.574	1512
213.641	222
213.709	26
213.776	702
213.843	895
213.910	945
213.977	443
214.045	120
214.112	774
214.179	-98
214.246	570
214.313	166
214.380	431
214.447	832
214.515	798
214.582	141
214.649	339
214.716	56
214.783	442
214.850	527
214.917	998
214.984	1290
215.051	1165
215.118	1021
215.185	1430
215.253	523
215.320	575
215.387	-120
215.454	419
215.521	16
215.588	263
215.655	164
215.722	908
215.789	931
215.856	911
215.923	1089
215.990	748
216.057	9
216.124	285
216.191	-333
216.258	-325
216.325	853
216.391	458
216.458	415
216.525	1240
216.592	3582
216.659	2896
216.726	1565
216.793	1906
216.860	821
216.927	1130
216.994	62
217.061	859
217.127	-42
217.194	1496
217.261	2007
217.328	3333
217.395	2064
217.462	931
217.529	379
217.595	402
217.662	602
217.729	3592
217.796	2553
217.863	307
217.929	103
217.996	1053
218.063	573
218.130	509
218.196	30
218.263	558
218.330	-274
218.397	-217
218.463	-275
218.530	510
218.597	3299
218.664	3518
218.730	581
218.797	677
218.864	-271
218.930	500
218.997	173
219.064	1710
219.131	3264
219.197	1767
219.264	-70
219.331	37
219.397	-710
219.464	838
219.530	2455
219.597	1444
219.664	-24
219.730	773
219.797	218
219.864	675
219.930	1140
219.997	3590
220.063	2007
220.130	965
220.196	564
220.263	1380
220.330	2716
220.396	4779
220.463	1915
220.529	845
220.596	1525
220.662	1996
220.729	7727
220.795	5453
220.862	2664
220.928	8096
220.995	9339
221.061	11518
221.128	8931
221.194	2188
221.261	101
221.327	1417
221.394	268
221.460	842
221.526	1731
221.593	10979
221.659	6609
221.726	6927
221.792	5242
221.859	1695
221.925	1156
221.991	117
222.058	-77
222.124	2113
222.190	861
222.257	818
222.323	27
222.390	1039
222.456	-523
222.522	282
222.589	302
222.655	397
222.721	204
222.788	164
222.854	-507
222.920	-235
222.986	-163
223.053	751
223.119	520
223.185	344
223.251	-206
223.318	510
223.384	-286
223.450	-859
223.516	-161
223.583	337
223.649	-445
223.715	343
223.781	7
223.848	374
223.914	330
223.980	487
224.046	-334
224.112	246
224.178	143
224.245	-72
224.311	-173
224.377	221
224.443	-32
224.509	-100
224.575	-194
224.641	-23
224.708	-846
224.774	-222
224.840	-41
224.906	205
224.972	-390
225.038	-21
225.104	649
225.170	1028
225.236	-425
225.302	1021
225.368	48
225.434	-74
225.500	321
225.566	478
225.632	-247
225.699	638
225.765	-510
225.831	1500
225.897	2061
225.963	1663
226.028	922
226.094	1427
226.160	1117
226.226	5862
226.292	11021
226.358	5425
226.424	757
226.490	1110
226.556	1127
226.622	1542
226.688	1907
226.754	3502
226.820	15901
226.886	14561
226.951	3393
227.017	2374
227.083	1396
227.149	1297
227.215	769
227.281	759
227.347	396
227.412	745
227.478	2395
227.544	3622
227.610	1175
227.676	614
227.742	693
227.807	110
227.873	214
227.939	571
228.005	671
228.070	-351
228.136	542
228.202	-33
228.268	-68
228.333	1336
228.399	806
228.465	671
228.531	-144
228.596	-146
228.662	2392
228.728	653
228.793	-566
228.859	484
228.925	733
228.990	852
229.056	1229
229.122	945
229.187	908
229.253	395
229.319	65
229.384	1572
229.450	-290
229.516	-789
229.581	506
229.647	744
229.712	4998
229.778	5484
229.844	2212
229.909	2037
229.975	967
230.040	1550
230.106	922
230.171	1287
230.237	2827
230.302	2360
230.368	373
230.433	776
230.499	466
230.564	-194
230.630	-287
230.695	598
230.761	-661
230.826	2086
230.892	1372
230.957	126
231.023	103
231.088	318
231.154	-286
231.219	1986
231.285	1637
231.350	527
231.415	-320
231.481	1366
231.546	236
231.612	984
231.677	-492
231.742	478
231.808	45
231.873	-571
231.938	1879
232.004	2499
232.069	-64
232.135	84
232.200	-304
232.265	-115
232.330	-257
232.396	989
232.461	-316
232.526	-144
232.592	125
232.657	2763
232.722	1672
232.788	725
232.853	-51
232.918	621
232.983	-334
233.048	2134
233.114	907
233.179	4176
233.244	5558
233.309	1275
233.375	160
233.440	560
233.505	-924
233.570	415
233.635	622
233.700	3163
233.766	3876
233.831	1637
233.896	516
233.961	1691
234.026	663
234.091	579
234.156	223
234.222	1996
234.287	11887
234.352	9905
234.417	3836
234.482	2397
234.547	1487
234.612	1690
234.677	1299
234.742	11362
234.807	6513
234.872	1450
234.937	-40
235.002	833
235.067	387
235.132	1111
235.197	574
235.262	679
235.327	820
235.392	1883
235.457	1569
235.522	707
235.587	97
235.652	69
235.717	887
235.782	1532
235.847	5053
235.912	5706
235.977	6239
236.042	1974
236.107	1867
236.172	2167
236.236	328
236.301	921
236.366	2679
236.431	6854
236.496	1522
236.561	4221
236.626	23102
236.691	15236
236.755	5270
236.820	3841
236.885	2425
236.950	2173
237.015	2435
237.079	2214
237.144	4959
237.209	22567
237.274	44667
237.339	17221
237.403	5266
237.468	4631
237.533	1926
237.598	2402
237.662	831
237.727	2002
237.792	3537
237.856	4600
237.921	1638
237.986	5188
238.050	3769
238.115	16288
238.180	13986
238.245	5815
238.309	3910
238.374	2391
238.438	2085
238.503	943
238.568	1543
238.632	1012
238.697	1024
238.762	7294
238.826	8320
238.891	3204
238.955	1618
239.020	1358
239.085	1347
239.149	624
239.214	822
239.278	601
239.343	237
239.407	2103
239.472	14806
239.536	13052
239.601	2595
239.665	1524
239.730	1609
239.794	6009
239.859	11977
239.923	4647
239.988	439
240.052	975
240.117	1250
240.181	275
240.246	747
240.310	794
240.374	7909
240.439	16086
240.503	3746
240.568	7026
240.632	9083
240.696	1114
240.761	850
240.825	231
240.890	886
240.954	8615
241.018	15907
241.083	6352
241.147	1092
241.211	2856
241.276	6930
241.340	2896
241.404	841
241.469	1796
241.533	1576
241.597	510
241.661	-31
241.726	1740
241.790	739
241.854	739
241.919	801
241.983	1323
242.047	-166
242.111	548
242.175	81
242.240	926
242.304	901
242.368	1633
242.432	899
242.496	1298
242.561	86
242.625	1183
242.689	-11
242.753	970
242.817	1058
242.881	1970
242.946	631
243.010	1779
243.074	1792
243.138	582
243.202	696
243.266	1516
243.330	1744
243.394	14564
243.458	49432
243.522	14223
243.586	3861
243.651	2240
243.715	2168
243.779	3982
243.843	5368
243.907	6947
243.971	3872
244.035	2308
244.099	1150
244.163	1998
244.227	3520
244.291	4945
244.355	1608
244.419	2131
244.483	1249
244.546	581
244.610	1030
244.674	2424
244.738	1857
244.802	1426
244.866	751
244.930	611
244.994	762
245.058	1390
245.122	2654
245.186	2961
245.249	2011
245.313	1039
245.377	1229
245.441	1020
245.505	1832
245.569	1634
245.632	1023
245.696	6977
245.760	2367
245.824	1593
245.888	795
245.951	1403
246.015	1084
246.079	2551
246.143	9587
246.207	19414
246.270	6416
246.334	3334
246.398	3129
246.461	6493
246.525	3186
246.589	2229
246.653	2570
246.716	3107
246.780	3233
246.844	4947
246.907	948
246.971	2295
247.035	1848
247.098	2553
247.162	8770
247.226	27366
247.289	11297
247.353	3932
247.416	6988
247.480	3552
247.544	2763
247.607	3886
247.671	2214
247.734	2349
247.798	1952
247.861	9239
247.925	23099
247.989	7428
248.052	2020
248.116	3439
248.179	5683
248.243	35457
248.306	34904
248.370	24932
248.433	7092
248.497	4881
248.560	5926
248.624	9180
248.687	12465
248.751	38636
248.814	18077
248.877	19583
248.941	28616
249.004	47644
249.068	39075
249.131	11876
249.194	6137
249.258	8769
249.321	4783
249.385	3942
249.448	2934
249.511	4836
249.575	7558
249.638	5181
249.701	2610
249.765	3655
249.828	3850
249.891	4265
249.955	2663
250.018	15546
250.081	20883
250.145	6604
250.208	3954
250.271	4534
250.334	3863
250.398	3101
250.461	3983
250.524	7988
250.587	48490
250.651	82936
250.714	23010
250.777	10849
250.840	5920
250.903	5379
250.967	9513
251.030	26645
251.093	10621
251.156	8517
251.219	6954
251.282	11187
251.345	71423
251.409	64276
251.472	31651
251.535	135569
251.598	85559
251.661	24941
251.724	30320
251.787	31191
251.850	83210
251.913	41799
251.976	13174
252.039	7987
252.103	7447
252.166	16377
252.229	43637
252.292	45199
252.355	111861
252.418	40279
252.481	15805
252.544	10098
252.607	10986
252.670	35310
252.733	42399
252.796	108838
252.858	59405
252.921	27212
252.984	13702
253.047	9144
253.110	6684
253.173	13218
253.236	8600
253.299	8869
253.362	7450
253.425	8237
253.488	22075
253.550	13207
253.613	12455
253.676	12612
253.739	5681
253.802	9026
253.865	6383
253.928	5087
253.990	13218
254.053	25155
254.116	13660
254.179	11878
254.242	5266
254.304	10229
254.367	11559
254.430	9345
254.493	14249
254.555	27014
254.618	11545
254.681	5745
254.743	4895
254.806	4919
254.869	16793
254.932	18061
254.994	6607
255.057	4865
255.120	2297
255.182	1619
255.245	2778
255.308	1972
255.370	1177
255.433	2020
255.496	1292
255.558	1556
255.621	1348
255.683	829
255.746	1952
255.809	1163
255.871	1249
255.934	949
255.996	853
256.059	808
256.121	2138
256.184	12290
256.246	8565
256.309	7278
256.371	2677
256.434	2026
256.496	1371
256.559	1432
256.621	3598
256.684	11227
256.746	31343
256.809	10966
256.871	3541
256.934	3581
256.996	3349
257.059	2703
257.121	2669
257.183	969
257.246	621
257.308	1917
257.371	5895
257.433	43129
257.495	38308
257.558	24247
257.620	11438
257.683	4990
257.745	4554
257.807	1953
257.870	2172
257.932	1423
257.994	953
258.056	880
258.119	2626
258.181	8182
258.243	3159
258.306	2396
258.368	10340
258.430	10366
258.492	17527
258.555	22526
258.617	3879
258.679	3748
258.741	4809
258.803	3134
258.866	1748
258.928	1982
258.990	1350
259.052	2588
259.114	4038
259.177	3117
259.239	2959
259.301	14533
259.363	7737
259.425	2384
259.487	1044
259.549	2175
259.611	1152
259.674	2248
259.736	15233
259.798	30403
259.860	45610
259.922	33630
259.984	7022
260.046	3787
260.108	2306
260.170	1581
260.232	1067
260.294	2317
260.356	1137
260.418	2582
260.480	9635
260.542	9143
260.604	20972
260.666	31901
260.728	5625
260.790	5055
260.852	2836
260.914	3244
260.976	2119
261.038	4060
261.100	26079
261.161	24213
261.223	4343
261.285	13531
261.347	18848
261.409	3317
261.471	2849
261.533	1235
261.595	1353
261.656	7073
261.718	18469
261.780	6169
261.842	3229
261.904	1924
261.966	2217
262.027	2358
262.089	5837
262.151	4663
262.213	1922
262.274	7393
262.336	5245
262.398	2852
262.460	7562
262.521	20152
262.583	4936
262.645	1984
262.706	4232
262.768	19504
262.830	7059
262.892	3123
262.953	3687
263.015	32488
263.077	87047
263.138	23144
263.200	8307
263.261	4083
263.323	1745
263.385	991
263.446	898
263.508	6576
263.569	3697
263.631	1158
263.693	579
263.754	836
263.816	-848
263.877	229
263.939	-267
264.000	1490
264.062	2953
264.123	1426
264.185	-378
264.246	649
264.308	3096
264.369	5561
264.431	1639
264.492	735
264.554	1480
264.615	2176
264.677	1198
264.738	1248
264.800	146
264.861	1137
264.922	319
264.984	358
265.045	514
265.107	567
265.168	12009
265.229	10630
265.291	1410
265.352	1784
265.413	781
265.475	61
265.536	-37
265.597	502
265.659	627
265.720	965
265.781	-583
265.843	-805
265.904	2472
265.965	24665
266.026	16680
266.088	4094
266.149	2523
266.210	1579
266.271	-512
266.333	1256
266.394	978
266.455	420
266.516	-30
266.577	2414
266.639	5402
266.700	1413
266.761	-186
266.822	405
266.883	632
266.944	393
267.005	433
267.067	668
267.128	190
267.189	-378
267.250	1014
267.311	282
267.372	-678
267.433	164
267.494	841
267.555	207
267.616	-365
267.677	833
267.738	-482
267.799	4224
267.860	10535
267.921	1986
267.982	1343
268.043	809
268.104	855
268.165	613
268.226	-310
268.287	-147
268.348	899
268.409	1446
268.470	-1038
268.531	795
268.592	313
268.653	-282
268.714	325
268.775	928
268.836	4290
268.896	5697
268.957	1112
269.018	196
269.079	-222
269.140	911
269.201	253
269.262	330
269.322	556
269.383	808
269.444	1166
269.505	3312
269.565	3658
269.626	1392
269.687	1285
269.748	554
269.809	1406
269.869	3420
269.930	1314
269.991	-44
270.051	641
270.112	-345
270.173	-559
270.234	-80
270.294	207
270.355	954
270.416	286
270.476	607
270.537	3498
270.598	9354
270.658	2620
270.719	1855
270.779	2269
270.840	2094
270.901	1489
270.961	1640
271.022	1394
271.082	2622
271.143	2875
271.203	1707
271.264	677
271.325	2002
271.385	8894
271.446	3883
271.506	1230
271.567	1443
271.627	153
271.688	1595
271.748	5395
271.809	34508
271.869	53997
271.930	12340
271.990	23122
272.050	49689
272.111	10080
272.171	5008
272.232	5461
272.292	32791
272.352	14541
272.413	8111
272.473	5932
272.534	6323
272.594	4640
272.654	6035
272.715	10468
272.775	4036
272.835	3921
272.896	1827
272.956	1795
273.016	3843
273.077	3831
273.137	2341
273.197	2087
273.257	14287
273.318	35179
273.378	10978
273.438	10867
273.498	25680
273.559	8689
273.619	15721
273.679	44466
273.739	13490
273.799	5356
273.860	18274
273.920	33904
273.980	6559
274.040	3846
274.100	6170
274.160	46261
274.221	43309
274.281	25314
274.341	29766
274.401	18283
274.461	6376
274.521	4939
274.581	28194
274.641	36025
274.701	12543
274.761	4507
274.821	14499
274.882	52028
274.942	50824
275.002	29507
275.062	8243
275.122	4304
275.182	3748
275.242	3123
275.302	6031
275.362	6485
275.421	4926
275.481	21601
275.541	47745
275.601	24719
275.661	11341
275.721	5751
275.781	3838
275.841	1400
275.901	2729
275.961	2198
276.021	1498
276.081	4078
276.140	15946
276.200	6442
276.260	4587
276.320	2339
276.380	3339
276.440	2097
276.499	965
276.559	653
276.619	2303
276.679	9852
276.738	7385
276.798	2397
276.858	3644
276.918	2676
276.978	1132
277.037	1615
277.097	3217
277.157	14362
277.216	5866
277.276	2289
277.336	2026
277.395	1446
277.455	2270
277.515	1873
277.574	9445
277.634	17712
277.694	5265
277.753	23567
277.813	16812
277.873	14399
277.932	55206
277.992	16140
278.051	13810
278.111	16781
278.171	7018
278.230	19696
278.290	12021
278.349	4278
278.409	3251
278.468	1479
278.528	1969
278.587	1097
278.647	2340
278.706	13717
278.766	46875
278.825	10456
278.885	5007
278.944	4471
279.004	5508
279.063	3867
279.122	3556
279.182	3031
279.241	3383
279.301	4997
279.360	9879
279.419	59122
279.479	184082
279.538	139775
279.598	30004
279.657	16935
279.716	23693
279.776	49113
279.835	15355
279.894	7573
279.953	5927
280.013	15085
280.072	31212
280.131	16865
280.191	122960
280.250	131789
280.309	24976
280.368	18057
280.428	14063
280.487	6404
280.546	4142
280.605	9124
280.664	12268
280.724	3304
280.783	2279
280.842	1845
280.901	1554
280.960	1936
281.019	1164
281.079	2056
281.138	1648
281.197	2641
281.256	24420
281.315	16745
281.374	3729
281.433	2493
281.492	1409
281.551	576
281.611	1663
281.670	1564
281.729	1868
281.788	1167
281.847	1137
281.906	934
281.965	328
282.024	59
282.083	787
282.142	312
282.201	1226
282.260	7900
282.319	5391
282.378	1579
282.436	1758
282.495	13922
282.554	6688
282.613	1498
282.672	788
282.731	2322
282.790	1942
282.849	1552
282.908	1042
282.967	-588
283.025	626
283.084	1051
283.143	7217
283.202	18671
283.261	4319
283.319	2335
283.378	1645
283.437	1577
283.496	3011
283.555	2196
283.613	1123
283.672	1380
283.731	4792
283.790	5374
283.848	1235
283.907	1233
283.966	2100
284.024	1917
284.083	1574
284.142	1507
284.201	2096
284.259	2777
284.318	19040
284.376	17088
284.435	4963
284.494	5504
284.552	4412
284.611	1661
284.670	2536
284.728	3773
284.787	4960
284.845	4756
284.904	4986
284.962	6292
285.021	12900
285.079	52808
285.138	286177
285.197	257396
285.255	69746
285.314	31777
285.372	19641
285.431	12084
285.489	8825
285.547	5566
285.606	4279
285.664	3029
285.723	2962
285.781	2537
285.840	2718
285.898	1211
285.957	1126
286.015	1082
286.073	1957
286.132	1675
286.190	2053
286.248	1261
286.307	4050
286.365	2783
286.423	1645
286.482	1179
286.540	1012
286.598	2085
286.657	1059
286.715	719
286.773	2804
286.832	3108
286.890	6943
286.948	2545
287.006	1264
287.064	745
287.123	1455
287.181	2752
287.239	2229
287.297	1465
287.356	7196
287.414	4138
287.472	2301
287.530	2063
287.588	1817
287.646	2735
287.704	4482
287.763	1482
287.821	2701
287.879	2799
287.937	4496
287.995	14326
288.053	106981
288.111	369928
288.169	133914
288.227	36622
288.285	21376
288.343	14727
288.401	10156
288.459	6219
288.517	4752
288.575	3147
288.633	2278
288.691	1736
288.749	2298
288.807	1674
288.865	1101
288.923	977
288.981	1143
289.039	392
289.097	880
289.155	1284
289.213	1052
289.271	1248
289.329	1708
289.386	3175
289.444	3358
289.502	1170
289.560	772
289.618	612
289.676	676
289.734	546
289.791	113
289.849	1638
289.907	1249
289.965	603
290.022	623
290.080	729
290.138	2147
290.196	1182
290.253	947
290.311	24
290.369	845
290.427	338
290.484	506
290.542	165
290.600	132
290.657	6
290.715	1078
290.773	401
290.830	769
290.888	367
290.946	640
291.003	591
291.061	113
291.118	4123
291.176	13569
291.234	3999
291.291	1565
291.349	479
291.406	648
291.464	158
291.521	592
291.579	168
291.636	959
291.694	728
291.751	3414
291.809	1559
291.866	1680
291.924	543
291.981	1033
292.039	494
292.096	1507
292.154	406
292.211	1537
292.268	3825
292.326	4450
292.383	2098
292.441	650
292.498	1739
292.555	1578
292.613	3089
292.670	1709
292.727	1080
292.785	4657
292.842	19069
292.899	10531
292.957	2137
293.014	1640
293.071	799
293.129	1810
293.186	472
293.243	2380
293.300	1609
293.358	234
293.415	-306
293.472	637
293.529	2273
293.586	17498
293.644	55610
293.701	22125
293.758	7470
293.815	5360
293.872	5958
293.929	3686
293.987	2901
294.044	6520
294.101	13205
294.158	9421
294.215	3651
294.272	2209
294.329	1799
294.386	1755
294.443	953
294.500	2171
294.558	202
294.615	1586
294.672	10885
294.729	54724
294.786	34760
294.843	13982
294.900	8960
294.957	7548
295.014	3569
295.070	2540
295.127	2284
295.184	1744
295.241	3164
295.298	20214
295.355	42020
295.412	14528
295.469	4526
295.526	6950
295.583	9735
295.640	14554
295.696	30501
295.753	10428
295.810	3940
295.867	2811
295.924	5627
295.981	4782
296.037	2219
296.094	2053
296.151	981
296.208	1040
296.265	586
296.321	1214
296.378	773
296.435	11375
296.492	19965
296.548	13370
296.605	50805
296.662	76170
296.718	22509
296.775	9416
296.832	7022
296.888	16734
296.945	37230
297.002	26309
297.058	8757
297.115	4816
297.172	8858
297.228	54266
297.285	99231
297.341	32870
297.398	10250
297.454	6181
297.511	4582
297.568	4157
297.624	2052
297.681	1665
297.737	1078
297.794	1279
297.850	1165
297.907	1013
297.963	1594
298.020	5027
298.076	20049
298.133	16987
298.189	5985
298.245	19133
298.302	69598
298.358	35972
298.415	13908
298.471	10103
298.527	6114
298.584	5030
298.640	9033
298.697	30388
298.753	21321
298.809	6797
298.866	3464
298.922	2403
298.978	3316
299.035	3485
299.091	1409
299.147	2271
299.203	1654
299.260	2114
299.316	10131
299.372	59289
299.428	55505
299.485	18262
299.541	7126
299.597	5463
299.653	5200
299.710	5385
299.766	2515
299.822	5814
299.878	29363
299.934	31468
299.990	33990
300.046	73352
300.103	32973
300.159	12260
300.215	10152
300.271	10785
300.327	5627
300.383	3663
300.439	2438
300.495	2159
300.551	1941
300.607	10505
300.663	22812
300.719	32135
300.775	49812
300.831	23954
300.887	27477
300.943	20751
300.999	7517
301.055	4770
301.111	5015
301.167	4245
301.223	1759
301.279	2093
301.335	1030
301.391	1276
301.447	1663
301.503	2128
301.559	4010
301.614	4093
301.670	8944
301.726	15578
301.782	9421
301.838	15589
301.894	16272
301.949	52964
302.005	174918
302.061	169026
302.117	66309
302.173	25651
302.228	13988
302.284	12633
302.340	21093
302.396	16482
302.451	13840
302.507	46190
302.563	49188
302.618	23283
302.674	8599
302.730	4564
302.785	3329
302.841	3502
302.897	4813
302.952	7900
303.008	6985
303.064	9519
303.119	9613
303.175	5723
303.230	2348
303.286	2054
303.341	1624
303.397	1375
303.453	2169
303.508	1222
303.564	2975
303.619	14302
303.675	53776
303.730	41433
303.786	14651
303.841	6641
303.897	4478
303.952	5492
304.008	7387
304.063	7137
304.118	13700
304.174	13777
304.229	10294
304.285	4608
304.340	2598
304.372	2684
304.395	2755
304.451	2653
304.463	2621
304.506	2565
304.554	2015
304.562	1933
304.617	8198
304.644	23757
304.672	39984
304.728	62360
304.735	57588
304.783	26623
304.825	14690
304.838	11127
304.894	5107
304.916	4845
304.949	4641
305.004	3291
305.006	3250
305.059	2550
305.097	1842
305.115	1535
305.170	1373
305.188	1579
305.225	2048
305.278	2228
305.280	2240
305.336	1345
305.369	2013
305.391	2469
305.446	3193
305.459	3330
305.501	3760
305.550	3488
305.556	3483
305.612	8602
305.640	21190
305.667	33202
305.722	38718
305.731	36402
305.777	23928
305.821	39925
305.832	44274
305.887	46492
305.912	35790
305.942	21292
305.997	8465
306.002	8109
306.053	5400
306.092	3846
306.108	3324
306.163	2552
306.183	2006
306.218	1139
306.273	1337
306.273	1334
306.328	1528
306.364	1762
306.383	1838
306.438	1500
306.454	1677
306.493	2296
306.545	5431
306.548	5663
306.603	10974
306.635	18495
306.658	23929
306.713	20550
306.725	18303
306.768	9769
306.816	4919
306.823	4302
306.878	2415
306.906	2151
306.933	2047
306.988	1476
306.997	1438
307.043	1349
307.087	1681
307.098	1749
307.152	3180
307.177	3608
307.207	4272
307.262	5826
307.268	5632
307.317	3443
307.358	2990
307.372	2963
307.427	5512
307.448	8921
307.482	14658
307.536	17596
307.538	17318
307.591	9524
307.629	6212
307.646	4671
307.701	3443
307.719	3758
307.756	4838
307.809	8600
307.810	8691
307.865	6730
307.900	5387
307.920	4382
307.975	3843
307.990	4623
308.029	7251
308.080	24683
308.084	26596
308.139	97908
308.170	109945
308.194	115258
308.248	63491
308.261	57767
308.303	33528
308.351	18381
308.358	17029
308.412	9814
308.441	7724
308.467	5971
308.522	4167
308.531	4008
308.576	3757
308.621	3121
308.631	2995
308.686	4710
308.712	6472
308.740	8915
308.795	8660
308.802	8451
308.849	5179
308.892	3949
308.904	3811
308.959	3348
308.982	4002
309.013	5305
309.068	9998
309.072	11205
309.122	26091
309.162	66667
309.177	85334
309.231	163890
309.253	153202
309.286	115219
309.340	54513
309.343	53038
309.395	24592
309.433	12980
309.449	10740
309.504	7468
309.523	7115
309.558	7361
309.613	9808
309.613	9835
309.667	11455
309.703	9922
309.722	8343
309.776	4801
309.793	4032
309.830	3625
309.883	5811
309.885	5901
309.939	12887
309.973	14910
309.994	15509
310.048	12090
310.063	11124
310.102	6894
310.153	3327
310.157	3191
310.211	2154
310.243	1760
310.265	1648
310.320	1332
310.333	1295
310.374	957
310.423	591
310.428	582
310.483	619
310.513	681
310.537	706
310.591	544
310.603	548
310.646	574
310.693	621
310.700	607
310.754	366
310.783	231
310.808	329
310.862	733
310.873	801
310.917	562
310.963	453
310.971	499
311.025	673
311.053	763
311.079	605
311.133	298
311.143	248
311.188	418
311.233	552
311.242	535
311.296	525
311.323	462
311.350	609
311.404	1065
311.413	1123
311.458	598
311.503	129
311.512	203
311.567	595
311.593	869
311.621	1049
311.675	1178
311.683	1220
311.729	975
311.772	666
311.783	549
311.837	34
311.862	-220
311.891	96
311.945	732
311.952	823
311.999	978
312.042	1138
312.053	1052
312.107	655
312.132	481
312.222	745
312.311	344
312.401	-590
312.491	498
312.581	567
312.671	456
312.760	501
312.850	453
312.940	804
313.030	750
313.119	278
313.209	298
313.299	110
313.389	1643
313.478	271
313.568	374
313.658	-52
313.747	298
313.837	-356
313.927	256
314.016	358
314.106	297
314.195	530
314.285	386
314.375	805
314.464	881
314.554	-291
314.643	-308
314.733	125
314.823	-202
314.912	500
315.002	483
315.091	829
315.181	1478
315.270	608
315.360	71
315.449	425
315.539	1160
315.628	763
315.718	1217
315.807	1564
315.896	3712
315.986	718
316.075	1645
316.165	1608
316.254	1466
316.344	470
316.433	181
316.522	85
316.612	981
316.701	446
316.790	1251
316.880	766
316.969	26
317.058	363
317.148	-112
317.237	331
317.326	300
317.415	-261
317.505	1480
317.594	424
317.683	-20
317.772	846
317.862	2273
317.951	6409
318.040	2153
318.129	636
318.219	382
318.308	813
318.397	1309
318.486	887
318.575	1889
318.664	2155
318.754	142
318.843	1091
318.932	330
319.021	518
319.110	1644
319.199	2959
319.288	2717
319.377	1291
319.466	-147
319.555	630
319.644	1825
319.733	1752
319.822	769
319.911	1781
320.000	4671
320.089	769
320.178	-75
320.267	774
320.356	911
320.445	67
320.534	960
320.623	-348
320.712	417
320.801	556
320.890	1355
320.979	814
321.068	1803
321.157	3029
321.245	2257
321.334	1639
321.423	2458
321.512	737
321.601	1524
321.690	1557
321.779	805
321.867	998
321.956	2451
322.045	1052
322.134	1794
322.222	3813
322.311	1790
322.400	518
322.489	1970
322.577	4413
322.666	966
322.755	1438
322.843	2213
322.932	1633
323.021	1391
323.110	694
323.198	889
323.287	1138
323.375	4281
323.464	6758
323.553	2063
323.641	6447
323.730	2570
323.819	1408
323.907	3864
323.996	1793
324.084	1454
324.173	3206
324.261	1996
324.350	368
324.438	227
324.527	511
324.615	1214
324.704	3070
324.792	3420
324.881	927
324.969	13
325.058	467
325.146	910
325.235	1985
325.323	1671
325.412	1381
325.500	813
325.588	-320
325.677	896
325.765	53
325.853	609
325.942	393
326.030	30
326.118	230
326.207	439
326.295	-250
326.383	281
326.472	675
326.560	1130
326.648	243
326.737	439
326.825	-71
326.913	497
327.001	183
327.090	431
327.178	1122
327.266	1412
327.354	2081
327.442	1472
327.531	-751
327.619	-261
327.707	392
327.795	667
327.883	803
327.971	-109
328.060	93
328.148	-114
328.236	-478
328.324	37
328.412	158
328.500	304
328.588	648
328.676	2018
328.764	427
328.852	214
328.940	-298
329.028	252
329.116	55
329.204	1081
329.292	-12
329.380	-42
329.468	-345
329.556	648
329.644	-420
329.732	-42
329.820	274
329.908	477
329.996	-850
330.084	-133
330.172	1289
330.259	2788
330.347	1222
330.435	208
330.523	727
330.611	2730
330.699	779
330.787	362
330.874	776
330.962	431
331.050	25
331.138	133
331.226	554
331.313	591
331.401	574
331.489	1102
331.577	678
331.664	85
331.752	158
331.840	-333
331.927	-534
332.015	139
332.103	-1142
332.190	654
332.278	2231
332.366	307
332.453	363
332.541	-254
332.629	245
332.716	83
332.804	-288
332.891	1560
332.979	1149
333.066	367
333.154	15
333.242	1444
333.329	-867
333.417	-172
333.504	1431
333.592	567
333.679	1028
333.767	195
333.854	-329
333.942	763
334.029	1109
334.117	2302
334.204	3924
334.291	469
334.379	717
334.466	-45
334.554	134
334.641	498
334.728	-396
334.816	2331
334.903	11596
334.990	5601
335.078	187
335.165	-123
335.252	52
335.340	-347
335.427	2417
335.514	1330
335.602	520
335.689	-282
335.776	-1012
335.863	305
335.951	-676
336.038	3117
336.125	8369
336.212	1696
336.299	177
336.387	-119
336.474	97
336.561	-325
336.648	27
336.735	535
336.822	-350
336.910	-135
336.997	1394
337.084	3453
337.171	3735
337.258	6240
337.345	2434
337.432	152
337.519	255
337.606	-233
337.693	1262
337.780	1719
337.867	238
337.954	657
338.041	1074
338.128	94
338.215	728
338.302	2986
338.389	4243
338.476	312
338.563	972
338.650	848
338.737	1013
338.824	1266
338.911	609
338.998	135
339.085	-122
339.171	330
339.258	1087
339.345	983
339.432	827
339.519	803
339.606	-662
339.692	-196
339.779	-523
339.866	-303
339.953	-69
340.040	262
340.126	179
340.213	-264
340.300	-579
340.387	308
340.473	256
340.560	-729
340.647	1135
340.733	2600
340.820	625
340.907	-646
340.993	-128
341.080	-19
341.167	454
341.253	849
341.340	611
341.426	-356
341.513	57
341.600	193
341.686	-260
341.773	863
341.859	-109
341.946	199
342.032	-170
342.119	-287
342.205	-57
342.292	341
342.378	-372
342.465	818
342.551	-251
342.638	1304
342.724	2368
342.811	859
342.897	98
342.984	510
343.070	22
343.156	-455
343.243	68
343.329	-90
343.416	200
343.502	-162
343.588	-458
343.675	246
343.761	856
343.847	1017
343.934	2705
344.020	26432
344.106	22326
344.193	1607
344.279	1217
344.365	6193
344.451	2016
344.538	470
344.624	250
344.710	-402
344.796	-668
344.882	298
344.969	-35
345.055	299
345.141	118
345.227	346
345.313	-139
345.399	224
345.486	-578
345.572	-200
345.658	-302
345.744	-525
345.830	-501
345.916	338
346.002	53
346.088	-254
346.174	125
346.260	-563
346.346	-11
346.432	-199
346.518	3883
346.604	6330
346.690	-512
346.776	624
346.862	-553
346.948	-989
347.034	214
347.120	-349
347.206	-82
347.292	334
347.378	132
347.464	4341
347.549	9968
347.635	5597
347.721	2531
347.807	476
347.893	-270
347.979	-327
348.065	-605
348.150	-8
348.236	-535
348.322	42
348.408	-302
348.493	-237
348.579	75
348.665	-321
348.751	-381
348.836	-991
348.922	726
349.008	8402
349.094	6019
349.179	302
349.265	-613
349.351	-419
349.436	-126
349.522	-463
349.608	534
349.693	1024
349.779	4163
349.864	540
349.950	305
350.036	-74
350.121	14
350.207	33
350.292	-772
350.378	-110
350.463	-685
350.549	-481
350.634	-412
350.720	344
350.805	-357
350.891	-255
350.976	-98
351.062	58
351.147	-39
351.233	-114
351.318	1262
351.404	1778
351.489	-783
351.574	-646
351.660	-426
351.745	-512
351.830	-349
351.916	-253
352.001	-166
352.086	1574
352.172	1348
352.257	-440
352.342	-562
352.428	-415
352.513	1180
352.598	3691
352.684	366
352.769	117
352.854	-1258
352.939	-303
353.024	-796
353.110	518
353.195	342
353.280	225
353.365	275
353.450	-842
353.536	-958
353.621	39
353.706	-309
353.791	999
353.876	-488
353.961	497
354.046	83
354.131	574
354.216	330
354.302	-371
354.387	-888
354.472	-781
354.557	-765
354.642	-141
354.727	-185
354.812	-171
354.897	-893
354.982	-178
355.067	-285
355.152	-937
355.237	-401
355.321	-288
355.406	-89
355.491	1768
355.576	765
355.661	1055
355.746	1275
355.831	4144
355.916	-82
356.001	-196
356.085	-559
356.170	-480
356.255	-956
356.340	-275
356.425	1472
356.509	15495
356.594	4044
356.679	-472
356.764	246
356.849	1077
356.933	17044
357.018	24222
357.103	2023
357.187	543
357.272	-898
357.357	159
357.441	-807
357.526	554
357.611	-193
357.695	45
357.780	377
357.865	-661
357.949	683
358.034	17274
358.118	35440
358.203	3742
358.288	-326
358.372	-449
358.457	3409
358.541	6154
358.626	3155
358.710	3573
358.795	-56
358.879	120
358.964	-990
359.048	-355
359.133	-924
359.217	-640
359.302	-324
359.386	-482
359.470	-578
359.555	-600
359.639	-1151
359.724	-916
359.808	-1216
359.892	47
359.977	-619
360.061	317
360.145	-492
360.230	-59
360.314	107
360.398	-464
360.483	286
360.567	192
360.651	1688
360.735	401
360.820	11115
360.904	10377
360.988	1386
361.072	-728
361.157	-5
361.241	-544
361.325	-990
361.409	-134
361.493	-371
361.577	-418
361.662	-152
361.746	1958
361.830	17507
361.914	8001
361.998	-647
362.082	500
362.166	-298
362.250	304
362.334	-893
362.418	-557
362.502	-706
362.586	-1019
362.671	-1257
362.754	-875
362.839	-561
362.922	-1141
363.006	2842
363.090	17400
363.174	9388
363.258	-361
363.342	-99
363.426	-374
363.510	2196
363.594	-33
363.678	-897
363.762	-1291
363.846	-579
363.929	-549
364.013	-717
364.097	-619
364.181	-563
364.265	3547
364.349	58
364.432	1828
364.516	-756
364.600	1417
364.684	4950
364.767	15474
364.851	2173
364.935	535
365.019	-579
365.102	271
365.186	-651
365.270	2016
365.353	3049
365.437	-428
365.521	-1021
365.604	-1163
365.688	-166
365.771	-1306
365.855	-690
365.939	-1192
366.022	-274
366.106	-1088
366.189	-2055
366.273	-191
366.357	-935
366.440	-967
366.524	-984
366.607	-950
366.691	-702
366.774	-827
366.858	-755
366.941	-396
367.024	-1666
367.108	-1299
367.191	-358
367.275	-1247
367.358	-1957
367.442	-560
367.525	-1110
367.608	-755
367.692	-753
367.775	-562
367.858	-676
367.942	4172
368.025	1105
368.108	-745
368.192	77
368.275	42
368.358	-307
368.442	245
368.525	1715
368.608	-69
368.691	3283
368.775	1324
368.858	-1415
368.941	-506
369.024	-738
369.107	-1185
369.190	-2124
369.274	-596
369.357	-223
369.440	-624
369.523	-1143
369.606	-980
369.689	-647
369.772	-1297
369.855	-815
369.939	-701
370.022	-1167
370.105	-1121
370.188	266
370.271	-1546
370.354	-185
370.437	92
370.520	6500
370.603	2203
370.686	-1892
370.769	1563
370.852	4302
370.935	4212
371.018	-106
371.100	-1558
371.183	-642
371.266	-356
371.349	-2735
371.432	-947
371.515	-1311
371.598	-776
371.681	-601
371.763	120
371.846	766
371.929	24086
372.012	16479
372.095	1871
372.177	4106
372.260	5354
372.343	-702
372.426	-948
372.508	-68
372.591	-919
372.674	2797
372.757	4172
372.839	-601
372.922	-268
373.005	84
373.087	-932
373.170	-451
373.253	3239
373.335	5965
373.418	28499
373.500	23162
373.583	5055
373.666	26280
373.748	8809
373.831	-951
373.913	-929
373.996	-956
374.078	903
374.161	-297
374.243	1388
374.326	2784
374.408	1427
374.491	17523
374.573	18082
374.656	604
374.738	6057
374.821	14326
374.903	29313
374.985	8379
375.068	-815
375.150	-1089
375.233	934
375.315	-131
375.397	-1456
375.480	-1635
375.562	-1075
375.644	16
375.727	7105
375.809	17587
375.891	4172
375.973	-418
376.056	684
376.138	233
376.220	-646
376.302	8479
376.385	7612
376.467	-267
376.549	-254
376.631	3740
376.713	7217
376.795	-1818
376.878	-731
376.960	-1280
377.042	-1639
377.124	-598
377.206	-1533
377.288	-1637
377.370	-1598
377.452	-1748
377.534	-1742
377.616	-1884
377.699	-1492
377.781	-1655
377.863	-1577
377.945	-1369
378.027	-1310
378.109	-2053
378.190	-1527
378.272	-1893
378.354	-1257
378.436	-1102
378.518	-1148
378.600	-748
378.682	335
378.764	2155
378.846	-423
378.928	-757
379.010	-1827
379.091	-1284
379.173	-1168
379.255	-2571
379.337	-1189
379.419	1884
379.501	1882
379.582	-1329
379.664	-1537
379.746	-567
379.828	2787
379.909	2356
379.991	214
380.073	-1477
380.155	-1728
380.236	-2133
380.318	-1381
380.400	-1895
380.481	-1135
380.563	-945
380.645	-847
380.726	-1150
380.808	-916
380.889	-2083
380.971	-1795
381.053	-1544
381.134	-353
381.216	-688
381.297	1281
381.379	-1376
381.460	1145
381.542	12419
381.623	2210
381.705	-1263
381.786	-1265
381.868	-326
381.949	12562
382.031	21919
382.112	2822
382.193	-1623
382.275	-982
382.356	2954
382.438	5386
382.519	17245
382.600	11363
382.682	3170
382.763	6731
382.844	2866
382.926	3500
383.007	-387
383.088	727
383.170	11785
383.251	6273
383.332	5702
383.413	8956
383.495	-128
383.576	-740
383.657	-404
383.738	11915
383.820	17820
383.901	1544
383.982	6059
384.063	8881
384.144	-494
384.225	-937
384.306	-1373
384.388	-1417
384.469	-2890
384.550	-428
384.631	-1009
384.712	-1286
384.793	-2464
384.874	-1437
384.955	1825
385.036	-720
385.117	-2251
385.198	-1213
385.279	-2303
385.360	-686
385.441	-1634
385.522	953
385.603	6408
385.684	400
385.765	-1208
385.846	323
385.927	18296
386.008	9978
386.089	-1858
386.169	-1403
386.250	-2045
386.331	-1255
386.412	-1352
386.493	686
386.574	-798
386.654	-1756
386.735	-2169
386.816	-994
386.897	-2838
386.977	-1822
387.058	-1929
387.139	-993
387.220	885
387.300	-782
387.381	-1502
387.462	-2274
387.542	-1027
387.623	-2133
387.704	258
387.784	6566
387.865	1935
387.946	-2245
388.026	-1517
388.107	-3673
388.187	-1345
388.268	-175
388.349	-2211
388.429	-1742
388.510	1007
388.590	11472
388.671	2062
388.751	-81
388.832	101
388.912	-1677
388.993	-2273
389.073	-1237
389.154	-1973
389.234	-2927
389.314	-871
389.395	-2121
389.475	558
389.556	101
389.636	-1286
389.716	-1701
389.797	-2297
389.877	900
389.957	2588
390.038	-1500
390.118	-2768
390.198	-171
390.279	986
390.359	-1685
390.439	476
390.519	4478
390.600	-291
390.680	-2221
390.760	-1520
390.840	-760
390.920	-2260
391.001	-2752
391.081	-2498
391.161	-2350
391.241	-2863
391.321	-1320
391.401	-1273
391.481	-1853
391.562	-3156
391.642	-1572
391.722	-1743
391.802	-467
391.882	-1812
391.962	905
392.042	-1636
392.122	-1269
392.202	185
392.282	1972
392.362	-1370
392.442	-1851
392.522	-2528
392.602	-647
392.682	-495
392.762	2554
392.842	-1016
392.921	1194
393.001	3685
393.081	-214
393.161	1501
393.241	25660
393.321	105932
393.401	29179
393.480	1838
393.560	-1355
393.640	-1488
393.720	-1894
393.800	-2935
393.879	-863
393.959	-1270
394.039	-1960
394.119	-2525
394.198	-542
394.278	9922
394.358	43245
394.437	8666
394.517	-1222
394.597	-1975
394.676	-1345
394.756	-589
394.836	-806
394.915	-1981
394.995	-1255
395.075	-2230
395.154	-2154
395.234	-2082
395.313	-863
395.393	-2941
395.472	-498
395.552	-1258
395.631	-125
395.711	-634
395.790	255
395.870	-1888
395.949	-1350
396.029	13196
396.108	58252
396.188	12366
396.267	170
396.346	-1878
396.426	-1629
396.505	-1571
396.585	-1361
396.664	1860
396.743	37714
396.823	73396
396.902	13311
396.981	-897
397.061	-1425
397.140	-2795
397.219	-1470
397.298	-2117
397.378	-2222
397.457	-1690
397.536	-2225
397.615	-4073
397.694	-968
397.774	-2861
397.853	-2560
397.932	-2290
398.011	-1936
398.090	-2030
398.169	-1057
398.249	-2049
398.328	-1513
398.407	-2227
398.486	-2257
398.565	-1681
398.644	-2537
398.723	-2131
398.802	-2301
398.881	-624
398.960	-977
399.039	-2322
399.118	-2675
399.197	-1938
399.276	-1584
399.355	-3107
399.434	-2464
399.513	-2148
399.592	-3513
399.671	-1736
399.750	-953
399.829	378
399.908	-1721
399.986	-2237
400.065	-2963
400.144	-2990
400.223	-830
400.302	-2376
400.380	-3042
400.459	-256
400.538	-494
400.617	-2293
400.696	-1256
400.774	-3101
400.853	-1731
400.932	-3169
401.011	-886
401.089	-2530
401.168	-1776
401.247	-2366
401.325	-2626
401.404	-2392
401.483	-2743
401.561	-1971
401.640	-2527
401.718	-2052
401.797	-2029
401.876	-2115
401.954	-2485
402.033	-2039
402.111	-1724
402.190	-2186
402.268	-1836
402.347	-1963
402.425	-1876
402.504	-3067
402.582	-2274
402.661	-2663
402.739	-2883
402.818	-1625
402.896	-1749
402.974	-1158
403.053	-212
403.131	-1500
403.210	-895
403.288	-1031
403.366	-809
403.445	-2121
403.523	-2458
403.601	-1950
403.680	-3647
403.758	-2272
403.836	-2485
403.915	-2899
403.993	-2689
404.071	-1349
404.149	-2590
404.228	-2549
404.306	-1091
404.384	-1199
404.462	978
404.540	11939
404.618	450
404.697	-2671
404.775	-2173
404.853	-3377
404.931	-2545
405.009	-2497
405.087	-2253
405.165	-3272
405.243	-3443
405.321	-1629
405.399	-2822
405.478	-2418
405.556	-1199
405.634	-3340
405.712	-2857
405.790	-1358
405.868	-2311
405.945	-2010
406.023	-2520
406.101	-3295
406.179	-1815
406.257	1446
406.335	5585
406.413	-793
406.491	-2516
406.569	-2331
406.647	-1370
406.724	-2802
406.802	-2292
406.880	-3603
406.958	-1530
407.036	-2596
407.113	4358
407.191	-461
407.269	-1980
407.347	-2320
407.424	-2189
407.502	-2771
407.580	-2671
407.658	-1969
407.735	-126
407.813	-2060
407.891	-2011
407.968	-2446
408.046	-2736
408.124	-3056
408.201	-1658
408.279	-3032
408.356	-2125
408.434	-2336
408.512	-2809
408.589	-2977
408.667	-2362
408.744	-2004
408.822	-2203
408.899	-2673
408.977	-2318
409.054	-3434
409.132	-3376
409.209	-2635
409.287	-2611
409.364	-2420
409.441	-2381
409.519	-2093
409.596	-2536
409.674	-2414
409.751	-2594
409.828	-2971
409.906	-1470
409.983	-3470
410.060	-2247
410.138	-1984
410.215	-2527
410.292	-3170
410.370	-2546
410.447	-2483
410.524	-2226
410.601	-2007
410.678	-2120
410.756	-3165
410.833	-3375
410.910	-1809
410.987	-1803
411.064	-2740
411.142	-2722
411.219	-2436
411.296	-3320
411.373	-2995
411.450	-2583
411.527	-2849
411.604	-3122
411.681	-2980
411.758	-2924
411.835	-2492
411.913	-3327
411.990	-2875
412.067	-2168
412.144	-1542
412.221	-2392
412.298	-2661
412.374	-3061
412.451	-2553
412.528	-2160
412.605	-2899
412.682	-1926
412.759	-1977
412.836	-2347
412.913	-2829
412.990	-2904
413.067	-2083
413.143	-1731
413.220	-1835
413.297	-3397
413.374	-1757
413.451	-2681
413.527	-2532
413.604	-1307
413.681	-3105
413.758	-2818
413.834	-2885
413.911	-3015
413.988	-3709
414.065	-2457
414.141	-1703
414.218	-1993
414.295	-476
414.371	-149
414.448	-3185
414.524	-2176
414.601	-2237
414.678	-2567
414.754	-3096
414.831	-2518
414.907	-2519
414.984	-2884
415.060	-1914
415.137	-2698
415.213	-2419
415.290	-2894
415.366	-1916
415.443	-2024
415.519	-2304
415.596	-3142
415.672	-1319
415.749	-2670
415.825	-2698
415.902	-1790
415.978	-2999
416.054	-1218
416.131	-3524
416.207	-2812
416.283	-3088
416.360	-2940
416.436	-2576
416.512	-2777
416.589	-3178
416.665	-2136
416.741	-2694
416.817	-3125
416.894	-2989
416.970	-2288
417.046	-2934
417.122	-2695
417.198	-2508
417.275	-2342
417.351	-3261
417.427	-2518
417.503	-2808
417.579	-3295
417.655	-2289
417.731	-2694
417.808	-3780
417.884	-1895
417.960	-2762
418.036	-3242
418.112	-2362
418.188	-2843
418.264	-3004
418.340	-1698
418.416	-3147
418.492	-3207
418.568	-2909
418.644	-2534
418.720	-2047
418.796	-2404
418.872	-3298
418.947	-2494
419.023	-2636
419.099	-1230
419.175	-3452
419.251	-2608
419.327	-2371
419.403	-1692
419.478	-3217
419.554	-2656
419.630	-2278
419.706	-2790
419.782	-2207
419.857	-2729
419.933	-2208
420.009	-2376
420.085	-2074
420.160	-1335
420.236	-2517
420.312	-2867
420.387	-3384
420.463	-2249
420.539	-2374
420.614	-2877
420.690	-2344
420.766	-3104
420.841	-2086
420.917	-2674
420.992	-2243
421.068	-2982
421.143	-2267
421.219	-3071
421.294	-2286
421.370	-3149
421.445	-2087
421.521	-2297
421.596	-2278
421.672	-3051
421.747	-2169
421.823	-3493
421.898	-2653
421.974	-2273
422.049	-3053
422.124	-2722
422.200	-2773
422.275	-2205
422.350	-2319
422.426	-2524
422.501	755
422.576	19382
422.652	24495
422.727	2692
422.802	-1311
422.878	-1930
422.953	-2560
423.028	-2900
423.103	-2008
423.178	-2365
423.254	-2811
423.329	-1618
423.404	-2982
423.479	-1911
423.554	-3200
423.630	-2004
423.705	-2478
423.780	-2103
423.855	-2672
423.930	-3210
424.005	-3019
424.080	-2175
424.155	-3506
424.230	-3199
424.305	-2081
424.380	-2723
424.455	-3253
424.530	-2503
424.605	-2750
424.680	-2543
424.755	-2198
424.830	-2629
424.905	-3655
424.980	-1678
425.055	-1121
425.130	-2590
425.204	-2282
425.279	-3022
425.354	-1861
425.429	-3517
425.504	-2308
425.579	-2834
425.653	-3304
425.728	-2795
425.803	-2614
425.878	-2578
425.952	-2858
426.027	-601
426.102	-3094
426.177	-3240
426.251	-2651
426.326	-3424
426.401	-3033
426.475	-1791
426.550	-2650
426.625	-2082
426.699	-2468
426.774	-2983
426.848	-2626
426.923	-2235
426.998	-2299
427.072	755
427.147	1332
427.221	-2169
427.296	-2297
427.370	-3451
427.445	-2440
427.519	-2822
427.594	-2247
427.668	-2427
427.743	-3708
427.817	-2966
427.892	-2792
427.966	-2244
428.040	-3401
428.115	-2674
428.189	-752
428.263	-761
428.338	-2783
428.412	-2597
428.486	-2900
428.561	-3217
428.635	-2024
428.709	-2351
428.784	-2553
428.858	296
428.932	-1728
429.006	-2703
429.080	-2541
429.155	-2677
429.229	-2822
429.303	-1941
429.377	-2316
429.451	-2753
429.526	-2449
429.600	-3112
429.674	-2415
429.748	-2166
429.822	-2152
429.896	-1534
429.970	-1899
430.044	-1883
430.118	-2851
430.192	2780
430.266	-195
430.340	-2353
430.414	-2456
430.488	-2320
430.562	-2255
430.636	-1694
430.710	2849
430.784	1527
430.858	-2609
430.932	-2898
431.006	-2445
431.080	-3235
431.153	-4066
431.227	-2824
431.301	-2730
431.375	-1741
431.449	-2888
431.523	-2377
431.596	-2501
431.670	-2567
431.744	-2429
431.818	-647
431.891	-2708
431.965	-2936
432.039	-2914
432.112	-2805
432.186	-2616
432.260	-2418
432.333	-2897
432.407	-2942
432.481	247
432.554	1461
432.628	-2268
432.702	-3202
432.775	-2514
432.849	-2729
432.922	-2201
432.996	-2659
433.069	-3598
433.143	-2869
433.216	-2572
433.290	-2855
433.363	-3132
433.437	-3182
433.510	-3411
433.584	-2253
433.657	-2581
433.730	-2703
433.804	-3394
433.877	-2296
433.951	-3386
434.024	-2480
434.097	-3505
434.171	-2934
434.244	-2598
434.317	-3421
434.391	-2683
434.464	-3409
434.537	-3397
434.610	-2761
434.684	-2569
434.757	-2944
434.830	-2503
434.903	-3077
434.977	-2837
435.050	-2058
435.123	-2368
435.196	-2901
435.269	-2449
435.342	-2420
435.415	-3419
435.489	-2583
435.562	-3131
435.635	-2204
435.708	-2823
435.781	-2902
435.854	-2812
435.927	-2856
436.000	-2971
436.073	-2015
436.146	-3264
436.219	-2326
436.292	-3558
436.365	-2595
436.438	-3042
436.511	-2778
436.584	-2331
436.657	-2927
436.729	-3299
436.802	-2624
436.875	-2983
436.948	-2816
437.021	-2834
437.094	-2786
437.166	-3447
437.239	-2247
437.312	-2660
437.385	-2609
437.457	-2744
437.530	-2171
437.603	-3427
437.676	-2665
437.748	-2764
437.821	-3003
437.894	-2601
437.966	-2097
438.039	-3340
438.112	-2554
438.184	-2186
438.257	3333
438.330	4975
438.402	-1273
438.475	-2992
438.547	-2699
438.620	-3722
438.692	-3071
438.765	-2471
438.837	-2547
438.910	-2764
438.982	-2878
439.055	-2849
439.127	-2487
439.200	-3080
439.272	-2787
439.345	-2885
439.417	-2782
439.489	-2914
439.562	-1845
439.634	-2169
439.707	-2565
439.779	-2615
439.851	-3447
439.923	-2971
439.996	-2587
440.068	-3235
440.140	-3300
440.213	-3193
440.285	-2959
440.357	-1336
440.429	1791
440.502	-1421
440.574	-2777
440.646	-1884
440.718	-3235
440.790	-2944
440.862	-3014
440.935	-3316
441.007	-2482
441.079	-1713
441.151	-3086
441.223	-2823
441.295	-2587
441.367	-2712
441.439	-528
441.511	-2306
441.583	-2818
441.655	-2810
441.727	-3043
441.799	-3088
441.871	-2550
441.943	-3342
442.015	-2922
442.087	-2988
442.159	-2421
442.231	-3065
442.303	-2636
442.374	-2973
442.446	-2120
442.518	-1781
442.590	-2012
442.662	-2245
442.734	-2352
442.805	-2675
442.877	-2582
442.949	-2574
443.021	-2463
443.092	-2459
443.164	-2880
443.236	-2638
443.308	-2155
443.379	-1448
443.451	900
443.523	-1201
443.594	-2458
443.666	-3104
443.737	-2719
443.809	-2701
443.881	-2582
443.952	-2810
444.024	-3145
444.095	-2599
444.167	-2779
444.238	-1877
444.310	-2699
444.381	-2713
444.453	-2327
444.524	-2304
444.596	-2646
444.667	-2763
444.739	-2894
444.810	-2781
444.882	-2440
444.953	-2150
445.024	-2710
445.096	-2346
445.167	-2264
445.238	-2304
445.310	-2810
445.381	37
445.452	2130
445.524	-883
445.595	-914
445.666	-2935
445.737	-2741
445.809	-2782
445.880	-2434
445.951	-2974
446.022	-2286
446.094	-3057
446.165	-2513
446.236	-3122
446.307	-2404
446.378	-2945
446.449	-2725
446.520	-3210
446.591	-2809
446.663	-2394
446.734	-2400
446.805	-2528
446.876	-2320
446.947	-2799
447.018	-2364
447.089	-3581
447.160	-2161
447.231	-2459
447.302	-2792
447.373	-2812
447.444	-2411
447.514	-2053
447.585	-2612
447.656	-2649
447.727	-2783
447.798	-2682
447.869	-3475
447.940	-2224
448.010	-2585
448.081	-3068
448.152	-2202
448.223	-3253
448.294	-2816
448.364	-2677
448.435	-2714
448.506	-2493
448.577	-2722
448.647	-2841
448.718	-2964
448.789	-3081
448.859	-2281
448.930	-2323
449.001	-1998
449.071	-2635
449.142	-2842
449.213	-2672
449.283	-3104
449.354	-2716
449.424	-2588
449.495	-2529
449.565	-2721
449.636	-2471
449.706	-2594
449.777	-2614
449.847	-2862
449.918	-2493
449.988	-2059
450.059	-2437
450.129	-3105
450.200	-2993
450.270	-3147
450.340	-2659
450.411	-1842
450.481	-3267
450.551	-2671
450.622	-3054
450.692	-2355
450.762	-3036
450.833	-2057
450.903	-2460
450.973	-2802
451.043	-2827
451.114	-2491
451.184	-2863
451.254	-2345
451.324	-2211
451.395	-2969
451.465	-2687
451.535	-2473
451.605	-2141
451.675	-2764
451.745	-2750
451.815	-1766
451.885	-2992
451.956	-3205
452.026	-2158
452.096	-2176
452.166	-2194
452.236	-2860
452.306	-2499
452.376	-3265
452.446	-2779
452.516	-2550
452.586	-2208
452.656	-2223
452.725	-2505
452.795	-2542
452.865	-2872
452.935	-1962
453.005	-2560
453.075	-2602
453.145	-2606
453.215	-2287
453.284	-2048
453.354	-1825
453.424	-1758
453.494	-1749
453.564	-1748
453.633	-2192
453.703	-2777
453.773	-2164
453.843	-2763
453.895	-2374
453.912	-2272
453.976	-2402
453.982	-2447
454.052	-3011
454.057	-2924
454.121	-2395
454.139	-2397
454.191	-2458
454.220	-2601
454.261	-2915
454.301	-2702
454.330	-2723
454.382	-3139
454.400	-3280
454.463	-2114
454.469	-2026
454.539	-2524
454.544	-2482
454.608	-2284
454.625	-2291
454.678	-2416
454.707	-1594
454.748	-955
454.788	-880
454.817	-1200
454.869	-1902
454.887	-2011
454.950	-2069
454.956	-2070
455.026	-1060
455.031	-897
455.095	1148
455.112	1576
455.165	3609
455.193	5496
455.234	5374
455.274	5856
455.303	3996
455.355	775
455.373	615
455.436	-246
455.442	-402
455.512	-1589
455.517	-1622
455.581	-1687
455.598	-1858
455.650	-2348
455.679	-2104
455.720	-1701
455.760	-1403
455.789	-1338
455.841	-1866
455.858	-2049
455.922	-1799
455.928	-1783
455.997	-1612
456.003	-1531
456.066	-906
456.084	-953
456.136	-939
456.165	-461
456.205	-145
456.245	-41
456.274	-444
456.326	-1354
456.343	-1424
456.407	-1397
456.412	-1441
456.482	-1354
456.488	-1333
456.551	-1259
456.569	-1181
456.620	-664
456.650	-656
456.689	-843
456.730	-1161
456.758	-1342
456.811	-1018
456.827	-825
456.892	-139
456.897	-68
456.966	1423
456.973	1594
457.035	2701
457.054	3225
457.104	1458
457.134	-33
457.173	-545
457.215	-627
457.242	-386
457.296	-253
457.311	-211
457.377	443
457.380	417
457.449	361
457.457	340
457.518	452
457.538	460
457.587	1837
457.619	2729
457.656	4712
457.699	7523
457.725	6294
457.780	3338
457.794	3342
457.861	4003
457.863	4153
457.932	8655
457.941	9458
458.001	10567
458.022	11131
458.070	6004
458.103	2466
458.138	2582
458.183	1741
458.207	1866
458.264	3087
458.276	3953
458.344	8873
458.345	8924
458.414	18959
458.425	20800
458.483	13005
458.506	9787
458.551	5581
458.586	1968
458.620	1412
458.667	678
458.689	528
458.747	418
458.758	432
458.826	1029
458.828	1031
458.895	948
458.908	1009
458.964	963
458.989	1091
459.033	1889
459.069	2346
459.101	2357
459.150	2168
459.170	1978
459.230	1719
459.239	1696
459.307	1468
459.311	1450
459.376	1638
459.391	1724
459.444	1766
459.471	1770
459.513	1675
459.552	1514
459.582	1483
459.632	1339
459.650	1410
459.713	1957
459.719	1985
459.787	2121
459.793	2136
459.856	2090
459.873	2059
459.924	2445
459.954	2551
459.993	3082
460.034	3671
460.061	4398
460.114	6223
460.130	5843
460.195	3731
460.198	3680
460.267	2629
460.275	2448
460.335	2980
460.355	3239
460.404	4917
460.436	6309
460.472	12246
460.516	18892
460.540	21344
460.596	27281
460.609	23643
460.676	3414
460.677	3418
460.745	3081
460.757	2887
460.814	2276
460.837	2154
460.882	3221
460.917	4119
460.950	4450
460.997	4947
461.019	4496
461.077	2621
461.087	2596
461.155	3395
461.158	3377
461.224	2984
461.238	2969
461.292	2628
461.318	2514
461.360	3497
461.398	4053
461.428	5166
461.478	7488
461.496	9062
461.558	13845
461.565	13286
461.633	6488
461.638	5951
461.701	4581
461.719	4100
461.769	4355
461.799	4396
461.837	3505
461.879	2776
461.905	3002
461.959	3041
461.973	3354
462.039	4979
462.042	5105
462.110	7739
462.119	8012
462.178	7587
462.199	7406
462.246	4918
462.279	3234
462.314	4308
462.359	5501
462.382	4947
462.439	3659
462.450	3741
462.518	3795
462.519	3777
462.586	4129
462.599	4133
462.654	4530
462.679	4781
462.722	6249
462.759	7287
462.790	6114
462.839	4096
462.858	4026
462.919	4179
462.926	4129
462.993	3067
462.999	2968
463.061	4412
463.078	4738
463.129	4832
463.158	4832
463.197	6153
463.238	7747
463.265	6835
463.318	4480
463.333	4410
463.398	4228
463.401	4290
463.468	5258
463.478	5318
463.536	6119
463.558	6372
463.604	8968
463.637	10888
463.672	10930
463.717	10772
463.739	12565
463.797	17036
463.807	16182
463.875	9681
463.877	9454
463.943	5583
463.957	4716
464.010	4902
464.036	4934
464.078	4885
464.116	4752
464.146	5961
464.196	8098
464.213	7747
464.275	6092
464.281	6244
464.349	7634
464.355	7724
464.416	6692
464.435	6347
464.484	7365
464.515	7923
464.551	9032
464.594	10129
464.619	9311
464.674	7346
464.686	7350
464.754	7200
464.754	7250
464.821	7541
464.833	7548
464.889	6992
464.913	6724
464.956	6546
464.992	6271
465.024	6438
465.072	6563
465.091	6554
465.152	6436
465.159	6694
465.226	8521
465.231	8611
465.294	11504
465.311	12173
465.361	11353
465.390	10813
465.429	13922
465.470	17040
465.496	15219
465.549	11310
465.563	10683
465.629	7332
465.631	7382
465.698	7399
465.708	7337
465.765	6994
465.788	6829
465.833	6513
465.867	6229
465.900	7055
465.947	8034
465.967	7781
466.026	6922
466.035	7131
466.102	8463
466.106	8481
466.169	7642
466.185	7373
466.236	8016
466.265	8305
466.304	8877
466.344	9359
466.371	10239
466.423	11740
466.438	12775
466.503	17109
466.505	17679
466.572	31808
466.582	33730
466.639	26022
466.662	22786
466.707	16764
466.741	11958
466.774	12164
466.820	12292
466.841	12145
466.900	11412
466.908	11458
466.975	11260
466.979	11179
467.042	12303
467.058	12503
467.109	12870
467.138	12945
467.176	12691
467.217	12282
467.243	12259
467.296	11981
467.310	12082
467.375	12150
467.377	12151
467.455	9068
467.534	8828
467.613	10788
467.692	14475
467.772	14482
467.851	11781
467.930	15277
468.009	29918
468.088	20085
468.167	11388
468.246	13506
468.326	14058
468.405	11789
468.484	10848
468.563	19830
468.642	26388
468.721	12409
468.800	10490
468.879	11259
468.958	17158
469.037	10783
469.116	9940
469.195	6722
469.274	9713
469.353	7963
469.432	9046
469.511	8856
469.590	10678
469.669	11882
469.748	14647
469.827	9522
469.905	8970
469.984	10530
470.063	15092
470.142	22035
470.221	18217
470.300	13100
470.378	10006
470.457	10467
470.536	14547
470.615	14305
470.694	10800
470.772	16609
470.851	27814
470.930	10484
471.008	8801
471.087	8421
471.166	7109
471.245	8681
471.323	8604
471.402	7084
471.480	8522
471.559	8656
471.638	8891
471.716	8363
471.795	9783
471.873	7511
471.952	7472
472.031	11296
472.109	11776
472.188	8486
472.266	7030
472.345	6129
472.423	7112
472.502	7362
472.580	11122
472.659	9730
472.737	11295
472.815	7333
472.894	8838
472.972	9558
473.051	9162
473.129	9261
473.207	9230
473.286	9658
473.364	9120
473.443	14335
473.521	21748
473.599	10754
473.677	9520
473.756	16967
473.834	15144
473.912	8352
473.991	10025
474.069	12585
474.147	13191
474.225	6992
474.303	7812
474.382	9362
474.460	8706
474.538	8445
474.616	9283
474.694	9073
474.772	7804
474.851	8097
474.929	8315
475.007	9444
475.085	9914
475.163	11865
475.241	20305
475.319	9980
475.397	8228
475.475	7339
475.553	11913
475.631	19750
475.709	20043
475.787	20907
475.865	9228
475.943	9743
476.021	14738
476.099	17479
476.177	9619
476.255	7009
476.333	8838
476.410	13647
476.488	15946
476.566	8156
476.644	9481
476.722	7746
476.800	7502
476.877	6350
476.955	8748
477.033	13600
477.111	14340
477.189	6476
477.266	6534
477.344	5428
477.422	7421
477.499	7140
477.577	6183
477.655	8750
477.732	7338
477.810	7237
477.888	7373
477.965	7271
478.043	9398
478.121	13806
478.198	23962
478.276	9210
478.353	9565
478.431	7076
478.508	11737
478.586	8139
478.664	9285
478.741	11812
478.819	12111
478.896	6052
478.974	7833
479.051	8172
479.128	8612
479.206	6292
479.283	7386
479.361	6317
479.438	8123
479.516	7570
479.593	7058
479.670	6601
479.748	7974
479.825	11915
479.902	7870
479.980	6992
480.057	6502
480.134	7084
480.211	9196
480.289	8710
480.366	15264
480.443	10509
480.520	7653
480.598	7017
480.675	8632
480.752	8861
480.829	11085
480.906	9451
480.984	8569
481.061	8215
481.138	6086
481.215	5652
481.292	9840
481.369	11310
481.446	12715
481.523	6543
481.600	7152
481.677	7048
481.754	8002
481.831	11810
481.908	14053
481.985	7506
482.062	10425
482.139	18609
482.216	28194
482.293	10885
482.370	7990
482.447	7656
482.524	6817
482.601	8471
482.678	7531
482.755	6212
482.832	7284
482.908	6905
482.985	8312
483.062	8550
483.139	7974
483.216	6837
483.293	7915
483.369	7161
483.446	9616
483.523	6134
483.600	7112
483.676	8970
483.753	9868
483.830	14140
483.906	26105
483.983	19842
484.060	17028
484.136	17120
484.213	14227
484.290	12189
484.366	11000
484.443	11843
484.519	13554
484.596	11792
484.673	13057
484.749	12390
484.826	10314
484.902	11119
484.979	13624
485.055	11255
485.132	10198
485.208	12301
485.285	15372
485.361	20070
485.437	26803
485.514	15432
485.590	12796
485.667	14474
485.743	18567
485.819	36239
485.896	15590
485.972	11067
486.049	11869
486.125	11626
486.201	12854
486.277	14052
486.354	12383
486.430	14486
486.506	15365
486.583	15084
486.659	21059
486.735	17063
486.811	23288
486.887	38425
486.964	74600
487.040	65804
487.116	29421
487.192	11544
487.268	11791
487.344	14597
487.420	18012
487.497	19477
487.573	39413
487.649	105558
487.725	62651
487.801	15934
487.877	12868
487.953	16093
488.029	15942
488.105	14232
488.181	21306
488.257	23335
488.333	31578
488.409	23044
488.485	13427
488.561	11388
488.637	12670
488.712	17892
488.788	21203
488.864	45936
488.940	113230
489.016	121256
489.092	19561
489.168	10656
489.243	11567
489.319	9806
489.395	9197
489.471	9381
489.547	8021
489.622	8840
489.698	11111
489.774	20208
489.849	39104
489.925	14495
490.001	9129
490.076	11326
490.152	21635
490.228	17696
490.303	8941
490.379	8193
490.455	6972
490.530	9544
490.606	9581
490.681	9565
490.757	10660
490.833	13114
490.908	13700
490.984	11959
491.059	9424
491.135	14540
491.210	22242
491.286	11579
491.361	11311
491.436	9941
491.512	12149
491.587	17028
491.663	30436
491.738	81642
491.814	76159
491.889	181513
491.964	67556
492.040	15472
492.115	9115
492.190	11287
492.266	14121
492.341	9799
492.416	8949
492.491	7647
492.567	9732
492.642	13237
492.717	10953
492.792	8960
492.868	9166
492.943	8359
493.018	9654
493.093	14451
493.168	38071
493.243	115861
493.318	42788
493.394	9565
493.469	7488
493.544	9339
493.619	11821
493.694	22149
493.769	18123
493.844	10943
493.919	7600
493.994	7892
494.069	8067
494.144	6998
494.219	7566
494.294	7544
494.369	8845
494.444	8544
494.519	10608
494.594	6864
494.669	7817
494.744	8305
494.818	7807
494.893	8187
494.968	9156
495.043	7822
495.118	7844
495.193	9129
495.267	12027
495.342	15039
495.417	21437
495.492	50880
495.566	208764
495.641	230885
495.716	18925
495.791	7634
495.865	8929
495.940	7275
496.015	8182
496.089	8648
496.164	7467
496.239	7253
496.313	8990
496.388	10857
496.462	17356
496.537	10976
496.612	10048
496.686	10583
496.761	9832
496.835	9923
496.910	10286
496.984	7865
497.059	9331
497.133	11913
497.208	12948
497.282	10666
497.357	14286
497.431	11712
497.505	12001
497.580	14632
497.654	19989
497.729	23069
497.803	21733
497.877	30485
497.952	80253
498.026	232714
498.100	66296
498.175	37708
498.249	31904
498.323	21967
498.397	27169
498.472	15367
498.546	11430
498.620	12169
498.694	16475
498.768	23835
498.843	31362
498.917	113351
498.991	131626
499.065	12170
499.139	10056
499.213	11958
499.287	12872
499.362	11296
499.436	9596
499.510	11886
499.584	15117
499.658	18439
499.732	49320
499.806	137687
499.880	26867
499.954	19905
500.028	27732
500.102	17167
500.176	10920
500.250	11510
500.324	16903
500.397	35085
500.471	64066
500.545	89488
500.619	62908
500.693	10522
500.767	10506
500.841	11404
500.914	8783
500.988	13328
501.062	26705
501.136	22438
501.210	45144
501.283	104571
501.357	32075
501.431	20956
501.505	22441
501.578	7693
501.652	14770
501.726	15478
501.799	19518
501.873	33474
501.947	11275
502.020	14493
502.094	30847
502.167	32587
502.241	11568
502.315	25200
502.388	24103
502.462	13220
502.535	11698
502.609	10612
502.682	10472
502.756	5817
502.829	6623
502.903	6570
502.976	7022
503.050	6396
503.123	6975
503.196	6636
503.270	8917
503.343	14013
503.417	40442
503.490	54842
503.563	18406
503.637	18011
503.710	31564
503.783	21970
503.857	41258
503.930	30603
504.003	56115
504.076	31294
504.150	10617
504.223	10287
504.296	8231
504.369	5517
504.443	6790
504.516	7182
504.589	6110
504.662	8969
504.735	8990
504.808	18754
504.881	15506
504.954	6878
505.028	15445
505.101	8583
505.174	7608
505.247	5431
505.320	6989
505.393	6542
505.466	7176
505.539	6025
505.612	5778
505.685	5360
505.758	8369
505.831	4970
505.904	7844
505.977	6290
506.049	5214
506.122	7353
506.195	9056
506.268	25819
506.341	45693
506.414	11830
506.487	7380
506.559	6500
506.632	8578
506.705	12613
506.778	12505
506.851	7298
506.923	5471
506.996	8768
507.069	8282
507.141	6436
507.214	6355
507.287	12308
507.360	12405
507.432	6052
507.505	7923
507.577	5621
507.650	7655
507.723	12439
507.795	17043
507.868	9125
507.940	7091
508.013	6544
508.086	5566
508.158	10005
508.231	8533
508.303	5467
508.376	5924
508.448	5696
508.520	7749
508.593	12803
508.665	5691
508.738	7061
508.810	5128
508.883	7848
508.955	7410
509.027	5683
509.100	5144
509.172	5148
509.244	4074
509.317	4458
509.389	6181
509.461	6734
509.534	8239
509.606	7179
509.678	9296
509.750	11722
509.822	6824
509.895	6719
509.967	5564
510.039	6637
510.111	9657
510.183	7743
510.255	6096
510.328	6132
510.400	8626
510.472	7613
510.544	9640
510.616	13551
510.688	8215
510.760	7244
510.832	10554
510.904	12334
510.976	7358
511.048	6400
511.120	7374
511.192	8020
511.264	6035
511.336	4627
511.408	6484
511.480	5745
511.552	4727
511.624	5851
511.695	6637
511.767	6679
511.839	7322
511.911	10117
511.983	7284
512.055	7629
512.126	7991
512.198	11039
512.270	11099
512.342	11540
512.414	10440
512.485	7827
512.557	8295
512.629	8226
512.700	6025
512.772	7110
512.844	6070
512.915	5957
512.987	8003
513.059	8144
513.130	9729
513.202	23253
513.273	14747
513.345	7350
513.416	7586
513.488	6982
513.560	11408
513.631	11203
513.703	14113
513.774	39127
513.845	28333
513.917	7123
513.988	7128
514.060	10326
514.131	12620
514.203	7614
514.274	5793
514.345	11405
514.417	10589
514.488	6436
514.560	9514
514.631	11242
514.702	9507
514.773	11270
514.845	8136
514.916	8515
514.987	8038
515.059	11729
515.130	8163
515.201	10871
515.272	8790
515.343	7093
515.414	7489
515.486	6032
515.557	7292
515.628	6529
515.699	8998
515.770	8342
515.841	8024
515.912	8425
515.983	9142
516.055	15303
516.126	18132
516.197	11567
516.268	11840
516.339	15656
516.410	22923
516.481	42014
516.552	141113
516.622	242619
516.693	27631
516.764	24689
516.835	21318
516.906	29400
516.977	56115
517.048	132388
517.119	452798
517.190	178692
517.260	35383
517.331	10776
517.402	9880
517.473	9601
517.544	9053
517.614	11443
517.685	9248
517.756	12491
517.827	16792
517.897	19768
517.968	30171
518.039	46728
518.109	104824
518.180	417470
518.250	600666
518.321	46178
518.392	12896
518.462	13601
518.533	14267
518.603	17590
518.674	29953
518.745	60691
518.815	25548
518.886	14322
518.956	21631
519.027	39080
519.097	48840
519.168	43731
519.238	12612
519.309	13926
519.379	19740
519.449	11394
519.520	6919
519.590	7042
519.660	6847
519.731	8519
519.801	8325
519.871	7952
519.942	7823
520.012	7111
520.082	11700
520.153	7332
520.223	4233
520.293	7850
520.363	6029
520.434	13601
520.504	7685
520.574	6332
520.644	8787
520.714	14654
520.784	10819
520.855	23332
520.925	34712
520.995	7872
521.065	6092
521.135	5254
521.205	7108
521.275	5720
521.345	9268
521.415	12773
521.485	12531
521.555	7974
521.625	10313
521.695	7167
521.765	5713
521.835	5444
521.905	5374
521.975	5552
522.045	4750
522.115	6849
522.185	7231
522.254	10545
522.324	15892
522.394	13029
522.464	17773
522.534	54311
522.603	68245
522.673	9306
522.743	6753
522.813	9870
522.883	10699
522.952	7341
523.022	10686
523.092	22784
523.161	72047
523.231	17428
523.301	6102
523.370	6719
523.440	5056
523.509	4627
523.579	5611
523.649	4963
523.718	6222
523.788	4461
523.857	4504
523.927	4696
523.996	5595
524.066	5367
524.135	9235
524.205	4765
524.274	3537
524.344	4493
524.413	5552
524.483	4352
524.552	5745
524.621	4079
524.691	5187
524.760	3218
524.830	4811
524.899	7806
524.968	5935
525.038	5503
525.107	4867
525.176	3563
525.245	5232
525.315	5642
525.384	4362
525.453	5418
525.522	5237
525.591	3965
525.661	5992
525.730	5800
525.799	9399
525.868	15042
525.937	20440
526.006	54517
526.076	85637
526.145	38343
526.214	31554
526.283	63985
526.352	57429
526.421	134699
526.490	56550
526.559	34214
526.628	23432
526.697	38544
526.766	111210
526.835	267589
526.904	261332
526.973	34702
527.042	9040
527.110	8371
527.179	11385
527.248	6183
527.317	6653
527.386	4924
527.455	5655
527.523	4868
527.592	5806
527.661	3389
527.730	5414
527.799	5018
527.867	3863
527.936	6771
528.005	11518
528.074	12983
528.142	7792
528.211	17688
528.280	11525
528.348	5745
528.417	3675
528.485	4112
528.554	4492
528.623	3425
528.691	3880
528.760	3921
528.828	4875
528.897	3927
528.965	3581
529.034	4857
529.102	3335
529.171	5228
529.239	5199
529.308	3600
529.376	3757
529.445	5793
529.513	3893
529.581	4924
529.650	6252
529.718	4334
529.786	4081
529.855	5221
529.923	3342
529.992	5149
530.060	8058
530.128	9194
530.196	4953
530.265	2759
530.333	3625
530.401	4145
530.469	2541
530.537	4434
530.606	5565
530.674	3975
530.742	4089
530.810	4305
530.878	4908
530.946	4840
531.014	4482
531.083	4109
531.151	3754
531.219	2777
531.287	4062
531.355	2983
531.423	5323
531.491	4758
531.559	4892
531.627	3892
531.695	5263
531.763	3683
531.831	4912
531.898	4378
531.966	5179
532.034	5459
532.102	6057
532.170	9162
532.238	20862
532.306	36400
532.374	10412
532.441	8953
532.509	11252
532.577	26171
532.645	95113
532.712	82657
532.780	9944
532.848	5731
532.916	4121
532.983	4488
533.051	4910
533.119	4523
533.186	5518
533.254	4369
533.322	3733
533.389	4587
533.457	4229
533.524	3619
533.592	5310
533.659	5227
533.727	4152
533.794	7161
533.862	15109
533.930	12829
533.997	12331
534.064	3621
534.132	5231
534.199	4073
534.267	4296
534.334	4690
534.402	4181
534.469	3752
534.536	5828
534.604	6478
534.671	8483
534.738	16175
534.806	51255
534.873	20407
534.940	6651
535.008	4770
535.075	4478
535.142	5600
535.209	4704
535.276	4327
535.344	4201
535.411	3771
535.478	4271
535.545	3968
535.612	5223
535.679	4656
535.747	3614
535.814	3221
535.881	3597
535.948	5154
536.015	5253
536.082	4423
536.149	5914
536.216	6329
536.283	8034
536.350	12830
536.417	7855
536.484	9307
536.551	11592
536.618	14701
536.685	9253
536.752	9465
536.818	17186
536.885	22909
536.952	26739
537.019	74519
537.086	16269
537.153	3979
537.219	5899
537.286	3902
537.353	3554
537.420	3676
537.487	5303
537.553	5744
537.620	6643
537.687	4318
537.753	3852
537.820	5160
537.887	5787
537.953	4117
538.020	5789
538.087	8580
538.153	16165
538.220	23067
538.286	6576
538.353	5408
538.419	4849
538.486	3653
538.553	5051
538.619	3682
538.685	4547
538.752	4713
538.818	5874
538.885	5267
538.951	5174
539.018	5234
539.084	5666
539.150	8067
539.217	11463
539.283	4641
539.350	6462
539.416	7609
539.482	8882
539.549	25371
539.615	28315
539.681	5512
539.747	4783
539.814	4759
539.880	7909
539.946	6451
540.012	5432
540.078	6341
540.145	8959
540.211	14148
540.277	27313
540.343	17066
540.409	29328
540.475	34354
540.541	4768
540.607	5187
540.673	4410
540.740	5285
540.806	7138
540.872	7638
540.937	12306
541.004	8609
541.069	5067
541.135	5872
541.201	8093
541.267	7930
541.333	14466
541.399	17248
541.465	7790
541.531	3980
541.597	5097
541.663	4296
541.728	3085
541.794	3795
541.860	4137
541.926	3807
541.992	5419
542.057	4927
542.123	7701
542.189	11103
542.255	23078
542.320	14944
542.386	5390
542.452	4655
542.517	5002
542.583	4192
542.648	6223
542.714	8549
542.780	17639
542.845	44319
542.911	9873
542.976	3834
543.042	4804
543.107	4986
543.173	6922
543.238	7394
543.304	21086
543.369	13298
543.435	4525
543.500	3188
543.566	5075
543.631	3770
543.697	4166
543.762	3101
543.827	4758
543.893	3495
543.958	4735
544.023	3262
544.089	4967
544.154	4967
544.219	4272
544.284	7222
544.350	8773
544.415	10303
544.480	12048
544.545	33729
544.610	20801
544.676	4640
544.741	3929
544.806	3608
544.871	4306
544.936	4434
545.001	5060
545.066	5163
545.132	5629
545.197	5638
545.262	7839
545.327	10895
545.392	22885
545.457	24336
545.522	4925
545.587	4776
545.652	3929
545.717	4525
545.781	4087
545.846	3939
545.911	4673
545.976	5748
546.041	4609
546.106	6948
546.171	9681
546.236	8129
546.300	5559
546.365	3291
546.430	5203
546.495	6361
546.559	6292
546.624	4304
546.689	4907
546.754	4880
546.818	5884
546.883	5011
546.948	5855
547.012	6325
547.077	8728
547.142	7878
547.206	8686
547.271	10586
547.335	9423
547.400	9805
547.464	10801
547.529	12255
547.594	9474
547.658	8302
547.722	8134
547.787	7512
547.852	8735
547.916	9638
547.980	10258
548.045	9557
548.109	8597
548.174	8172
548.238	9371
548.302	6446
548.367	7586
548.431	8907
548.495	8134
548.560	9005
548.624	9472
548.688	11356
548.752	10062
548.817	7307
548.881	9888
548.945	6920
549.009	7566
549.073	7593
549.138	7394
549.202	10234
549.266	8928
549.330	8586
549.394	8889
549.458	9300
549.522	9354
549.586	11580
549.650	12963
549.715	12619
549.779	8983
549.843	10326
549.907	11359
549.971	11469
550.034	10730
550.098	10230
550.162	9234
550.226	10025
550.290	10575
550.354	10484
550.418	12538
550.482	12279
550.546	15299
550.609	13256
550.673	12190
550.737	12270
550.801	13882
550.865	13566
550.928	15173
550.992	16067
551.056	19764
551.120	25933
551.183	25038
551.247	16541
551.311	20933
551.374	15162
551.438	12287
551.502	11163
551.565	8986
551.629	10983
551.692	11628
551.756	8934
551.819	10560
551.883	8728
551.946	9308
552.010	10798
552.073	10136
552.137	10059
552.200	10501
552.264	10792
552.327	8762
552.391	10367
552.454	10847
552.517	10996
552.581	10824
552.644	14403
552.708	20267
552.771	17318
552.834	10955
552.897	9664
552.961	10949
553.024	9236
553.087	9580
553.151	9908
553.214	9094
553.277	10988
553.340	11683
553.403	18648
553.466	15857
553.530	10853
553.593	10270
553.656	10492
553.719	9476
553.782	9604
553.845	9666
553.908	8440
553.971	9874
554.034	9248
554.097	9410
554.160	9870
554.223	10239
554.286	9685
554.349	10108
554.412	8825
554.475	9539
554.538	9529
554.601	9711
554.664	9634
554.727	8314
554.789	8142
554.852	7366
554.915	6788
554.978	9069
555.041	7959
555.104	8178
555.166	8976
555.229	8147
555.292	7066
555.354	8849
555.417	8678
555.480	7681
555.542	6262
555.605	7780
555.668	7985
555.730	6783
555.793	6136
555.856	6881
555.918	6971
555.981	6499
556.043	6243
556.106	7544
556.168	7825
556.231	7823
556.293	7184
556.356	7104
556.418	8853
556.481	7793
556.543	7437
556.606	5867
556.668	7432
556.730	8362
556.793	9047
556.855	12620
556.918	7103
556.980	7153
557.042	7078
557.104	12146
557.167	17258
557.229	7973
557.291	5390
557.354	6478
557.416	6082
557.478	7938
557.540	5866
557.602	3723
557.664	5044
557.727	5960
557.789	5264
557.851	7022
557.913	8111
557.975	13485
558.037	28425
558.099	33532
558.161	7712
558.223	7347
558.285	8487
558.347	10779
558.409	13622
558.471	19304
558.533	37251
558.595	46068
558.657	60126
558.719	167585
558.781	186793
558.843	35949
558.905	39088
558.966	12910
559.028	11242
559.090	14475
559.152	20461
559.214	31827
559.275	73737
559.337	132408
559.399	25423
559.461	11256
559.522	13869
559.584	18901
559.646	28649
559.707	85698
559.769	55023
559.831	12178
559.892	13018
559.954	23179
560.015	41468
560.077	18445
560.139	32147
560.200	26556
560.262	5075
560.323	5256
560.385	3697
560.446	3424
560.508	2859
560.569	3058
560.631	3840
560.692	3614
560.753	3626
560.815	3436
560.876	2939
560.937	3269
560.999	4177
561.060	4554
561.122	4328
561.183	3904
561.244	5778
561.305	7121
561.367	11480
561.428	27500
561.489	16788
561.550	3783
561.612	4784
561.673	3562
561.734	3307
561.795	3576
561.856	2699
561.917	4448
561.978	2350
562.039	2936
562.101	4106
562.162	2635
562.223	3803
562.284	4808
562.345	7037
562.406	3916
562.467	2657
562.528	2614
562.589	2294
562.649	4086
562.710	2406
562.771	3593
562.832	2423
562.893	2944
562.954	3574
563.015	3881
563.076	2138
563.136	3109
563.197	1821
563.258	3914
563.319	2110
563.380	2316
563.440	4562
563.501	3510
563.562	3245
563.622	3945
563.683	2922
563.744	3932
563.804	3041
563.865	2694
563.926	2630
563.986	2570
564.047	2788
564.107	3374
564.168	3303
564.229	4223
564.289	4543
564.350	4087
564.410	2920
564.471	2736
564.531	3308
564.591	2523
564.652	3093
564.712	4016
564.773	3246
564.833	2969
564.893	3313
564.954	3520
565.014	2972
565.074	2504
565.135	3592
565.195	2211
565.255	2458
565.316	2542
565.376	2786
565.436	3535
565.496	2753
565.557	3152
565.617	3257
565.677	3247
565.737	5829
565.797	3936
565.857	3037
565.917	4172
565.978	3745
566.038	3535
566.098	6033
566.158	6883
566.218	3707
566.278	2829
566.338	3127
566.398	2860
566.458	2790
566.518	2956
566.578	2876
566.638	4177
566.698	3495
566.757	3582
566.817	3073
566.877	3611
566.937	3536
566.997	3255
567.057	3217
567.116	3484
567.176	3346
567.236	4388
567.296	4257
567.355	4645
567.415	4745
567.475	3837
567.535	3668
567.594	4011
567.654	3678
567.714	3888
567.773	5627
567.833	4712
567.892	5568
567.952	6904
568.012	9075
568.071	12275
568.131	17896
568.190	20921
568.250	14156
568.309	11503
568.369	9438
568.428	9777
568.488	11701
568.547	14124
568.607	16965
568.666	26386
568.725	37839
568.785	26461
568.844	16877
568.903	11363
568.963	8549
569.022	7973
569.081	5360
569.141	4701
569.200	4162
569.259	4440
569.318	3233
569.378	3036
569.437	2236
569.496	2533
569.555	2357
569.614	3156
569.673	3023
569.732	2858
569.792	2628
569.851	2057
569.910	2750
569.969	3186
570.028	3209
570.087	2471
570.146	2673
570.205	3029
570.264	3772
570.323	2953
570.382	3459
570.441	3971
570.500	3201
570.559	3005
570.618	2042
570.676	3683
570.735	3766
570.794	4813
570.853	3399
570.912	2451
570.971	2828
571.029	2258
571.088	2726
571.147	2469
571.206	3244
571.264	3241
571.323	2174
571.382	3006
571.440	1693
571.499	1551
571.558	2621
571.616	1885
571.675	2566
571.733	2980
571.792	1776
571.851	2489
571.909	2869
571.968	2529
572.026	1639
572.085	1360
572.143	1008
572.202	2150
572.260	2001
572.319	1972
572.377	1783
572.435	2444
572.494	1026
572.552	3204
572.611	2679
572.669	1933
572.727	1250
572.786	2026
572.844	1911
572.902	1973
572.960	1337
573.019	2552
573.077	2205
573.135	2182
573.193	959
573.251	1668
573.310	1892
573.368	1772
573.426	2063
573.484	2356
573.542	431
573.600	1807
573.658	2075
573.716	1782
573.774	2952
573.832	1350
573.891	1967
573.948	1888
574.006	1234
574.064	1286
574.122	1082
574.180	1106
574.238	1667
574.296	1312
574.354	1182
574.412	156
574.470	1561
574.528	692
574.585	988
574.643	1802
574.701	1091
574.759	513
574.817	1321
574.874	1079
574.932	751
574.990	1050
575.047	1973
575.105	1712
575.163	1655
575.221	2365
575.278	596
575.336	2496
575.393	1144
575.451	1601
575.509	1435
575.566	1093
575.624	1270
575.681	1038
575.739	1647
575.796	933
575.854	1324
575.911	1138
575.969	2409
576.026	1396
576.083	1295
576.141	2841
576.198	3358
576.256	2412
576.313	588
576.370	990
576.428	2231
576.485	1339
576.542	1330
576.599	1520
576.657	599
576.714	1138
576.771	837
576.828	1414
576.886	1297
576.943	1436
577.000	816
577.057	1602
577.114	1630
577.171	876
577.228	1668
577.286	1939
577.343	1989
577.400	1425
577.457	1774
577.514	2018
577.571	881
577.628	505
577.685	1585
577.742	2970
577.799	2000
577.855	1398
577.912	888
577.969	1925
578.026	1329
578.083	1958
578.140	1067
578.197	1750
578.254	1696
578.310	1254
578.367	1228
578.424	1059
578.481	850
578.537	1484
578.594	1403
578.651	1172
578.707	367
578.764	618
578.821	1218
578.877	1514
578.934	425
578.991	2232
579.047	1633
579.104	1120
579.160	1242
579.217	638
579.273	1043
579.330	937
579.387	1072
579.443	1664
579.499	710
579.556	1062
579.612	2630
579.669	1856
579.725	1128
579.782	995
579.838	1016
579.894	1107
579.951	1041
580.007	1312
580.063	1564
580.120	1312
580.176	1117
580.232	1585
580.288	1331
580.345	2316
580.401	626
580.457	1558
580.513	2209
580.569	1180
580.619	1300
580.625	1321
580.682	1232
580.692	1279
580.738	1539
580.765	1294
580.794	1043
580.838	1078
580.850	1091
580.906	2195
580.911	2161
580.962	1937
580.984	1722
581.018	1375
581.057	991
581.074	841
581.130	1073
581.130	1075
581.186	549
581.203	754
581.242	1254
581.276	991
581.298	820
581.349	664
581.354	649
581.410	567
581.422	678
581.466	1157
581.494	920
581.522	680
581.567	1451
581.577	1628
581.633	633
581.640	761
581.689	1731
581.713	1247
581.745	601
581.786	909
581.801	997
581.857	679
581.859	681
581.912	801
581.932	810
581.968	883
582.004	921
582.024	908
582.077	-132
582.080	-176
582.135	804
582.150	611
582.191	47
582.223	759
582.247	1282
582.296	699
582.302	628
582.358	1051
582.368	996
582.414	818
582.441	1031
582.469	1210
582.514	1034
582.525	1024
582.581	1334
582.587	1297
582.636	753
582.659	876
582.692	1128
582.732	1219
582.747	1266
582.803	995
582.805	1017
582.858	1502
582.877	1264
582.914	914
582.950	453
582.969	220
583.023	872
583.025	897
583.080	1429
583.095	1269
583.135	939
583.168	744
583.191	588
583.240	529
583.246	506
583.302	526
583.313	588
583.357	952
583.385	698
583.412	390
583.458	869
583.468	974
583.523	829
583.531	860
583.578	1250
583.603	1360
583.634	1402
583.676	1320
583.689	1300
583.744	357
583.748	375
583.799	604
583.820	534
583.854	480
583.893	680
583.910	729
583.965	888
583.965	893
584.020	1460
584.038	1120
584.075	582
584.110	798
584.130	904
584.183	503
584.185	470
584.240	1230
584.255	1041
584.296	704
584.328	939
584.351	1031
584.400	558
584.406	506
584.461	1106
584.472	1023
584.516	751
584.545	1006
584.571	1188
584.617	942
584.626	913
584.681	807
584.689	839
584.736	1187
584.762	1051
584.791	713
584.834	979
584.846	1095
584.900	1218
584.906	1262
584.955	1559
584.978	1618
585.010	1832
585.051	1937
585.065	1888
585.120	1579
585.123	1583
585.175	1872
585.195	2027
585.230	2143
585.267	2610
585.284	2945
585.339	3688
585.340	3692
585.394	4304
585.412	4827
585.449	6422
585.484	7637
585.503	8119
585.556	11286
585.558	11421
585.613	21380
585.628	22651
585.667	26583
585.700	15644
585.722	8522
585.772	5770
585.777	5335
585.831	3310
585.845	2902
585.886	2454
585.917	1538
585.941	987
585.989	1573
585.995	1667
586.050	1193
586.061	1203
586.104	1470
586.133	1944
586.159	2196
586.205	1422
586.213	1264
586.268	1076
586.277	1070
586.322	1371
586.349	1573
586.377	1752
586.421	1796
586.431	1748
586.486	1576
586.493	1688
586.540	2796
586.565	2472
586.595	2063
586.637	2526
586.649	2621
586.703	2231
586.709	2195
586.758	1499
586.781	1248
586.812	1339
586.853	2354
586.866	2567
586.921	2027
586.925	2053
586.975	2747
586.996	2580
587.029	1853
587.068	1471
587.083	1565
587.138	1906
587.140	1932
587.192	2417
587.212	2428
587.246	2295
587.284	2596
587.300	2621
587.355	1986
587.356	1980
587.409	2425
587.427	2693
587.463	3019
587.499	3142
587.517	3196
587.571	2887
587.571	2887
587.625	3374
587.643	3476
587.679	3991
587.715	4210
587.733	4152
587.786	4243
587.787	4244
587.841	4329
587.858	4498
587.895	5150
587.930	5657
587.949	5858
588.001	6209
588.003	6241
588.057	7737
588.073	8158
588.111	9254
588.145	10702
588.165	11467
588.217	12462
588.219	12528
588.273	15701
588.288	16622
588.327	19401
588.360	22561
588.381	24410
588.431	29693
588.435	30039
588.489	39936
588.503	43111
588.542	51000
588.575	60316
588.596	66728
588.646	88681
588.650	90132
588.704	118398
588.718	128424
588.757	156987
588.789	192172
588.811	221679
588.861	346181
588.865	358248
588.919	433905
588.932	408661
588.972	327886
589.004	322379
589.026	256514
589.075	157778
589.080	151931
589.133	87801
589.147	73113
589.187	67685
589.218	66926
589.241	70617
589.290	82527
589.294	83464
589.348	102412
589.361	110082
589.401	135300
589.433	180424
589.455	220545
589.504	292864
589.508	301625
589.562	265692
589.576	274000
589.615	194105
589.647	156156
589.669	119132
589.718	39482
589.722	38116
589.776	21457
589.790	17290
589.829	14228
589.861	11892
589.883	10848
589.932	8860
589.936	8762
589.989	7302
590.004	7025
590.043	6555
590.075	6067
590.096	5816
590.146	5538
590.149	5492
590.203	4475
590.218	4253
590.256	4088
590.289	3846
590.309	3945
590.360	4198
590.362	4182
590.416	4138
590.431	4106
590.469	3751
590.503	3503
590.522	3412
590.574	3094
590.575	3082
590.629	2778
590.645	2727
590.682	2951
590.716	3141
590.735	3068
590.787	2648
590.788	2646
590.841	2856
590.859	2898
590.894	3096
590.930	3294
590.947	3173
591.000	2659
591.001	2656
591.053	2793
591.072	2775
591.106	2598
591.143	2389
591.159	2447
591.212	2763
591.214	2776
591.265	3234
591.285	3412
591.318	3196
591.356	2909
591.371	2869
591.424	2675
591.427	2668
591.477	2575
591.498	2554
591.530	2266
591.569	1895
591.583	2002
591.636	2425
591.640	2463
591.689	2449
591.711	2475
591.741	2627
591.782	2784
591.794	2841
591.847	3125
591.853	3157
591.900	3205
591.924	3241
591.953	3064
591.995	2790
592.005	2792
592.058	2825
592.066	2833
592.111	3055
592.137	3187
592.164	2899
592.208	2418
592.216	2427
592.269	2520
592.279	2542
592.322	2414
592.350	2353
592.374	2387
592.421	2455
592.427	2489
592.479	2837
592.491	2922
592.532	2900
592.562	2878
592.585	2640
592.633	2106
592.704	2477
592.775	2663
592.846	3110
592.916	2302
592.987	2775
593.058	2334
593.128	2162
593.199	3292
593.270	2300
593.341	2080
593.411	2502
593.482	2668
593.553	3003
593.623	3101
593.694	2750
593.764	1758
593.835	2822
593.906	2040
593.976	2620
594.047	2350
594.117	2680
594.188	3553
594.258	3366
594.329	2682
594.399	3253
594.470	2616
594.540	3137
594.611	3371
594.681	2693
594.751	2970
594.822	3239
594.892	3123
594.963	3675
595.033	3033
595.103	2910
595.174	3660
595.244	3319
595.314	3768
595.384	3398
595.455	4271
595.525	3401
595.595	3503
595.665	3817
595.736	3496
595.806	3631
595.876	3907
595.946	3473
596.016	3877
596.087	3380
596.157	2993
596.227	3910
596.297	3458
596.367	4301
596.437	4969
596.507	5022
596.577	4551
596.647	4254
596.717	4818
596.787	5015
596.857	5083
596.927	4797
596.997	4897
597.067	4924
597.137	4484
597.207	5359
597.277	4750
597.347	5147
597.417	5087
597.487	5166
597.557	5201
597.626	4632
597.696	4617
597.766	5244
597.836	4867
597.906	4575
597.975	3994
598.045	3797
598.115	5261
598.185	4282
598.254	6015
598.324	6649
598.394	5780
598.464	5984
598.533	5327
598.603	5092
598.672	5490
598.742	4969
598.812	5599
598.881	4786
598.951	5679
599.020	5327
599.090	5735
599.159	5664
599.229	5126
599.299	6058
599.368	4622
599.437	5293
599.507	5279
599.576	4643
599.646	4953
599.715	5715
599.785	4275
599.854	5139
599.924	4599
599.993	4288
600.062	4717
600.132	4567
600.201	4389
600.270	5391
600.340	5976
600.409	5503
600.478	5403
600.547	4899
600.617	4542
600.686	3940
600.755	3386
600.824	3278
600.894	2961
600.963	3930
601.032	3486
601.101	2872
601.170	3259
601.239	3019
601.308	3557
601.378	2967
601.447	3343
601.516	2820
601.585	2989
601.654	2903
601.723	3350
601.792	3201
601.861	3040
601.930	3313
601.999	3573
602.068	3392
602.137	3406
602.206	3688
602.275	4110
602.343	3651
602.412	3002
602.481	3047
602.550	3703
602.619	3612
602.688	3516
602.756	4068
602.825	4112
602.894	3129
602.963	3207
603.032	4220
603.100	4445
603.169	4015
603.238	4203
603.307	4023
603.375	3524
603.444	4400
603.513	5031
603.581	4139
603.650	4228
603.719	3888
603.787	4657
603.856	4836
603.924	4157
603.993	4412
604.061	4231
604.130	4993
604.198	4802
604.267	5360
604.335	5335
604.404	5238
604.472	4922
604.541	5405
604.609	5399
604.678	5849
604.746	5672
604.815	5433
604.883	5646
604.951	6904
605.020	5081
605.088	6806
605.156	5579
605.225	6214
605.293	5997
605.361	6781
605.429	6196
605.498	6620
605.566	6508
605.634	7497
605.702	7433
605.771	7550
605.839	7535
605.907	7705
605.975	7451
606.043	7529
606.111	7404
606.180	7252
606.248	7296
606.316	7127
606.384	7074
606.452	7259
606.520	6717
606.588	7773
606.656	6982
606.724	7178
606.792	6532
606.860	5829
606.928	5491
606.996	5012
607.064	5014
607.132	5398
607.200	4694
607.267	5429
607.335	5871
607.403	6355
607.471	4906
607.539	5173
607.607	6112
607.674	4924
607.742	3934
607.810	4406
607.878	4141
607.946	4694
608.013	5137
608.081	4724
608.149	4774
608.216	4470
608.284	5614
608.352	5792
608.419	4870
608.487	5881
608.555	4828
608.622	5928
608.690	5627
608.757	6398
608.825	6444
608.893	5876
608.960	5726
609.028	5951
609.095	6256
609.163	5473
609.230	4234
609.298	4581
609.365	4974
609.432	4929
609.500	5736
609.567	6262
609.635	7473
609.702	8924
609.769	7613
609.837	6899
609.904	4983
609.971	3678
610.039	5093
610.106	5763
610.173	7247
610.241	13667
610.308	10753
610.375	5612
610.442	4853
610.509	4474
610.577	5527
610.644	4436
610.711	5652
610.778	5798
610.845	5048
610.912	6412
610.980	5716
611.047	5815
611.114	6689
611.181	5357
611.248	5128
611.315	6609
611.382	6150
611.449	6364
611.516	6919
611.583	6301
611.650	6112
611.717	6911
611.784	6795
611.851	7224
611.918	6975
611.984	7558
612.051	9706
612.118	15072
612.185	25715
612.252	21758
612.319	8419
612.386	8089
612.452	7681
612.519	7494
612.586	7050
612.653	7886
612.719	8210
612.786	7915
612.853	6276
612.919	7037
612.986	7459
613.053	5556
613.120	5555
613.186	5093
613.253	7239
613.319	5769
613.386	5309
613.453	5722
613.519	5635
613.586	5480
613.652	6652
613.719	6213
613.785	5854
613.852	5931
613.918	5868
613.985	5732
614.051	6160
614.118	6594
614.184	5813
614.250	6152
614.317	5563
614.383	5212
614.449	5833
614.516	5647
614.582	5855
614.648	5487
614.715	5200
614.781	5601
614.847	6093
614.914	5408
614.980	4889
615.046	5798
615.112	5739
615.179	5701
615.245	5713
615.311	5994
615.377	6410
615.443	5821
615.509	5000
615.575	6073
615.642	5576
615.708	5541
615.774	6050
615.840	6258
615.906	6982
615.972	7925
616.038	11478
616.104	17831
616.170	30714
616.236	31001
616.302	9495
616.368	6793
616.434	5617
616.500	6718
616.565	6398
616.631	7165
616.697	5652
616.763	6360
616.829	6972
616.895	9993
616.961	8907
617.026	5676
617.092	5410
617.158	5884
617.224	4928
617.289	3847
617.355	4590
617.421	4752
617.487	5179
617.552	4400
617.618	3552
617.684	3488
617.749	5471
617.815	4208
617.880	3257
617.946	4116
618.012	4046
618.077	4259
618.143	3809
618.208	4643
618.274	3532
618.339	4278
618.405	2452
618.470	3129
618.536	3132
618.601	3366
618.667	2901
618.732	2776
618.798	2165
618.863	2401
618.928	2459
618.994	2763
619.059	3769
619.124	2632
619.190	1870
619.255	2565
619.320	1976
619.386	3160
619.451	2221
619.516	2705
619.581	2214
619.647	2408
619.712	2936
619.777	3114
619.842	2264
619.907	3280
619.972	2909
620.038	2369
620.103	1899
620.168	1969
620.233	2644
620.298	1791
620.363	1872
620.428	2743
620.493	2541
620.558	3410
620.623	3154
620.688	2365
620.753	2251
620.818	2701
620.883	2211
620.948	3192
621.013	2243
621.078	2448
621.143	2144
621.207	3823
621.272	2909
621.337	2453
621.402	3144
621.467	2542
621.532	1548
621.596	2351
621.661	2770
621.726	1731
621.791	1932
621.855	2584
621.920	1631
621.985	2301
622.049	1700
622.114	2659
622.179	2184
622.243	1820
622.308	2589
622.373	3408
622.437	2697
622.502	2052
622.566	2239
622.631	2473
622.695	2630
622.760	2452
622.824	2280
622.889	2714
622.953	1712
623.018	4020
623.082	2109
623.147	3172
623.211	3252
623.276	2427
623.340	2479
623.404	2670
623.469	2499
623.533	2375
623.597	2608
623.662	2501
623.726	1811
623.790	1675
623.854	1172
623.919	1374
623.983	2120
624.047	1775
624.111	2361
624.176	1512
624.240	1370
624.304	2265
624.368	1837
624.432	2379
624.496	2224
624.560	2263
624.625	1701
624.689	2079
624.753	2156
624.817	2321
624.881	2249
624.945	1331
625.009	1613
625.073	2229
625.137	1621
625.201	2068
625.265	1696
625.329	2416
625.393	1730
625.456	2232
625.520	2698
625.584	1911
625.648	1906
625.712	2103
625.776	1806
625.839	2968
625.903	1280
625.967	1071
626.031	2347
626.095	2288
626.158	1932
626.222	551
626.286	885
626.349	536
626.413	677
626.477	2085
626.540	1059
626.604	900
626.668	1030
626.731	1378
626.795	625
626.858	1025
626.922	665
626.986	788
627.049	-471
627.113	676
627.176	1216
627.240	999
627.303	944
627.366	870
627.430	1216
627.493	1565
627.557	-126
627.620	769
627.684	524
627.747	861
627.810	217
627.874	511
627.937	-398
628.000	1530
628.064	1004
628.127	-128
628.190	186
628.253	440
628.317	150
628.380	386
628.443	143
628.506	834
628.569	-325
628.632	-27
628.696	405
628.759	211
628.822	-314
628.885	-448
628.948	113
629.011	338
629.074	366
629.137	292
629.200	-455
629.263	-230
629.326	-532
629.389	584
629.452	-224
629.515	-85
629.578	-581
629.641	287
629.704	-769
629.767	-207
629.830	422
629.892	19
629.955	98
630.018	1255
630.081	-220
630.144	207
630.207	-350
630.269	460
630.332	-181
630.395	437
630.458	823
630.520	502
630.583	208
630.646	-123
630.708	-647
630.771	-730
630.834	495
630.896	-282
630.959	-866
631.021	-98
631.084	-609
631.146	-109
631.209	-248
631.272	-465
631.334	46
631.397	-344
631.459	-28
631.522	-376
631.584	-476
631.646	67
631.709	457
631.771	-700
631.834	-124
631.896	54
631.958	-658
632.021	781
632.083	-302
632.145	347
632.208	71
632.270	812
632.332	-663
632.395	-1092
632.457	-36
632.519	230
632.581	139
632.643	-951
632.706	-212
632.768	-371
632.830	0
632.892	7
632.954	-213
633.016	80
633.078	24
633.141	197
633.203	-468
633.265	-708
633.327	265
633.389	174
633.451	-855
633.513	410
633.575	-427
633.637	-509
633.698	-643
633.760	-120
633.822	191
633.884	-768
633.946	-642
634.008	-694
634.070	23
634.132	-725
634.193	-1242
634.255	264
634.317	-211
634.379	-303
634.441	-694
634.502	-233
634.564	-67
634.626	-587
634.687	-691
634.749	-61
634.811	-32
634.873	-426
634.934	-570
634.996	-461
635.057	-686
635.119	-764
635.181	-513
635.242	-378
635.304	-1375
635.365	1496
635.427	-504
635.488	-58
635.550	-813
635.611	-828
635.673	-1517
635.734	562
635.796	-867
635.857	251
635.918	-809
635.980	-12
636.041	-773
636.102	-465
636.164	-454
636.225	-512
636.286	-566
636.348	328
636.409	-187
636.470	-927
636.531	-561
636.593	-1205
636.654	-1032
636.715	-552
636.776	-1285
636.838	-532
636.899	-58
636.960	-465
637.021	-118
637.082	-788
637.143	-384
637.204	-1379
637.265	-678
637.326	24
637.387	-749
637.448	-1113
637.509	-949
637.570	-174
637.631	-998
637.692	-775
637.753	-910
637.814	-974
637.875	-1474
637.936	547
637.997	-976
638.058	-408
638.119	-457
638.179	-1275
638.240	-1635
638.301	-831
638.362	-399
638.423	-441
638.483	54
638.544	-1690
638.605	-295
638.666	-2027
638.726	185
638.787	-906
638.848	-346
638.908	-814
638.969	-994
639.030	-267
639.090	-465
639.151	-1099
639.211	-826
639.272	-90
639.332	-659
639.393	-585
639.453	-1201
639.514	-1468
639.574	-1114
639.635	-399
639.695	91
639.756	-1259
639.816	-350
639.877	-1474
639.937	-487
639.997	-532
640.058	-1086
640.118	-1180
640.178	-150
640.239	-864
640.299	-1401
640.359	-1008
640.420	-502
640.480	-280
640.540	-910
640.600	-720
640.661	-327
640.721	-1662
640.781	-758
640.841	-1820
640.901	-162
640.961	-529
641.021	-818
641.082	-1280
641.142	-1190
641.202	-60
641.262	-1189
641.322	645
641.382	-1541
641.442	-466
641.502	-1617
641.562	-1351
641.622	-738
641.682	-701
641.742	-1607
641.802	-360
641.861	-801
641.921	-1093
641.981	-842
642.041	-815
642.101	-1201
642.161	-1340
642.221	-919
642.280	-776
642.340	-1069
642.400	-1729
642.460	-856
642.519	-1331
642.579	-1240
642.639	-282
642.698	-2178
642.758	616
642.818	-1709
642.877	-1397
642.937	-1027
642.997	-1119
643.056	-1015
643.116	-2081
643.175	63
643.235	-1209
643.294	-919
643.354	-1155
643.414	-449
643.473	-881
643.532	-1085
643.592	-1018
643.651	70
643.711	1759
643.770	2721
643.830	5401
643.889	9900
643.948	3447
644.008	-270
644.067	-1057
644.126	-1184
644.186	-1078
644.245	-30
644.304	-1147
644.363	-31
644.423	-1825
644.482	-875
644.541	-1163
644.600	-1831
644.659	-421
644.719	-1789
644.778	-811
644.837	-1375
644.896	738
644.955	588
645.014	189
645.073	-890
645.132	-814
645.191	64
645.250	-1805
645.309	-234
645.368	-1356
645.427	-270
645.486	-1883
645.545	-510
645.604	-1526
645.663	-686
645.722	-994
645.781	-111
645.840	-791
645.898	-1367
645.957	-33
646.016	-1395
646.075	843
646.134	1091
646.192	3840
646.251	6332
646.310	73
646.369	-1513
646.427	-375
646.486	-1748
646.545	-1134
646.603	-517
646.662	-1569
646.721	-1496
646.779	-1732
646.838	-1353
646.896	-519
646.955	-526
647.014	-477
647.072	-964
647.131	630
647.189	-750
647.248	-1671
647.306	-633
647.365	157
647.423	-2287
647.481	684
647.540	-1750
647.598	-153
647.657	-430
647.715	-26
647.773	-856
647.832	-1218
647.890	-1389
647.948	-518
648.007	-431
648.065	-468
648.123	-1325
648.181	-156
648.240	-1139
648.298	-1929
648.356	-1390
648.414	-599
648.472	-656
648.531	-1134
648.589	-1068
648.647	-1072
648.705	-1583
648.763	-1258
648.821	-756
648.879	-989
648.937	-865
648.995	-1323
649.053	-1238
649.111	-1081
649.169	-4
649.227	-49
649.285	736
649.343	2584
649.401	1648
649.459	268
649.516	-64
649.574	-1927
649.632	-195
649.690	-719
649.748	-60
649.806	-1927
649.863	-424
649.921	569
649.979	-1424
650.037	-911
650.094	-1831
650.152	-337
650.210	-1338
650.268	-432
650.325	-1038
650.383	-1345
650.440	-1616
650.498	-620
650.556	-710
650.613	-1155
650.671	-828
650.728	-1071
650.786	-1121
650.843	-1718
650.901	-2522
650.958	-1242
651.016	-1022
651.073	-1505
651.131	-1062
651.188	-1428
651.246	-580
651.303	-1696
651.360	-1103
651.418	-1720
651.475	-680
651.532	-1590
651.590	-914
651.647	-1468
651.704	-1085
651.762	-1373
651.819	-1314
651.876	-1350
651.933	-1017
651.990	-532
652.048	-2093
652.105	-925
652.162	-754
652.219	-1022
652.276	-755
652.333	-1270
652.390	-2753
652.448	-1295
652.505	-842
652.562	-1023
652.619	-1638
652.676	-911
652.733	-471
652.790	-1772
652.847	-2437
652.904	-465
652.961	-2412
653.017	-1358
653.074	-5
653.131	-1266
653.188	-2359
653.245	-1159
653.302	-556
653.359	-1913
653.415	-531
653.472	-1308
653.529	-839
653.586	-1363
653.642	-2130
653.699	-805
653.756	-1647
653.813	-1559
653.869	-1692
653.926	-1690
653.983	-1613
654.039	-623
654.096	-2089
654.152	-617
654.209	-2155
654.266	-862
654.322	-1891
654.379	-1143
654.435	-1112
654.492	-1403
654.548	-1807
654.605	-1293
654.661	-1089
654.717	-1773
654.774	-1053
654.830	-1332
654.887	-1627
654.943	-1985
655.000	-1271
655.056	-1348
655.112	-1718
655.168	-1802
655.225	-1161
655.281	-1448
655.337	-1432
655.394	-1967
655.450	-1637
655.506	-1688
655.562	-2103
655.618	-1121
655.675	-2169
655.731	-1753
655.787	-1869
655.843	-1174
655.899	-2185
655.955	-1185
656.011	-1723
656.067	-2941
656.123	-1301
656.179	-1045
656.235	-1321
656.291	-2350
656.347	-890
656.403	-2412
656.459	-2218
656.515	-1943
656.571	-1357
656.627	-1105
656.683	-1022
656.739	-969
656.795	-1635
656.850	-839
656.906	-1416
656.962	-883
657.018	-1347
657.074	-798
657.129	-1821
657.185	-1435
657.241	-1344
657.297	-1891
657.352	-547
657.408	-1965
657.464	-1277
657.519	-2172
657.575	-2286
657.630	-644
657.686	-1379
657.742	-1736
657.797	-1710
657.853	-2230
657.908	-1298
657.964	-2383
658.019	-1857
658.075	-1210
658.130	-1920
658.186	-1591
658.241	-1121
658.297	-2151
658.352	-2027
658.407	-1001
658.463	-1209
658.518	-1035
658.573	-997
658.629	-1366
658.684	-1179
658.739	-954
658.795	-2086
658.850	-938
658.905	-1610
658.960	-631
659.016	-2447
659.071	-1350
659.126	-1577
659.181	-1840
659.236	-880
659.291	-211
659.346	-1704
659.401	-1623
659.457	-976
659.512	-998
659.567	-885
659.622	-1483
659.677	-1771
659.732	-1975
659.787	-1397
659.842	-1674
659.897	-1731
659.952	-1376
660.007	-1029
660.061	-906
660.116	-1887
660.171	-1672
660.226	-2006
660.281	-857
660.336	-2059
660.391	-868
660.445	-2257
660.500	-945
660.555	-1533
660.610	-2194
660.664	-1872
660.719	-1281
660.774	-1105
660.828	-1590
660.883	-544
660.938	-1511
660.992	-2047
661.047	-1242
661.101	-1375
661.156	-542
661.211	-2288
661.265	-1132
661.320	-1926
661.374	-1396
661.429	-2003
661.483	-933
661.538	-2128
661.592	-1911
661.647	-1653
661.701	-459
661.755	-1168
661.810	-1428
661.864	-1000
661.919	-1329
661.973	-1304
662.027	-2181
662.081	-2076
662.136	-1601
662.190	-1478
662.244	-587
662.299	-2169
662.353	-1468
662.407	-1635
662.461	-1398
662.515	-1707
662.569	-2327
662.624	-450
662.678	-2056
662.732	-1417
662.786	-1805
662.840	-1143
662.894	-1046
662.948	-1294
663.002	-2290
663.056	-1062
663.110	-1660
663.164	-1689
663.218	-2008
663.272	-1480
663.326	-1694
663.380	-1060
663.434	-1102
663.488	-2277
663.542	-1379
663.595	-827
663.649	-2264
663.703	-1354
663.757	-879
663.811	-1829
663.864	-2358
663.918	-781
663.972	-1182
664.026	-850
664.079	-1928
664.133	-856
664.187	-1230
664.240	-1201
664.294	-1439
664.348	-1434
664.401	-1565
664.455	-523
664.508	-1576
664.562	-1117
664.615	-1533
664.669	-1670
664.722	-1200
664.776	-1636
664.829	-838
664.883	-1788
664.936	-2025
664.990	-1468
665.043	-1215
665.097	-2105
665.150	-2090
665.203	-2227
665.257	-1300
665.310	-1311
665.363	-1359
665.417	-1880
665.470	-2048
665.523	-2195
665.576	-1563
665.630	-1573
665.683	-1647
665.736	-1305
665.789	-1617
665.842	-1567
665.895	-1560
665.949	-1272
666.002	-1475
666.055	-1539
666.108	-1088
666.161	-1127
666.214	-1456
666.267	-1179
666.320	-1507
666.373	-975
666.426	-1430
666.479	-1674
666.532	-1649
666.585	-1885
666.638	-812
666.691	-1909
666.744	-1438
666.796	-1764
666.849	-1683
666.902	-837
666.955	-1223
667.008	-2045
667.060	-1670
667.113	-2166
667.166	-1151
667.219	-1728
667.271	-1205
667.324	-1417
667.377	-1520
667.430	-792
667.482	-2003
667.535	-1676
667.587	-842
667.640	-1338
667.693	-1111
667.745	-2170
667.798	-753
667.850	-993
667.903	-926
667.955	-1917
668.008	-1559
668.060	-1262
668.113	-1720
668.165	-781
668.218	-1472
668.270	-1312
668.322	-2247
668.375	-2367
668.427	-1050
668.479	-1565
668.532	-1711
668.584	-1542
668.636	-1747
668.689	-725
668.741	-1123
668.793	-1166
668.845	-1968
668.898	-995
668.950	-864
669.002	-1809
669.054	-1843
669.106	-2353
669.158	-1067
669.211	-1475
669.263	-1464
669.315	-1425
669.367	-1681
669.419	-2103
669.471	-771
669.523	-1892
669.575	-1243
669.627	-1221
669.679	-1213
669.731	-1915
669.783	-1809
669.835	-1329
669.886	-2068
669.938	-2040
669.990	-1486
670.042	-1397
670.094	-1641
670.146	-2256
670.197	-2433
670.249	-1264
670.301	-2191
670.353	-1377
670.404	-1592
670.456	-2139
670.508	-1409
670.560	-224
670.611	459
670.663	892
670.715	3331
670.766	4549
670.818	1390
670.869	-1389
670.921	-1297
670.972	-1849
671.024	-1810
671.075	-1714
671.127	-1136
671.178	-1830
671.230	-1242
671.281	-1621
671.333	-1701
671.384	-1862
671.436	-2706
671.487	-1425
671.538	-1277
671.590	-1521
671.641	-1741
671.692	-1653
671.744	-1367
671.795	-890
671.846	-1338
671.897	-2105
671.949	-1815
672.000	-1661
672.051	-1599
672.102	-900
672.153	-2578
672.204	-1788
672.256	-1890
672.307	-2139
672.358	-2165
672.409	-1874
672.460	-2148
672.511	-2295
672.562	-1806
672.613	-1809
672.664	-2308
672.715	-1744
672.766	-1679
672.817	-1541
672.868	-1607
672.919	-2240
672.970	-1758
673.021	-1877
673.071	-1630
673.122	-1022
673.173	-2003
673.224	-1898
673.275	-2008
673.326	-1998
673.376	-1175
673.427	-2170
673.478	-1990
673.528	-1429
673.579	-2246
673.630	-2261
673.680	-1215
673.731	-2002
673.782	-1972
673.832	-1777
673.883	-1309
673.934	-2246
673.984	-1732
674.035	-1910
674.085	-1316
674.136	-2273
674.186	-1633
674.237	-1385
674.287	-1949
674.338	-1853
674.388	-1857
674.438	-2614
674.489	-1810
674.539	-1887
674.589	-2079
674.640	-1527
674.690	-2011
674.740	-2458
674.791	-1839
674.841	-1911
674.891	-2074
674.942	-1835
674.992	-1912
675.042	-1543
675.092	-1902
675.142	-2372
675.193	-2103
675.243	-2092
675.293	-1342
675.343	-2058
675.393	-1983
675.443	-2167
675.493	-1539
675.543	-2512
675.593	-1102
675.643	-1859
675.693	-928
675.743	-1976
675.793	-1269
675.843	-1680
675.893	-1771
675.943	-1807
675.993	-1269
676.043	-2277
676.093	-1586
676.142	-1880
676.192	-2332
676.242	-1843
676.292	-2107
676.341	-2263
676.391	-1977
676.441	-1526
676.491	-2224
676.540	-1806
676.590	-1914
676.640	-1632
676.689	-1764
676.739	-2473
676.789	-2093
676.838	-1983
676.888	-1803
676.937	-1921
676.987	-1440
677.037	-1867
677.086	-1966
677.136	-1857
677.185	-1750
677.235	-1984
677.284	-1792
677.333	-1650
677.383	-2400
677.432	-2404
677.482	-1657
677.531	-1354
677.580	-1984
677.630	-1978
677.679	-2175
677.728	-2541
677.778	-1739
677.827	-1270
677.876	-2046
677.925	-1940
677.975	-1769
678.024	-607
678.073	-1994
678.122	-2165
678.171	-2092
678.220	-1370
678.269	-2002
678.319	-1791
678.368	-2230
678.417	-2341
678.466	-1841
678.515	-1697
678.564	-1466
678.613	-2251
678.662	-1997
678.711	-1740
678.760	-1844
678.809	-2118
678.857	-2170
678.906	-2106
678.955	-1614
679.004	-1568
679.053	-2056
679.102	-2412
679.151	-2153
679.199	-1979
679.248	-1808
679.297	-1797
679.346	-2704
679.394	-1894
679.443	-2013
679.492	-2206
679.540	-1679
679.589	-2076
679.638	-1556
679.686	-1587
679.735	-2139
679.784	-2399
679.832	-2046
679.881	-2394
679.929	-1687
679.978	-1719
680.026	-1831
680.075	-1837
680.123	-1603
680.172	-2743
680.220	-1968
680.268	-1888
680.317	-1453
680.365	-1859
680.414	-1848
680.462	-1753
680.510	-1789
680.559	-1963
680.607	-1264
680.655	-1026
680.703	-1389
680.752	-3063
680.800	-2276
680.848	-1270
680.896	-1686
680.945	-1156
680.993	-1769
681.041	-2154
681.089	-1680
681.137	-1895
681.185	-1799
681.233	-1771
681.281	-1376
681.308	-1602
681.329	-1787
681.377	-1511
681.425	-1515
681.430	-1502
681.473	-1452
681.521	-1902
681.552	-1845
681.569	-1825
681.617	-2269
681.665	-1880
681.674	-1782
681.713	-1351
681.761	-1891
681.796	-2038
681.809	-2107
681.857	-1391
681.904	-1620
681.918	-1577
681.952	-1477
682.000	-2294
682.039	-1856
682.048	-1768
682.096	-1622
682.143	-2263
682.161	-1916
682.191	-1364
682.239	-1498
682.283	-1360
682.286	-1354
682.334	-1883
682.382	-2093
682.405	-2206
682.430	-2329
682.477	-1902
682.525	-1200
682.527	-1226
682.572	-1932
682.620	-952
682.648	-1344
682.667	-1606
682.715	-1853
682.763	-1296
682.770	-1314
682.810	-1436
682.857	-2178
682.892	-1863
682.905	-1750
682.952	-1386
683.000	-1310
683.014	-1230
683.047	-1085
683.095	-858
683.135	-1700
683.142	-1827
683.190	-1254
683.237	-1513
683.257	-1281
683.284	-1020
683.332	-1532
683.379	-950
683.379	-949
683.426	-1341
683.473	-1191
683.501	-1445
683.521	-1659
683.568	-1783
683.615	-1261
683.622	-1402
683.662	-2177
683.709	-1690
683.744	-1608
683.757	-1580
683.804	-1312
683.851	-1511
683.865	-1304
683.898	-862
683.945	-1096
683.987	-1119
683.992	-1130
684.039	-933
684.086	-1139
684.109	-1263
684.133	-1328
684.180	-1675
684.227	-1453
684.230	-1427
684.274	-1144
684.321	-779
684.352	-1016
684.368	-1141
684.415	-1222
684.462	-1195
684.473	-1330
684.509	-1816
684.556	-975
684.595	-1073
684.603	-1071
684.649	-1152
684.696	-1029
684.716	-956
684.743	-935
684.790	-1415
684.837	-1561
684.838	-1556
684.883	-1297
684.930	-1088
684.959	-974
684.977	-916
685.023	-835
685.070	-1478
685.081	-1448
685.117	-1390
685.164	-1210
685.202	-1504
685.210	-1542
685.257	-1211
685.303	-1018
685.324	-1017
685.350	-1006
685.396	-1226
685.443	-1264
685.445	-1240
685.490	-779
685.536	-886
685.566	-1117
685.583	-1219
685.629	-686
685.675	-1168
685.688	-1076
685.722	-903
685.768	-810
685.809	-1122
685.815	-1145
685.861	-1186
685.908	-613
685.930	-771
685.954	-992
686.000	-437
686.047	-972
686.052	-1017
686.093	-1204
686.139	-757
686.173	-600
686.185	-582
686.232	-881
686.278	-719
686.294	-580
686.324	-281
686.370	-1240
686.416	-639
686.416	-624
686.463	-778
686.509	-1037
686.537	-947
686.555	-898
686.601	-943
686.647	-754
686.658	-843
686.693	-1128
686.739	-1017
686.779	-898
686.785	-870
686.831	-1033
686.877	-886
686.900	-938
686.923	-1006
686.969	-710
687.015	-971
687.022	-962
687.061	-716
687.107	-850
687.143	-470
687.153	-422
687.199	-223
687.245	-470
687.264	-780
687.291	-1093
687.336	-513
687.382	-630
687.385	-640
687.428	-647
687.474	-655
687.506	-449
687.520	-437
687.565	-555
687.611	-1303
687.627	-1096
687.657	-544
687.702	-774
687.748	-567
687.748	-571
687.794	-126
687.839	-53
687.869	-202
687.885	-406
687.931	-332
687.976	-400
687.990	-439
688.022	-422
688.067	-711
688.111	-885
688.113	-880
688.158	-507
688.204	-779
688.233	-350
688.249	-131
688.295	-448
688.340	-813
688.354	-723
688.386	-482
688.431	-683
688.474	-710
688.477	-701
688.522	-769
688.567	-186
688.595	-508
688.613	-717
688.658	-192
688.703	-152
688.716	-213
688.749	-224
688.794	-175
688.837	160
688.839	169
688.884	-264
688.930	-111
688.958	-375
688.975	-399
689.020	-407
689.065	-434
689.079	-415
689.110	-467
689.155	-88
689.200	-223
689.201	-216
689.246	-149
689.291	-151
689.321	-9
689.336	54
689.381	-115
689.426	-59
689.442	-33
689.471	-22
689.516	-482
689.561	-602
689.562	-620
689.606	-748
689.651	-548
689.683	-775
689.696	-811
689.741	-178
689.785	28
689.804	19
689.830	-110
689.875	180
689.920	137
689.925	82
689.965	-161
690.010	-268
690.046	-267
690.054	-289
690.099	489
690.144	-54
690.166	-150
690.189	-201
690.233	-306
690.278	-195
690.287	-150
690.323	244
690.367	207
690.408	185
690.412	163
690.457	-37
690.501	99
690.528	9
690.546	-9
690.590	-85
690.635	-445
690.649	-425
690.680	-228
690.724	-173
690.769	-88
690.770	-97
690.813	-171
690.857	116
690.890	-124
690.902	-193
690.946	-2
690.991	-248
691.011	-164
691.035	75
691.080	516
691.124	195
691.132	269
691.168	544
691.213	390
691.252	773
691.257	823
691.301	620
691.346	218
691.373	328
691.390	403
691.434	80
691.478	161
691.493	146
691.522	137
691.567	-13
691.611	67
691.614	29
691.655	-30
691.699	381
691.734	305
691.743	239
691.787	364
691.831	384
691.855	349
691.875	372
691.919	418
691.964	353
691.975	353
692.008	274
692.052	37
692.096	-137
692.096	-148
692.139	606
692.183	737
692.216	1042
692.227	1031
692.271	737
692.315	419
692.337	536
692.359	825
692.403	624
692.447	886
692.457	853
692.490	632
692.534	538
692.577	365
692.578	377
692.622	527
692.666	282
692.698	271
692.709	301
692.753	136
692.797	158
692.818	236
692.840	410
692.884	562
692.928	615
692.938	734
692.971	991
693.015	625
693.059	559
693.059	545
693.102	668
693.146	712
693.179	492
693.189	414
693.233	373
693.276	726
693.299	422
693.320	333
693.363	730
693.407	554
693.420	683
693.450	799
693.493	977
693.537	533
693.540	515
693.580	703
693.624	943
693.660	828
693.667	821
693.710	1086
693.753	1147
693.780	1065
693.797	1127
693.840	1646
693.883	1861
693.901	1883
693.926	1494
693.970	1388
694.013	631
694.021	551
694.056	789
694.099	896
694.141	875
694.142	885
694.185	1011
694.229	817
694.261	624
694.272	625
694.315	1020
694.358	1054
694.381	1103
694.401	1016
694.444	614
694.487	363
694.501	285
694.530	544
694.573	739
694.616	1037
694.621	1070
694.659	908
694.702	562
694.741	327
694.745	372
694.787	961
694.830	1096
694.862	1309
694.873	1239
694.916	1012
694.959	875
694.982	693
695.002	737
695.044	803
695.087	997
695.102	967
695.130	814
695.172	830
695.215	723
695.222	712
695.258	1009
695.301	1077
695.342	1134
695.343	1148
695.386	1172
695.428	1275
695.462	1172
695.471	1185
695.514	1273
695.556	1333
695.582	1325
695.599	1258
695.641	1145
695.684	1078
695.701	1007
695.726	1057
695.769	1021
695.811	1120
695.821	1082
695.854	868
695.896	737
695.938	576
695.941	548
695.981	700
696.023	932
696.061	1067
696.065	1071
696.108	909
696.150	753
696.181	643
696.192	705
696.235	884
696.277	1057
696.301	1143
696.319	1156
696.361	1268
696.404	1147
696.421	1118
696.446	1186
696.488	1418
696.530	1280
696.541	1326
696.572	1545
696.614	1544
696.656	1573
696.660	1566
696.698	1413
696.740	1040
696.780	854
696.783	878
696.825	974
696.867	1102
696.900	1035
696.909	1071
696.951	1248
696.992	1492
697.020	1586
697.034	1546
697.076	1410
697.118	1184
697.139	1124
697.160	1220
697.202	1418
697.244	1459
697.259	1468
697.286	1571
697.327	1680
697.369	1893
697.379	1896
697.411	1719
697.453	1526
697.494	1299
697.499	1259
697.536	1341
697.578	1404
697.618	1463
697.620	1484
697.661	1496
697.703	1474
697.738	1437
697.744	1471
697.786	1628
697.828	1694
697.858	1733
697.869	1823
697.911	2070
697.952	2338
697.977	2465
697.994	2368
698.035	2077
698.077	1759
698.097	1594
698.118	1619
698.160	1650
698.201	1644
698.216	1621
698.243	1675
698.284	1748
698.325	1836
698.336	1831
698.367	1871
698.408	1909
698.449	1937
698.455	1919
698.491	1708
698.532	1433
698.573	1180
698.575	1153
698.614	1779
698.656	2441
698.694	3034
698.697	3040
698.738	2662
698.779	2283
698.814	1934
698.820	1949
698.862	1911
698.903	1885
698.933	1840
698.944	1955
698.985	2343
699.026	2729
699.053	2964
699.067	2819
699.172	1571
699.292	2114
699.411	2443
699.530	1482
699.650	1678
699.769	2160
699.889	2321
700.008	1856
700.127	2764
700.246	1129
700.366	2049
700.485	1765
700.604	1558
700.723	1491
700.843	1330
700.962	1991
701.081	2414
701.200	1612
701.319	1592
701.438	1362
701.557	2448
701.676	2543
701.796	2088
701.915	1706
702.034	2120
702.153	1442
702.272	2095
702.391	1836
702.509	1334
702.628	2051
702.747	2089
702.866	1831
702.985	870
703.104	2014
703.223	2440
703.342	1999
703.460	1756
703.579	1964
703.698	2234
703.817	1387
703.935	2354
704.054	1809
704.173	1755
704.292	1572
704.410	1397
704.529	1779
704.648	1208
704.766	951
704.885	1230
705.003	1025
705.122	1603
705.240	1187
705.359	1412
705.477	2256
705.596	1608
705.714	1650
705.833	1136
705.951	1778
706.070	3523
706.188	847
706.307	1446
706.425	2238
706.543	1759
706.662	1460
706.780	1607
706.898	1919
707.016	2027
707.135	851
707.253	1257
707.371	1753
707.489	1458
707.608	1364
707.726	687
707.844	1766
707.962	1512
708.080	1334
708.198	1442
708.316	1091
708.434	1435
708.552	1601
708.670	1996
708.788	1496
708.906	1673
709.024	1020
709.142	1785
709.260	1711
709.378	1692
709.496	1765
709.614	1598
709.732	1577
709.850	2619
709.968	833
710.085	1338
710.203	1644
710.321	1437
710.439	1603
710.556	2047
710.674	1606
710.792	2091
710.910	1638
711.027	1904
711.145	1556
711.263	1668
711.380	1680
711.498	1123
711.615	2031
711.733	688
711.851	1373
711.968	497
712.086	1401
712.203	2274
712.321	1144
712.438	2243
712.555	2088
712.673	2358
712.790	1456
712.908	1945
713.025	854
713.142	2278
713.260	1584
713.377	1447
713.494	1868
713.612	2067
713.729	1634
713.846	1433
713.963	1995
714.081	1866
714.198	1130
714.315	1865
714.432	2739
714.549	4275
714.666	9056
714.783	48910
714.901	107904
715.018	8209
715.135	1753
715.252	1533
715.369	1616
715.486	904
715.603	1563
715.720	1597
715.837	1946
715.953	1704
716.070	1715
716.187	1556
716.304	1480
716.421	1826
716.538	1561
716.655	1191
716.771	1168
716.888	1677
717.005	1186
717.122	1186
717.238	1300
717.355	578
717.472	850
717.589	1128
717.705	978
717.822	1274
717.938	842
718.055	1084
718.172	427
718.288	1224
718.405	927
718.521	884
718.638	1043
718.754	2259
718.871	1493
718.987	1020
719.104	1414
719.220	1356
719.336	1059
719.453	1409
719.569	1064
719.685	669
719.802	686
719.918	1433
720.034	2845
720.151	10159
720.267	43395
720.383	9859
720.499	1905
720.616	1487
720.732	1548
720.848	1777
720.964	2402
721.080	1086
721.196	828
721.312	1149
721.428	996
721.544	816
721.660	1050
721.776	1564
721.892	404
722.008	1120
722.124	297
722.240	525
722.356	1144
722.472	914
722.588	471
722.704	810
722.820	47
722.936	169
723.051	263
723.167	781
723.283	416
723.399	1335
723.515	660
723.630	1103
723.746	254
723.862	838
723.977	-137
724.093	641
724.209	346
724.324	335
724.440	583
724.555	983
724.671	-10
724.786	362
724.902	-63
725.017	-4
725.133	957
725.248	1555
725.364	976
725.479	511
725.595	388
725.710	279
725.826	378
725.941	599
726.056	-58
726.172	310
726.287	780
726.402	735
726.517	119
726.633	862
726.748	91
726.863	341
726.978	1067
727.093	348
727.208	82
727.324	-44
727.439	-141
727.554	969
727.669	490
727.784	-121
727.899	-227
728.014	989
728.129	134
728.244	278
728.359	460
728.474	1316
728.589	-8
728.704	413
728.819	160
728.934	936
729.049	1082
729.163	941
729.278	727
729.393	137
729.508	368
729.622	1128
729.737	-360
729.852	234
729.967	-348
730.081	876
730.196	33
730.311	177
730.425	521
730.540	64
730.655	150
730.769	618
730.884	204
730.998	539
731.113	-617
731.227	214
731.342	479
731.456	611
731.571	338
731.685	230
731.800	1364
731.914	766
732.028	754
732.143	378
732.257	1112
732.371	1151
732.486	2739
732.600	14391
732.714	20560
732.829	1616
732.943	128
733.057	760
733.171	1124
733.285	862
733.399	1105
733.514	1396
733.628	60
733.742	697
733.856	843
733.970	611
734.084	775
734.198	640
734.312	1110
734.426	973
734.540	703
734.654	427
734.768	375
734.882	1240
734.996	-232
735.109	830
735.223	918
735.337	678
735.451	270
735.565	523
735.679	713
735.792	223
735.906	936
736.020	735
736.134	1203
736.247	383
736.361	912
736.475	758
736.588	1071
736.702	668
736.815	292
736.929	107
737.043	772
737.156	546
737.270	185
737.383	1048
737.497	142
737.610	620
737.723	449
737.837	767
737.950	869
738.064	658
738.177	960
738.290	606
738.404	496
738.517	63
738.630	915
738.744	234
738.857	370
738.970	214
739.083	283
739.197	263
739.310	453
739.423	583
739.536	345
739.649	-79
739.762	165
739.875	321
739.988	365
740.102	424
740.215	528
740.328	300
740.441	382
740.553	986
740.667	682
740.779	528
740.892	7
741.005	1386
741.118	-208
741.231	103
741.344	160
741.457	544
741.569	-142
741.682	1112
741.795	590
741.908	-53
742.020	-299
742.133	159
742.246	353
742.358	503
742.471	161
742.584	560
742.696	232
742.809	452
742.922	-831
743.034	379
743.147	123
743.259	211
743.372	704
743.484	135
743.597	311
743.709	209
743.822	655
743.934	233
744.046	12
744.159	159
744.271	-69
744.383	706
744.496	188
744.608	1242
744.720	335
744.832	329
744.945	-49
745.057	710
745.169	126
745.281	-516
745.393	600
745.506	-76
745.618	106
745.730	753
745.842	-28
745.954	535
746.066	-185
746.178	-392
746.290	-299
746.402	-87
746.514	304
746.626	-39
746.738	-325
746.850	515
746.962	-118
747.074	-208
747.185	-284
747.297	580
747.409	-422
747.521	336
747.633	-522
747.744	384
747.856	-137
747.968	83
748.080	-131
748.191	-296
748.303	-207
748.414	-230
748.526	-399
748.638	-227
748.749	-549
748.861	-337
748.972	-609
749.084	759
749.195	-95
749.307	-194
749.418	-680
749.530	204
749.641	320
749.753	-357
749.864	251
749.975	227
750.087	7
750.198	577
750.310	-306
750.421	-612
750.532	-664
750.643	-330
750.755	-403
750.866	62
750.977	546
751.088	125
751.199	660
751.310	-385
751.422	-171
751.533	-33
751.644	-311
751.755	-542
751.866	-528
751.977	172
752.088	-321
752.199	-294
752.310	-238
752.421	0
752.532	-561
752.643	125
752.753	-410
752.864	-230
752.975	-198
753.086	-695
753.197	-1102
753.308	-555
753.418	-137
753.529	-599
753.640	-649
753.751	-568
753.861	-281
753.972	-614
754.083	-287
754.193	106
754.304	-228
754.415	176
754.525	-370
754.636	-447
754.746	-231
754.857	212
754.967	-1092
755.078	-362
755.188	-1185
755.299	-326
755.409	-1396
755.520	-730
755.630	23
755.740	390
755.851	-381
755.961	-164
756.071	-641
756.182	-74
756.292	-1117
756.402	-586
756.512	-242
756.623	-330
756.733	-95
756.843	-214
756.953	-85
757.063	-830
757.173	-408
757.283	-71
757.393	-956
757.504	-32
757.614	-922
757.724	-185
757.834	-439
757.944	-318
758.053	-894
758.164	-163
758.273	64
758.383	-958
758.493	-274
758.603	42
758.713	-412
758.823	182
758.932	-917
759.042	-338
759.152	-522
759.262	-753
759.372	-724
759.481	-378
759.591	-1177
759.701	-195
759.810	-485
759.920	-45
760.029	-772
760.139	-230
760.249	-1018
760.358	-291
760.468	-618
760.577	143
760.687	-565
760.796	-333
760.906	-196
761.015	49
761.124	-377
761.234	-195
761.343	-234
761.453	-87
761.562	-597
761.671	63
761.781	-163
761.890	-321
761.999	173
762.108	-362
762.218	-258
762.327	-391
762.436	346
762.545	-246
762.654	-406
762.763	-160
762.872	-179
762.982	-360
763.091	-299
763.200	474
763.309	-430
763.418	261
763.527	-579
763.635	-1338
763.744	-20
763.853	-9
763.962	91
764.071	-538
764.180	27
764.289	-409
764.398	-251
764.506	-630
764.615	-354
764.724	-31
764.833	-349
764.941	-727
765.050	-126
765.159	-423
765.268	-892
765.376	-125
765.485	124
765.593	124
765.702	-543
765.810	-289
765.919	536
766.028	2531
766.136	3380
766.245	8489
766.353	25858
766.461	108961
766.570	187161
766.678	23485
766.787	3882
766.895	1650
767.003	1204
767.112	1345
767.220	686
767.328	592
767.437	190
767.545	663
767.653	-4
767.761	-314
767.870	-464
767.978	573
768.086	-1023
768.194	-84
768.302	-541
768.410	-423
768.518	366
768.626	-676
768.734	-240
768.842	-226
768.950	-723
769.058	310
769.166	-414
769.274	78
769.382	1066
769.490	1478
769.598	2907
769.706	9283
769.813	34384
769.921	136570
770.029	62807
770.137	3625
770.245	1212
770.352	1204
770.460	746
770.568	399
770.675	91
770.783	521
770.891	-429
770.998	-62
771.106	330
771.213	161
771.321	-218
771.428	519
771.536	-99
771.643	-14
771.751	-645
771.858	575
771.966	-676
772.073	-548
772.181	219
772.288	306
772.395	-49
772.503	836
772.610	-961
772.717	-266
772.825	-360
772.932	272
773.039	-332
773.146	564
773.253	-1033
773.361	-218
773.468	-190
773.575	165
773.682	-483
773.789	1066
773.896	-229
774.003	77
774.110	-415
774.217	-537
774.324	-65
774.431	-176
774.538	-449
774.645	299
774.752	-292
774.859	-480
774.966	-340
775.073	-224
775.179	247
775.286	-982
775.393	-227
775.500	43
775.607	-132
775.713	-759
775.820	25
775.927	471
776.033	-566
776.140	-645
776.247	-197
776.353	-19
776.460	-236
776.566	-387
776.673	-255
776.779	-250
776.886	-409
776.992	421
777.099	-623
777.205	62
777.312	-1124
777.418	579
777.524	-152
777.631	-225
777.737	-440
777.843	-341
777.950	17
778.056	-425
778.162	-123
778.268	-292
778.375	-488
778.481	-453
778.587	-405
778.693	-464
778.799	-116
778.906	-29
779.012	-489
779.118	7
779.224	-319
779.330	-785
779.436	-1548
779.542	-516
779.648	382
779.754	-463
779.860	93
779.966	192
780.071	318
780.177	112
780.283	-271
780.389	-486
780.495	105
780.601	-1106
780.706	-930
780.812	-405
780.918	-612
781.024	743
781.129	-706
781.235	-25
781.341	-1258
781.446	-590
781.552	-731
781.657	-823
781.763	-596
781.869	-740
781.974	-470
782.080	-610
782.185	-756
782.291	-991
782.396	-374
782.501	-672
782.607	-644
782.712	-859
782.818	-882
782.923	-920
783.028	-55
783.134	41
783.239	-351
783.344	-906
783.449	-1286
783.555	-392
783.660	-172
783.765	-869
783.870	-461
783.975	-524
784.080	-143
784.185	-8
784.291	-770
784.396	-263
784.501	-547
784.606	-744
784.711	-675
784.816	-989
784.921	-1400
785.026	-948
785.130	-545
785.235	-823
785.340	-851
785.445	-660
785.550	-656
785.655	234
785.760	-406
785.864	-212
785.969	-1427
786.074	-358
786.178	-1574
786.283	-453
786.388	-1241
786.492	-230
786.597	-1409
786.702	-521
786.806	-1670
786.911	-1357
787.015	-747
787.120	-573
787.224	-937
787.329	-492
787.433	-521
787.538	-1250
787.642	-1162
787.747	-642
787.851	-986
787.955	-1788
788.060	-1297
788.164	-699
788.268	-1074
788.372	-847
788.477	-791
788.581	-739
788.685	-1162
788.789	-815
788.894	-1057
788.998	-1097
789.102	-907
789.206	-575
789.310	-1733
789.414	-156
789.518	-1215
789.622	-1056
789.726	-1435
789.830	-160
789.934	-1781
790.038	-1102
790.142	-315
790.246	-1237
790.350	-824
790.454	-848
790.557	-1035
790.661	-561
790.765	-455
790.869	-524
790.973	-886
791.076	271
791.180	-997
791.284	-1434
791.388	-1325
791.491	-1223
791.595	-1225
791.698	-1146
791.802	-645
791.906	688
792.009	-996
792.113	-1140
792.216	-1516
792.320	-988
792.423	-1050
792.527	-1051
792.630	-1389
792.733	-704
792.837	-1383
792.940	-458
793.043	-942
793.147	-1202
793.250	-924
793.353	301
793.457	-1980
793.560	-425
793.663	-1099
793.766	117
793.869	-1382
793.973	-442
794.076	-1705
794.179	-82
794.282	-951
794.385	-694
794.488	-475
794.591	-1015
794.694	-47
794.797	492
794.900	-712
795.003	-803
795.106	-863
795.209	-1082
795.312	-763
795.415	-484
795.517	-1479
795.620	-496
795.723	-2173
795.826	-748
795.929	-1875
796.031	-70
796.134	58
796.237	-1538
796.339	593
796.442	-461
796.545	-1138
796.647	-816
796.750	-854
796.852	-869
796.955	-384
797.057	-530
797.160	-580
797.262	-1069
797.365	-188
797.467	-1107
797.570	-769
797.672	-1368
797.775	-430
797.877	-842
797.979	-1444
798.082	-468
798.184	-1128
798.286	-402
798.388	-883
798.491	-578
798.593	-1088
798.695	-1034
798.797	-627
798.899	-666
799.001	-1268
799.104	-322
799.206	-1685
799.308	303
799.410	-480
799.512	-664
799.614	-1363
799.716	-302
799.818	-519
799.920	-1763
800.021	-850
800.123	-1040
800.225	-1309
800.327	-1359
800.429	-1475
800.531	-831
800.633	-608
800.734	-941
800.836	-785
800.938	-852
801.039	-752
801.141	-279
801.243	-743
801.344	-468
801.446	-1028
801.548	-1324
801.649	-1037
801.751	-750
801.852	-821
801.954	-1339
802.055	-1742
802.157	-899
802.258	-1229
802.360	-2030
802.461	-61
802.563	-838
802.664	-1256
802.765	-415
802.867	-1146
802.968	-2049
803.069	543
803.170	-597
803.272	-884
803.373	-883
803.474	-1140
803.575	-455
803.676	-1024
803.777	-862
803.879	-1494
803.980	-587
804.081	-1116
804.182	-525
804.283	-955
804.384	-1107
804.485	-1537
804.586	-711
804.687	-467
804.788	-26
804.888	-1363
804.989	-1465
805.090	-1373
805.191	-1510
805.292	-371
805.393	-942
805.493	-1638
805.594	-923
805.695	-940
805.796	-1028
805.896	-1160
805.997	-1423
806.098	-2202
806.198	-1234
806.299	-823
806.399	-866
806.500	-1473
806.601	-1122
806.701	-1631
806.802	-1105
806.902	-1643
807.002	-826
807.103	-1161
807.203	-633
807.304	-870
807.404	-786
807.504	-637
807.605	-1612
807.705	-153
807.805	-737
807.906	-629
808.006	-627
808.106	-410
808.206	-1076
808.306	-1007
808.406	-577
808.507	-1285
808.607	-1191
808.707	-1530
808.807	-666
808.907	-1608
809.007	-735
809.107	-1288
809.207	-678
809.307	-945
809.407	-1079
809.507	-581
809.607	-1418
809.706	-1715
809.806	-613
809.906	-1002
810.006	-1471
810.106	-662
810.205	-555
810.305	-2464
810.405	76
810.505	-1127
810.604	-1616
810.704	-1904
810.804	-1195
810.903	-1538
811.003	-1812
811.102	-1384
811.202	-978
811.301	-1927
811.401	-1539
811.500	-2169
811.600	-884
811.699	-1128
811.799	-1350
811.898	-1221
811.997	-1733
812.097	-951
812.196	-1313
812.295	-1294
812.395	-1056
812.494	-1520
812.593	-1185
812.692	-2065
812.792	-1275
812.891	-1665
812.990	-1541
813.089	-1311
813.188	-1153
813.287	-1934
813.386	-1293
813.485	-1130
813.584	-1368
813.683	-1118
813.782	-1178
813.881	-1154
813.980	-1112
814.079	-1640
814.178	-804
814.277	-314
814.376	-1495
814.475	-1158
814.574	-926
814.672	-492
814.771	-1394
814.870	-1094
814.969	-1542
815.067	-567
815.166	-1009
815.265	-1099
815.363	-859
815.462	-642
815.560	-685
815.659	-1024
815.758	-1507
815.856	-1484
815.955	-837
816.053	-1177
816.152	-1617
816.250	-1107
816.348	-1107
816.447	-1001
816.545	-1100
816.644	-55
816.742	-895
816.840	-470
816.938	-983
817.037	-757
817.135	-463
817.233	-676
817.331	-472
817.430	-640
817.528	-337
817.626	-1364
817.724	-855
817.822	-694
817.920	-122
818.018	554
818.116	3674
818.214	12213
818.312	38086
818.410	47459
818.508	7043
818.606	451
818.704	-4
818.802	-119
818.900	-133
818.997	-441
819.095	729
819.193	2951
819.291	9374
819.389	27026
819.486	85500
819.584	69456
819.682	8200
819.779	603
819.877	118
819.975	-676
820.072	-653
820.170	-480
820.267	31
820.365	-1380
820.462	-1285
820.560	392
820.657	-113
820.755	-1594
820.852	-1236
820.949	-593
821.047	-391
821.144	-940
821.241	-909
821.339	-989
821.436	-1180
821.533	-388
821.631	34
821.728	-1027
821.825	-407
821.922	-792
822.019	-239
822.116	-259
822.214	-145
822.311	-971
822.408	-746
822.505	-1338
822.602	-1492
822.699	-836
822.796	-512
822.893	-1498
822.990	-1191
823.086	-1147
823.183	-1108
823.280	-1447
823.377	-927
823.474	-449
823.571	-1191
823.667	-1470
823.764	-1212
823.861	-750
823.958	-864
824.054	145
824.151	-907
824.248	-1007
824.344	234
824.441	-1335
824.537	-1518
824.634	-536
824.731	-974
824.827	3
824.924	-1015
825.020	-1551
825.116	-928
825.213	-840
825.309	-1177
825.406	-1721
825.502	-867
825.598	-1522
825.695	-1075
825.791	-1680
825.887	-324
825.983	-1714
826.080	-1071
826.176	-2362
826.272	-1680
826.368	-934
826.464	-2156
826.560	-947
826.656	-1154
826.753	-1549
826.849	-1390
826.945	-618
827.041	-1212
827.137	-898
827.233	-732
827.328	-1266
827.424	-1095
827.520	-950
827.616	-1884
827.712	-1616
827.808	-613
827.904	-2010
827.999	-301
828.095	-1786
828.191	-1496
828.287	-409
828.382	-1575
828.478	-1124
828.574	-1061
828.669	-1562
828.765	-101
828.860	-1828
828.956	-924
829.051	-1155
829.147	-1626
829.242	-1541
829.338	-619
829.433	-1201
829.529	-1060
829.624	-511
829.720	-1493
829.815	-1666
829.910	-1510
830.005	-1529
830.101	-972
830.196	-1770
830.291	-1307
830.386	-1149
830.482	-90
830.577	-1557
830.672	-1929
830.767	-1288
830.862	-1420
830.957	-660
831.052	-1361
831.147	-859
831.242	-1559
831.337	-1056
831.432	-1511
831.527	-1734
831.622	-1468
831.717	-2053
831.812	-1315
831.907	-1237
832.002	-1474
832.097	-1693
832.191	-1703
832.286	-479
832.381	-991
832.476	-816
832.570	-1355
832.665	-511
832.760	-23
832.854	-1291
832.949	-1430
833.044	-1624
833.138	-1028
833.233	-1538
833.327	-1412
833.422	-1830
833.516	-1657
833.611	-1844
833.705	-1049
833.799	-1573
833.894	-1820
833.988	-1548
834.083	-978
834.177	-1815
834.271	-1049
834.365	-986
834.460	-989
834.554	-1816
834.648	-839
834.742	-1665
834.836	-798
834.931	-1941
835.025	-846
835.119	-1428
835.213	-1392
835.307	-1315
835.401	-1275
835.495	-473
835.589	-2082
835.683	-891
835.777	-1522
835.871	-1241
835.965	-2189
836.059	-876
836.152	-666
836.246	-2016
836.340	-1342
836.434	-1447
836.528	-1727
836.621	-622
836.715	-1698
836.809	-1757
836.902	-993
836.996	-1551
837.090	-1876
837.183	-1449
837.277	-1852
837.370	-1386
837.464	-1146
837.557	-2134
837.651	-1488
837.744	-923
837.838	-1236
837.931	-578
838.025	-1703
838.118	-1019
838.211	-2288
838.305	-1802
838.398	-1407
838.491	-2084
838.584	-1366
838.678	-1341
838.771	-20
838.864	-673
838.957	-1092
839.050	-620
839.144	-1732
839.237	-839
839.330	-1088
839.423	-1243
839.516	-1518
839.609	-1329
839.702	-1235
839.795	-1800
839.888	-1937
839.981	-1493
840.073	-1695
840.166	-1466
840.259	-1735
840.352	-916
840.445	-1329
840.538	-1891
840.630	-463
840.723	-1969
840.816	-897
840.909	-1872
841.001	-1142
841.094	-1645
841.186	-886
841.279	-1400
841.372	-939
841.464	-1656
841.557	-1452
841.649	-1782
841.742	-977
841.834	-1461
841.927	-1501
842.019	-2145
842.111	-590
842.204	-1804
842.296	-657
842.388	-1196
842.481	-706
842.573	-989
842.665	-1198
842.758	-1799
842.850	-1689
842.942	-2152
843.034	-1010
843.126	-969
843.218	-1411
843.310	-1727
843.402	-635
843.495	47
843.587	-521
843.679	-1514
843.771	-1404
843.862	-1704
843.954	-1252
844.046	-1571
844.138	-1972
844.230	-1454
844.322	-1345
844.414	-639
844.505	-805
844.597	-1069
844.689	-1403
844.781	-1710
844.872	-1391
844.964	-1505
845.056	-1192
845.147	-1743
845.239	-1672
845.331	-1826
845.422	-2051
845.514	-1247
845.605	-1137
845.697	-1608
845.788	-1306
845.880	-2184
845.971	-1289
846.063	-2034
846.154	-1205
846.245	-1801
846.337	-841
846.428	-1736
846.519	-690
846.610	-1179
846.702	-1581
846.793	-1644
846.884	-789
846.975	-2487
847.066	-1173
847.158	-1323
847.249	-1956
847.340	-1345
847.431	-1753
847.522	-1658
847.613	-1646
847.704	-1480
847.795	-1684
847.886	-1918
847.977	-1176
848.068	-2037
848.158	-794
848.249	-1595
848.340	-1384
848.431	-1984
848.522	-1158
848.612	-2163
848.703	-2068
848.794	-1343
848.885	-1773
848.975	-2409
849.066	-578
849.157	-1701
849.247	-1008
849.338	-1445
849.428	-499
849.519	157
849.609	2670
849.700	5924
849.790	15645
849.881	7413
849.971	-579
850.061	-1208
850.152	-483
850.242	-1254
850.332	-1484
850.423	-2099
850.513	-1382
850.603	-2506
850.693	-1311
850.784	-1426
850.874	-975
850.964	-1450
851.054	-562
851.144	-1729
851.234	-1126
851.324	-2040
851.414	-1249
851.505	-1424
851.595	-1706
851.684	-2112
851.774	-1049
851.864	-624
851.954	-1036
852.044	-1518
852.134	-1715
852.224	-1760
852.314	-1377
852.403	-2303
852.493	-1571
852.583	-971
852.673	-781
852.762	-1419
852.852	-1720
852.942	-904
853.031	-1099
853.121	-1429
853.210	-471
853.300	-1537
853.389	-1221
853.479	-981
853.568	-357
853.658	146
853.747	2136
853.837	5409
853.926	12765
854.015	29828
854.105	53448
854.194	111689
854.283	53958
854.373	4483
854.462	-448
854.551	-1431
854.640	61
854.729	-1619
854.819	-1094
854.908	-730
854.997	-817
855.086	-1250
855.175	-1632
855.264	-1485
855.353	-1383
855.442	-1177
855.531	-1133
855.620	-2494
855.709	-1010
855.798	-999
855.887	-1040
855.975	-1645
856.064	-1108
856.153	-1421
856.242	-1907
856.331	-1638
856.419	-750
856.508	-2104
856.597	-1315
856.685	-1418
856.774	-1432
856.863	-1264
856.951	-2007
857.040	-1607
857.128	-1487
857.217	-1993
857.305	-1754
857.394	-1030
857.482	-1877
857.571	-1534
857.659	-1618
857.747	-1711
857.836	-1615
857.924	-1270
858.012	-1750
858.101	-1476
858.189	-1969
858.277	-1845
858.365	-1494
858.454	-784
858.542	-1636
858.630	-1785
858.718	-1369
858.806	-1966
858.894	-2022
858.982	-2178
859.070	-1240
859.158	-1383
859.246	-1352
859.334	-1166
859.422	-1745
859.510	-2181
859.598	-1519
859.686	-2155
859.773	-1018
859.861	-1659
859.949	-902
860.037	-2168
860.125	-1238
860.212	-1214
860.300	-1431
860.388	-1288
860.475	-1348
860.563	-1450
860.651	-1156
860.738	-1641
860.826	-2054
860.913	-2040
861.001	-2471
861.088	-1534
861.176	-1485
861.263	-1543
861.350	-1461
861.438	-1480
861.525	-1572
861.612	-1505
861.700	-880
861.787	-1525
861.874	-1162
861.962	-2477
862.049	-1448
862.136	-2139
862.223	-1058
862.310	-1531
862.397	-1555
862.484	-2438
862.572	-1107
862.659	-1876
862.746	-1499
862.833	-951
862.920	-1047
863.007	-2231
863.094	-2108
863.180	-1939
863.267	-1196
863.354	-2362
863.441	-968
863.528	-1591
863.615	-1151
863.701	-2082
863.788	-1536
863.875	-1550
863.961	-2062
864.048	-1878
864.135	-2036
864.221	-2248
864.308	-1279
864.395	-1899
864.481	-775
864.568	-1678
864.654	-1404
864.741	-1587
864.827	-1624
864.914	-1573
865.000	-946
865.086	-1723
865.173	-876
865.259	-355
865.345	-106
865.432	-850
865.518	-1356
865.604	-981
865.690	-630
865.776	1490
865.863	5681
865.949	14489
866.035	23003
866.121	41751
866.207	65202
866.293	18970
866.379	686
866.465	-992
866.551	-488
866.637	-1419
866.723	-1755
866.809	-1072
866.895	-1356
866.981	-2106
867.066	-2252
867.152	-1374
867.238	-1514
867.324	-1487
867.409	-1542
867.495	-1754
867.581	-713
867.667	-1439
867.752	-839
867.838	-652
867.923	-932
868.009	-217
868.094	-470
868.180	-1438
868.266	-594
868.351	-1171
868.436	-1669
868.522	-1246
868.607	-74
868.693	-1245
868.778	-486
868.863	440
868.949	-1225
869.034	-1533
869.119	-769
869.204	-2178
869.290	-847
869.375	-2015
869.460	-1431
869.545	-1350
869.630	-1660
869.715	-1102
869.800	-642
869.885	-1571
869.970	-2027
870.055	-1023
870.140	-1270
870.225	-492
870.310	-1106
870.395	-2143
870.480	-1992
870.565	-1589
870.650	-1475
870.734	-1137
870.819	-1235
870.904	-922
870.989	-730
871.073	-1312
871.158	-875
871.243	-1603
871.327	-860
871.412	-1942
871.496	-1334
871.581	-1502
871.665	-1789
871.750	-1378
871.834	-1414
871.919	-950
872.003	-1350
872.088	-1068
872.172	-1910
872.257	-1432
872.341	-973
872.425	-1514
872.509	-1547
872.594	-1562
872.678	-909
872.762	-2260
872.846	-2086
872.930	-1314
873.015	-2414
873.099	-2256
873.183	-981
873.267	-1112
873.351	-1618
873.435	-1437
873.519	-1134
873.603	-1757
873.687	-1797
873.771	-2342
873.855	-1627
873.938	-1707
874.022	-1817
874.106	-1421
874.190	-1226
874.274	-1737
874.358	-1000
874.383	-1308
874.441	-2036
874.490	-2155
874.525	-2243
874.598	-1644
874.609	-1560
874.692	-1045
874.705	-1058
874.776	-1139
874.813	-1205
874.859	-1302
874.920	-1048
874.943	-944
875.027	-1316
875.028	-1318
875.110	-1711
875.135	-1496
875.194	-947
875.243	-1338
875.277	-1634
875.350	-1583
875.361	-1586
875.444	-1145
875.457	-1151
875.527	-1174
875.565	-1598
875.611	-2097
875.672	-1456
875.694	-1245
875.778	-1580
875.780	-1573
875.861	-1395
875.887	-1469
875.944	-1589
875.994	-1072
876.027	-746
876.101	-738
876.111	-747
876.194	-1454
876.209	-1364
876.277	-916
876.316	-1142
876.360	-1391
876.423	-1716
876.443	-1804
876.526	-800
876.530	-805
876.610	-1176
876.637	-1107
876.693	-844
876.745	-480
876.776	-327
876.852	-879
876.859	-916
876.942	-1312
876.959	-1122
877.025	-523
877.066	-709
877.108	-884
877.173	-949
877.190	-977
877.273	-864
877.280	-857
877.356	-652
877.387	-651
877.439	-663
877.494	-501
877.522	-451
877.601	-845
877.605	-864
877.688	-363
877.708	-551
877.770	-1067
877.815	-1035
877.853	-1065
877.922	-1334
877.936	-1366
878.018	-671
878.029	-698
878.101	-908
878.136	-934
878.184	-1057
878.242	-1551
878.266	-1694
878.349	-1198
878.349	-1194
878.431	-582
878.456	-533
878.514	-386
878.563	-927
878.596	-1404
878.670	-1098
878.679	-1041
878.761	-1531
878.776	-1437
878.844	-1063
878.883	-1094
878.926	-1108
878.990	-914
879.008	-831
879.091	-380
879.097	-423
879.173	-1159
879.203	-1037
879.255	-846
879.310	-972
879.338	-975
879.417	-1130
879.420	-1129
879.502	-581
879.523	-579
879.584	-984
879.630	-1028
879.667	-825
879.736	-892
879.749	-980
879.831	-1042
879.843	-1135
879.913	-1209
879.949	-880
879.995	-623
880.056	-1080
880.077	-1232
880.159	-790
880.162	-787
880.241	-628
880.269	-602
880.323	-583
880.375	-235
880.405	-69
880.482	-191
880.487	-165
880.569	426
880.588	613
880.651	1168
880.694	692
880.733	406
880.801	997
880.815	835
880.896	-442
880.907	-631
880.978	-953
881.013	-958
881.060	-1058
881.120	-941
881.142	-779
881.224	-552
881.226	-555
881.305	-743
881.332	-826
881.387	-911
881.438	-496
881.469	-407
881.545	-703
881.550	-695
881.632	-293
881.651	-350
881.713	-702
881.757	-875
881.795	-1000
881.863	-971
881.876	-920
881.958	-695
881.969	-639
882.039	-425
882.075	-383
882.121	-441
882.181	-1183
882.202	-1342
882.284	-257
882.287	-270
882.365	-711
882.393	-610
882.446	-54
882.499	70
882.528	-71
882.605	55
882.609	55
882.690	-447
882.711	-571
882.771	-729
882.817	-708
882.853	-500
882.923	-130
882.934	-119
883.015	-378
883.029	-374
883.096	-382
883.135	-488
883.177	-580
883.241	-566
883.258	-442
883.339	260
883.347	290
883.420	-288
883.453	-600
883.501	-697
883.558	-490
883.583	-379
883.663	-467
883.664	-471
883.744	-520
883.770	-528
883.825	-402
883.876	-207
883.906	-123
883.981	-192
883.987	-224
884.068	-686
884.087	-785
884.149	-443
884.193	-158
884.230	-174
884.298	-290
884.310	-262
884.391	-188
884.404	-183
884.472	-458
884.510	-436
884.552	-158
884.615	-42
884.633	-167
884.714	-684
884.721	-743
884.794	-702
884.826	-636
884.875	-572
884.932	-504
884.956	-409
885.036	-294
885.037	-296
885.117	-400
885.143	-476
885.197	-303
885.248	-57
885.278	-141
885.354	-509
885.358	-484
885.439	169
885.459	189
885.519	-538
885.565	-957
885.599	-663
885.670	180
885.680	171
885.760	-294
885.775	-390
885.840	-245
885.881	-120
885.921	-289
885.986	-401
886.001	-227
886.081	422
886.091	492
886.161	-90
886.196	-299
886.241	-306
886.302	-457
886.322	-456
886.402	-529
886.407	-520
886.482	38
886.512	185
886.562	6
886.617	-157
886.642	-159
886.722	-279
886.722	-283
886.802	-22
886.828	-2
886.882	2
886.933	148
886.962	56
887.038	-409
887.042	-368
887.122	484
887.143	680
887.202	574
887.248	481
887.281	369
887.353	165
887.361	163
887.441	-7
887.458	-54
887.521	-167
887.563	-231
887.601	-284
887.668	-369
887.680	-275
887.760	258
887.773	324
887.840	298
887.878	319
887.919	26
887.983	-376
887.999	-240
888.079	224
888.088	293
888.158	451
888.193	444
888.238	242
888.297	-97
888.317	-70
888.397	202
888.402	205
888.476	4
888.507	-63
888.556	481
888.612	1047
888.635	780
888.715	-87
888.717	-115
888.794	277
888.821	429
888.873	169
888.926	-118
888.953	-130
889.031	-177
889.032	-171
889.111	-116
889.135	-99
889.190	219
889.240	491
889.270	492
889.345	483
889.349	516
889.428	1025
889.449	1138
889.507	1072
889.554	1021
889.586	840
889.658	415
889.665	385
889.744	-15
889.763	-109
889.824	-242
889.867	-342
889.903	-194
889.972	106
890.076	180
890.181	112
890.285	1111
890.390	-83
890.494	650
890.599	521
890.703	892
890.807	407
890.912	1291
891.016	201
891.120	729
891.224	-211
891.329	965
891.433	840
891.537	-269
891.641	14
891.745	147
891.849	-599
891.953	1089
892.058	441
892.162	459
892.266	-210
892.370	436
892.474	-55
892.578	784
892.682	-341
892.786	1119
892.889	-228
892.993	362
893.097	267
893.201	-177
893.305	473
893.409	737
893.512	606
893.616	679
893.720	-487
893.824	-363
893.927	859
894.031	-152
894.135	62
894.238	1064
894.342	96
894.445	65
894.549	411
894.652	738
894.756	438
894.859	1151
894.963	749
895.066	-215
895.170	426
895.273	-142
895.377	-238
895.480	796
895.583	273
895.687	1209
895.790	-241
895.893	53
895.997	468
896.100	-558
896.203	-200
896.306	-504
896.409	175
896.513	106
896.616	-314
896.719	462
896.822	363
896.925	445
897.028	-113
897.131	-295
897.234	677
897.337	-424
897.440	-279
897.543	376
897.646	99
897.749	413
897.852	-21
897.954	-50
898.057	599
898.160	-13
898.263	653
898.366	1094
898.468	-267
898.571	323
898.674	507
898.776	867
898.879	344
898.982	414
899.084	157
899.187	-18
899.290	-95
899.392	573
899.495	58
899.597	228
899.700	-128
899.802	-38
899.904	413
900.007	713
900.109	261
900.212	6
900.314	184
900.416	807
900.519	-433
900.621	170
900.723	-292
900.826	855
900.928	157
901.030	397
901.132	413
901.234	50
901.336	236
901.439	149
901.541	203
901.643	-211
901.745	-98
901.847	354
901.949	117
902.051	739
902.153	409
902.255	870
902.357	-183
902.459	1138
902.560	63
902.662	121
902.764	547
902.866	-249
902.968	-5
903.070	423
903.171	-177
903.273	42
903.375	-214
903.477	188
903.578	-333
903.680	213
903.781	515
903.883	-80
903.985	219
904.086	-262
904.188	-382
904.289	-240
904.391	9
904.492	198
904.594	184
904.695	906
904.796	11
904.898	-53
904.999	-443
905.100	201
905.202	106
905.303	381
905.404	-476
905.506	398
905.607	399
905.708	124
905.809	-481
905.910	146
906.012	63
906.113	46
906.214	328
906.315	218
906.416	322
906.517	132
906.618	451
906.719	-37
906.820	298
906.921	232
907.022	-17
907.123	20
907.224	253
907.325	-365
907.425	223
907.526	-85
907.627	-505
907.728	-1141
907.828	-160
907.929	-457
908.030	-341
908.131	-362
908.231	-37
908.332	-682
908.433	-98
908.533	320
908.634	-46
908.734	-1
908.835	63
908.935	282
909.036	-874
909.136	372
909.237	126
909.337	-41
909.438	-525
909.538	715
909.638	231
909.739	-129
909.839	-438
909.939	13
910.040	-953
910.140	-517
910.240	-128
910.340	-145
910.440	-426
910.541	192
910.641	-326
910.741	156
910.841	64
910.941	-148
911.041	-1025
911.141	-245
911.241	-865
911.341	-476
911.441	-500
911.541	-176
911.641	-337
911.741	50
911.841	-40
911.941	467
912.040	-187
912.140	357
912.240	-672
912.340	278
912.440	-121
912.539	-293
912.639	-309
912.739	139
912.838	-439
912.938	95
913.038	-402
913.137	-515
913.237	-509
913.336	-182
913.436	-511
913.535	-632
913.635	-267
913.734	-496
913.834	-371
913.933	-71
914.033	-484
914.132	397
914.231	-171
914.331	-556
914.430	-495
914.529	-78
914.629	-716
914.728	138
914.827	-657
914.926	-983
915.025	-696
915.125	-213
915.224	331
915.323	-277
915.422	-526
915.521	119
915.620	50
915.719	-338
915.818	-11
915.917	312
916.016	-153
916.115	101
916.214	-894
916.313	-755
916.412	-660
916.510	-283
916.609	-138
916.708	-162
916.807	-1326
916.906	-16
917.004	-493
917.103	376
917.202	-152
917.301	-159
917.399	-730
917.498	-342
917.596	-1769
917.695	-969
917.794	-307
917.892	-293
917.991	0
918.089	205
918.188	-525
918.286	-489
918.384	-438
918.483	-489
918.581	-715
918.680	-800
918.778	-697
918.876	213
918.975	-879
919.073	-617
919.171	-675
919.269	-659
919.368	-550
919.466	-507
919.564	-202
919.662	-195
919.760	-486
919.858	16
919.956	143
920.054	-893
920.153	-797
920.251	-561
920.349	-322
920.446	-270
920.544	-301
920.642	-537
920.740	-786
920.838	-381
920.936	-204
921.034	-291
921.132	-347
921.229	-721
921.327	-1096
921.425	-233
921.523	-295
921.620	67
921.718	-1499
921.816	-288
921.913	-381
922.011	73
922.109	-764
922.206	-536
922.304	-995
922.401	-767
922.499	-1035
922.596	-136
922.694	-228
922.791	544
922.888	-508
922.986	41
923.083	315
923.181	-402
923.278	-768
923.375	-288
923.473	-15
923.570	377
923.667	520
923.764	-122
923.861	-378
923.959	820
924.056	-614
924.153	765
924.250	-226
924.347	606
924.444	0
924.541	-338
924.638	121
924.735	8
924.832	-181
924.929	-58
925.026	-222
925.123	232
925.220	-597
925.317	881
925.414	-687
925.510	-162
925.607	281
925.704	162
925.801	-376
925.897	824
925.994	579
926.091	-35
926.187	572
926.284	814
926.381	644
926.477	269
926.574	855
926.670	1015
926.767	881
926.863	997
926.960	341
927.056	446
927.153	276
927.249	46
927.346	-621
927.442	-126
927.538	-113
927.635	-138
927.731	288
927.827	238
927.924	-420
928.020	364
928.116	49
928.212	-394
928.308	-40
928.404	-754
928.501	-393
928.597	222
928.693	-89
928.789	-30
928.885	-426
928.981	-285
929.077	-1012
929.173	-266
929.269	473
929.365	-564
929.461	-733
929.557	271
929.652	-755
929.748	-724
929.844	26
929.940	-142
930.036	-668
930.131	-271
930.227	-215
930.323	-395
930.419	-518
930.514	-390
930.610	-805
930.705	-179
930.801	-439
930.897	1062
930.992	-690
931.088	-435
931.183	-912
931.279	-47
931.374	56
931.470	-421
931.565	-377
931.660	-355
931.756	-805
931.851	-378
931.946	-321
932.042	-394
932.137	28
932.232	-214
932.327	279
932.423	-922
932.518	-793
932.613	-70
932.708	-550
932.803	208
932.898	-111
932.994	340
933.089	167
933.184	-183
933.279	-902
933.374	-422
933.469	-1155
933.563	-386
933.658	-230
933.753	24
933.848	-740
933.943	-276
934.038	-578
934.133	-138
934.227	-68
934.322	690
934.417	13
934.512	-163
934.606	-55
934.701	-514
934.796	-292
934.890	278
934.985	-599
935.079	-191
935.174	-1361
935.269	-461
935.363	-30
935.458	-82
935.552	-316
935.646	653
935.741	-352
935.835	60
935.930	-310
936.024	-289
936.118	-548
936.213	-291
936.307	-696
936.401	169
936.496	-1069
936.590	-544
936.684	205
936.778	-340
936.872	-887
936.966	-304
937.060	-679
937.155	-224
937.249	125
937.343	-119
937.437	329
937.531	-284
937.625	605
937.719	-346
937.813	-318
937.906	421
938.000	293
938.094	312
938.188	-164
938.282	334
938.376	59
938.469	-122
938.563	-290
938.657	735
938.751	42
938.844	1622
938.938	321
939.032	130
939.125	-781
939.219	-36
939.312	365
939.406	2821
939.500	55
939.593	-120
939.686	-1032
939.780	-266
939.873	60
939.967	245
940.060	-371
940.154	-657
940.247	-649
940.340	-238
940.434	-397
940.527	-207
940.620	-46
940.713	119
940.806	-1380
940.900	99
940.993	610
941.086	-237
941.179	279
941.272	-630
941.365	-113
941.458	1549
941.551	1413
941.644	1062
941.737	-355
941.830	472
941.923	-378
942.016	-544
942.109	-481
942.202	222
942.295	-86
942.388	-58
942.480	-176
942.573	-113
942.666	-476
942.759	-771
942.851	-217
942.944	-798
943.037	475
943.129	124
943.222	-944
943.315	-777
943.407	-620
943.500	-669
943.592	-219
943.685	266
943.777	-778
943.870	210
943.962	-898
944.055	-570
944.147	-381
944.239	-617
944.332	90
944.424	938
944.516	-834
944.609	-384
944.701	-516
944.793	-114
944.885	-672
944.977	-333
945.070	-200
945.162	-1720
945.254	-470
945.346	-37
945.438	-876
945.530	-580
945.622	-56
945.714	-33
945.806	-577
945.898	-1034
945.990	-416
946.082	-279
946.174	397
946.266	-586
946.358	-378
946.449	-572
946.541	-513
946.633	-633
946.725	-766
946.816	-1173
946.908	48
947.000	116
947.091	18
947.183	7
947.275	-423
947.366	510
947.458	-536
947.549	-265
947.641	-1043
947.732	-908
947.824	-635
947.915	-371
948.007	-485
948.098	-141
948.190	-1827
948.281	-577
948.372	-91
948.464	-630
948.555	-647
948.646	-608
948.737	-136
948.829	-643
948.920	-119
949.011	-941
949.102	-493
949.193	-290
949.284	-835
949.376	-795
949.467	-185
949.558	-807
949.649	-945
949.740	-615
949.831	-114
949.922	-665
950.013	-803
950.104	-609
950.194	-622
950.285	203
950.376	-1564
950.467	-112
950.558	-1476
950.649	-438
950.739	-596
950.830	-29
950.921	-153
951.011	-74
951.102	-1296
951.193	-796
951.283	-816
951.374	-131
951.464	-511
951.555	-953
951.646	-478
951.736	47
951.826	-525
951.917	-461
952.007	-1184
952.098	-792
952.188	-1441
952.279	-205
952.369	-317
952.459	-1445
952.549	-315
952.640	-651
952.730	-36
952.820	-876
952.910	-499
953.001	-121
953.091	-389
953.181	-1092
953.271	-1086
953.361	-1326
953.451	-259
953.541	-944
953.631	-865
953.721	-807
953.811	-1066
953.901	-1158
953.991	-1161
954.081	-1230
954.171	-930
954.261	34
954.350	-397
954.440	-849
954.530	-1008
954.620	-463
954.710	-633
954.799	-168
954.889	-1204
954.979	0
955.068	-759
955.158	-444
955.248	-445
955.337	298
955.427	-811
955.516	-661
955.606	-487
955.695	-333
955.785	-606
955.874	-180
955.964	-1450
956.053	-1009
956.142	-1240
956.232	-632
956.321	-1045
956.410	-918
956.500	-658
956.589	-771
956.678	-358
956.767	-179
956.856	-461
956.946	-392
957.035	-969
957.124	443
957.213	-1065
957.302	-694
957.391	-707
957.480	-363
957.569	-871
957.658	-805
957.747	-1301
957.836	-636
957.925	-639
958.014	-312
958.103	-304
958.192	-1229
958.280	-1026
958.369	-679
958.458	-844
958.547	-1699
958.635	-1190
958.724	4
958.813	-810
958.901	-589
958.990	-432
959.079	31
959.167	-1053
959.256	-634
959.344	68
959.433	-735
959.521	-1169
959.610	-599
959.698	-716
959.787	-1634
959.875	-526
959.964	-152
960.052	-176
960.140	-925
960.228	44
960.317	-50
960.405	-907
960.493	-1398
960.581	-633
960.670	-567
960.758	-551
960.846	126
960.934	-1200
961.022	-232
961.110	-988
961.198	-1313
961.286	-919
961.374	241
961.462	-945
961.550	-1258
961.638	-473
961.726	-482
961.814	-417
961.902	-889
961.990	-1522
962.078	-420
962.165	-836
962.253	-13
962.341	-1320
962.429	-353
962.516	-923
962.604	-1079
962.692	-1275
962.779	-750
962.867	-977
962.955	-890
963.042	-1082
963.130	-338
963.217	-703
963.305	-400
963.392	-1272
963.480	-634
963.567	-1364
963.654	-472
963.742	-307
963.829	441
963.917	868
964.004	-26
964.091	-735
964.178	-708
964.266	-260
964.353	-642
964.440	-952
964.527	-272
964.614	-1372
964.701	-294
964.789	-930
964.876	-472
964.963	-1018
965.050	-290
965.137	-1027
965.224	-721
965.311	-850
965.398	-684
965.485	-906
965.571	-1143
965.658	-1187
965.745	-548
965.832	-764
965.919	-754
966.006	-590
966.092	-55
966.179	-1172
966.266	84
966.352	-1946
966.439	-243
966.526	-1716
966.612	-399
966.699	-920
966.786	-173
966.872	-1058
966.959	-727
967.045	-1047
967.132	64
967.218	-624
967.304	-672
967.391	-615
967.477	-416
967.564	-1003
967.650	253
967.736	-727
967.822	-590
967.909	-1576
967.995	-1430
968.081	-600
968.167	-537
968.254	-901
968.340	-432
968.426	-1718
968.512	-40
968.598	-773
968.684	-826
968.770	-1525
968.856	-912
968.942	-258
969.028	-135
969.114	-651
969.200	-1288
969.286	-239
969.372	-301
969.457	-1043
969.543	-967
969.629	-1269
969.715	-424
969.801	-371
969.886	-440
969.972	-644
970.058	-284
970.143	-933
970.229	-975
970.315	-167
970.400	-1088
970.486	-179
970.571	-881
970.657	-475
970.742	-752
970.828	-366
970.913	-1079
970.999	-367
971.084	-1063
971.169	-686
971.255	-531
971.340	-1335
971.425	-1249
971.511	-990
971.596	-922
971.681	-578
971.766	-946
971.852	-1060
971.937	-828
972.022	-441
972.107	-592
972.192	-385
972.277	-1456
972.362	-1652
972.447	-767
972.532	-625
972.617	-666
972.702	-375
972.787	-929
972.872	-777
972.957	-990
973.042	-893
973.126	-695
973.211	-1352
973.296	-574
973.381	-1071
973.466	-1898
973.550	273
973.635	-1461
973.720	-1338
973.804	-1483
973.889	143
973.973	-959
974.058	-1281
974.143	-730
974.227	-1220
974.312	-1115
974.396	-479
974.481	-1253
974.565	-1206
974.649	-1509
974.734	-2085
974.818	22
974.902	-1248
974.987	-615
975.071	-1724
975.155	-910
975.240	-488
975.324	-1429
975.408	-469
975.492	-1011
975.576	-856
975.660	-921
975.744	-1560
975.829	-1586
975.913	-14
975.997	-798
976.081	-2443
976.165	-363
976.249	-1269
976.333	-1376
976.416	-1409
976.500	-683
976.584	-878
976.668	-333
976.752	-1593
976.836	-461
976.919	-1632
977.003	-901
977.087	-1041
977.171	-338
977.254	-973
977.338	-464
977.422	-1401
977.505	-1155
977.589	-1313
977.672	-717
977.756	-1645
977.839	-297
977.923	-1251
978.006	-616
978.090	-45
978.173	-1418
978.257	-246
978.340	-423
978.423	-1048
978.507	-869
978.590	-438
978.673	-1138
978.756	-1165
978.840	-579
978.923	-1534
979.006	-1283
979.089	-1820
979.172	-208
979.255	-1291
979.338	-1349
979.422	-1249
979.505	-561
979.588	-1402
979.671	-1673
979.754	-642
979.836	-604
979.919	-974
980.002	-1606
980.085	-772
980.168	-1135
980.251	-434
980.334	-1446
980.416	-1189
980.499	-1201
980.582	-794
980.665	-634
980.747	-1204
980.830	-967
980.912	-725
980.995	-1729
981.078	-1066
981.160	-1218
981.243	-379
981.325	-919
981.408	-771
981.490	-775
981.573	-1307
981.655	-1289
981.738	-585
981.820	-547
981.902	-1596
981.984	-56
982.067	-1036
982.149	-1083
982.231	-1162
982.314	-16
982.396	-1108
982.478	-990
982.560	-1757
982.642	-754
982.724	-2127
982.807	-970
982.888	-1095
982.971	-898
983.053	-1610
983.135	-134
983.216	-1007
983.298	-213
983.380	-1520
983.462	-995
983.544	-840
983.626	-2123
983.708	-1535
983.790	-952
983.871	-677
983.953	-1620
984.035	-480
984.117	-627
984.198	-1097
984.280	-767
984.362	-1335
984.443	-241
984.525	-1109
984.606	-1086
984.688	-1215
984.769	-760
984.851	-590
984.932	-1334
985.014	-733
985.095	-1170
985.177	-1434
985.258	-2019
985.339	-1507
985.421	-396
985.502	-960
985.583	-941
985.664	-882
985.746	-522
985.827	-2222
985.908	-505
985.989	-331
986.070	-780
986.151	-1332
986.232	-1107
986.313	-834
986.395	-1100
986.476	-1712
986.557	-1020
986.637	-1066
986.718	-626
986.799	-1013
986.880	-1319
986.961	-1398
987.042	-1033
987.123	-1501
987.204	-1799
987.284	-1427
987.365	-1095
987.446	-1002
987.526	-767
987.607	-1579
987.688	-816
987.768	-1759
987.849	-1137
987.930	-1409
988.010	-313
988.091	-1444
988.171	-589
988.252	-1733
988.332	-743
988.413	-1090
988.493	-1807
988.573	-589
988.654	-602
988.734	-884
988.814	-2445
988.895	-536
988.975	-960
989.055	-1390
989.135	-1227
989.216	-429
989.296	-1101
989.376	-1426
989.456	73
989.536	-1236
989.616	-1009
989.696	-1947
989.776	-957
989.856	-829
989.936	-777
990.016	-1314
990.096	-1232
990.176	-1237
990.256	-479
990.336	-1228
990.416	-1241
990.495	-1841
990.575	-819
990.655	-2034
990.735	-1477
990.814	-1053
990.894	-1504
990.974	-1289
991.053	-1558
991.133	-1087
991.213	-1305
991.292	-1681
991.372	-672
991.451	-1344
991.531	-844
991.610	-704
991.690	-1079
991.769	-1645
991.849	-994
991.928	-1116
992.007	-1178
992.087	-1374
992.166	-1495
992.245	-888
992.324	-416
992.404	-993
992.483	-1645
992.562	-1090
992.641	-1113
992.720	-1316
992.799	-670
992.879	-2109
992.958	-1187
993.037	-1495
993.116	-1044
993.195	-885
993.274	-1776
993.353	-1280
993.432	-1210
993.510	-1697
993.589	-1323
993.668	-1499
993.747	-830
993.826	-1888
993.904	-1002
993.983	-1614
994.062	-2277
994.141	-1146
994.219	-1518
994.298	-1442
994.377	-989
994.455	-1697
994.534	-1529
994.612	-1756
994.691	-1374
994.769	-2135
994.848	-726
994.926	-1616
995.005	-1206
995.083	-1684
995.161	-896
995.240	-2321
995.318	-1322
995.397	-1153
995.475	-1716
995.553	-1435
995.631	-1716
995.710	-1428
995.788	-1486
995.866	-2590
995.944	91
996.022	-1439
996.100	-1680
996.178	-975
996.256	-2002
996.334	-915
996.412	-1616
996.490	-1136
996.568	-1489
996.646	-1164
996.724	-672
996.802	-1454
996.880	-2071
996.958	-1293
997.036	-1917
997.113	-1487
997.191	-1112
997.269	-1467
997.346	-1570
997.424	-978
997.502	-1288
997.579	-1840
997.657	-1724
997.735	-609
997.812	-1307
997.890	-1494
997.967	-1802
998.045	-1045
998.122	-1060
998.200	-878
998.277	-1217
998.354	-1654
998.432	-2155
998.509	-1141
998.586	-2240
998.664	-843
998.741	-716
998.818	-1178
998.896	-1726
998.973	-1680
999.050	-1002
999.127	-1596
999.204	-916
999.281	-2294
999.358	-1273
999.435	-1665
999.512	-1814
999.589	-2000
999.666	-1208
999.743	-730
999.820	-1539
999.897	-1228
999.974	-1107
1000.051	-1904
1000.128	-1338
1000.205	-1302
1000.281	-919
1000.358	-1834
1000.435	-836
1000.512	-1150
1000.588	-1436
1000.665	-1850
1000.741	-1493
1000.818	-1012
1000.895	-1307
1000.971	-1894
1001.048	-804
1001.124	-2291
1001.201	-1607
1001.277	-1759
1001.354	-1042
1001.430	-1768
1001.507	-1084
1001.583	-1644
1001.659	-1438
1001.736	-1865
1001.812	-781
1001.888	-1799
1001.964	-1424
1002.041	-2272
1002.117	-1331
1002.193	-941
1002.269	-1371
1002.345	-1586
1002.421	-1408
1002.497	-1306
1002.573	-1440
1002.649	-1513
1002.725	-1725
1002.801	-1730
1002.877	-932
1002.953	-2127
1003.029	-1854
1003.105	-2005
1003.181	-1282
1003.257	-1728
1003.333	-641
1003.408	-1807
1003.484	-2076
1003.560	-1245
1003.636	-846
1003.711	-2237
1003.787	-1129
1003.862	-1661
1003.938	-1914
1004.014	-1191
1004.089	-962
1004.165	-1661
1004.240	-1033
1004.316	-1347
1004.391	-1644
1004.467	-992
1004.542	-1848
1004.617	-1468
1004.693	-1785
1004.768	-1385
1004.844	-878
1004.919	-1884
1004.994	-945
1005.069	-2563
1005.145	-831
1005.220	-1434
1005.295	-1862
1005.370	-1181
1005.445	-1741
1005.520	-859
1005.595	-1362
1005.670	-1276
1005.745	-1996
1005.820	-2189
1005.895	-1181
1005.970	-1395
1006.045	-1338
1006.120	-847
1006.195	-1236
1006.270	-1476
1006.345	-452
1006.419	-1487
1006.494	-601
1006.569	-1049
1006.644	-903
1006.718	-1277
1006.793	-1284
1006.868	-1493
1006.942	-1768
1007.017	-1122
1007.092	-522
1007.166	-1337
1007.241	-1444
1007.315	-2005
1007.390	-632
1007.464	-1405
1007.539	-1554
1007.613	-1701
1007.687	-1052
1007.762	-860
1007.836	-2208
1007.910	-1692
1007.984	-1580
1008.059	-1177
1008.133	-1612
1008.207	-1993
1008.281	-859
1008.356	-1616
1008.430	-450
1008.504	-1592
1008.578	-1146
1008.652	-1098
1008.726	-1222
1008.800	-1675
1008.874	-1237
1008.948	-1281
1009.022	-1496
1009.096	-1901
1009.170	-1070
1009.244	-2967
1009.317	-1476
1009.391	-1340
1009.465	-1254
1009.539	-814
1009.613	-555
1009.686	-1785
1009.760	-1735
1009.834	-1367
1009.907	-1531
1009.981	-1042
1010.054	526
1010.128	-1805
1010.201	-553
1010.275	-1562
1010.349	-2027
1010.422	-1331
1010.495	-1332
1010.569	-1077
1010.642	-1268
1010.716	-786
1010.789	-1448
1010.862	-1307
1010.936	-1382
1011.009	-1248
1011.082	-706
1011.155	-1266
1011.229	-1508
1011.302	-2093
1011.375	-1144
1011.448	-1952
1011.521	-1077
1011.594	-1435
1011.667	-778
1011.740	-768
1011.813	-1376
1011.886	-1404
1011.959	-653
1012.032	-1042
1012.105	-893
1012.178	-1910
1012.251	-1236
1012.324	-1106
1012.396	-382
1012.469	-997
1012.542	-1869
1012.614	-1560
1012.687	-1348
1012.760	-1296
1012.833	-1399
1012.905	-979
1012.978	-729
1013.050	-942
1013.123	-1299
1013.195	-2393
1013.268	-1045
1013.340	-1975
1013.413	-430
1013.485	-2132
1013.558	-2296
1013.630	-1100
1013.702	-200
1013.775	-2737
1013.847	-823
1013.919	-1829
1013.992	-1717
1014.064	-1867
1014.136	-1656
1014.208	-1268
1014.280	-1244
1014.353	-1931
1014.425	-1546
1014.497	-1435
1014.569	-1084
1014.641	-1719
1014.713	-1823
1014.785	-1580
1014.857	-1048
1014.929	-1916
1015.001	-1462
1015.072	-573
1015.144	-2012
1015.216	-930
1015.288	-583
1015.360	-1883
1015.431	-2008
1015.503	-1869
1015.575	-2015
1015.647	-2194
1015.718	-1776
1015.790	-755
1015.861	-1790
1015.933	-1093
1016.005	-1003
1016.076	-1799
1016.148	-1452
1016.219	-2459
1016.291	-805
1016.362	-1742
1016.433	-2246
1016.505	-1567
1016.576	-357
1016.647	-2707
1016.719	-1349
1016.790	-1716
1016.861	-1383
1016.932	-1059
1017.004	-1489
1017.075	-2616
1017.146	-959
1017.217	-2034
1017.288	-1708
1017.359	-2368
1017.430	-1587
1017.502	-1363
1017.573	-1677
1017.644	-1359
1017.714	-964
1017.785	-1580
1017.856	-1007
1017.927	-1470
1017.998	-1220
1018.069	-2554
1018.140	-1650
1018.210	-1589
1018.281	-1523
1018.352	-2091
1018.423	-1705
1018.493	-2108
1018.564	-1890
1018.635	-2001
1018.705	-1919
1018.776	-1759
1018.846	-1443
1018.917	-2017
1018.987	-1628
1019.058	-1111
1019.128	-976
1019.199	-1792
1019.269	-1984
1019.340	-1611
1019.410	-1711
1019.480	-2308
1019.551	-1481
1019.621	-1995
1019.691	-1291
1019.761	-2121
1019.832	-1380
1019.902	-2041
1019.972	-2651
1020.042	-1623
1020.112	-1346
1020.182	-2424
1020.252	-1146
1020.322	-1285
1020.392	-1293
1020.462	-1906
1020.532	-1896
1020.602	-2184
1020.672	-938
1020.742	-2406
1020.812	-1394
1020.882	-1991
1020.952	-1912
1021.021	-1648
1021.091	-1939
1021.161	-2154
1021.230	-2038
1021.300	-1564
1021.370	-1782
1021.440	-1750
1021.509	-953
1021.579	-1711
1021.648	-1396
1021.718	-1761
1021.787	-2120
1021.857	-1719
1021.926	-1578
1021.996	-2250
1022.065	-1318
1022.134	-1853
1022.204	-1993
1022.273	-1236
1022.342	-1933
1022.412	-2187
1022.481	-2157
1022.550	-1692
1022.619	-1397
1022.689	-1474
1022.758	-1767
1022.827	-1751
1022.896	-1671
1022.965	-2334
1023.034	-1684
1023.103	-2173
1023.172	-951
1023.241	-1828
1023.310	-2392
1023.379	-2179
1023.448	-1408
1023.517	-1388
1023.586	-2598
1023.654	-1969
1023.723	-674
1023.792	-2454
1023.861	-1723
1023.929	-1188
1023.998	-1458
1024.067	-2059
1024.135	-2335
1024.204	-2089
1024.273	-2336
1024.341	-1682
1024.410	-1694
1024.478	-2467
1024.547	-1832
1024.615	-2190
1024.684	-2332
1024.752	-1792
1024.820	-1366
1024.889	-2384
1024.957	-1975
1025.026	-2126
1025.094	-1478
1025.162	-1285
1025.230	-1479
1025.299	-2414
1025.367	-1419
1025.435	-2034
1025.503	-1039
1025.571	-1398
1025.639	-1600
1025.707	-1617
1025.776	-1548
1025.844	-1195
1025.912	-1658
1025.979	-1579
1026.047	-1833
1026.115	-2056
1026.183	-1452
1026.251	-2374
1026.319	-1201
1026.387	-1880
1026.454	-2082
1026.522	-1666
1026.590	-1377
1026.658	-2240
1026.725	-1500
1026.793	-2436
1026.861	-1971
1026.928	-2197
1026.996	-1732
1027.064	-2235
1027.131	-1805
1027.199	-1566
1027.266	-2021
1027.334	-1617
1027.401	-1368
1027.468	-1693
1027.536	-1145
1027.603	-1770
1027.671	-2034
1027.738	-1449
1027.805	-1960
1027.872	-2426
1027.940	-1447
1028.007	-1569
1028.074	-1864
1028.141	-1272
1028.208	-2249
1028.275	-1985
1028.342	-1590
1028.409	-1865
1028.477	-2003
1028.544	-2688
1028.610	-1707
1028.678	-2316
1028.744	-2315
1028.811	-2040
1028.878	-1609
1028.945	-2496
1029.012	-2713
1029.079	-1754
1029.146	-1640
1029.212	-2138
1029.279	-1399
1029.346	-1598
1029.412	-1335
1029.479	-2071
1029.546	-1959
1029.612	-1819
1029.679	-2215
1029.745	-2209
1029.812	-1893
1029.878	-1806
1029.945	-1985
1030.011	-1680
1030.078	-1957
1030.144	-1409
1030.210	-2436
1030.277	-2495
1030.343	-1444
1030.409	-2043
1030.476	-1812
1030.542	-1411
1030.608	-1631
1030.674	-2497
1030.740	-2034
1030.807	-1684
1030.873	-2190
1030.939	-2288
1031.005	-1730
1031.071	-2026
1031.137	-2167
1031.203	-1950
1031.269	-1547
1031.335	-2777
1031.401	-1569
1031.467	-2605
1031.533	-1762
1031.598	-2036
1031.664	-2173
1031.730	-1976
1031.796	-1272
1031.861	-2131
1031.927	-1218
1031.993	-2311
1032.058	-2419
1032.124	-1471
1032.190	-1396
1032.255	-2267
1032.321	-1878
1032.386	-2834
1032.452	-1521
1032.518	-2190
1032.583	-2122
1032.648	-1678
1032.714	-2162
1032.779	-2526
1032.844	-1924
1032.910	-2490
1032.975	-2132
1033.040	-1663
1033.106	-2311
1033.171	-2292
1033.236	-2463
1033.301	-2280
1033.366	-3015
1033.432	-2665
1033.496	-1619
1033.562	-2127
1033.627	-1394
1033.692	-1134
1033.757	-2032
1033.822	-2268
1033.887	-1243
1033.952	-1792
1034.016	-1959
1034.081	-1883
1034.146	-2221
1034.211	-2130
1034.276	-1413
1034.340	-1810
1034.405	-1851
1034.470	-1509
1034.535	-1720
1034.599	-1514
1034.664	-1351
1034.729	-2501
1034.793	-1922
1034.858	-2378
1034.922	-2072
1034.987	-2310
1035.051	-1756
1035.116	-2163
1035.180	-1784
1035.245	-1452
1035.309	-2398
1035.373	-1440
1035.437	-1712
1035.502	-1904
1035.566	-2232
1035.630	-2027
1035.695	-2171
1035.759	-2235
1035.823	-1296
1035.887	-1712
1035.951	-1663
1036.015	-1997
1036.079	-2259
1036.143	-2053
1036.208	-1635
1036.271	-1467
1036.336	-1506
1036.399	-1702
1036.463	-1763
1036.527	-1607
1036.591	-1291
1036.655	-1714
1036.719	-2184
1036.783	-2082
1036.846	-977
1036.910	-1474
1036.974	-1785
1037.037	-1669
1037.101	-2344
1037.165	-1991
1037.228	-1804
1037.292	-1847
1037.355	-1351
1037.419	-2437
1037.483	-1502
1037.546	-1606
1037.609	-1935
1037.673	-1458
1037.736	-1364
1037.800	-2215
1037.863	-1739
1037.926	-2515
1037.990	-1928
1038.053	-1283
1038.116	-2222
1038.179	-1283
1038.243	-1894
1038.306	-1762
1038.369	-2030
1038.432	-2222
1038.495	-1701
1038.558	-2142
1038.621	-2048
1038.684	-1655
1038.747	-1463
1038.810	-2183
1038.873	-2428
1038.936	-1975
1038.999	-2141
1039.062	-2816
1039.125	-1733
1039.188	-1814
1039.250	-2122
1039.313	-1937
1039.376	-1846
1039.438	-2640
1039.501	-1212
1039.564	-1955
1039.627	-1582
1039.689	-1638
1039.752	-1764
1039.814	-3036
1039.877	-2188
1039.939	-2394
1040.002	-2511
1040.064	-2228
1040.127	-2046
1040.189	-2127
1040.251	-2290
1040.314	-2188
1040.376	-1751
1040.438	-2278
1040.501	-2621
1040.563	-1653
1040.625	-2021
1040.687	-2422
1040.750	-1733
1040.812	-2194
1040.874	-2364
1040.936	-1895
1040.998	-1577
1041.060	-2430
1041.122	-2366
1041.184	-2550
1041.246	-977
1041.308	-2506
1041.370	-1024
1041.432	-2426
1041.494	-1975
1041.555	-2230
1041.617	-2369
1041.679	-2438
1041.741	-2471
1041.802	-2088
1041.864	-2094
1041.926	-1536
1041.987	-1534
1042.049	-2319
1042.111	-1523
1042.172	-2335
1042.234	-2405
1042.295	-2254
1042.357	-1794
1042.418	-2240
1042.480	-1462
1042.541	-1927
1042.603	-1870
1042.664	-1902
1042.725	-1687
1042.786	-1383
1042.848	-1898
1042.909	-2066
1042.970	-1616
1043.031	-2381
1043.093	-1810
1043.154	-2181
1043.215	-1331
1043.276	-1783
1043.337	-1875
1043.398	-2429
1043.459	-2268
1043.520	-2163
1043.581	-2191
1043.642	-1773
1043.703	-2858
1043.764	-2117
1043.825	-1447
1043.886	-2641
1043.947	-1755
1044.007	-2282
1044.068	-1875
1044.129	-2881
1044.189	-2841
1044.250	-2131
1044.311	-2374
1044.371	-2211
1044.432	-2167
1044.493	-2639
1044.553	-1561
1044.614	-2329
1044.674	-1267
1044.735	-2032
1044.795	-1888
1044.856	-2110
1044.916	-1959
1044.976	-2205
1045.037	-2056
1045.097	-1696
1045.157	-1595
1045.218	-2227
1045.278	-1469
1045.338	-1875
1045.398	-1529
1045.458	-1564
1045.519	-2074
1045.579	-1718
1045.639	-1262
1045.699	-2510
1045.759	-1741
1045.819	-2395
1045.879	-1777
1045.939	-2406
1045.999	-1807
1046.059	-1761
1046.119	-2124
1046.179	-1513
1046.238	-1196
1046.298	-1971
1046.358	-1185
1046.418	-1687
1046.477	-2407
1046.537	-1665
1046.597	-2438
1046.656	-1650
1046.716	-1255
1046.776	-1337
1046.835	-872
1046.895	-715
1046.954	-707
1047.014	-1588
1047.073	-542
1047.133	0
