'Start Wavelength	183.833
'End Wavelength	1047.133
'Gate Delay	5.000
'Gate Width (ms)	1.050
'Laser Output Level	0.000
'X Position	0.000
'Y Position	0.000
'Z Position	0.000
'Grid Point Number	1.000
'Shot Number	100.000
183.833	1217.000
183.903	-543.000
183.973	559
184.042	907
184.112	119
184.182	305
184.252	970
184.321	265
184.391	387
184.461	7
184.531	11
184.600	357
184.670	166
184.740	567
184.809	402
184.879	278
184.949	502
185.018	231
185.088	388
185.158	256
185.228	741
185.297	270
185.367	-294
185.436	-101
185.506	397
185.576	-380
185.645	663
185.715	226
185.785	626
185.854	366
185.924	23
185.993	-29
186.063	-41
186.133	-34
186.202	44
186.272	-552
186.341	-476
186.411	400
186.481	380
186.550	643
186.620	-367
186.689	-26
186.759	-291
186.828	258
186.898	667
186.967	-500
187.037	330
187.106	-78
187.176	-21
187.246	499
187.315	451
187.385	-117
187.454	514
187.524	389
187.593	-48
187.662	-137
187.732	282
187.801	-35
187.871	577
187.940	-36
188.010	385
188.079	73
188.149	600
188.218	1132
188.288	495
188.357	453
188.426	66
188.496	-305
188.565	237
188.635	-11
188.704	110
188.773	441
188.843	536
188.912	-114
188.981	256
189.051	282
189.120	-444
189.190	267
189.259	-56
189.328	165
189.398	21
189.467	-592
189.536	263
189.606	-252
189.675	481
189.744	535
189.813	131
189.883	35
189.952	1129
190.021	1296
190.091	1649
190.160	345
190.229	194
190.298	248
190.368	138
190.437	382
190.506	280
190.575	-118
190.645	-145
190.714	861
190.783	681
190.852	105
190.922	787
190.991	30
191.060	509
191.129	583
191.198	-40
191.268	34
191.337	138
191.406	-142
191.475	-111
191.544	-77
191.613	23
191.683	-282
191.752	-23
191.821	27
191.890	74
191.959	38
192.028	439
192.097	-76
192.166	682
192.236	267
192.305	400
192.374	-426
192.443	781
192.512	157
192.581	127
192.650	-328
192.719	591
192.788	111
192.857	-96
192.926	-156
192.995	386
193.064	941
193.133	484
193.202	753
193.271	1021
193.340	988
193.409	201
193.478	665
193.547	587
193.616	1090
193.685	467
193.754	508
193.823	661
193.892	750
193.961	-69
194.030	281
194.099	-112
194.168	-427
194.237	79
194.306	192
194.375	329
194.444	111
194.513	-106
194.582	173
194.651	-25
194.720	-83
194.788	23
194.857	510
194.926	15
194.995	502
195.064	118
195.133	-389
195.202	731
195.270	459
195.339	760
195.408	423
195.477	1456
195.546	432
195.615	603
195.683	-200
195.752	-525
195.821	316
195.890	733
195.959	38
196.027	481
196.096	194
196.165	857
196.234	-433
196.303	433
196.371	559
196.440	933
196.509	187
196.578	-355
196.646	140
196.715	-10
196.784	315
196.853	286
196.921	-222
196.990	-140
197.059	200
197.127	441
197.196	180
197.265	294
197.333	-41
197.402	766
197.471	-121
197.539	624
197.608	953
197.677	2782
197.745	882
197.814	2450
197.883	828
197.951	1339
198.020	666
198.088	-47
198.157	71
198.226	2522
198.294	704
198.363	121
198.431	608
198.500	1684
198.569	1928
198.637	1116
198.706	1080
198.774	2257
198.843	1546
198.911	205
198.980	-5
199.048	24
199.117	269
199.185	42
199.254	50
199.322	226
199.391	-686
199.459	366
199.528	-8
199.596	0
199.665	348
199.733	-229
199.802	761
199.870	-111
199.939	-28
200.007	891
200.076	-33
200.144	361
200.213	316
200.281	276
200.349	400
200.418	1158
200.486	-204
200.555	605
200.623	8
200.691	306
200.760	-34
200.828	-126
200.897	-116
200.965	467
201.033	208
201.102	481
201.170	0
201.238	6
201.307	-255
201.375	654
201.443	143
201.512	365
201.580	544
201.648	-156
201.716	527
201.785	432
201.853	235
201.921	695
201.990	886
202.058	354
202.126	-436
202.194	255
202.263	39
202.331	423
202.399	-448
202.467	20
202.536	1828
202.604	780
202.672	137
202.740	-41
202.808	-32
202.877	357
202.945	-29
203.013	459
203.081	6
203.149	-74
203.218	-346
203.286	55
203.354	-351
203.422	413
203.490	-42
203.558	832
203.626	223
203.695	28
203.763	-575
203.831	326
203.899	-123
203.967	28
204.035	517
204.103	-229
204.171	-35
204.239	398
204.307	62
204.375	297
204.443	-228
204.512	208
204.580	553
204.648	200
204.716	-7
204.784	484
204.852	-165
204.920	6
204.988	61
205.056	-472
205.124	6
205.192	239
205.260	-507
205.328	324
205.396	291
205.464	210
205.532	75
205.600	-199
205.667	257
205.735	2032
205.803	2567
205.871	851
205.939	1078
206.007	83
206.075	-478
206.143	-195
206.211	405
206.279	-112
206.347	149
206.414	834
206.482	-33
206.550	38
206.618	140
206.686	111
206.754	139
206.822	685
206.889	166
206.957	1262
207.025	539
207.093	131
207.161	-687
207.229	448
207.296	448
207.364	275
207.432	270
207.500	-115
207.567	603
207.635	126
207.703	764
207.771	209
207.839	-4
207.906	374
207.974	413
208.042	692
208.109	296
208.177	1209
208.245	285
208.313	588
208.380	1495
208.448	1096
208.516	-306
208.583	820
208.651	685
208.719	184
208.786	27
208.854	171
208.922	112
208.989	412
209.057	240
209.125	-141
209.192	341
209.260	55
209.327	384
209.395	691
209.463	50
209.530	843
209.598	514
209.665	649
209.733	87
209.801	153
209.868	-222
209.936	1086
210.003	216
210.071	-32
210.138	527
210.206	207
210.273	515
210.341	415
210.408	22
210.476	304
210.543	81
210.611	734
210.678	199
210.746	538
210.813	733
210.881	505
210.948	-503
211.016	810
211.083	-69
211.151	20
211.218	788
211.285	872
211.353	881
211.420	580
211.488	107
211.555	181
211.622	145
211.690	806
211.757	-233
211.825	971
211.892	77
211.959	818
212.027	-204
212.094	-229
212.161	979
212.229	1146
212.296	3715
212.363	12975
212.431	4453
212.498	1862
212.565	1174
212.633	492
212.700	758
212.767	-50
212.835	563
212.902	-405
212.969	499
213.036	545
213.104	17
213.171	1014
213.238	430
213.305	649
213.373	525
213.440	1378
213.507	1091
213.574	661
213.641	289
213.709	-351
213.776	796
213.843	703
213.910	75
213.977	138
214.045	683
214.112	752
214.179	862
214.246	711
214.313	-31
214.380	714
214.447	481
214.515	135
214.582	410
214.649	748
214.716	457
214.783	249
214.850	785
214.917	1133
214.984	2090
215.051	1401
215.118	339
215.185	587
215.253	489
215.320	895
215.387	-84
215.454	275
215.521	180
215.588	366
215.655	592
215.722	61
215.789	287
215.856	713
215.923	1114
215.990	371
216.057	-146
216.124	512
216.191	452
216.258	490
216.325	317
216.391	-233
216.458	191
216.525	1027
216.592	2112
216.659	1752
216.726	1158
216.793	2173
216.860	877
216.927	299
216.994	895
217.061	291
217.127	713
217.194	1530
217.261	2073
217.328	2632
217.395	1709
217.462	1267
217.529	189
217.595	335
217.662	409
217.729	2019
217.796	727
217.863	-60
217.929	355
217.996	881
218.063	561
218.130	-20
218.196	667
218.263	-360
218.330	-145
218.397	-122
218.463	186
218.530	637
218.597	1484
218.664	958
218.730	326
218.797	80
218.864	617
218.930	165
218.997	-129
219.064	997
219.131	1192
219.197	287
219.264	178
219.331	112
219.397	-328
219.464	479
219.530	817
219.597	794
219.664	-128
219.730	556
219.797	73
219.864	140
219.930	512
219.997	1881
220.063	1338
220.130	1317
220.196	187
220.263	1627
220.330	1673
220.396	4936
220.463	2339
220.529	1453
220.596	1381
220.662	931
220.729	5599
220.795	3503
220.862	3927
220.928	8954
220.995	9463
221.061	8853
221.128	6023
221.194	1906
221.261	559
221.327	973
221.394	742
221.460	541
221.526	1330
221.593	8892
221.659	4230
221.726	5496
221.792	4408
221.859	1082
221.925	1028
221.991	1181
222.058	369
222.124	1517
222.190	670
222.257	401
222.323	-446
222.390	280
222.456	-404
222.522	-253
222.589	677
222.655	32
222.721	-40
222.788	499
222.854	-338
222.920	321
222.986	-145
223.053	-95
223.119	601
223.185	-339
223.251	170
223.318	651
223.384	-476
223.450	-564
223.516	-401
223.583	-952
223.649	-33
223.715	-143
223.781	-483
223.848	229
223.914	-327
223.980	-110
224.046	383
224.112	-429
224.178	-303
224.245	81
224.311	-330
224.377	98
224.443	-30
224.509	-176
224.575	-170
224.641	-681
224.708	-221
224.774	283
224.840	147
224.906	-167
224.972	-236
225.038	-139
225.104	-331
225.170	73
225.236	277
225.302	117
225.368	-44
225.434	-596
225.500	-14
225.566	57
225.632	65
225.699	-93
225.765	-333
225.831	818
225.897	1365
225.963	1057
226.028	326
226.094	872
226.160	1159
226.226	6284
226.292	11816
226.358	4513
226.424	1397
226.490	1589
226.556	800
226.622	1154
226.688	2018
226.754	3263
226.820	17881
226.886	15380
226.951	3767
227.017	1454
227.083	1387
227.149	954
227.215	224
227.281	-468
227.347	402
227.412	427
227.478	2350
227.544	2820
227.610	886
227.676	505
227.742	-66
227.807	843
227.873	607
227.939	764
228.005	395
228.070	-478
228.136	37
228.202	-28
228.268	-53
228.333	1207
228.399	340
228.465	44
228.531	-17
228.596	156
228.662	560
228.728	60
228.793	52
228.859	420
228.925	868
228.990	-123
229.056	585
229.122	104
229.187	852
229.253	-456
229.319	-124
229.384	-729
229.450	-4
229.516	-928
229.581	1163
229.647	-6
229.712	1653
229.778	2069
229.844	296
229.909	324
229.975	616
230.040	277
230.106	66
230.171	868
230.237	1372
230.302	945
230.368	156
230.433	516
230.499	209
230.564	-359
230.630	529
230.695	532
230.761	-544
230.826	1402
230.892	-34
230.957	187
231.023	-508
231.088	-11
231.154	369
231.219	69
231.285	128
231.350	258
231.415	77
231.481	-2
231.546	322
231.612	-479
231.677	-285
231.742	282
231.808	-108
231.873	-361
231.938	684
232.004	656
232.069	-55
232.135	-202
232.200	263
232.265	106
232.330	-422
232.396	-876
232.461	836
232.526	-358
232.592	-158
232.657	1134
232.722	387
232.788	508
232.853	518
232.918	93
232.983	72
233.048	685
233.114	709
233.179	2201
233.244	2421
233.309	901
233.375	370
233.440	323
233.505	-260
233.570	311
233.635	123
233.700	1708
233.766	1492
233.831	860
233.896	200
233.961	973
234.026	162
234.091	229
234.156	437
234.222	1625
234.287	6704
234.352	4423
234.417	2878
234.482	532
234.547	572
234.612	1232
234.677	874
234.742	5041
234.807	3525
234.872	1345
234.937	911
235.002	698
235.067	42
235.132	1263
235.197	329
235.262	-108
235.327	528
235.392	1320
235.457	670
235.522	1046
235.587	-42
235.652	256
235.717	445
235.782	981
235.847	2665
235.912	3085
235.977	3151
236.042	1083
236.107	968
236.172	954
236.236	1125
236.301	694
236.366	2640
236.431	3226
236.496	1521
236.561	4009
236.626	24537
236.691	16321
236.755	4755
236.820	3260
236.885	1960
236.950	1857
237.015	2282
237.079	2155
237.144	6057
237.209	25024
237.274	41207
237.339	12935
237.403	4790
237.468	2717
237.533	2063
237.598	2164
237.662	1428
237.727	2359
237.792	4382
237.856	2038
237.921	877
237.986	2864
238.050	2225
238.115	9197
238.180	7710
238.245	3728
238.309	2225
238.374	919
238.438	2340
238.503	1082
238.568	1488
238.632	825
238.697	800
238.762	3749
238.826	4270
238.891	1873
238.955	1286
239.020	1463
239.085	833
239.149	1417
239.214	546
239.278	1153
239.343	1638
239.407	1487
239.472	9295
239.536	6557
239.601	1780
239.665	544
239.730	1268
239.794	4910
239.859	6158
239.923	2120
239.988	563
240.052	806
240.117	206
240.181	142
240.246	407
240.310	992
240.374	4553
240.439	7930
240.503	1886
240.568	3612
240.632	4139
240.696	1565
240.761	655
240.825	784
240.890	1580
240.954	4338
241.018	7263
241.083	3104
241.147	-165
241.211	1033
241.276	3314
241.340	1503
241.404	1145
241.469	897
241.533	984
241.597	484
241.661	-173
241.726	1145
241.790	663
241.854	578
241.919	226
241.983	770
242.047	633
242.111	688
242.175	99
242.240	992
242.304	817
242.368	702
242.432	799
242.496	1239
242.561	-161
242.625	227
242.689	-442
242.753	617
242.817	722
242.881	1150
242.946	503
243.010	570
243.074	860
243.138	684
243.202	603
243.266	1272
243.330	1363
243.394	10776
243.458	31299
243.522	8243
243.586	3031
243.651	1678
243.715	1255
243.779	2952
243.843	3569
243.907	2397
243.971	1019
244.035	1295
244.099	301
244.163	1123
244.227	2497
244.291	2343
244.355	966
244.419	937
244.483	428
244.546	260
244.610	1155
244.674	751
244.738	271
244.802	416
244.866	21
244.930	-289
244.994	173
245.058	716
245.122	1938
245.186	1192
245.249	1133
245.313	-711
245.377	999
245.441	-35
245.505	704
245.569	527
245.632	666
245.696	3101
245.760	1107
245.824	543
245.888	91
245.951	1493
246.015	432
246.079	1036
246.143	3601
246.207	9894
246.270	3282
246.334	1783
246.398	1881
246.461	2418
246.525	1957
246.589	1372
246.653	841
246.716	1318
246.780	1785
246.844	2371
246.907	1395
246.971	1185
247.035	1511
247.098	1652
247.162	4338
247.226	14170
247.289	4988
247.353	2153
247.416	3121
247.480	2254
247.544	1280
247.607	1789
247.671	1024
247.734	1303
247.798	1555
247.861	5331
247.925	12882
247.989	3278
248.052	1071
248.116	3182
248.179	3973
248.243	22543
248.306	19693
248.370	13023
248.433	3164
248.497	4464
248.560	3597
248.624	3442
248.687	7554
248.751	24784
248.814	10203
248.877	11007
248.941	16515
249.004	28635
249.068	21748
249.131	6668
249.194	3858
249.258	5348
249.321	2779
249.385	2550
249.448	3126
249.511	2783
249.575	3803
249.638	3851
249.701	2335
249.765	3067
249.828	3143
249.891	3310
249.955	2300
250.018	9459
250.081	9988
250.145	4396
250.208	3523
250.271	3852
250.334	4249
250.398	3549
250.461	4795
250.524	5890
250.587	35571
250.651	56181
250.714	14151
250.777	8063
250.840	5412
250.903	5401
250.967	6729
251.030	15400
251.093	8432
251.156	6571
251.219	5798
251.282	9286
251.345	50675
251.409	42327
251.472	22682
251.535	95607
251.598	55480
251.661	16939
251.724	19513
251.787	21079
251.850	58381
251.913	27126
251.976	10206
252.039	7021
252.103	6277
252.166	11671
252.229	28375
252.292	28675
252.355	73130
252.418	25303
252.481	12415
252.544	8275
252.607	8330
252.670	23147
252.733	30664
252.796	73000
252.858	33726
252.921	15071
252.984	8817
253.047	6388
253.110	5388
253.173	8834
253.236	6004
253.299	5158
253.362	4611
253.425	5117
253.488	10807
253.550	7186
253.613	6502
253.676	5849
253.739	3399
253.802	4605
253.865	3770
253.928	3588
253.990	7079
254.053	11545
254.116	7029
254.179	6193
254.242	2495
254.304	4864
254.367	4971
254.430	4403
254.493	7799
254.555	12140
254.618	4906
254.681	3513
254.743	1729
254.806	3530
254.869	9351
254.932	7670
254.994	3145
255.057	1749
255.120	1695
255.182	668
255.245	1905
255.308	1430
255.370	1292
255.433	1194
255.496	1005
255.558	525
255.621	1606
255.683	146
255.746	472
255.809	1165
255.871	869
255.934	538
255.996	379
256.059	365
256.121	1327
256.184	5577
256.246	4130
256.309	2698
256.371	2367
256.434	1137
256.496	431
256.559	1826
256.621	2314
256.684	11066
256.746	33992
256.809	8714
256.871	3087
256.934	2722
256.996	1438
257.059	2372
257.121	1327
257.183	1506
257.246	313
257.308	1461
257.371	6404
257.433	44759
257.495	35437
257.558	13145
257.620	6297
257.683	3342
257.745	2654
257.807	1742
257.870	1357
257.932	1316
257.994	1115
258.056	1280
258.119	1668
258.181	3159
258.243	1817
258.306	989
258.368	4532
258.430	4990
258.492	8373
258.555	10349
258.617	1989
258.679	2411
258.741	2704
258.803	1337
258.866	1174
258.928	1716
258.990	1352
259.052	1636
259.114	2309
259.177	1632
259.239	2363
259.301	6825
259.363	2731
259.425	694
259.487	1554
259.549	1805
259.611	391
259.674	1554
259.736	7757
259.798	15148
259.860	24446
259.922	18730
259.984	4479
260.046	2665
260.108	2271
260.170	1345
260.232	1073
260.294	2163
260.356	1331
260.418	2175
260.480	5673
260.542	3943
260.604	9861
260.666	14697
260.728	3191
260.790	2740
260.852	1087
260.914	2475
260.976	979
261.038	2939
261.100	14566
261.161	12328
261.223	2798
261.285	6546
261.347	8551
261.409	1996
261.471	2095
261.533	1007
261.595	760
261.656	3665
261.718	8618
261.780	2197
261.842	2300
261.904	1677
261.966	2116
262.027	2161
262.089	3144
262.151	2648
262.213	1054
262.274	3069
262.336	1629
262.398	725
262.460	4345
262.521	8622
262.583	2477
262.645	639
262.706	1627
262.768	8431
262.830	3641
262.892	2383
262.953	1968
263.015	18629
263.077	47553
263.138	12418
263.200	4469
263.261	2676
263.323	2545
263.385	1636
263.446	1435
263.508	2555
263.569	1665
263.631	1550
263.693	49
263.754	608
263.816	428
263.877	-40
263.939	-266
264.000	585
264.062	2353
264.123	667
264.185	88
264.246	475
264.308	879
264.369	4799
264.431	1690
264.492	217
264.554	1920
264.615	2694
264.677	1959
264.738	472
264.800	-543
264.861	421
264.922	91
264.984	8
265.045	-82
265.107	756
265.168	14020
265.229	11284
265.291	1896
265.352	1042
265.413	711
265.475	440
265.536	-213
265.597	-291
265.659	-372
265.720	398
265.781	-301
265.843	-467
265.904	2923
265.965	28813
266.026	16262
266.088	3669
266.149	2057
266.210	863
266.271	177
266.333	628
266.394	1015
266.455	470
266.516	-382
266.577	397
266.639	2486
266.700	129
266.761	-95
266.822	-585
266.883	357
266.944	-79
267.005	184
267.067	-58
267.128	-98
267.189	-778
267.250	573
267.311	-125
267.372	-1441
267.433	-603
267.494	66
267.555	-974
267.616	-964
267.677	394
267.738	-1006
267.799	1894
267.860	2812
267.921	1135
267.982	570
268.043	232
268.104	-436
268.165	-774
268.226	-166
268.287	-1147
268.348	-371
268.409	-266
268.470	-191
268.531	-97
268.592	-441
268.653	-656
268.714	-409
268.775	41
268.836	1059
268.896	1644
268.957	443
269.018	-671
269.079	30
269.140	125
269.201	762
269.262	-328
269.322	-714
269.383	-791
269.444	871
269.505	1083
269.565	1154
269.626	-56
269.687	97
269.748	385
269.809	476
269.869	957
269.930	-59
269.991	-538
270.051	-298
270.112	-259
270.173	-823
270.234	-88
270.294	-482
270.355	433
270.416	-604
270.476	833
270.537	1493
270.598	3653
270.658	619
270.719	770
270.779	951
270.840	-272
270.901	269
270.961	560
271.022	752
271.082	1156
271.143	1348
271.203	933
271.264	86
271.325	83
271.385	5331
271.446	2041
271.506	281
271.567	1039
271.627	517
271.688	281
271.748	1924
271.809	21450
271.869	33906
271.930	6914
271.990	12796
272.050	27872
272.111	5890
272.171	2804
272.232	2939
272.292	15928
272.352	7350
272.413	4166
272.473	2286
272.534	3322
272.594	1878
272.654	3878
272.715	6900
272.775	2464
272.835	1728
272.896	1105
272.956	1062
273.016	2739
273.077	1703
273.137	1666
273.197	1385
273.257	7669
273.318	16786
273.378	5069
273.438	6116
273.498	10925
273.559	4237
273.619	9561
273.679	22536
273.739	7106
273.799	3662
273.860	11893
273.920	26180
273.980	5549
274.040	3178
274.100	3593
274.160	25136
274.221	23430
274.281	17106
274.341	14722
274.401	8280
274.461	4193
274.521	2836
274.581	20053
274.641	26474
274.701	10189
274.761	4283
274.821	10380
274.882	39692
274.942	30592
275.002	16991
275.062	4890
275.122	3753
275.182	2092
275.242	3806
275.302	4658
275.362	4209
275.421	3398
275.481	15347
275.541	36547
275.601	13935
275.661	6603
275.721	4056
275.781	2792
275.841	1940
275.901	1638
275.961	2149
276.021	1140
276.081	2820
276.140	8255
276.200	4061
276.260	2468
276.320	1137
276.380	2129
276.440	839
276.499	1212
276.559	878
276.619	1038
276.679	6025
276.738	4437
276.798	1855
276.858	2481
276.918	1545
276.978	719
277.037	1729
277.097	1566
277.157	7227
277.216	2681
277.276	1599
277.336	1819
277.395	1098
277.455	1149
277.515	1593
277.574	4595
277.634	8162
277.694	3263
277.753	11227
277.813	7924
277.873	8611
277.932	27816
277.992	9079
278.051	6606
278.111	8841
278.171	4249
278.230	9074
278.290	7057
278.349	3454
278.409	2286
278.468	2014
278.528	1405
278.587	1593
278.647	2409
278.706	7967
278.766	25579
278.825	7072
278.885	3102
278.944	3345
279.004	7975
279.063	7464
279.122	4177
279.182	4098
279.241	4662
279.301	5103
279.360	9310
279.419	42123
279.479	184125
279.538	165108
279.598	33363
279.657	17025
279.716	23363
279.776	40673
279.835	15576
279.894	8901
279.953	6388
280.013	10704
280.072	18929
280.131	17255
280.191	128268
280.250	156166
280.309	29638
280.368	16002
280.428	12079
280.487	8509
280.546	6835
280.605	7754
280.664	8711
280.724	3497
280.783	2711
280.842	2102
280.901	1679
280.960	2274
281.019	1336
281.079	1874
281.138	1646
281.197	1566
281.256	12952
281.315	10034
281.374	2819
281.433	1395
281.492	1639
281.551	1553
281.611	1552
281.670	1768
281.729	1706
281.788	641
281.847	1030
281.906	1549
281.965	737
282.024	636
282.083	578
282.142	385
282.201	691
282.260	4239
282.319	2941
282.378	1451
282.436	933
282.495	7438
282.554	3881
282.613	978
282.672	-88
282.731	1531
282.790	1392
282.849	1046
282.908	1206
282.967	601
283.025	98
283.084	1373
283.143	5205
283.202	11225
283.261	2019
283.319	1426
283.378	1220
283.437	480
283.496	2082
283.555	2083
283.613	1437
283.672	1374
283.731	2005
283.790	3001
283.848	825
283.907	2063
283.966	2383
284.024	2094
284.083	1045
284.142	2076
284.201	1212
284.259	1909
284.318	11069
284.376	9173
284.435	2371
284.494	3027
284.552	2775
284.611	1099
284.670	1848
284.728	3351
284.787	3891
284.845	2639
284.904	3272
284.962	3966
285.021	9027
285.079	37334
285.138	214614
285.197	203850
285.255	53189
285.314	23083
285.372	15175
285.431	10345
285.489	7993
285.547	5976
285.606	3676
285.664	2841
285.723	2533
285.781	2224
285.840	1717
285.898	1344
285.957	1268
286.015	1038
286.073	1171
286.132	1105
286.190	2046
286.248	1969
286.307	2855
286.365	2192
286.423	565
286.482	1585
286.540	1180
286.598	1423
286.657	1586
286.715	1218
286.773	757
286.832	2505
286.890	4136
286.948	1982
287.006	1076
287.064	898
287.123	899
287.181	2253
287.239	1219
287.297	2329
287.356	3958
287.414	3119
287.472	2129
287.530	2208
287.588	1855
287.646	2650
287.704	3859
287.763	2522
287.821	2369
287.879	3006
287.937	5350
287.995	18008
288.053	112133
288.111	385187
288.169	156261
288.227	41315
288.285	21872
288.343	16938
288.401	13404
288.459	9409
288.517	6704
288.575	4020
288.633	2842
288.691	2118
288.749	1475
288.807	1274
288.865	1251
288.923	757
288.981	1524
289.039	913
289.097	906
289.155	1143
289.213	1491
289.271	1477
289.329	772
289.386	1565
289.444	2272
289.502	1162
289.560	532
289.618	85
289.676	464
289.734	1091
289.791	267
289.849	1166
289.907	880
289.965	198
290.022	414
290.080	662
290.138	312
290.196	82
290.253	227
290.311	20
290.369	-416
290.427	203
290.484	493
290.542	173
290.600	722
290.657	174
290.715	254
290.773	-222
290.830	672
290.888	411
290.946	379
291.003	-13
291.061	-337
291.118	3300
291.176	8790
291.234	2227
291.291	1139
291.349	-536
291.406	363
291.464	-124
291.521	-30
291.579	-16
291.636	51
291.694	608
291.751	2202
291.809	1083
291.866	776
291.924	815
291.981	1110
292.039	746
292.096	487
292.154	619
292.211	466
292.268	2073
292.326	2135
292.383	1679
292.441	1346
292.498	1364
292.555	1170
292.613	2696
292.670	1313
292.727	1517
292.785	4663
292.842	12409
292.899	6012
292.957	1822
293.014	1657
293.071	650
293.129	649
293.186	581
293.243	2374
293.300	2086
293.358	1505
293.415	599
293.472	687
293.529	2628
293.586	13871
293.644	36851
293.701	16134
293.758	4811
293.815	3402
293.872	5296
293.929	3816
293.987	2013
294.044	4168
294.101	9254
294.158	9896
294.215	3241
294.272	1699
294.329	1760
294.386	2884
294.443	1598
294.500	1141
294.558	1021
294.615	2341
294.672	8119
294.729	36242
294.786	28747
294.843	12229
294.900	7274
294.957	4969
295.014	3306
295.070	1864
295.127	1564
295.184	1286
295.241	2543
295.298	12307
295.355	25626
295.412	10598
295.469	4213
295.526	7336
295.583	12528
295.640	11234
295.696	17145
295.753	7334
295.810	3119
295.867	2000
295.924	3082
295.981	3064
296.037	1908
296.094	1585
296.151	596
296.208	1111
296.265	435
296.321	657
296.378	1323
296.435	6879
296.492	13861
296.548	10644
296.605	37620
296.662	55666
296.718	18740
296.775	6381
296.832	5404
296.888	11068
296.945	23799
297.002	18199
297.058	6219
297.115	3724
297.172	6808
297.228	34378
297.285	62770
297.341	24498
297.398	7682
297.454	4368
297.511	3242
297.568	3790
297.624	2212
297.681	1359
297.737	1000
297.794	952
297.850	957
297.907	658
297.963	1432
298.020	3368
298.076	11768
298.133	11261
298.189	5058
298.245	14200
298.302	46447
298.358	28610
298.415	13469
298.471	9690
298.527	6782
298.584	4205
298.640	8552
298.697	24305
298.753	19186
298.809	6943
298.866	2526
298.922	2202
298.978	2276
299.035	2427
299.091	1530
299.147	1853
299.203	1244
299.260	2430
299.316	8194
299.372	39652
299.428	39924
299.485	15645
299.541	5202
299.597	3903
299.653	4789
299.710	4040
299.766	2926
299.822	4639
299.878	18240
299.934	22098
299.990	24317
300.046	51018
300.103	25593
300.159	9689
300.215	9159
300.271	8196
300.327	5102
300.383	2500
300.439	1803
300.495	1335
300.551	3379
300.607	9275
300.663	17168
300.719	21192
300.775	31832
300.831	19108
300.887	17582
300.943	13771
300.999	5397
301.055	3157
301.111	3468
301.167	2227
301.223	1422
301.279	1753
301.335	1087
301.391	1087
301.447	877
301.503	1320
301.559	3345
301.614	3106
301.670	6185
301.726	9388
301.782	6705
301.838	10407
301.894	13639
301.949	40986
302.005	134139
302.061	136167
302.117	60230
302.173	21086
302.228	10777
302.284	9640
302.340	15971
302.396	12189
302.451	11033
302.507	29544
302.563	33612
302.618	16616
302.674	6886
302.730	3190
302.785	3054
302.841	2516
302.897	4019
302.952	5626
303.008	5325
303.064	6463
303.119	6797
303.175	4052
303.230	2800
303.286	1085
303.341	2056
303.397	1798
303.453	816
303.508	829
303.564	2753
303.619	9207
303.675	34147
303.730	29894
303.786	11749
303.841	4888
303.897	2262
303.952	4481
304.008	5960
304.063	5371
304.118	8839
304.174	9377
304.229	6707
304.285	3323
304.340	2829
304.372	2212
304.395	1778
304.451	2048
304.463	1950
304.506	1633
304.554	1893
304.562	1946
304.617	6871
304.644	17012
304.672	27607
304.728	44261
304.735	41289
304.783	22157
304.825	11619
304.838	8486
304.894	3990
304.916	3798
304.949	3604
305.004	2731
305.006	2722
305.059	2677
305.097	1437
305.115	880
305.170	1147
305.188	1085
305.225	983
305.278	1481
305.280	1502
305.336	1025
305.369	1452
305.391	1763
305.446	1980
305.459	2233
305.501	3070
305.550	2892
305.556	2882
305.612	7206
305.640	15083
305.667	22558
305.722	27256
305.731	26026
305.777	19455
305.821	28051
305.832	30426
305.887	32153
305.912	25264
305.942	16197
305.997	6391
306.002	6184
306.053	4519
306.092	3315
306.108	2856
306.163	2091
306.183	1939
306.218	1833
306.273	2074
306.273	2066
306.328	1838
306.364	2021
306.383	2088
306.438	1902
306.454	2269
306.493	3172
306.545	7025
306.548	7308
306.603	12101
306.635	15512
306.658	18008
306.713	15289
306.725	13778
306.768	8032
306.816	3710
306.823	3168
306.878	1998
306.906	1839
306.933	1685
306.988	1405
306.997	1466
307.043	1927
307.087	2607
307.098	2777
307.152	4837
307.177	6009
307.207	7465
307.262	8139
307.268	7876
307.317	5405
307.358	4418
307.372	4124
307.427	7671
307.448	10420
307.482	15103
307.536	15458
307.538	15232
307.591	8825
307.629	5777
307.646	4488
307.701	3927
307.719	4804
307.756	6862
307.809	12964
307.810	13104
307.865	10411
307.900	8051
307.920	6485
307.975	4445
307.990	5636
308.029	9269
308.080	25441
308.084	27145
308.139	89398
308.170	100559
308.194	106655
308.248	62092
308.261	56389
308.303	30830
308.351	15990
308.358	14701
308.412	9316
308.441	7548
308.467	6135
308.522	4669
308.531	4511
308.576	4025
308.621	3802
308.631	3780
308.686	6634
308.712	9838
308.740	13721
308.795	13179
308.802	12739
308.849	8038
308.892	5095
308.904	4493
308.959	3647
308.982	4072
309.013	4924
309.068	9829
309.072	11090
309.122	26337
309.162	63325
309.177	79666
309.231	147744
309.253	137686
309.286	106884
309.340	54310
309.343	53070
309.395	24491
309.433	13038
309.449	10769
309.504	8170
309.523	7582
309.558	7183
309.613	7942
309.613	7959
309.667	8249
309.703	7214
309.722	6446
309.776	4481
309.793	4150
309.830	3574
309.883	4006
309.885	4044
309.939	8809
309.973	10130
309.994	10617
310.048	9061
310.063	8330
310.102	5008
310.153	2417
310.157	2327
310.211	1539
310.243	1388
310.265	1437
310.320	1603
310.333	1601
310.374	1216
310.423	915
310.428	899
310.483	642
310.513	705
310.537	776
310.591	893
310.603	805
310.646	627
310.693	722
310.700	655
310.754	96
310.783	-155
310.808	53
310.862	491
310.873	605
310.917	575
310.963	505
310.971	476
311.025	273
311.053	152
311.079	140
311.133	94
311.143	101
311.188	296
311.233	537
311.242	491
311.296	85
311.323	-89
311.350	89
311.404	542
311.413	613
311.458	362
311.503	50
311.512	100
311.567	488
311.593	701
311.621	610
311.675	355
311.683	335
311.729	342
311.772	301
311.783	313
311.837	413
311.862	498
311.891	514
311.945	525
311.952	537
311.999	336
312.042	169
312.053	189
312.107	350
312.132	435
312.222	158
312.311	265
312.401	-121
312.491	501
312.581	1460
312.671	40
312.760	242
312.850	395
312.940	283
313.030	1030
313.119	149
313.209	283
313.299	190
313.389	-25
313.478	-58
313.568	426
313.658	324
313.747	528
313.837	-329
313.927	440
314.016	711
314.106	-264
314.195	70
314.285	634
314.375	401
314.464	-517
314.554	62
314.643	-525
314.733	-74
314.823	585
314.912	60
315.002	274
315.091	-217
315.181	54
315.270	261
315.360	340
315.449	492
315.539	216
315.628	300
315.718	426
315.807	1732
315.896	2700
315.986	608
316.075	1579
316.165	1061
316.254	1681
316.344	-338
316.433	621
316.522	655
316.612	252
316.701	180
316.790	865
316.880	1340
316.969	270
317.058	683
317.148	72
317.237	352
317.326	83
317.415	-835
317.505	1401
317.594	-293
317.683	694
317.772	467
317.862	1774
317.951	5677
318.040	1171
318.129	382
318.219	-295
318.308	558
318.397	1684
318.486	473
318.575	1732
318.664	3094
318.754	260
318.843	-143
318.932	-558
319.021	143
319.110	1964
319.199	5103
319.288	1500
319.377	1398
319.466	129
319.555	23
319.644	1567
319.733	869
319.822	587
319.911	2316
320.000	5730
320.089	1695
320.178	558
320.267	1558
320.356	390
320.445	119
320.534	936
320.623	147
320.712	-61
320.801	70
320.890	250
320.979	296
321.068	611
321.157	1080
321.245	923
321.334	783
321.423	2610
321.512	592
321.601	331
321.690	1519
321.779	1184
321.867	1002
321.956	1793
322.045	557
322.134	580
322.222	2795
322.311	1815
322.400	86
322.489	2022
322.577	2866
322.666	1122
322.755	747
322.843	1737
322.932	1542
323.021	607
323.110	339
323.198	365
323.287	633
323.375	2998
323.464	7748
323.553	1950
323.641	5552
323.730	1976
323.819	1418
323.907	4308
323.996	1286
324.084	598
324.173	3365
324.261	1372
324.350	739
324.438	427
324.527	304
324.615	194
324.704	868
324.792	877
324.881	1059
324.969	-288
325.058	-241
325.146	775
325.235	1539
325.323	1351
325.412	1160
325.500	515
325.588	-301
325.677	234
325.765	187
325.853	172
325.942	651
326.030	-178
326.118	602
326.207	1008
326.295	-214
326.383	-708
326.472	-145
326.560	-421
326.648	60
326.737	-199
326.825	222
326.913	-28
327.001	539
327.090	490
327.178	682
327.266	-136
327.354	780
327.442	720
327.531	105
327.619	20
327.707	179
327.795	339
327.883	-190
327.971	79
328.060	-923
328.148	-207
328.236	-635
328.324	-378
328.412	62
328.500	283
328.588	659
328.676	1096
328.764	570
328.852	-380
328.940	453
329.028	-298
329.116	-273
329.204	861
329.292	31
329.380	212
329.468	-502
329.556	304
329.644	-344
329.732	26
329.820	-247
329.908	-62
329.996	257
330.084	45
330.172	3239
330.259	7169
330.347	2252
330.435	-8
330.523	452
330.611	1152
330.699	336
330.787	873
330.874	694
330.962	180
331.050	-210
331.138	-206
331.226	90
331.313	581
331.401	274
331.489	697
331.577	-199
331.664	32
331.752	372
331.840	-276
331.927	96
332.015	232
332.103	-52
332.190	234
332.278	2152
332.366	1487
332.453	-96
332.541	-538
332.629	251
332.716	-287
332.804	71
332.891	1178
332.979	1934
333.066	54
333.154	105
333.242	-253
333.329	131
333.417	-97
333.504	1657
333.592	154
333.679	-34
333.767	321
333.854	-65
333.942	1100
334.029	1043
334.117	3130
334.204	6181
334.291	1565
334.379	771
334.466	334
334.554	161
334.641	-25
334.728	374
334.816	1803
334.903	10804
334.990	5933
335.078	1398
335.165	215
335.252	480
335.340	290
335.427	4655
335.514	2179
335.602	-70
335.689	-248
335.776	332
335.863	626
335.951	385
336.038	3185
336.125	8730
336.212	2436
336.299	494
336.387	81
336.474	-161
336.561	90
336.648	655
336.735	52
336.822	-446
336.910	437
336.997	2074
337.084	4883
337.171	5144
337.258	5350
337.345	1949
337.432	-619
337.519	33
337.606	355
337.693	1700
337.780	2828
337.867	708
337.954	1451
338.041	663
338.128	85
338.215	48
338.302	1737
338.389	3700
338.476	918
338.563	2061
338.650	1131
338.737	851
338.824	1068
338.911	9
338.998	-287
339.085	-372
339.171	-202
339.258	625
339.345	265
339.432	974
339.519	600
339.606	-1034
339.692	-123
339.779	390
339.866	459
339.953	-368
340.040	-65
340.126	14
340.213	-94
340.300	574
340.387	-568
340.473	-143
340.560	-335
340.647	178
340.733	1893
340.820	123
340.907	-498
340.993	259
341.080	29
341.167	197
341.253	267
341.340	-633
341.426	147
341.513	-838
341.600	-411
341.686	641
341.773	115
341.859	520
341.946	-323
342.032	-960
342.119	-764
342.205	238
342.292	60
342.378	-254
342.465	101
342.551	23
342.638	762
342.724	1049
342.811	756
342.897	-1107
342.984	-530
343.070	-956
343.156	-68
343.243	87
343.329	554
343.416	-942
343.502	-294
343.588	-161
343.675	5
343.761	-262
343.847	-246
343.934	966
344.020	12008
344.106	13102
344.193	1220
344.279	-327
344.365	3145
344.451	1718
344.538	618
344.624	-117
344.710	235
344.796	84
344.882	-453
344.969	-865
345.055	441
345.141	-324
345.227	182
345.313	-775
345.399	-311
345.486	-792
345.572	-381
345.658	-709
345.744	503
345.830	78
345.916	332
346.002	49
346.088	118
346.174	-8
346.260	177
346.346	-21
346.432	35
346.518	1779
346.604	3269
346.690	-333
346.776	-230
346.862	-345
346.948	-659
347.034	-500
347.120	239
347.206	-153
347.292	-485
347.378	499
347.464	2268
347.549	4735
347.635	3837
347.721	2144
347.807	187
347.893	-107
347.979	642
348.065	-475
348.150	-314
348.236	-248
348.322	-79
348.408	293
348.493	412
348.579	-903
348.665	-183
348.751	-213
348.836	-668
348.922	963
349.008	4872
349.094	3367
349.179	-139
349.265	-69
349.351	-397
349.436	-511
349.522	534
349.608	-953
349.693	44
349.779	2045
349.864	-110
349.950	-139
350.036	-891
350.121	-531
350.207	-124
350.292	-1526
350.378	-328
350.463	313
350.549	-78
350.634	-268
350.720	-347
350.805	-401
350.891	-119
350.976	80
351.062	-332
351.147	66
351.233	-142
351.318	979
351.404	1079
351.489	-651
351.574	-131
351.660	-440
351.745	-37
351.830	-896
351.916	-186
352.001	312
352.086	1617
352.172	-212
352.257	247
352.342	-590
352.428	208
352.513	423
352.598	3340
352.684	486
352.769	611
352.854	-864
352.939	-439
353.024	-268
353.110	132
353.195	752
353.280	-19
353.365	-730
353.450	632
353.536	136
353.621	356
353.706	-34
353.791	468
353.876	-742
353.961	-119
354.046	571
354.131	547
354.216	-66
354.302	-396
354.387	-519
354.472	86
354.557	-361
354.642	294
354.727	91
354.812	-597
354.897	-806
354.982	-274
355.067	-272
355.152	-151
355.237	471
355.321	630
355.406	104
355.491	1344
355.576	-93
355.661	652
355.746	183
355.831	2863
355.916	1134
356.001	-57
356.085	-878
356.170	505
356.255	-741
356.340	124
356.425	914
356.509	7745
356.594	2124
356.679	-254
356.764	803
356.849	319
356.933	7882
357.018	13731
357.103	1328
357.187	430
357.272	190
357.357	-103
357.441	52
357.526	-108
357.611	-72
357.695	240
357.780	-271
357.865	-512
357.949	226
358.034	6993
358.118	17323
358.203	2390
358.288	-380
358.372	-562
358.457	2129
358.541	4100
358.626	2653
358.710	2129
358.795	61
358.879	-278
358.964	-220
359.048	-204
359.133	-376
359.217	-1159
359.302	547
359.386	-20
359.470	486
359.555	-102
359.639	-480
359.724	-688
359.808	-145
359.892	-608
359.977	-560
360.061	286
360.145	-846
360.230	-107
360.314	-844
360.398	772
360.483	156
360.567	168
360.651	1348
360.735	113
360.820	5532
360.904	5701
360.988	335
361.072	-749
361.157	-12
361.241	-102
361.325	-840
361.409	263
361.493	459
361.577	140
361.662	122
361.746	664
361.830	9057
361.914	4319
361.998	-187
362.082	-175
362.166	161
362.250	-152
362.334	396
362.418	1472
362.502	917
362.586	-233
362.671	-865
362.754	-403
362.839	-361
362.922	-625
363.006	3494
363.090	10393
363.174	5464
363.258	365
363.342	-136
363.426	968
363.510	4740
363.594	1505
363.678	-152
363.762	19
363.846	22
363.929	-428
364.013	403
364.097	303
364.181	1476
364.265	7413
364.349	2298
364.432	4061
364.516	538
364.600	1096
364.684	2275
364.767	8338
364.851	1312
364.935	1016
365.019	-256
365.102	-123
365.186	270
365.270	3490
365.353	6262
365.437	809
365.521	-525
365.604	-1311
365.688	222
365.771	-400
365.855	-249
365.939	-143
366.022	187
366.106	-1176
366.189	-768
366.273	589
366.357	-1130
366.440	-676
366.524	-609
366.607	-300
366.691	-587
366.774	-325
366.858	141
366.941	269
367.024	-153
367.108	108
367.191	314
367.275	-1163
367.358	-1326
367.442	87
367.525	-900
367.608	-203
367.692	-559
367.775	-525
367.858	-410
367.942	2615
368.025	1322
368.108	-1102
368.192	-645
368.275	254
368.358	-341
368.442	956
368.525	1184
368.608	74
368.691	1944
368.775	2148
368.858	-115
368.941	161
369.024	160
369.107	-782
369.190	-231
369.274	-679
369.357	-278
369.440	-461
369.523	-427
369.606	-1435
369.689	-4
369.772	-256
369.855	-238
369.939	294
370.022	-1173
370.105	-1322
370.188	712
370.271	-577
370.354	13
370.437	539
370.520	4891
370.603	2376
370.686	-760
370.769	1707
370.852	3081
370.935	2775
371.018	109
371.100	-385
371.183	-449
371.266	-744
371.349	-937
371.432	-313
371.515	-1008
371.598	-403
371.681	460
371.763	48
371.846	48
371.929	11102
372.012	8649
372.095	1594
372.177	2008
372.260	3813
372.343	-847
372.426	135
372.508	292
372.591	36
372.674	1140
372.757	2679
372.839	47
372.922	2240
373.005	1321
373.087	-479
373.170	363
373.253	1420
373.335	4195
373.418	12794
373.500	12078
373.583	2122
373.666	14034
373.748	6490
373.831	-138
373.913	198
373.996	305
374.078	2730
374.161	950
374.243	1083
374.326	2544
374.408	1947
374.491	8388
374.573	11001
374.656	1030
374.738	3194
374.821	7907
374.903	14926
374.985	5138
375.068	813
375.150	133
375.233	3293
375.315	1891
375.397	-561
375.480	-447
375.562	-282
375.644	387
375.727	2972
375.809	9476
375.891	4756
375.973	621
376.056	1126
376.138	1089
376.220	-69
376.302	3998
376.385	4881
376.467	-72
376.549	134
376.631	2131
376.713	4148
376.795	-317
376.878	-976
376.960	-988
377.042	-1063
377.124	-191
377.206	-586
377.288	-571
377.370	-373
377.452	-1199
377.534	-1031
377.616	-87
377.699	-1011
377.781	-1806
377.863	90
377.945	-270
378.027	-742
378.109	-377
378.190	-746
378.272	-152
378.354	-688
378.436	-1329
378.518	-598
378.600	240
378.682	-301
378.764	2053
378.846	-282
378.928	654
379.010	-576
379.091	-373
379.173	-462
379.255	-1108
379.337	-942
379.419	863
379.501	2384
379.582	-598
379.664	-893
379.746	-894
379.828	1178
379.909	2702
379.991	534
380.073	-489
380.155	-703
380.236	-970
380.318	-1138
380.400	-639
380.481	-70
380.563	-358
380.645	-162
380.726	-766
380.808	-487
380.889	-860
380.971	-968
381.053	-1103
381.134	-471
381.216	-64
381.297	1260
381.379	-357
381.460	1134
381.542	7165
381.623	2174
381.705	-268
381.786	-554
381.868	-314
381.949	5067
382.031	10997
382.112	2991
382.193	-1027
382.275	532
382.356	1951
382.438	4293
382.519	8773
382.600	6555
382.682	2057
382.763	4992
382.844	2405
382.926	3519
383.007	139
383.088	1149
383.170	9567
383.251	5158
383.332	3610
383.413	5781
383.495	1055
383.576	-493
383.657	97
383.738	7679
383.820	14434
383.901	1507
383.982	4305
384.063	7231
384.144	237
384.225	-714
384.306	106
384.388	-1224
384.469	-717
384.550	-485
384.631	-367
384.712	-594
384.793	-716
384.874	-618
384.955	2197
385.036	353
385.117	-460
385.198	68
385.279	-798
385.360	-159
385.441	-1187
385.522	754
385.603	4354
385.684	574
385.765	-163
385.846	-375
385.927	9817
386.008	5497
386.089	-454
386.169	-603
386.250	-1028
386.331	-117
386.412	-582
386.493	619
386.574	526
386.654	-273
386.735	-1402
386.816	117
386.897	-1013
386.977	-61
387.058	-1636
387.139	-13
387.220	566
387.300	106
387.381	360
387.462	-657
387.542	-600
387.623	-89
387.704	536
387.784	4900
387.865	2364
387.946	236
388.026	-148
388.107	-1993
388.187	646
388.268	611
388.349	-708
388.429	-441
388.510	826
388.590	6897
388.671	2987
388.751	311
388.832	536
388.912	-556
388.993	-1468
389.073	-600
389.154	-596
389.234	-1079
389.314	365
389.395	-1409
389.475	1442
389.556	428
389.636	312
389.716	-318
389.797	-1761
389.877	1507
389.957	2219
390.038	-83
390.118	-1286
390.198	59
390.279	1394
390.359	-351
390.439	2023
390.519	4189
390.600	1260
390.680	-719
390.760	-10
390.840	-650
390.920	-965
391.001	-947
391.081	-670
391.161	-1133
391.241	-1400
391.321	361
391.401	84
391.481	-334
391.562	-1230
391.642	-831
391.722	-546
391.802	196
391.882	-308
391.962	1054
392.042	36
392.122	231
392.202	143
392.282	1575
392.362	212
392.442	-152
392.522	-766
392.602	338
392.682	581
392.762	2695
392.842	523
392.921	1988
393.001	3848
393.081	945
393.161	1930
393.241	14584
393.321	60506
393.401	22313
393.480	3443
393.560	528
393.640	-336
393.720	-316
393.800	-1065
393.879	1001
393.959	-152
394.039	59
394.119	60
394.198	383
394.278	7912
394.358	38628
394.437	11504
394.517	879
394.597	-128
394.676	443
394.756	1314
394.836	1660
394.915	25
394.995	-360
395.075	-158
395.154	-303
395.234	-1860
395.313	-452
395.393	-2372
395.472	395
395.552	1004
395.631	2449
395.711	1183
395.790	2612
395.870	264
395.949	583
396.029	11016
396.108	48470
396.188	16558
396.267	2145
396.346	-323
396.426	83
396.505	336
396.585	84
396.664	1891
396.743	19820
396.823	42723
396.902	10644
396.981	629
397.061	634
397.140	-1224
397.219	271
397.298	97
397.378	109
397.457	-463
397.536	-388
397.615	-2310
397.694	458
397.774	-989
397.853	-1612
397.932	-184
398.011	-721
398.090	382
398.169	2217
398.249	-1192
398.328	-943
398.407	-1287
398.486	-926
398.565	-20
398.644	-1173
398.723	-46
398.802	-761
398.881	407
398.960	2124
399.039	-608
399.118	-1957
399.197	-753
399.276	-67
399.355	-1534
399.434	-1447
399.513	-1012
399.592	-562
399.671	-431
399.750	440
399.829	3571
399.908	539
399.986	-1086
400.065	-1159
400.144	-2051
400.223	1198
400.302	-744
400.380	-1126
400.459	755
400.538	199
400.617	-1611
400.696	-106
400.774	-774
400.853	-696
400.932	-656
401.011	367
401.089	-766
401.168	-468
401.247	-338
401.325	-512
401.404	-871
401.483	-1126
401.561	-564
401.640	-898
401.718	-193
401.797	-322
401.876	-1239
401.954	-1436
402.033	-1074
402.111	-543
402.190	-1202
402.268	-559
402.347	-352
402.425	517
402.504	-1236
402.582	-313
402.661	-783
402.739	-651
402.818	-845
402.896	-82
402.974	-70
403.053	376
403.131	-162
403.210	-378
403.288	431
403.366	461
403.445	-1298
403.523	-968
403.601	-250
403.680	-1943
403.758	-105
403.836	-462
403.915	-865
403.993	-809
404.071	520
404.149	-1169
404.228	-1550
404.306	-781
404.384	-737
404.462	569
404.540	8093
404.618	1001
404.697	-304
404.775	-625
404.853	-857
404.931	-894
405.009	-1156
405.087	-531
405.165	-917
405.243	-1903
405.321	-414
405.399	-977
405.478	-606
405.556	-106
405.634	-1195
405.712	-1332
405.790	-727
405.868	-1012
405.945	-510
406.023	-309
406.101	-1627
406.179	73
406.257	317
406.335	4676
406.413	-90
406.491	-1232
406.569	-1655
406.647	-436
406.724	-1428
406.802	-1180
406.880	-1298
406.958	3
407.036	-1536
407.113	3396
407.191	308
407.269	-510
407.347	-1379
407.424	-346
407.502	-970
407.580	-849
407.658	-171
407.735	1706
407.813	672
407.891	-531
407.968	-1167
408.046	-37
408.124	-1764
408.201	-361
408.279	-1098
408.356	-712
408.434	-1171
408.512	-909
408.589	-909
408.667	-981
408.744	-613
408.822	-1012
408.899	-444
408.977	-1002
409.054	-1690
409.132	-1170
409.209	-521
409.287	-802
409.364	-838
409.441	-828
409.519	-1100
409.596	-174
409.674	-1072
409.751	-1683
409.828	-774
409.906	-754
409.983	-2196
410.060	-1372
410.138	-795
410.215	-205
410.292	-1150
410.370	-996
410.447	-1421
410.524	-577
410.601	-598
410.678	-333
410.756	-1125
410.833	-2256
410.910	-746
410.987	38
411.064	-1057
411.142	-1523
411.219	-1299
411.296	-650
411.373	-1539
411.450	-105
411.527	-603
411.604	-1606
411.681	-1290
411.758	-932
411.835	-890
411.913	-641
411.990	-389
412.067	-965
412.144	-1003
412.221	-1405
412.298	-863
412.374	-962
412.451	-423
412.528	-518
412.605	-638
412.682	-259
412.759	-1242
412.836	-1409
412.913	-1378
412.990	-463
413.067	-441
413.143	-24
413.220	-118
413.297	-1001
413.374	192
413.451	-1427
413.527	-483
413.604	-131
413.681	-1840
413.758	-687
413.834	-1415
413.911	-1234
413.988	-1269
414.065	-1613
414.141	-641
414.218	-475
414.295	119
414.371	624
414.448	-1369
414.524	-1083
414.601	-256
414.678	-945
414.754	-1221
414.831	-1006
414.907	-948
414.984	-616
415.060	-947
415.137	-933
415.213	-753
415.290	-1349
415.366	168
415.443	-958
415.519	-1531
415.596	-1258
415.672	-367
415.749	-1198
415.825	-1292
415.902	-902
415.978	-431
416.054	-165
416.131	-1087
416.207	-1972
416.283	-941
416.360	-662
416.436	-621
416.512	-1188
416.589	-1180
416.665	-1515
416.741	-1128
416.817	-1775
416.894	-852
416.970	-924
417.046	-698
417.122	-1593
417.198	-1863
417.275	-750
417.351	-1302
417.427	-1069
417.503	-1537
417.579	-1299
417.655	-1024
417.731	-887
417.808	-1596
417.884	-385
417.960	-1527
418.036	-1719
418.112	-280
418.188	-1257
418.264	-519
418.340	198
418.416	-1711
418.492	-669
418.568	-1140
418.644	-806
418.720	-708
418.796	-1171
418.872	-1436
418.947	-1374
419.023	-1244
419.099	-502
419.175	-1920
419.251	-1415
419.327	-1306
419.403	-498
419.478	-1600
419.554	-981
419.630	-1141
419.706	-1249
419.782	-740
419.857	-1082
419.933	-867
420.009	-382
420.085	-1061
420.160	-372
420.236	-931
420.312	-867
420.387	-1628
420.463	-841
420.539	-359
420.614	-1776
420.690	-1112
420.766	-1738
420.841	-203
420.917	-2171
420.992	-1605
421.068	-1476
421.143	-766
421.219	-1333
421.294	-834
421.370	-1217
421.445	-228
421.521	-279
421.596	-539
421.672	-364
421.747	-1102
421.823	-1309
421.898	-1470
421.974	-1122
422.049	-527
422.124	-948
422.200	-997
422.275	-608
422.350	-226
422.426	-325
422.501	4374
422.576	25373
422.652	34200
422.727	8979
422.802	570
422.878	150
422.953	-655
423.028	-1135
423.103	-570
423.178	-1051
423.254	-1055
423.329	-516
423.404	-1704
423.479	-504
423.554	-1419
423.630	-724
423.705	-959
423.780	-968
423.855	-908
423.930	-1053
424.005	-2259
424.080	-1056
424.155	-1039
424.230	-835
424.305	-1580
424.380	-1213
424.455	-1088
424.530	-442
424.605	-1833
424.680	-883
424.755	-1685
424.830	-1808
424.905	-1083
424.980	370
425.055	-400
425.130	-1931
425.204	-1124
425.279	-1918
425.354	-1128
425.429	-1815
425.504	-1639
425.579	-1628
425.653	-1498
425.728	-1082
425.803	-639
425.878	-868
425.952	-719
426.027	-178
426.102	-1030
426.177	-2264
426.251	287
426.326	-2375
426.401	-1694
426.475	-1327
426.550	-1099
426.625	-1421
426.699	-1659
426.774	-1190
426.848	-1133
426.923	-1608
426.998	-768
427.072	1013
427.147	1688
427.221	-934
427.296	-1318
427.370	-1243
427.445	-1214
427.519	-1564
427.594	-638
427.668	-1315
427.743	-1815
427.817	-723
427.892	-1932
427.966	-1917
428.040	-1131
428.115	-622
428.189	543
428.263	3211
428.338	-973
428.412	-821
428.486	-991
428.561	-1299
428.635	-991
428.709	-972
428.784	-981
428.858	1872
428.932	754
429.006	-883
429.080	-1763
429.155	-1502
429.229	-1182
429.303	-1339
429.377	-1212
429.451	-1253
429.526	-586
429.600	-1010
429.674	-1509
429.748	-1208
429.822	1221
429.896	1238
429.970	-64
430.044	644
430.118	121
430.192	7124
430.266	2601
430.340	-1707
430.414	-899
430.488	-563
430.562	51
430.636	464
430.710	4308
430.784	2110
430.858	-954
430.932	-1852
431.006	-979
431.080	-1711
431.153	-1834
431.227	-1806
431.301	-1759
431.375	-418
431.449	-1798
431.523	-903
431.596	-1359
431.670	-1259
431.744	-748
431.818	2554
431.891	-798
431.965	-1470
432.039	-752
432.112	-940
432.186	-1801
432.260	-1155
432.333	-1402
432.407	-1397
432.481	815
432.554	2158
432.628	-1358
432.702	-1591
432.775	-1753
432.849	-1821
432.922	-1017
432.996	-1684
433.069	-2265
433.143	-1214
433.216	-1404
433.290	-1269
433.363	-1324
433.437	-1137
433.510	-982
433.584	-896
433.657	-1481
433.730	-1352
433.804	-1758
433.877	-1217
433.951	-1365
434.024	-778
434.097	-2209
434.171	-1330
434.244	-2066
434.317	-1312
434.391	-614
434.464	-2183
434.537	-1425
434.610	-1097
434.684	-2019
434.757	-1111
434.830	-1725
434.903	-1502
434.977	-2081
435.050	-1963
435.123	-1622
435.196	-1056
435.269	-1885
435.342	-1362
435.415	-1117
435.489	-1454
435.562	-1504
435.635	-1478
435.708	-1291
435.781	-2063
435.854	-1083
435.927	-1375
436.000	-2387
436.073	-1307
436.146	-1488
436.219	-1967
436.292	-1967
436.365	-1826
436.438	-1863
436.511	-1389
436.584	-1309
436.657	-2030
436.729	-939
436.802	-1673
436.875	-1295
436.948	-1126
437.021	-1518
437.094	-1911
437.166	-2137
437.239	-949
437.312	-1528
437.385	-1593
437.457	-1436
437.530	-1564
437.603	-1017
437.676	-1180
437.748	-1496
437.821	-1654
437.894	-1747
437.966	-2578
438.039	-1843
438.112	-1306
438.184	-1240
438.257	2231
438.330	3697
438.402	-46
438.475	-1898
438.547	-1233
438.620	-2346
438.692	-1674
438.765	-1570
438.837	-589
438.910	-1270
438.982	-1596
439.055	-1618
439.127	-1526
439.200	-1817
439.272	-2014
439.345	-1693
439.417	-1157
439.489	-1538
439.562	-1480
439.634	-1402
439.707	-1391
439.779	-2005
439.851	-1928
439.923	-1536
439.996	-1870
440.068	-1956
440.140	-1844
440.213	-2327
440.285	-1138
440.357	-1052
440.429	507
440.502	-979
440.574	-1978
440.646	-1216
440.718	-1396
440.790	-1498
440.862	-1922
440.935	-1310
441.007	-1896
441.079	-1527
441.151	-1851
441.223	-1548
441.295	-2077
441.367	-1858
441.439	-670
441.511	-1148
441.583	-1521
441.655	-1195
441.727	-1854
441.799	-2198
441.871	-1260
441.943	-2175
442.015	-1912
442.087	-1818
442.159	-2276
442.231	-2456
442.303	-989
442.374	-1609
442.446	-604
442.518	333
442.590	-860
442.662	-682
442.734	-1293
442.805	-2099
442.877	-892
442.949	-1302
443.021	-2106
443.092	-1136
443.164	-1469
443.236	-1986
443.308	-1450
443.379	120
443.451	5189
443.523	2652
443.594	-482
443.666	-1913
443.737	-1317
443.809	-1783
443.881	-2165
443.952	-2414
444.024	-1302
444.095	-1841
444.167	-1655
444.238	-1463
444.310	-1490
444.381	-1492
444.453	-1588
444.524	-1820
444.596	-1375
444.667	-1885
444.739	-1859
444.810	-1843
444.882	-2136
444.953	-1184
445.024	-1713
445.096	-2213
445.167	-1392
445.238	-1413
445.310	-745
445.381	3160
445.452	7366
445.524	1690
445.595	-137
445.666	-755
445.737	-743
445.809	-1250
445.880	-1063
445.951	-2100
446.022	-1611
446.094	-2033
446.165	-1065
446.236	-2162
446.307	-1625
446.378	-2031
446.449	-2151
446.520	-1532
446.591	-1864
446.663	-2108
446.734	-1788
446.805	-1137
446.876	-1252
446.947	-1869
447.018	-1917
447.089	-1978
447.160	-1951
447.231	-1954
447.302	-1351
447.373	-2102
447.444	-1710
447.514	-1350
447.585	-1287
447.656	-1531
447.727	-2269
447.798	-1706
447.869	-2576
447.940	-1881
448.010	-2081
448.081	-1742
448.152	-1873
448.223	-1694
448.294	-974
448.364	-2406
448.435	-2256
448.506	-1112
448.577	-2084
448.647	-1845
448.718	-1772
448.789	-2112
448.859	-1785
448.930	-1704
449.001	-1632
449.071	-1698
449.142	-1907
449.213	-2162
449.283	-2135
449.354	-1350
449.424	-1949
449.495	-1855
449.565	-2211
449.636	-1467
449.706	-1758
449.777	-1518
449.847	-1886
449.918	-2344
449.988	-1430
450.059	-2185
450.129	-1336
450.200	-2580
450.270	-1772
450.340	-1533
450.411	-1554
450.481	-1803
450.551	-1572
450.622	-2478
450.692	-1893
450.762	-1985
450.833	-1507
450.903	-2032
450.973	-2705
451.043	-2035
451.114	-1287
451.184	-2273
451.254	-1147
451.324	-1618
451.395	-2169
451.465	-2201
451.535	-2202
451.605	-2158
451.675	-2200
451.745	-2045
451.815	-1339
451.885	-1982
451.956	-1250
452.026	-2050
452.096	-1995
452.166	-1625
452.236	-1166
452.306	-1758
452.376	-1781
452.446	-1908
452.516	-2032
452.586	-853
452.656	-2003
452.725	-1173
452.795	-1408
452.865	-1920
452.935	-1806
453.005	-1897
453.075	-2124
453.145	-2180
453.215	-765
453.284	-505
453.354	-247
453.424	-375
453.494	161
453.564	444
453.633	-1859
453.703	-2106
453.773	-1822
453.843	-2222
453.895	-2144
453.912	-2147
453.976	-2286
453.982	-2330
454.052	-1742
454.057	-1746
454.121	-2099
454.139	-1874
454.191	-1216
454.220	-1121
454.261	-1168
454.301	-1483
454.330	-1958
454.382	-1954
454.400	-1954
454.463	-807
454.469	-709
454.539	-1693
454.544	-1604
454.608	-705
454.625	-470
454.678	480
454.707	1271
454.748	1297
454.788	1878
454.817	1020
454.869	-237
454.887	-328
454.950	-390
454.956	-332
455.026	668
455.031	787
455.095	608
455.112	1014
455.165	1441
455.193	1798
455.234	2064
455.274	2408
455.303	2118
455.355	1769
455.373	1592
455.436	169
455.442	-101
455.512	-380
455.517	-468
455.581	-787
455.598	-839
455.650	-976
455.679	-1192
455.720	-1490
455.760	-1067
455.789	-847
455.841	-850
455.858	-862
455.922	-380
455.928	-363
455.997	-736
456.003	-686
456.066	396
456.084	536
456.136	1448
456.165	2155
456.205	2288
456.245	2895
456.274	1883
456.326	-297
456.343	-369
456.407	-735
456.412	-795
456.482	-514
456.488	-478
456.551	-360
456.569	-512
456.620	-639
456.650	-359
456.689	-112
456.730	-151
456.758	-156
456.811	-284
456.827	-30
456.892	1468
456.897	1709
456.966	6182
456.973	6718
457.035	11700
457.054	13405
457.104	6288
457.134	1717
457.173	757
457.215	-353
457.242	-427
457.296	244
457.311	406
457.377	437
457.380	405
457.449	488
457.457	539
457.518	1344
457.538	1402
457.587	2271
457.619	3022
457.656	4647
457.699	7034
457.725	6474
457.780	4297
457.794	4099
457.861	3698
457.863	3792
457.932	7614
457.941	8244
458.001	10068
458.022	10830
458.070	6694
458.103	3366
458.138	2648
458.183	2211
458.207	2715
458.264	3434
458.276	3929
458.344	7229
458.345	7270
458.414	16124
458.425	17558
458.483	12441
458.506	10426
458.551	6284
458.586	3235
458.620	2894
458.667	1986
458.689	1862
458.747	2217
458.758	2399
458.826	3132
458.828	3146
458.895	2214
458.908	2068
458.964	1813
458.989	1835
459.033	2277
459.069	2387
459.101	2411
459.150	2623
459.170	2491
459.230	2461
459.239	2496
459.307	2294
459.311	2294
459.376	2290
459.391	2252
459.444	2324
459.471	2432
459.513	2417
459.552	2252
459.582	2145
459.632	2007
459.650	2102
459.713	2776
459.719	2851
459.787	3180
459.793	3268
459.856	3042
459.873	2739
459.924	2681
459.954	2733
459.993	3163
460.034	3677
460.061	4274
460.114	5673
460.130	5453
460.195	3965
460.198	3915
460.267	2918
460.275	2826
460.335	3655
460.355	3910
460.404	5966
460.436	7144
460.472	12690
460.516	19514
460.540	21928
460.596	27531
460.609	23942
460.676	4784
460.677	4794
460.745	3454
460.757	3333
460.814	2582
460.837	2121
460.882	3413
460.917	4752
460.950	4906
460.997	4710
461.019	4291
461.077	3340
461.087	3347
461.155	3580
461.158	3551
461.224	3444
461.238	3505
461.292	3317
461.318	3157
461.360	4227
461.398	5113
461.428	7743
461.478	12301
461.496	15487
461.558	26258
461.565	25146
461.633	11943
461.638	10831
461.701	6462
461.719	5060
461.769	4978
461.799	4991
461.837	4228
461.879	3680
461.905	3994
461.959	4189
461.973	4704
462.039	7040
462.042	7329
462.110	13769
462.119	14563
462.178	12983
462.199	12536
462.246	8210
462.279	4791
462.314	5317
462.359	6047
462.382	5442
462.439	3749
462.450	3884
462.518	4728
462.519	4717
462.586	5101
462.599	5103
462.654	5697
462.679	6027
462.722	8150
462.759	9910
462.790	8896
462.839	7180
462.858	6852
462.919	5464
462.926	5378
462.993	4046
462.999	3951
463.061	5007
463.078	5231
463.129	5270
463.158	5266
463.197	5715
463.238	6197
463.265	6107
463.318	5594
463.333	5566
463.398	5391
463.401	5460
463.468	6620
463.478	6720
463.536	8143
463.558	8575
463.604	11533
463.637	13730
463.672	15405
463.717	17145
463.739	20696
463.797	30115
463.807	28316
463.875	15022
463.877	14588
463.943	7700
463.957	6173
464.010	5642
464.036	5308
464.078	5493
464.116	5679
464.146	6326
464.196	7198
464.213	7198
464.275	7035
464.281	7317
464.349	10444
464.355	10686
464.416	8309
464.435	7480
464.484	7797
464.515	8028
464.551	9196
464.594	10413
464.619	9798
464.674	8094
464.686	8162
464.754	8351
464.754	8409
464.821	9788
464.833	10015
464.889	8391
464.913	7625
464.956	7747
464.992	7673
465.024	7705
465.072	7663
465.091	7761
465.152	8002
465.159	8296
465.226	10554
465.231	10639
465.294	14441
465.311	15447
465.361	15620
465.390	15536
465.429	22205
465.470	29173
465.496	25320
465.549	16991
465.563	15665
465.629	8956
465.631	9019
465.698	9269
465.708	9255
465.765	8598
465.788	8269
465.833	8591
465.867	8766
465.900	9133
465.947	9453
465.967	9423
466.026	9214
466.035	9384
466.102	10242
466.106	10229
466.169	10093
466.185	9980
466.236	10145
466.265	10127
466.304	10459
466.344	10722
466.371	12198
466.423	14854
466.438	16541
466.503	23638
466.505	24496
466.572	46328
466.582	49305
466.639	36132
466.662	30723
466.707	22891
466.741	16598
466.774	16518
466.820	16169
466.841	15970
466.900	15006
466.908	15033
466.975	14532
466.979	14415
467.042	14886
467.058	14902
467.109	14079
467.138	13475
467.176	13500
467.217	13367
467.243	13491
467.296	13500
467.310	13721
467.375	14297
467.377	14313
467.455	11324
467.534	10521
467.613	12471
467.692	15755
467.772	16835
467.851	13852
467.930	22642
468.009	49123
468.088	30907
468.167	10860
468.246	13612
468.326	12817
468.405	11496
468.484	10422
468.563	11749
468.642	11733
468.721	11622
468.800	11253
468.879	13487
468.958	22284
469.037	13229
469.116	11117
469.195	8163
469.274	10668
469.353	9956
469.432	10086
469.511	10326
469.590	12604
469.669	15441
469.748	18635
469.827	9911
469.905	10111
469.984	10445
470.063	11281
470.142	17178
470.221	15833
470.300	12702
470.378	10034
470.457	11120
470.536	13629
470.615	15024
470.694	11381
470.772	13450
470.851	20087
470.930	10697
471.008	8462
471.087	7593
471.166	7202
471.245	8268
471.323	8755
471.402	9193
471.480	8662
471.559	9141
471.638	8031
471.716	7420
471.795	8605
471.873	8525
471.952	9181
472.031	11685
472.109	13777
472.188	9987
472.266	7394
472.345	6942
472.423	8044
472.502	8793
472.580	11430
472.659	10476
472.737	10699
472.815	8388
472.894	10378
472.972	11454
473.051	8237
473.129	9969
473.207	10327
473.286	10898
473.364	9989
473.443	14214
473.521	20299
473.599	11106
473.677	8844
473.756	10520
473.834	10323
473.912	8358
473.991	11778
474.069	17151
474.147	19200
474.225	7807
474.303	9077
474.382	9102
474.460	9537
474.538	9304
474.616	9515
474.694	10119
474.772	8920
474.851	8593
474.929	9582
475.007	9547
475.085	11067
475.163	12471
475.241	21364
475.319	12597
475.397	8799
475.475	10555
475.553	16426
475.631	31748
475.709	35685
475.787	36128
475.865	10813
475.943	9297
476.021	15103
476.099	17790
476.177	10247
476.255	9375
476.333	10836
476.410	14278
476.488	16979
476.566	10120
476.644	10416
476.722	9367
476.800	8513
476.877	7647
476.955	8388
477.033	9538
477.111	9753
477.189	7555
477.266	7454
477.344	7675
477.422	8429
477.499	8486
477.577	8508
477.655	11200
477.732	10358
477.810	11117
477.888	9465
477.965	8352
478.043	10105
478.121	14169
478.198	22913
478.276	9800
478.353	7757
478.431	8580
478.508	11698
478.586	8839
478.664	9494
478.741	11029
478.819	12601
478.896	7223
478.974	8537
479.051	11124
479.128	11171
479.206	6940
479.283	7608
479.361	7889
479.438	9299
479.516	9401
479.593	8762
479.670	10912
479.748	10875
479.825	17010
479.902	10052
479.980	8311
480.057	8313
480.134	8569
480.211	10283
480.289	14084
480.366	26207
480.443	12855
480.520	8709
480.598	9775
480.675	10313
480.752	9365
480.829	10441
480.906	10277
480.984	10633
481.061	11084
481.138	8192
481.215	7007
481.292	9408
481.369	7465
481.446	9327
481.523	6984
481.600	8903
481.677	7906
481.754	9894
481.831	16189
481.908	21409
481.985	9671
482.062	10531
482.139	18124
482.216	26904
482.293	9926
482.370	9459
482.447	8708
482.524	8261
482.601	9616
482.678	6587
482.755	7801
482.832	8064
482.908	8166
482.985	9013
483.062	10217
483.139	10019
483.216	8496
483.293	8311
483.369	8523
483.446	11771
483.523	8826
483.600	8460
483.676	10477
483.753	10405
483.830	16841
483.906	41744
483.983	30459
484.060	16738
484.136	16562
484.213	14846
484.290	12961
484.366	11890
484.443	13188
484.519	13883
484.596	13269
484.673	16827
484.749	14431
484.826	12320
484.902	13167
484.979	13635
485.055	13654
485.132	12626
485.208	15259
485.285	17544
485.361	23998
485.437	43722
485.514	23439
485.590	16930
485.667	17156
485.743	21032
485.819	36212
485.896	18754
485.972	14401
486.049	14197
486.125	15178
486.201	16809
486.277	18725
486.354	16964
486.430	17020
486.506	18046
486.583	19678
486.659	31801
486.735	24888
486.811	33070
486.887	49168
486.964	71781
487.040	65962
487.116	31040
487.192	14581
487.268	14571
487.344	16526
487.420	18062
487.497	19570
487.573	34567
487.649	86671
487.725	62018
487.801	19430
487.877	14603
487.953	17258
488.029	17527
488.105	13741
488.181	14304
488.257	20638
488.333	49870
488.409	33388
488.485	14197
488.561	13027
488.637	12874
488.712	17986
488.788	20787
488.864	43590
488.940	106092
489.016	116350
489.092	20646
489.168	12741
489.243	11412
489.319	9947
489.395	8781
489.471	9629
489.547	9019
489.622	10032
489.698	12012
489.774	24116
489.849	47529
489.925	14347
490.001	9498
490.076	11372
490.152	20636
490.228	17505
490.303	9171
490.379	8989
490.455	7483
490.530	8990
490.606	9683
490.681	10261
490.757	10957
490.833	13949
490.908	16855
490.984	16379
491.059	11205
491.135	18115
491.210	37965
491.286	15113
491.361	12830
491.436	10977
491.512	12060
491.587	16263
491.663	28935
491.738	77919
491.814	77608
491.889	170127
491.964	70900
492.040	21093
492.115	11395
492.190	13121
492.266	16517
492.341	11508
492.416	10414
492.491	8342
492.567	10719
492.642	15984
492.717	16083
492.792	9204
492.868	8839
492.943	7874
493.018	8934
493.093	10656
493.168	20478
493.243	46041
493.318	21985
493.394	10423
493.469	8106
493.544	9608
493.619	14238
493.694	24807
493.769	18559
493.844	11475
493.919	8435
493.994	8609
494.069	7502
494.144	7083
494.219	6350
494.294	6880
494.369	8340
494.444	8813
494.519	10786
494.594	7051
494.669	8079
494.744	7827
494.818	8471
494.893	8523
494.968	8080
495.043	8337
495.118	9212
495.193	9501
495.267	11942
495.342	16101
495.417	21750
495.492	48075
495.566	190557
495.641	224830
495.716	21780
495.791	10162
495.865	10280
495.940	8772
496.015	10450
496.089	10721
496.164	9743
496.239	10165
496.313	12561
496.388	13565
496.462	19527
496.537	13006
496.612	12430
496.686	14678
496.761	13062
496.835	11697
496.910	12266
496.984	10971
497.059	12222
497.133	15085
497.208	17713
497.282	16200
497.357	21876
497.431	19239
497.505	17619
497.580	21622
497.654	32015
497.729	35463
497.803	35252
497.877	49109
497.952	131085
498.026	392658
498.100	100147
498.175	47653
498.249	40818
498.323	31407
498.397	34977
498.472	23839
498.546	19795
498.620	20761
498.694	26190
498.768	38361
498.843	52479
498.917	188738
498.991	231456
499.065	20402
499.139	13172
499.213	14814
499.287	15831
499.362	14656
499.436	13817
499.510	17620
499.584	23569
499.658	28218
499.732	78945
499.806	241728
499.880	47139
499.954	29314
500.028	30609
500.102	21261
500.176	13175
500.250	13702
500.324	20904
500.397	38688
500.471	73479
500.545	149134
500.619	107734
500.693	13931
500.767	12053
500.841	15122
500.914	11250
500.988	16282
501.062	29802
501.136	33961
501.210	77530
501.283	183009
501.357	46230
501.431	34677
501.505	36926
501.578	10847
501.652	18134
501.726	23372
501.799	32638
501.873	60523
501.947	15846
502.020	18671
502.094	45450
502.167	56036
502.241	17835
502.315	42314
502.388	40598
502.462	20446
502.535	12490
502.609	11789
502.682	11213
502.756	5921
502.829	8033
502.903	6933
502.976	7462
503.050	7655
503.123	8552
503.196	9469
503.270	10932
503.343	21078
503.417	75304
503.490	102691
503.563	30711
503.637	28085
503.710	56696
503.783	31124
503.857	65987
503.930	33192
504.003	47349
504.076	30843
504.150	12497
504.223	12591
504.296	9326
504.369	7147
504.443	6709
504.516	6386
504.589	6194
504.662	8824
504.735	8514
504.808	17101
504.881	14942
504.954	7508
505.028	14792
505.101	9769
505.174	10460
505.247	7369
505.320	7236
505.393	7415
505.466	11107
505.539	9488
505.612	7506
505.685	5668
505.758	7272
505.831	4800
505.904	7556
505.977	6248
506.049	9753
506.122	8936
506.195	11848
506.268	38783
506.341	70519
506.414	14119
506.487	7945
506.559	7802
506.632	8360
506.705	12807
506.778	12507
506.851	6367
506.923	5984
506.996	11021
507.069	10947
507.141	6758
507.214	6054
507.287	11621
507.360	11823
507.432	5452
507.505	6243
507.577	5546
507.650	5614
507.723	9816
507.795	14893
507.868	6788
507.940	5734
508.013	5639
508.086	4765
508.158	8261
508.231	7420
508.303	5094
508.376	5502
508.448	5369
508.520	6990
508.593	9536
508.665	5479
508.738	6672
508.810	4900
508.883	6384
508.955	7602
509.027	4376
509.100	4387
509.172	3913
509.244	4433
509.317	4439
509.389	5732
509.461	6300
509.534	7779
509.606	6748
509.678	8164
509.750	10413
509.822	6334
509.895	5957
509.967	4352
510.039	5717
510.111	7533
510.183	6796
510.255	5965
510.328	5202
510.400	6229
510.472	6291
510.544	7857
510.616	11742
510.688	7512
510.760	6623
510.832	10076
510.904	11110
510.976	6274
511.048	5043
511.120	6251
511.192	11238
511.264	6261
511.336	4476
511.408	5183
511.480	5411
511.552	5604
511.624	5887
511.695	5083
511.767	6008
511.839	8801
511.911	16161
511.983	6634
512.055	7584
512.126	6428
512.198	9047
512.270	9514
512.342	11060
512.414	10189
512.485	7434
512.557	8144
512.629	7697
512.700	5964
512.772	10070
512.844	6483
512.915	5927
512.987	7280
513.059	7760
513.130	10329
513.202	21066
513.273	13241
513.345	6436
513.416	6175
513.488	6956
513.560	10369
513.631	11229
513.703	11784
513.774	34995
513.845	28875
513.917	7648
513.988	7121
514.060	8920
514.131	12265
514.203	7896
514.274	6527
514.345	10882
514.417	13931
514.488	6619
514.560	9989
514.631	13733
514.702	10273
514.773	12300
514.845	8912
514.916	8293
514.987	8306
515.059	14383
515.130	10256
515.201	12442
515.272	12917
515.343	8626
515.414	7343
515.486	6714
515.557	7211
515.628	5369
515.699	6406
515.770	6949
515.841	6294
515.912	7517
515.983	7750
516.055	13068
516.126	17854
516.197	11266
516.268	10231
516.339	13121
516.410	20146
516.481	33146
516.552	105913
516.622	203377
516.693	26510
516.764	28012
516.835	19913
516.906	25328
516.977	44920
517.048	99331
517.119	327758
517.190	160550
517.260	51699
517.331	10302
517.402	9154
517.473	8927
517.544	8372
517.614	9096
517.685	8764
517.756	10668
517.827	14472
517.897	16801
517.968	24747
518.039	36151
518.109	75527
518.180	292131
518.250	462135
518.321	43055
518.392	14075
518.462	15540
518.533	13461
518.603	17432
518.674	28747
518.745	54564
518.815	25203
518.886	15652
518.956	21157
519.027	36242
519.097	52359
519.168	69848
519.238	15614
519.309	13584
519.379	18237
519.449	10613
519.520	7006
519.590	5569
519.660	7269
519.731	7050
519.801	6339
519.871	6368
519.942	6885
520.012	7675
520.082	11045
520.153	7179
520.223	4426
520.293	8219
520.363	4426
520.434	9131
520.504	7926
520.574	7117
520.644	9084
520.714	14531
520.784	14741
520.855	37645
520.925	61356
520.995	9301
521.065	6651
521.135	5430
521.205	5467
521.275	5038
521.345	8393
521.415	11137
521.485	10726
521.555	8814
521.625	9684
521.695	5190
521.765	5804
521.835	6938
521.905	5346
521.975	5141
522.045	4850
522.115	7707
522.185	10246
522.254	16253
522.324	23565
522.394	15213
522.464	17802
522.534	51604
522.603	64767
522.673	9486
522.743	6487
522.813	8745
522.883	9838
522.952	7930
523.022	9721
523.092	19661
523.161	64240
523.231	17156
523.301	5745
523.370	5084
523.440	4179
523.509	5361
523.579	4097
523.649	3317
523.718	6100
523.788	4567
523.857	3629
523.927	4299
523.996	4030
524.066	5245
524.135	7977
524.205	4726
524.274	3046
524.344	4020
524.413	5347
524.483	4187
524.552	6783
524.621	3993
524.691	3801
524.760	4491
524.830	4361
524.899	6902
524.968	5786
525.038	5468
525.107	5514
525.176	2866
525.245	4588
525.315	4718
525.384	4675
525.453	5611
525.522	5192
525.591	4102
525.661	4861
525.730	6046
525.799	9160
525.868	13817
525.937	17850
526.006	44347
526.076	74208
526.145	36478
526.214	28573
526.283	54220
526.352	50497
526.421	117195
526.490	55366
526.559	34257
526.628	22207
526.697	32660
526.766	92843
526.835	232344
526.904	224918
526.973	36753
527.042	9255
527.110	6839
527.179	9979
527.248	5662
527.317	6103
527.386	4818
527.455	5339
527.523	3729
527.592	4942
527.661	3690
527.730	4843
527.799	4194
527.867	2894
527.936	5678
528.005	10243
528.074	11664
528.142	8103
528.211	18108
528.280	11949
528.348	5813
528.417	3221
528.485	3574
528.554	3818
528.623	2647
528.691	3411
528.760	2863
528.828	3893
528.897	2991
528.965	2956
529.034	4214
529.102	3477
529.171	4803
529.239	4145
529.308	3476
529.376	3273
529.445	6829
529.513	3314
529.581	6348
529.650	6978
529.718	6093
529.786	4438
529.855	4020
529.923	2990
529.992	4629
530.060	7060
530.128	9140
530.196	5408
530.265	3093
530.333	3337
530.401	4170
530.469	1730
530.537	4243
530.606	5447
530.674	4051
530.742	3964
530.810	4997
530.878	3297
530.946	4840
531.014	3685
531.083	3595
531.151	4200
531.219	3735
531.287	4441
531.355	2954
531.423	5164
531.491	5451
531.559	5481
531.627	3170
531.695	4976
531.763	3819
531.831	4140
531.898	4158
531.966	4368
532.034	6056
532.102	6292
532.170	7993
532.238	18494
532.306	34338
532.374	10069
532.441	8732
532.509	11157
532.577	23332
532.645	81593
532.712	75876
532.780	10897
532.848	6120
532.916	4668
532.983	4116
533.051	4762
533.119	5416
533.186	4956
533.254	3606
533.322	3851
533.389	4240
533.457	4162
533.524	5512
533.592	5941
533.659	4453
533.727	4093
533.794	6562
533.862	13821
533.930	11794
533.997	12308
534.064	4925
534.132	4948
534.199	4995
534.267	3730
534.334	4683
534.402	4591
534.469	3563
534.536	4901
534.604	5474
534.671	7943
534.738	14690
534.806	44020
534.873	20248
534.940	5953
535.008	5695
535.075	3100
535.142	4737
535.209	4564
535.276	4043
535.344	3357
535.411	3227
535.478	4239
535.545	4084
535.612	5379
535.679	4301
535.747	3474
535.814	4335
535.881	3409
535.948	4625
536.015	4003
536.082	3991
536.149	4271
536.216	5459
536.283	7453
536.350	12353
536.417	8060
536.484	8939
536.551	10231
536.618	14068
536.685	8930
536.752	9323
536.818	15869
536.885	20289
536.952	22599
537.019	64821
537.086	15653
537.153	4652
537.219	5039
537.286	3756
537.353	3015
537.420	3139
537.487	3443
537.553	4980
537.620	5079
537.687	3810
537.753	3911
537.820	4494
537.887	5324
537.953	4508
538.020	5429
538.087	7356
538.153	14520
538.220	20982
538.286	6124
538.353	4643
538.419	3477
538.486	3250
538.553	4047
538.619	3681
538.685	4009
538.752	4159
538.818	6028
538.885	5214
538.951	4216
539.018	4991
539.084	5499
539.150	6551
539.217	9302
539.283	4463
539.350	4535
539.416	6499
539.482	8004
539.549	23578
539.615	26213
539.681	4873
539.747	3859
539.814	4291
539.880	6670
539.946	6516
540.012	5747
540.078	5200
540.145	7580
540.211	13134
540.277	25364
540.343	14771
540.409	25726
540.475	32713
540.541	4094
540.607	4113
540.673	3996
540.740	5338
540.806	7283
540.872	7639
540.937	11808
541.004	8157
541.069	4163
541.135	5165
541.201	5188
541.267	8042
541.333	12446
541.399	16673
541.465	6571
541.531	4340
541.597	4519
541.663	4203
541.728	3567
541.794	3657
541.860	4027
541.926	4057
541.992	4130
542.057	4135
542.123	7122
542.189	10560
542.255	20355
542.320	14387
542.386	5283
542.452	4262
542.517	4113
542.583	4529
542.648	5694
542.714	7247
542.780	15786
542.845	38747
542.911	9900
542.976	3548
543.042	4283
543.107	3502
543.173	6072
543.238	7700
543.304	17079
543.369	12262
543.435	3922
543.500	2932
543.566	4234
543.631	2336
543.697	4165
543.762	2867
543.827	2664
543.893	2329
543.958	3725
544.023	3210
544.089	3773
544.154	3552
544.219	4128
544.284	6961
544.350	8392
544.415	8692
544.480	11415
544.545	29946
544.610	18979
544.676	4035
544.741	4198
544.806	3286
544.871	3927
544.936	4163
545.001	4685
545.066	4494
545.132	5542
545.197	5625
545.262	6757
545.327	10896
545.392	19795
545.457	23454
545.522	4755
545.587	4279
545.652	3277
545.717	3832
545.781	3997
545.846	4304
545.911	3493
545.976	5090
546.041	4420
546.106	5888
546.171	8251
546.236	8067
546.300	5203
546.365	3427
546.430	4274
546.495	5487
546.559	4868
546.624	3814
546.689	5078
546.754	4244
546.818	5159
546.883	4693
546.948	5736
547.012	6000
547.077	6600
547.142	7545
547.206	7577
547.271	8663
547.335	8094
547.400	8039
547.464	8849
547.529	11099
547.594	9096
547.658	7965
547.722	7098
547.787	6388
547.852	7984
547.916	8530
547.980	9842
548.045	10176
548.109	7028
548.174	7004
548.238	7252
548.302	6795
548.367	5761
548.431	7039
548.495	7512
548.560	7577
548.624	8164
548.688	10665
548.752	9154
548.817	7280
548.881	8967
548.945	6827
549.009	7110
549.073	6680
549.138	5532
549.202	8778
549.266	7538
549.330	7444
549.394	7473
549.458	7446
549.522	8297
549.586	10450
549.650	11269
549.715	9561
549.779	7274
549.843	9143
549.907	9174
549.971	9424
550.034	9936
550.098	8783
550.162	8652
550.226	10378
550.290	8943
550.354	8727
550.418	10497
550.482	9769
550.546	13906
550.609	10760
550.673	9495
550.737	11348
550.801	11794
550.865	12014
550.928	13564
550.992	14373
551.056	19456
551.120	27358
551.183	22215
551.247	16744
551.311	24396
551.374	16814
551.438	11212
551.502	9673
551.565	8909
551.629	10250
551.692	9235
551.756	8043
551.819	8796
551.883	8348
551.946	9060
552.010	8815
552.073	9021
552.137	8856
552.200	8777
552.264	8461
552.327	8125
552.391	8669
552.454	8713
552.517	9014
552.581	8789
552.644	10670
552.708	14729
552.771	14375
552.834	9183
552.897	9793
552.961	10082
553.024	7898
553.087	8147
553.151	8490
553.214	8669
553.277	8491
553.340	10488
553.403	13939
553.466	11190
553.530	9902
553.593	8767
553.656	8926
553.719	7920
553.782	9520
553.845	8799
553.908	7963
553.971	7891
554.034	8417
554.097	7992
554.160	9076
554.223	9178
554.286	8740
554.349	8738
554.412	7845
554.475	7853
554.538	8500
554.601	8718
554.664	8058
554.727	7957
554.789	7888
554.852	7114
554.915	7044
554.978	7513
555.041	6848
555.104	7523
555.166	8641
555.229	7328
555.292	6215
555.354	8438
555.417	7166
555.480	6740
555.542	4627
555.605	7070
555.668	7448
555.730	6471
555.793	6165
555.856	6654
555.918	6000
555.981	5790
556.043	4875
556.106	6818
556.168	7310
556.231	7619
556.293	6205
556.356	7514
556.418	9790
556.481	7466
556.543	6156
556.606	4943
556.668	7618
556.730	8072
556.793	8690
556.855	12100
556.918	7421
556.980	6603
557.042	6612
557.104	10343
557.167	15141
557.229	7767
557.291	5433
557.354	5550
557.416	5069
557.478	7541
557.540	5694
557.602	3783
557.664	3855
557.727	5667
557.789	5419
557.851	6012
557.913	7464
557.975	11498
558.037	22068
558.099	30413
558.161	6717
558.223	6775
558.285	7279
558.347	10262
558.409	12590
558.471	18385
558.533	31312
558.595	39376
558.657	50286
558.719	130716
558.781	161116
558.843	34355
558.905	35980
558.966	13167
559.028	10638
559.090	11960
559.152	17618
559.214	26650
559.275	60261
559.337	113522
559.399	25988
559.461	10358
559.522	12229
559.584	15452
559.646	26406
559.707	70410
559.769	51165
559.831	11187
559.892	12612
559.954	20161
560.015	37075
560.077	17131
560.139	27846
560.200	25096
560.262	5750
560.323	4430
560.385	4061
560.446	3243
560.508	2937
560.569	3941
560.631	2839
560.692	4265
560.753	2920
560.815	3018
560.876	2209
560.937	3747
560.999	4146
561.060	4636
561.122	2753
561.183	4246
561.244	5250
561.305	6553
561.367	10816
561.428	24332
561.489	17711
561.550	3822
561.612	3813
561.673	3833
561.734	3313
561.795	3306
561.856	3369
561.917	3921
561.978	2902
562.039	2721
562.101	4539
562.162	2786
562.223	3496
562.284	4770
562.345	7322
562.406	4278
562.467	3172
562.528	3153
562.589	2098
562.649	3629
562.710	2486
562.771	3407
562.832	2888
562.893	3109
562.954	3687
563.015	3445
563.076	1959
563.136	3446
563.197	2492
563.258	4995
563.319	3912
563.380	2745
563.440	3982
563.501	2969
563.562	3483
563.622	3586
563.683	3512
563.744	3949
563.804	2922
563.865	2174
563.926	2806
563.986	3184
564.047	3097
564.107	3226
564.168	3229
564.229	3548
564.289	6852
564.350	4642
564.410	3028
564.471	3120
564.531	2505
564.591	2701
564.652	3308
564.712	4260
564.773	4007
564.833	3168
564.893	3090
564.954	3315
565.014	3397
565.074	3481
565.135	4074
565.195	1851
565.255	3061
565.316	3171
565.376	3527
565.436	3621
565.496	3219
565.557	3406
565.617	4222
565.677	2872
565.737	6152
565.797	5537
565.857	3361
565.917	4338
565.978	4232
566.038	5102
566.098	8358
566.158	7705
566.218	4226
566.278	3751
566.338	3733
566.398	3406
566.458	3999
566.518	4141
566.578	5090
566.638	5090
566.698	5022
566.757	5091
566.817	4834
566.877	4516
566.937	5289
566.997	5232
567.057	5068
567.116	5194
567.176	5385
567.236	6899
567.296	6309
567.355	6998
567.415	6530
567.475	6340
567.535	5450
567.594	6470
567.654	5100
567.714	6357
567.773	7124
567.833	8253
567.892	9354
567.952	12730
568.012	14605
568.071	19486
568.131	28222
568.190	33581
568.250	28414
568.309	24563
568.369	21348
568.428	20738
568.488	22929
568.547	26642
568.607	32477
568.666	44536
568.725	60037
568.785	52450
568.844	38540
568.903	29079
568.963	23228
569.022	18632
569.081	14898
569.141	12438
569.200	10263
569.259	9969
569.318	8052
569.378	6471
569.437	6230
569.496	6001
569.555	6054
569.614	6162
569.673	4987
569.732	4049
569.792	5180
569.851	4679
569.910	4473
569.969	4104
570.028	5091
570.087	4410
570.146	4452
570.205	3651
570.264	3388
570.323	2825
570.382	4069
570.441	4933
570.500	4109
570.559	3166
570.618	3478
570.676	4793
570.735	4295
570.794	4480
570.853	3615
570.912	3313
570.971	2888
571.029	2534
571.088	3552
571.147	2999
571.206	3284
571.264	3183
571.323	2462
571.382	3532
571.440	2904
571.499	2827
571.558	2648
571.616	2534
571.675	3074
571.733	2874
571.792	3032
571.851	3206
571.909	3013
571.968	2501
572.026	2091
572.085	2311
572.143	2246
572.202	2183
572.260	2410
572.319	2218
572.377	1827
572.435	2644
572.494	2274
572.552	3534
572.611	2649
572.669	1661
572.727	2483
572.786	2234
572.844	1892
572.902	1811
572.960	1459
573.019	2573
573.077	2342
573.135	2135
573.193	1525
573.251	2480
573.310	2633
573.368	2371
573.426	1413
573.484	1955
573.542	2523
573.600	1787
573.658	2304
573.716	2021
573.774	2986
573.832	2884
573.891	2451
573.948	1924
574.006	1751
574.064	1814
574.122	1305
574.180	1743
574.238	2193
574.296	1618
574.354	1331
574.412	1759
574.470	1542
574.528	1233
574.585	912
574.643	2241
574.701	1769
574.759	1219
574.817	1864
574.874	1393
574.932	1161
574.990	1949
575.047	2329
575.105	1613
575.163	2468
575.221	2413
575.278	2089
575.336	2118
575.393	1293
575.451	793
575.509	779
575.566	1412
575.624	1612
575.681	1353
575.739	1902
575.796	1823
575.854	1495
575.911	1462
575.969	2218
576.026	2326
576.083	2219
576.141	2047
576.198	3124
576.256	2008
576.313	1798
576.370	1709
576.428	3109
576.485	2257
576.542	2134
576.599	1907
576.657	2060
576.714	835
576.771	1973
576.828	1658
576.886	1833
576.943	1571
577.000	1214
577.057	1684
577.114	2866
577.171	2471
577.228	1807
577.286	2090
577.343	1697
577.400	1650
577.457	2670
577.514	1800
577.571	1907
577.628	840
577.685	501
577.742	1778
577.799	1785
577.855	1179
577.912	1227
577.969	1424
578.026	1806
578.083	2043
578.140	1076
578.197	1531
578.254	1566
578.310	1414
578.367	1727
578.424	2550
578.481	1953
578.537	2019
578.594	1534
578.651	1490
578.707	1532
578.764	1466
578.821	1083
578.877	2237
578.934	2057
578.991	1382
579.047	2289
579.104	1465
579.160	1339
579.217	1112
579.273	1961
579.330	1087
579.387	968
579.443	608
579.499	421
579.556	2175
579.612	1856
579.669	1343
579.725	1807
579.782	459
579.838	154
579.894	1574
579.951	1245
580.007	1179
580.063	1381
580.120	2134
580.176	2211
580.232	2026
580.288	1866
580.345	2273
580.401	1905
580.457	1470
580.513	1930
580.569	2235
580.619	1232
580.625	1101
580.682	1973
580.692	1910
580.738	1668
580.765	1531
580.794	1389
580.838	1758
580.850	1866
580.906	1996
580.911	1985
580.962	1962
580.984	1867
581.018	1731
581.057	1114
581.074	853
581.130	1345
581.130	1353
581.186	953
581.203	1323
581.242	2200
581.276	1617
581.298	1250
581.349	1074
581.354	1055
581.410	965
581.422	1264
581.466	2411
581.494	1749
581.522	1132
581.567	1723
581.577	1855
581.633	967
581.640	991
581.689	1279
581.713	1356
581.745	1451
581.786	1127
581.801	1016
581.857	1381
581.859	1357
581.912	850
581.932	823
581.968	838
582.004	1361
582.024	1643
582.077	1997
582.080	2014
582.135	1309
582.150	1121
582.191	770
582.223	1283
582.247	1582
582.296	1213
582.302	1170
582.358	1298
582.368	1142
582.414	616
582.441	1013
582.469	1395
582.514	1630
582.525	1679
582.581	1664
582.587	1636
582.636	1497
582.659	1580
582.692	1693
582.732	1760
582.747	1787
582.803	1899
582.805	1895
582.858	1787
582.877	1667
582.914	1658
582.950	1900
582.969	1955
583.023	1672
583.025	1673
583.080	2291
583.095	2033
583.135	1197
583.168	1240
583.191	1275
583.240	1395
583.246	1445
583.302	1435
583.313	1580
583.357	1828
583.385	1419
583.412	1221
583.458	1359
583.468	1338
583.523	1498
583.531	1381
583.578	842
583.603	1014
583.634	1199
583.676	1470
583.689	1547
583.744	2227
583.748	2143
583.799	1244
583.820	1130
583.854	948
583.893	1518
583.910	1742
583.965	1509
583.965	1510
584.020	1795
584.038	1550
584.075	1054
584.110	1641
584.130	2040
584.183	1650
584.185	1616
584.240	1303
584.255	1393
584.296	1789
584.328	1559
584.351	1365
584.400	1041
584.406	1019
584.461	1756
584.472	1725
584.516	1581
584.545	1413
584.571	1188
584.617	1233
584.626	1274
584.681	1387
584.689	1485
584.736	2035
584.762	2060
584.791	1931
584.834	1635
584.846	1638
584.900	2656
584.906	2617
584.955	2220
584.978	2362
585.010	2314
585.051	2040
585.065	2086
585.120	1908
585.123	1966
585.175	2863
585.195	2985
585.230	3197
585.267	3284
585.284	3376
585.339	4062
585.340	4066
585.394	5164
585.412	5580
585.449	6166
585.484	6997
585.503	7574
585.556	10931
585.558	11078
585.613	17619
585.628	19424
585.667	24478
585.700	16036
585.722	11103
585.772	9231
585.777	8620
585.831	4845
585.845	4049
585.886	3625
585.917	2926
585.941	2601
585.989	2655
585.995	2657
586.050	2486
586.061	2613
586.104	3094
586.133	2956
586.159	2973
586.205	2795
586.213	2758
586.268	3117
586.277	3074
586.322	2628
586.349	2871
586.377	3254
586.421	3450
586.431	3433
586.486	3323
586.493	3459
586.540	5028
586.565	4571
586.595	3892
586.637	4275
586.649	4232
586.703	3085
586.709	3077
586.758	3278
586.781	3197
586.812	3211
586.853	3496
586.866	3536
586.921	3444
586.925	3450
586.975	3444
586.996	3313
587.029	3296
587.068	3313
587.083	3249
587.138	3313
587.140	3319
587.192	3984
587.212	4324
587.246	4621
587.284	4685
587.300	4723
587.355	5126
587.356	5126
587.409	4944
587.427	5044
587.463	5116
587.499	5306
587.517	5632
587.571	5726
587.571	5723
587.625	6356
587.643	6360
587.679	6770
587.715	7443
587.733	7479
587.786	7839
587.787	7856
587.841	8427
587.858	8945
587.895	9861
587.930	10196
587.949	10441
588.001	11648
588.003	11705
588.057	14088
588.073	14843
588.111	16530
588.145	18192
588.165	19314
588.217	22605
588.219	22752
588.273	28129
588.288	29571
588.327	33409
588.360	37902
588.381	40846
588.431	50721
588.435	51275
588.489	64117
588.503	68509
588.542	80172
588.575	93402
588.596	102033
588.646	130194
588.650	131968
588.704	168567
588.718	181768
588.757	222004
588.789	266100
588.811	300495
588.861	411069
588.865	421461
588.919	499474
588.932	479540
588.972	395463
589.004	365634
589.026	311611
589.075	242511
589.080	234673
589.133	153173
589.147	134867
589.187	118147
589.218	110823
589.241	112784
589.290	123384
589.294	124314
589.348	146773
589.361	156518
589.401	189714
589.433	234236
589.455	273249
589.504	344674
589.508	351817
589.562	315408
589.576	315576
589.615	240327
589.647	210045
589.669	167851
589.718	81648
589.722	78951
589.776	46891
589.790	38918
589.829	31024
589.861	25071
589.883	22762
589.932	18515
589.936	18295
589.989	15309
590.004	14776
590.043	13571
590.075	12464
590.096	11587
590.146	9660
590.149	9611
590.203	9442
590.218	9424
590.256	8492
590.289	7619
590.309	7456
590.360	7220
590.362	7183
590.416	6772
590.431	6644
590.469	6381
590.503	6428
590.522	6090
590.574	4811
590.575	4804
590.629	5310
590.645	5432
590.682	5026
590.716	4899
590.735	4954
590.787	4765
590.788	4749
590.841	4412
590.859	4311
590.894	4448
590.930	4574
590.947	4400
591.000	3857
591.001	3861
591.053	3477
591.072	3373
591.106	3536
591.143	3671
591.159	3648
591.212	3688
591.214	3699
591.265	3425
591.285	3290
591.318	3373
591.356	3566
591.371	3615
591.424	3637
591.427	3656
591.477	3007
591.498	2668
591.530	2743
591.569	2942
591.583	3042
591.636	3464
591.640	3502
591.689	3289
591.711	3220
591.741	3224
591.782	3230
591.794	3180
591.847	2920
591.853	2904
591.900	2917
591.924	2906
591.953	2925
591.995	3064
592.005	3008
592.058	2648
592.066	2613
592.111	3099
592.137	3385
592.164	3410
592.208	3457
592.216	3338
592.269	2631
592.279	2507
592.322	2720
592.350	2879
592.374	2784
592.421	2628
592.427	2620
592.479	2656
592.491	2675
592.532	2998
592.562	3242
592.585	3125
592.633	2858
592.704	2578
592.775	2776
592.846	2765
592.916	2992
592.987	3106
593.058	3513
593.128	2386
593.199	2507
593.270	2567
593.341	2715
593.411	2546
593.482	2366
593.553	3055
593.623	2613
593.694	2445
593.764	2444
593.835	2758
593.906	2007
593.976	2381
594.047	2626
594.117	3294
594.188	2629
594.258	3036
594.329	3308
594.399	3476
594.470	3461
594.540	3541
594.611	2363
594.681	2559
594.751	3264
594.822	3987
594.892	3448
594.963	3016
595.033	3120
595.103	3053
595.174	3018
595.244	3102
595.314	4270
595.384	3206
595.455	2947
595.525	4096
595.595	3219
595.665	3674
595.736	4053
595.806	3259
595.876	3433
595.946	4640
596.016	3476
596.087	4276
596.157	3494
596.227	3869
596.297	3910
596.367	4829
596.437	5072
596.507	4655
596.577	5566
596.647	4346
596.717	5459
596.787	4411
596.857	5076
596.927	5485
596.997	4316
597.067	5189
597.137	5146
597.207	5002
597.277	5374
597.347	4855
597.417	5566
597.487	4090
597.557	4620
597.626	5046
597.696	5477
597.766	5658
597.836	5345
597.906	5070
597.975	4462
598.045	4020
598.115	4766
598.185	5581
598.254	5467
598.324	5296
598.394	5813
598.464	6303
598.533	6208
598.603	6308
598.672	5642
598.742	5821
598.812	4978
598.881	5360
598.951	5135
599.020	4643
599.090	5684
599.159	5739
599.229	6136
599.299	5893
599.368	5324
599.437	6190
599.507	4509
599.576	4990
599.646	5527
599.715	5246
599.785	4842
599.854	4413
599.924	5165
599.993	5047
600.062	4277
600.132	5062
600.201	4280
600.270	5050
600.340	6083
600.409	5981
600.478	5747
600.547	6022
600.617	5841
600.686	4039
600.755	4038
600.824	3592
600.894	3264
600.963	4023
601.032	3769
601.101	3897
601.170	3154
601.239	3436
601.308	3887
601.378	3557
601.447	3586
601.516	2922
601.585	3317
601.654	3574
601.723	3034
601.792	3060
601.861	4182
601.930	4262
601.999	4404
602.068	4252
602.137	4603
602.206	4153
602.275	4059
602.343	4108
602.412	3698
602.481	4492
602.550	3426
602.619	3616
602.688	4036
602.756	4004
602.825	3693
602.894	4650
602.963	3685
603.032	3782
603.100	4333
603.169	4051
603.238	4317
603.307	4706
603.375	4487
603.444	4671
603.513	5101
603.581	4269
603.650	4738
603.719	4708
603.787	4260
603.856	4774
603.924	4256
603.993	5150
604.061	4845
604.130	4885
604.198	5465
604.267	5293
604.335	6082
604.404	6441
604.472	5678
604.541	6162
604.609	5820
604.678	6549
604.746	5668
604.815	6302
604.883	6091
604.951	7157
605.020	6652
605.088	6771
605.156	6394
605.225	6516
605.293	6744
605.361	5913
605.429	6085
605.498	6963
605.566	6954
605.634	7438
605.702	7312
605.771	8119
605.839	8392
605.907	8555
605.975	7366
606.043	7399
606.111	6948
606.180	7448
606.248	6905
606.316	7789
606.384	7395
606.452	7564
606.520	6787
606.588	7143
606.656	7456
606.724	7149
606.792	6492
606.860	6396
606.928	5020
606.996	5222
607.064	4394
607.132	5480
607.200	5582
607.267	5902
607.335	5725
607.403	6418
607.471	5658
607.539	6192
607.607	6588
607.674	4545
607.742	4871
607.810	5410
607.878	5656
607.946	5496
608.013	5785
608.081	5313
608.149	5589
608.216	5719
608.284	5784
608.352	5787
608.419	5220
608.487	5721
608.555	5725
608.622	5791
608.690	6221
608.757	6379
608.825	6656
608.893	6325
608.960	6483
609.028	6196
609.095	6139
609.163	6370
609.230	5520
609.298	5355
609.365	5252
609.432	5658
609.500	5486
609.567	6498
609.635	7628
609.702	8623
609.769	8486
609.837	6705
609.904	5140
609.971	4356
610.039	5935
610.106	6546
610.173	9883
610.241	16531
610.308	14648
610.375	6659
610.442	4167
610.509	5291
610.577	4729
610.644	5142
610.711	5015
610.778	5097
610.845	4789
610.912	6397
610.980	6404
611.047	6615
611.114	6347
611.181	6232
611.248	5797
611.315	6556
611.382	6968
611.449	6015
611.516	7569
611.583	7053
611.650	6450
611.717	7019
611.784	6037
611.851	7523
611.918	8013
611.984	8894
612.051	11769
612.118	18850
612.185	35463
612.252	33047
612.319	9572
612.386	8775
612.452	7452
612.519	7679
612.586	7483
612.653	8361
612.719	7903
612.786	7984
612.853	7139
612.919	6535
612.986	7454
613.053	6460
613.120	5640
613.186	5451
613.253	6639
613.319	6476
613.386	5617
613.453	5838
613.519	5515
613.586	5968
613.652	6752
613.719	5471
613.785	5565
613.852	6827
613.918	6430
613.985	6106
614.051	5839
614.118	6252
614.184	6505
614.250	6214
614.317	6317
614.383	6299
614.449	5695
614.516	5538
614.582	6440
614.648	5966
614.715	5560
614.781	5483
614.847	5651
614.914	5944
614.980	5840
615.046	5174
615.112	6227
615.179	5227
615.245	5846
615.311	5522
615.377	6598
615.443	6872
615.509	5779
615.575	6663
615.642	5492
615.708	6252
615.774	6424
615.840	6861
615.906	7608
615.972	9448
616.038	14074
616.104	23950
616.170	41179
616.236	47070
616.302	13052
616.368	7871
616.434	6288
616.500	6944
616.565	6828
616.631	7570
616.697	7341
616.763	7076
616.829	7578
616.895	11583
616.961	11820
617.026	7232
617.092	5727
617.158	5652
617.224	5010
617.289	5544
617.355	4643
617.421	4339
617.487	5268
617.552	4955
617.618	4118
617.684	4265
617.749	5689
617.815	4117
617.880	4793
617.946	4083
618.012	4038
618.077	4179
618.143	4382
618.208	4033
618.274	4863
618.339	4993
618.405	3283
618.470	3361
618.536	3395
618.601	3089
618.667	2639
618.732	2794
618.798	2466
618.863	3396
618.928	3009
618.994	3105
619.059	3396
619.124	3576
619.190	3581
619.255	2716
619.320	2035
619.386	2955
619.451	2480
619.516	2721
619.581	2598
619.647	2652
619.712	2385
619.777	2802
619.842	2925
619.907	2649
619.972	2855
620.038	2861
620.103	2717
620.168	3050
620.233	3628
620.298	3240
620.363	2580
620.428	3058
620.493	3051
620.558	2802
620.623	2743
620.688	3327
620.753	2862
620.818	3189
620.883	2845
620.948	3319
621.013	3312
621.078	2813
621.143	1929
621.207	4041
621.272	3172
621.337	3635
621.402	3350
621.467	2839
621.532	2695
621.596	3178
621.661	2812
621.726	2922
621.791	2773
621.855	3617
621.920	2732
621.985	2967
622.049	2998
622.114	2685
622.179	2617
622.243	2627
622.308	3521
622.373	4034
622.437	3550
622.502	3679
622.566	3109
622.631	2540
622.695	4028
622.760	3123
622.824	3018
622.889	3564
622.953	2977
623.018	3877
623.082	3060
623.147	2864
623.211	2632
623.276	2834
623.340	2415
623.404	2999
623.469	2868
623.533	3182
623.597	2783
623.662	2794
623.726	1925
623.790	2584
623.854	2308
623.919	2123
623.983	2290
624.047	1783
624.111	2236
624.176	2005
624.240	2173
624.304	2795
624.368	2041
624.432	2298
624.496	2271
624.560	2146
624.625	2992
624.689	2673
624.753	2134
624.817	3080
624.881	2159
624.945	1808
625.009	2543
625.073	2067
625.137	1692
625.201	2236
625.265	2905
625.329	2279
625.393	2031
625.456	2740
625.520	2466
625.584	2070
625.648	3257
625.712	2150
625.776	3659
625.839	3408
625.903	2353
625.967	1016
626.031	2641
626.095	2481
626.158	3107
626.222	1245
626.286	2285
626.349	1853
626.413	792
626.477	1313
626.540	1059
626.604	544
626.668	707
626.731	936
626.795	992
626.858	1770
626.922	846
626.986	432
627.049	544
627.113	655
627.176	1104
627.240	516
627.303	788
627.366	802
627.430	1550
627.493	795
627.557	376
627.620	1483
627.684	1087
627.747	801
627.810	522
627.874	941
627.937	-631
628.000	1221
628.064	825
628.127	-176
628.190	113
628.253	704
628.317	-31
628.380	509
628.443	-197
628.506	676
628.569	-211
628.632	453
628.696	354
628.759	379
628.822	377
628.885	-200
628.948	-173
629.011	-116
629.074	247
629.137	78
629.200	-362
629.263	1241
629.326	-647
629.389	-524
629.452	13
629.515	206
629.578	-431
629.641	74
629.704	-160
629.767	-379
629.830	-486
629.892	-222
629.955	-399
630.018	865
630.081	-571
630.144	-225
630.207	-615
630.269	561
630.332	-149
630.395	-234
630.458	-624
630.520	-48
630.583	583
630.646	-501
630.708	-296
630.771	-599
630.834	-387
630.896	62
630.959	-494
631.021	-292
631.084	-81
631.146	-329
631.209	-553
631.272	45
631.334	153
631.397	-408
631.459	-6
631.522	33
631.584	-345
631.646	-27
631.709	-313
631.771	534
631.834	-178
631.896	-420
631.958	-272
632.021	-88
632.083	481
632.145	-241
632.208	-631
632.270	419
632.332	-860
632.395	-1358
632.457	72
632.519	-552
632.581	206
632.643	-771
632.706	-277
632.768	-402
632.830	-1026
632.892	-729
632.954	152
633.016	348
633.078	-439
633.141	-364
633.203	-514
633.265	136
633.327	-707
633.389	-809
633.451	-400
633.513	-310
633.575	132
633.637	-683
633.698	-50
633.760	-32
633.822	320
633.884	11
633.946	-229
634.008	174
634.070	-324
634.132	-605
634.193	-200
634.255	251
634.317	107
634.379	197
634.441	-555
634.502	-667
634.564	-11
634.626	-416
634.687	34
634.749	-482
634.811	27
634.873	-644
634.934	34
634.996	882
635.057	173
635.119	-433
635.181	-208
635.242	324
635.304	-1436
635.365	1297
635.427	-418
635.488	-395
635.550	-187
635.611	-34
635.673	-1313
635.734	-504
635.796	-549
635.857	251
635.918	-641
635.980	-272
636.041	106
636.102	210
636.164	-496
636.225	133
636.286	-955
636.348	-110
636.409	-648
636.470	-116
636.531	-173
636.593	-616
636.654	-418
636.715	-692
636.776	-661
636.838	-1046
636.899	-701
636.960	-47
637.021	-503
637.082	-10
637.143	-552
637.204	331
637.265	-760
637.326	196
637.387	-324
637.448	-1132
637.509	25
637.570	-272
637.631	-206
637.692	-841
637.753	-1086
637.814	-314
637.875	-672
637.936	789
637.997	-577
638.058	-272
638.119	-672
638.179	-419
638.240	-756
638.301	369
638.362	-1412
638.423	-1244
638.483	94
638.544	-1211
638.605	-197
638.666	-1197
638.726	-48
638.787	249
638.848	-626
638.908	-87
638.969	-369
639.030	-371
639.090	-959
639.151	-1205
639.211	-606
639.272	-334
639.332	-344
639.393	-371
639.453	-510
639.514	-311
639.574	195
639.635	-590
639.695	-530
639.756	-1523
639.816	-416
639.877	-698
639.937	-666
639.997	-1062
640.058	-486
640.118	-583
640.178	-534
640.239	-858
640.299	191
640.359	-84
640.420	-713
640.480	-417
640.540	-706
640.600	-412
640.661	-554
640.721	-2056
640.781	601
640.841	-1690
640.901	-381
640.961	129
641.021	-26
641.082	-1067
641.142	-815
641.202	-259
641.262	-1636
641.322	-951
641.382	-527
641.442	-1180
641.502	-623
641.562	59
641.622	-1401
641.682	-1401
641.742	-874
641.802	-217
641.861	-483
641.921	-1006
641.981	-420
642.041	-791
642.101	-656
642.161	-1533
642.221	-1676
642.280	-1113
642.340	-873
642.400	-809
642.460	-487
642.519	-372
642.579	-1112
642.639	-1145
642.698	-3307
642.758	1115
642.818	-791
642.877	-1841
642.937	-338
642.997	-683
643.056	-418
643.116	-2029
643.175	167
643.235	-1239
643.294	-606
643.354	-565
643.414	-439
643.473	56
643.532	-630
643.592	-154
643.651	-525
643.711	1680
643.770	3573
643.830	6778
643.889	16654
643.948	7851
644.008	68
644.067	-1428
644.126	-1197
644.186	-761
644.245	-148
644.304	-1161
644.363	-20
644.423	-318
644.482	-341
644.541	-254
644.600	-1430
644.659	-195
644.719	-943
644.778	-207
644.837	-770
644.896	1162
644.955	2476
645.014	697
645.073	-34
645.132	-592
645.191	-861
645.250	-1281
645.309	-495
645.368	-1387
645.427	-543
645.486	-1748
645.545	-339
645.604	-869
645.663	-38
645.722	-1541
645.781	-689
645.840	-379
645.898	-453
645.957	-25
646.016	-1150
646.075	1224
646.134	2234
646.192	6758
646.251	11878
646.310	3374
646.369	-963
646.427	113
646.486	-1845
646.545	-190
646.603	-1374
646.662	-35
646.721	-1689
646.779	-840
646.838	-1603
646.896	-853
646.955	-495
647.014	203
647.072	63
647.131	924
647.189	199
647.248	-863
647.306	-424
647.365	-772
647.423	-2062
647.481	7
647.540	-2301
647.598	-731
647.657	-1532
647.715	-640
647.773	-1390
647.832	-610
647.890	-1268
647.948	-1221
648.007	-1222
648.065	-1763
648.123	-1431
648.181	501
648.240	-912
648.298	-181
648.356	-957
648.414	-396
648.472	-587
648.531	-1181
648.589	-811
648.647	-1060
648.705	-1122
648.763	-1244
648.821	-934
648.879	-1176
648.937	-1686
648.995	-978
649.053	-1468
649.111	-279
649.169	-49
649.227	196
649.285	1157
649.343	4860
649.401	4503
649.459	-132
649.516	74
649.574	-2421
649.632	-671
649.690	-315
649.748	-937
649.806	-1909
649.863	116
649.921	456
649.979	-388
650.037	-584
650.094	-1145
650.152	-921
650.210	-1457
650.268	201
650.325	-1285
650.383	-1342
650.440	-1698
650.498	-343
650.556	-1721
650.613	-1090
650.671	-1238
650.728	-1662
650.786	-1561
650.843	-1077
650.901	-2254
650.958	-1032
651.016	-455
651.073	-899
651.131	-892
651.188	-1696
651.246	-602
651.303	-1649
651.360	-540
651.418	-838
651.475	-1542
651.532	-1633
651.590	-701
651.647	-2244
651.704	-430
651.762	-829
651.819	-1290
651.876	-1401
651.933	-818
651.990	-462
652.048	-1854
652.105	-1640
652.162	-955
652.219	-1314
652.276	-505
652.333	-1158
652.390	-1269
652.448	-1444
652.505	-1898
652.562	-902
652.619	-1671
652.676	-997
652.733	-738
652.790	-1420
652.847	-910
652.904	-891
652.961	-2030
653.017	-2251
653.074	-821
653.131	-1428
653.188	-1324
653.245	-1161
653.302	-534
653.359	-1409
653.415	-584
653.472	-1241
653.529	-562
653.586	-1710
653.642	-1554
653.699	-180
653.756	-1507
653.813	-976
653.869	-664
653.926	-1880
653.983	-1725
654.039	-852
654.096	-1380
654.152	-872
654.209	-2011
654.266	-626
654.322	-1495
654.379	-755
654.435	-886
654.492	-1095
654.548	-1763
654.605	-1584
654.661	-680
654.717	-1122
654.774	-1346
654.830	-1198
654.887	-1058
654.943	-1987
655.000	-650
655.056	-1113
655.112	-1665
655.168	-1820
655.225	-1366
655.281	-953
655.337	-1349
655.394	-956
655.450	-622
655.506	-895
655.562	-2030
655.618	277
655.675	-1925
655.731	-1327
655.787	-957
655.843	-1175
655.899	-2270
655.955	-712
656.011	-1549
656.067	-1520
656.123	-1187
656.179	-1014
656.235	-1074
656.291	-1750
656.347	235
656.403	-1551
656.459	-1282
656.515	-529
656.571	-1626
656.627	-795
656.683	-2052
656.739	-805
656.795	-1509
656.850	-1222
656.906	-1565
656.962	-598
657.018	-1609
657.074	-1345
657.129	-1234
657.185	-1306
657.241	-589
657.297	-1285
657.352	-488
657.408	-2172
657.464	-431
657.519	-1358
657.575	-2106
657.630	-1374
657.686	-1109
657.742	-1783
657.797	-1192
657.853	-2466
657.908	-926
657.964	-1910
658.019	-1307
658.075	-1857
658.130	-543
658.186	-2128
658.241	-1746
658.297	-1657
658.352	-1657
658.407	-516
658.463	-2009
658.518	-1328
658.573	-1645
658.629	-2436
658.684	-957
658.739	-1469
658.795	-2625
658.850	-808
658.905	-2356
658.960	-1104
659.016	-1975
659.071	-1158
659.126	-306
659.181	-2561
659.236	-660
659.291	-372
659.346	-1656
659.401	-1812
659.457	-808
659.512	-1389
659.567	-38
659.622	-1047
659.677	-1275
659.732	-2036
659.787	-1060
659.842	-1042
659.897	-1554
659.952	-1071
660.007	-1720
660.061	-1484
660.116	-1480
660.171	-2474
660.226	-1398
660.281	-463
660.336	-1719
660.391	-643
660.445	-1727
660.500	-899
660.555	-958
660.610	-1643
660.664	-215
660.719	-900
660.774	-991
660.828	-1190
660.883	-593
660.938	-1721
660.992	-2116
661.047	-796
661.101	-1183
661.156	-1300
661.211	-1857
661.265	-1229
661.320	-1486
661.374	-1393
661.429	-1387
661.483	-1184
661.538	-2194
661.592	-1802
661.647	-1667
661.701	-671
661.755	-1090
661.810	-1509
661.864	-1435
661.919	-1867
661.973	-1163
662.027	-892
662.081	-2034
662.136	-1357
662.190	-1727
662.244	-1210
662.299	-2055
662.353	-751
662.407	-1834
662.461	-1273
662.515	-1111
662.569	-2517
662.624	-877
662.678	-1597
662.732	-1696
662.786	-2284
662.840	-1386
662.894	-1068
662.948	-1623
663.002	-1341
663.056	-1253
663.110	-1680
663.164	-1245
663.218	-1214
663.272	-1472
663.326	-1449
663.380	-1054
663.434	-1123
663.488	-1731
663.542	-1189
663.595	-1249
663.649	-1971
663.703	-807
663.757	-920
663.811	-2261
663.864	-1271
663.918	-960
663.972	-1672
664.026	-1800
664.079	-1959
664.133	-1328
664.187	-1120
664.240	-1132
664.294	-396
664.348	-1135
664.401	-1346
664.455	-373
664.508	-1999
664.562	-1309
664.615	-1372
664.669	-1531
664.722	-974
664.776	-1075
664.829	-1687
664.883	-927
664.936	-2248
664.990	-2095
665.043	-1771
665.097	-1775
665.150	-1464
665.203	-1826
665.257	-1044
665.310	-1131
665.363	-1533
665.417	-1424
665.470	-833
665.523	-1434
665.576	-1629
665.630	-1826
665.683	-1099
665.736	-1970
665.789	-458
665.842	-1429
665.895	-972
665.949	-1360
666.002	-1365
666.055	-1382
666.108	-1300
666.161	-1097
666.214	-1465
666.267	-1086
666.320	-1578
666.373	-1016
666.426	-1470
666.479	-1696
666.532	-1550
666.585	-1473
666.638	-1373
666.691	-1918
666.744	-1368
666.796	-1552
666.849	-1638
666.902	-1148
666.955	-953
667.008	-1071
667.060	-1419
667.113	-975
667.166	-1097
667.219	-1763
667.271	-1179
667.324	-629
667.377	-1284
667.430	-979
667.482	-1784
667.535	-1054
667.587	-947
667.640	-1343
667.693	-1497
667.745	-1230
667.798	-1422
667.850	-1457
667.903	-1036
667.955	-1386
668.008	-2215
668.060	-1463
668.113	-1904
668.165	-1196
668.218	-1820
668.270	-1305
668.322	-2219
668.375	-2219
668.427	-279
668.479	-1541
668.532	-972
668.584	-1563
668.636	-1888
668.689	-1757
668.741	-1763
668.793	-896
668.845	-1350
668.898	-1310
668.950	-1328
669.002	-1735
669.054	-2123
669.106	-1397
669.158	-563
669.211	-1902
669.263	-1621
669.315	-1094
669.367	-1410
669.419	-1398
669.471	-1380
669.523	-1434
669.575	-841
669.627	-2019
669.679	-2034
669.731	-1175
669.783	-1178
669.835	-1812
669.886	-2015
669.938	-1327
669.990	-1402
670.042	-1576
670.094	-2147
670.146	-1900
670.197	-1250
670.249	-1844
670.301	-1077
670.353	-908
670.404	-601
670.456	-1456
670.508	-1335
670.560	-1586
670.611	-423
670.663	-253
670.715	662
670.766	3604
670.818	2151
670.869	-1077
670.921	-1750
670.972	-1123
671.024	-1731
671.075	-1960
671.127	-1295
671.178	-1952
671.230	-785
671.281	-1395
671.333	-1533
671.384	-1792
671.436	-2072
671.487	-1351
671.538	-1632
671.590	-1028
671.641	-1238
671.692	-1192
671.744	-752
671.795	-763
671.846	-1115
671.897	-1268
671.949	-1269
672.000	-1716
672.051	-2371
672.102	-1337
672.153	-1471
672.204	-1697
672.256	-1957
672.307	-1976
672.358	-1158
672.409	-1607
672.460	-996
672.511	-1994
672.562	-2062
672.613	-1789
672.664	-1913
672.715	-1617
672.766	-1622
672.817	-1613
672.868	-1431
672.919	-1788
672.970	-1262
673.021	-1615
673.071	-3077
673.122	-1718
673.173	-1226
673.224	-1629
673.275	-1476
673.326	-2153
673.376	-1099
673.427	-1934
673.478	-2140
673.528	-953
673.579	-1631
673.630	-1185
673.680	-1068
673.731	-1490
673.782	-1544
673.832	-1540
673.883	-2140
673.934	-2511
673.984	-1543
674.035	-1855
674.085	-1568
674.136	-1423
674.186	-1522
674.237	-1563
674.287	-1658
674.338	-1107
674.388	-1697
674.438	-1626
674.489	-1463
674.539	-2007
674.589	-1540
674.640	-1499
674.690	-700
674.740	-2294
674.791	-1424
674.841	-1344
674.891	-1394
674.942	-1617
674.992	-1201
675.042	-1994
675.092	-2156
675.142	-1872
675.193	-1140
675.243	-1831
675.293	-1794
675.343	-1560
675.393	-1066
675.443	-1318
675.493	-1251
675.543	-2235
675.593	-1563
675.643	-1583
675.693	-1451
675.743	-1253
675.793	-1890
675.843	-1555
675.893	-1822
675.943	-1183
675.993	-1281
676.043	-1296
676.093	-1184
676.142	-2275
676.192	-1252
676.242	-1860
676.292	-1839
676.341	-1920
676.391	-1843
676.441	-2197
676.491	-1840
676.540	-1989
676.590	-1444
676.640	-1868
676.689	-1500
676.739	-1497
676.789	-2153
676.838	-2091
676.888	-1554
676.937	-2687
676.987	-1558
677.037	-1546
677.086	-2351
677.136	-1745
677.185	-1924
677.235	-2449
677.284	-1453
677.333	-1989
677.383	-1565
677.432	-2191
677.482	-1808
677.531	-1463
677.580	-2401
677.630	-1467
677.679	-1234
677.728	-1755
677.778	-1576
677.827	-1808
677.876	-1032
677.925	-1578
677.975	-1590
678.024	-1505
678.073	-848
678.122	-775
678.171	-2005
678.220	-1696
678.269	-1347
678.319	-1615
678.368	-2045
678.417	-764
678.466	-1495
678.515	-2011
678.564	-914
678.613	-2341
678.662	-1275
678.711	-2274
678.760	-2100
678.809	-1677
678.857	-1788
678.906	-2397
678.955	-1492
679.004	-961
679.053	-1793
679.102	-1692
679.151	-1847
679.199	-1682
679.248	-1487
679.297	-1055
679.346	-1693
679.394	-2069
679.443	-1642
679.492	-1700
679.540	-2007
679.589	-1829
679.638	-1929
679.686	-1711
679.735	-1987
679.784	-1761
679.832	-1892
679.881	-1975
679.929	-1527
679.978	-2230
680.026	-1746
680.075	-2068
680.123	-1791
680.172	-1921
680.220	-1677
680.268	-1886
680.317	-1128
680.365	-2163
680.414	-1366
680.462	-1481
680.510	-1736
680.559	-2398
680.607	-1349
680.655	-1792
680.703	-1546
680.752	-1671
680.800	-1917
680.848	-1971
680.896	-2142
680.945	-2001
680.993	-1459
681.041	-1985
681.089	-1502
681.137	-1234
681.185	-1778
681.233	-1760
681.281	-1794
681.308	-1565
681.329	-1391
681.377	-2297
681.425	-1377
681.430	-1361
681.473	-1282
681.521	-1532
681.552	-1618
681.569	-1683
681.617	-1845
681.665	-1810
681.674	-1647
681.713	-970
681.761	-923
681.796	-1783
681.809	-2114
681.857	-857
681.904	-1469
681.918	-1359
681.952	-1108
682.000	-1505
682.039	-804
682.048	-666
682.096	-1823
682.143	-1644
682.161	-1584
682.191	-1493
682.239	-2040
682.283	-1554
682.286	-1527
682.334	-2078
682.382	-1680
682.405	-1278
682.430	-875
682.477	-2237
682.525	-1692
682.527	-1689
682.572	-1783
682.620	-1253
682.648	-1214
682.667	-1187
682.715	-1327
682.763	-1081
682.770	-1101
682.810	-1247
682.857	-600
682.892	-1059
682.905	-1249
682.952	-959
683.000	-1206
683.014	-1225
683.047	-1269
683.095	-239
683.135	-534
683.142	-588
683.190	-823
683.237	-1165
683.257	-1234
683.284	-1341
683.332	-1493
683.379	-1212
683.379	-1207
683.426	-568
683.473	-952
683.501	-1250
683.521	-1514
683.568	-465
683.615	-661
683.622	-714
683.662	-983
683.709	-1412
683.744	-1297
683.757	-1256
683.804	-856
683.851	-906
683.865	-802
683.898	-599
683.945	-663
683.987	-867
683.992	-896
684.039	-688
684.086	-558
684.109	-717
684.133	-877
684.180	-717
684.227	-758
684.230	-755
684.274	-783
684.321	-36
684.352	-636
684.368	-952
684.415	-451
684.462	-700
684.473	-803
684.509	-1100
684.556	-283
684.595	-711
684.603	-809
684.649	-1043
684.696	-790
684.716	-821
684.743	-789
684.790	-1130
684.837	-736
684.838	-718
684.883	-160
684.930	-405
684.959	-462
684.977	-494
685.023	-630
685.070	-784
685.081	-690
685.117	-396
685.164	-190
685.202	-481
685.210	-525
685.257	-40
685.303	110
685.324	149
685.350	125
685.396	78
685.443	-216
685.445	-216
685.490	-57
685.536	-327
685.566	-355
685.583	-370
685.629	287
685.675	-136
685.688	-229
685.722	-538
685.768	1
685.809	-2
685.815	4
685.861	191
685.908	-19
685.930	-96
685.954	-122
686.000	233
686.047	-642
686.052	-567
686.093	54
686.139	440
686.173	69
686.185	-84
686.232	30
686.278	328
686.294	169
686.324	-90
686.370	-137
686.416	34
686.416	41
686.463	448
686.509	40
686.537	-222
686.555	-290
686.601	56
686.647	882
686.658	793
686.693	368
686.739	295
686.779	152
686.785	152
686.831	123
686.877	174
686.900	440
686.923	650
686.969	138
687.015	257
687.022	217
687.061	138
687.107	134
687.143	367
687.153	436
687.199	87
687.245	409
687.264	384
687.291	311
687.336	57
687.382	195
687.385	188
687.428	316
687.474	887
687.506	534
687.520	387
687.565	506
687.611	609
687.627	531
687.657	416
687.702	400
687.748	377
687.748	371
687.794	982
687.839	947
687.869	1026
687.885	964
687.931	1135
687.976	635
687.990	577
688.022	613
688.067	1065
688.111	668
688.113	661
688.158	351
688.204	825
688.233	474
688.249	341
688.295	440
688.340	783
688.354	636
688.386	299
688.431	912
688.474	719
688.477	720
688.522	592
688.567	1014
688.595	831
688.613	718
688.658	788
688.703	507
688.716	589
688.749	884
688.794	1236
688.837	949
688.839	942
688.884	829
688.930	548
688.958	555
688.975	674
689.020	591
689.065	1015
689.079	961
689.110	695
689.155	411
689.200	344
689.201	358
689.246	703
689.291	707
689.321	889
689.336	946
689.381	547
689.426	812
689.442	844
689.471	1056
689.516	811
689.561	992
689.562	992
689.606	1013
689.651	785
689.683	453
689.696	450
689.741	754
689.785	1200
689.804	1178
689.830	1109
689.875	1093
689.920	1008
689.925	1012
689.965	1164
690.010	1191
690.046	970
690.054	925
690.099	1310
690.144	1247
690.166	1091
690.189	1007
690.233	1171
690.278	1408
690.287	1363
690.323	1179
690.367	1350
690.408	1074
690.412	1078
690.457	1050
690.501	1662
690.528	1677
690.546	1565
690.590	1139
690.635	949
690.649	805
690.680	768
690.724	872
690.769	1299
690.770	1287
690.813	1166
690.857	848
690.890	891
690.902	1007
690.946	952
690.991	1473
691.011	1449
691.035	1386
691.080	1725
691.124	1673
691.132	1697
691.168	1880
691.213	1677
691.252	2098
691.257	2145
691.301	1546
691.346	1457
691.373	1151
691.390	1070
691.434	1372
691.478	1524
691.493	1467
691.522	1338
691.567	1479
691.611	1253
691.614	1211
691.655	1111
691.699	1679
691.734	1820
691.743	1807
691.787	1816
691.831	1252
691.855	1134
691.875	1259
691.919	1754
691.964	1770
691.975	1903
692.008	2048
692.052	1930
692.096	1482
692.096	1463
692.139	1847
692.183	1538
692.216	1833
692.227	1875
692.271	1527
692.315	1359
692.337	1352
692.359	1557
692.403	1643
692.447	1567
692.457	1611
692.490	1706
692.534	1461
692.577	1379
692.578	1399
692.622	1489
692.666	1544
692.698	1786
692.709	1873
692.753	1630
692.797	1821
692.818	1810
692.840	1730
692.884	1562
692.928	1231
692.938	1229
692.971	1611
693.015	1670
693.059	2072
693.059	2052
693.102	1889
693.146	1506
693.179	1442
693.189	1513
693.233	1532
693.276	1745
693.299	1782
693.320	1920
693.363	2062
693.407	2379
693.420	2439
693.450	2355
693.493	2176
693.537	2075
693.540	2015
693.580	1794
693.624	2290
693.660	2345
693.667	2356
693.710	2351
693.753	2034
693.780	1937
693.797	2097
693.840	2761
693.883	2980
693.901	3108
693.926	3042
693.970	3079
694.013	2768
694.021	2725
694.056	2552
694.099	2364
694.141	2025
694.142	2043
694.185	1804
694.229	1927
694.261	1821
694.272	1833
694.315	1927
694.358	1995
694.381	1984
694.401	2069
694.444	2230
694.487	2330
694.501	2406
694.530	2517
694.573	2481
694.616	2305
694.621	2260
694.659	2153
694.702	2382
694.741	2278
694.745	2292
694.787	2186
694.830	2100
694.862	1977
694.873	1998
694.916	2147
694.959	2275
694.982	2226
695.002	2261
695.044	2276
695.087	2555
695.102	2578
695.130	2469
695.172	2352
695.215	1919
695.222	1862
695.258	1864
695.301	1738
695.342	1879
695.343	1913
695.386	2094
695.428	2098
695.462	2258
695.471	2286
695.514	2330
695.556	2177
695.582	2186
695.599	2305
695.641	2277
695.684	2466
695.701	2477
695.726	2411
695.769	2333
695.811	2135
695.821	2087
695.854	2129
695.896	2193
695.938	2172
695.941	2153
695.981	2312
696.023	2372
696.061	2230
696.065	2242
696.108	2476
696.150	2486
696.181	2491
696.192	2570
696.235	2585
696.277	2899
696.301	2914
696.319	2930
696.361	3135
696.404	3108
696.421	3081
696.446	3035
696.488	3217
696.530	2980
696.541	2920
696.572	2982
696.614	3161
696.656	3224
696.660	3202
696.698	3037
696.740	2827
696.780	2600
696.783	2630
696.825	2733
696.867	2757
696.900	2766
696.909	2764
696.951	2623
696.992	2508
697.020	2392
697.034	2425
697.076	2482
697.118	2479
697.139	2455
697.160	2474
697.202	2514
697.244	2491
697.259	2451
697.286	2491
697.327	2591
697.369	2698
697.379	2686
697.411	2787
697.453	2840
697.494	2997
697.499	2977
697.536	2800
697.578	2638
697.618	2416
697.620	2451
697.661	2808
697.703	3068
697.738	3269
697.744	3307
697.786	3433
697.828	3545
697.858	3559
697.869	3614
697.911	3636
697.952	3728
697.977	3799
697.994	3724
698.035	3318
698.077	2994
698.097	2787
698.118	2768
698.160	2692
698.201	2625
698.216	2580
698.243	2617
698.284	2620
698.325	2628
698.336	2599
698.367	2875
698.408	3220
698.449	3594
698.455	3615
698.491	3513
698.532	3359
698.573	3221
698.575	3187
698.614	3434
698.656	3656
698.694	3824
698.697	3843
698.738	3595
698.779	3329
698.814	3082
698.820	3140
698.862	3352
698.903	3566
698.933	3699
698.944	3712
698.985	3658
699.026	3606
699.053	3549
699.067	3612
699.172	3905
699.292	3181
699.411	3081
699.530	3563
699.650	3316
699.769	3187
699.889	3624
700.008	3457
700.127	3407
700.246	2872
700.366	3855
700.485	3354
700.604	4281
700.723	3262
700.843	3479
700.962	3987
701.081	3603
701.200	3135
701.319	3649
701.438	2630
701.557	3201
701.676	3227
701.796	2878
701.915	2761
702.034	2628
702.153	3188
702.272	3441
702.391	2574
702.509	3581
702.628	2461
702.747	3544
702.866	2592
702.985	2770
703.104	2723
703.223	3115
703.342	2367
703.460	2205
703.579	2534
703.698	2867
703.817	2986
703.935	3456
704.054	2281
704.173	3388
704.292	2636
704.410	2786
704.529	2640
704.648	2645
704.766	2062
704.885	2336
705.003	1850
705.122	2497
705.240	2538
705.359	2704
705.477	2821
705.596	4519
705.714	3143
705.833	3169
705.951	2671
706.070	4410
706.188	3019
706.307	3406
706.425	3041
706.543	3764
706.662	3404
706.780	3966
706.898	3188
707.016	4595
707.135	2900
707.253	3013
707.371	2506
707.489	3134
707.608	2195
707.726	3401
707.844	2976
707.962	2846
708.080	3356
708.198	2609
708.316	2281
708.434	3488
708.552	2506
708.670	2703
708.788	3292
708.906	4533
709.024	3165
709.142	3735
709.260	2832
709.378	2943
709.496	3742
709.614	3761
709.732	3532
709.850	4279
709.968	3245
710.085	3436
710.203	3030
710.321	3591
710.439	2514
710.556	3747
710.674	2693
710.792	2789
710.910	2437
711.027	4158
711.145	2439
711.263	3716
711.380	3128
711.498	3241
711.615	3078
711.733	2659
711.851	2735
711.968	2996
712.086	2337
712.203	3027
712.321	3001
712.438	2891
712.555	4628
712.673	4808
712.790	3907
712.908	3136
713.025	3472
713.142	4495
713.260	4520
713.377	3919
713.494	3268
713.612	4403
713.729	3818
713.846	4603
713.963	3598
714.081	3918
714.198	3262
714.315	4501
714.432	4162
714.549	7184
714.666	13510
714.783	58956
714.901	170797
715.018	18966
715.135	4475
715.252	3703
715.369	3314
715.486	3152
715.603	2448
715.720	2874
715.837	3234
715.953	3759
716.070	3241
716.187	3207
716.304	3221
716.421	3191
716.538	3695
716.655	3358
716.771	3143
716.888	3431
717.005	4278
717.122	3502
717.238	2285
717.355	2592
717.472	1829
717.589	2608
717.705	2271
717.822	2486
717.938	1644
718.055	2305
718.172	3285
718.288	3448
718.405	2712
718.521	2261
718.638	1971
718.754	3939
718.871	3526
718.987	3262
719.104	2986
719.220	2295
719.336	2200
719.453	2710
719.569	2740
719.685	2297
719.802	3198
719.918	3792
720.034	5143
720.151	15383
720.267	63605
720.383	23313
720.499	2772
720.616	2460
720.732	2845
720.848	4462
720.964	8261
721.080	7232
721.196	2093
721.312	1743
721.428	2127
721.544	3171
721.660	3157
721.776	1963
721.892	1862
722.008	2530
722.124	2381
722.240	1427
722.356	2086
722.472	2080
722.588	1862
722.704	2331
722.820	943
722.936	1546
723.051	1397
723.167	1531
723.283	2010
723.399	1600
723.515	1383
723.630	1965
723.746	1671
723.862	1342
723.977	1607
724.093	2296
724.209	1508
724.324	1252
724.440	2359
724.555	6419
724.671	1982
724.786	1437
724.902	1404
725.017	1483
725.133	2453
725.248	5677
725.364	2397
725.479	2190
725.595	1482
725.710	1320
725.826	1172
725.941	1209
726.056	692
726.172	1915
726.287	1263
726.402	1941
726.517	1136
726.633	1397
726.748	890
726.863	1259
726.978	1393
727.093	1183
727.208	1596
727.324	1322
727.439	1271
727.554	1529
727.669	1010
727.784	1319
727.899	936
728.014	1627
728.129	1341
728.244	1521
728.359	404
728.474	1513
728.589	1242
728.704	1763
728.819	1158
728.934	1613
729.049	471
729.163	1090
729.278	543
729.393	2367
729.508	1346
729.622	359
729.737	981
729.852	-235
729.967	810
730.081	1271
730.196	982
730.311	810
730.425	1255
730.540	1445
730.655	760
730.769	959
730.884	197
730.998	1686
731.113	1079
731.227	1289
731.342	277
731.456	1475
731.571	1122
731.685	1326
731.800	318
731.914	1666
732.028	1454
732.143	1120
732.257	1918
732.371	2819
732.486	6195
732.600	20030
732.714	34703
732.829	5272
732.943	1614
733.057	1461
733.171	1422
733.285	1484
733.399	1558
733.514	1290
733.628	1134
733.742	1160
733.856	695
733.970	1602
734.084	1077
734.198	873
734.312	773
734.426	1566
734.540	3150
734.654	1008
734.768	524
734.882	1313
734.996	1131
735.109	1372
735.223	1930
735.337	1245
735.451	792
735.565	792
735.679	756
735.792	2186
735.906	1851
736.020	620
736.134	1042
736.247	990
736.361	1387
736.475	2484
736.588	1005
736.702	1380
736.815	813
736.929	905
737.043	-225
737.156	1071
737.270	1256
737.383	1405
737.497	1319
737.610	316
737.723	937
737.837	1348
737.950	498
738.064	628
738.177	589
738.290	1108
738.404	1037
738.517	552
738.630	550
738.744	737
738.857	1765
738.970	1464
739.083	1373
739.197	637
739.310	699
739.423	784
739.536	319
739.649	672
739.762	871
739.875	474
739.988	858
740.102	754
740.215	684
740.328	1289
740.441	410
740.553	979
740.667	851
740.779	1412
740.892	747
741.005	665
741.118	904
741.231	1530
741.344	557
741.457	276
741.569	684
741.682	1188
741.795	739
741.908	223
742.020	668
742.133	905
742.246	517
742.358	1075
742.471	524
742.584	731
742.696	448
742.809	465
742.922	596
743.034	875
743.147	1288
743.259	448
743.372	454
743.484	-198
743.597	418
743.709	493
743.822	-758
743.934	718
744.046	1156
744.159	1547
744.271	725
744.383	671
744.496	926
744.608	1444
744.720	1098
744.832	193
744.945	-215
745.057	956
745.169	657
745.281	569
745.393	535
745.506	517
745.618	515
745.730	970
745.842	41
745.954	338
746.066	-620
746.178	351
746.290	784
746.402	818
746.514	795
746.626	269
746.738	615
746.850	1431
746.962	1221
747.074	551
747.185	63
747.297	271
747.409	121
747.521	530
747.633	8
747.744	372
747.856	259
747.968	420
748.080	744
748.191	483
748.303	-218
748.414	779
748.526	148
748.638	530
748.749	202
748.861	710
748.972	374
749.084	203
749.195	-45
749.307	948
749.418	110
749.530	872
749.641	770
749.753	24
749.864	-108
749.975	425
750.087	-187
750.198	901
750.310	-361
750.421	218
750.532	-946
750.643	124
750.755	126
750.866	283
750.977	229
751.088	416
751.199	1693
751.310	550
751.422	-284
751.533	867
751.644	181
751.755	474
751.866	179
751.977	619
752.088	-8
752.199	986
752.310	-278
752.421	279
752.532	-69
752.643	45
752.753	672
752.864	605
752.975	-727
753.086	-209
753.197	764
753.308	501
753.418	-171
753.529	56
753.640	-370
753.751	209
753.861	-692
753.972	-46
754.083	73
754.193	-62
754.304	18
754.415	136
754.525	172
754.636	-417
754.746	-311
754.857	709
754.967	-235
755.078	59
755.188	-95
755.299	486
755.409	18
755.520	367
755.630	-13
755.740	568
755.851	-618
755.961	212
756.071	-269
756.182	-302
756.292	-1080
756.402	794
756.512	-492
756.623	318
756.733	-420
756.843	169
756.953	722
757.063	195
757.173	173
757.283	-41
757.393	-430
757.504	400
757.614	-486
757.724	253
757.834	-791
757.944	184
758.053	-587
758.164	536
758.273	-145
758.383	365
758.493	731
758.603	-406
758.713	234
758.823	-281
758.932	-84
759.042	290
759.152	40
759.262	389
759.372	-100
759.481	149
759.591	22
759.701	-405
759.810	5
759.920	409
760.029	-547
760.139	-695
760.249	-3
760.358	334
760.468	198
760.577	559
760.687	315
760.796	206
760.906	-333
761.015	311
761.124	917
761.234	568
761.343	522
761.453	98
761.562	-73
761.671	-225
761.781	-208
761.890	-159
761.999	-677
762.108	345
762.218	56
762.327	-173
762.436	1066
762.545	244
762.654	-852
762.763	613
762.872	111
762.982	-58
763.091	-141
763.200	-436
763.309	-244
763.418	298
763.527	921
763.635	-17
763.744	-395
763.853	411
763.962	-473
764.071	397
764.180	120
764.289	432
764.398	-414
764.506	593
764.615	221
764.724	14
764.833	-399
764.941	552
765.050	147
765.159	1307
765.268	637
765.376	988
765.485	1028
765.593	1445
765.702	744
765.810	1081
765.919	1745
766.028	3355
766.136	6317
766.245	13132
766.353	33544
766.461	126768
766.570	294421
766.678	65173
766.787	10919
766.895	5731
767.003	3181
767.112	3004
767.220	2358
767.328	1771
767.437	365
767.545	1438
767.653	1351
767.761	667
767.870	665
767.978	528
768.086	48
768.194	1229
768.302	-144
768.410	751
768.518	-164
768.626	871
768.734	129
768.842	259
768.950	-57
769.058	599
769.166	451
769.274	1146
769.382	1612
769.490	2247
769.598	4733
769.706	12730
769.813	40717
769.921	170032
770.029	132950
770.137	12594
770.245	3609
770.352	2279
770.460	1997
770.568	1656
770.675	700
770.783	405
770.891	283
770.998	593
771.106	354
771.213	241
771.321	296
771.428	976
771.536	-174
771.643	851
771.751	719
771.858	354
771.966	77
772.073	426
772.181	248
772.288	627
772.395	600
772.503	275
772.610	475
772.717	245
772.825	439
772.932	285
773.039	-87
773.146	1134
773.253	-81
773.361	1063
773.468	-225
773.575	-102
773.682	23
773.789	540
773.896	-155
774.003	801
774.110	371
774.217	300
774.324	0
774.431	199
774.538	758
774.645	372
774.752	186
774.859	815
774.966	462
775.073	845
775.179	-138
775.286	-8
775.393	-92
775.500	807
775.607	240
775.713	758
775.820	279
775.927	719
776.033	-288
776.140	39
776.247	-81
776.353	620
776.460	-5
776.566	207
776.673	23
776.779	-48
776.886	-342
776.992	1834
777.099	-293
777.205	1617
777.312	1096
777.418	2029
777.524	941
777.631	948
777.737	-411
777.843	725
777.950	56
778.056	570
778.162	804
778.268	-371
778.375	-322
778.481	-806
778.587	-246
778.693	352
778.799	-740
778.906	-364
779.012	-357
779.118	415
779.224	-259
779.330	-253
779.436	-495
779.542	-407
779.648	420
779.754	-386
779.860	288
779.966	414
780.071	2312
780.177	994
780.283	-808
780.389	-19
780.495	25
780.601	3
780.706	-372
780.812	-18
780.918	177
781.024	-186
781.129	-180
781.235	-210
781.341	-153
781.446	287
781.552	-399
781.657	354
781.763	-616
781.869	-102
781.974	17
782.080	-5
782.185	-555
782.291	90
782.396	-1022
782.501	234
782.607	-508
782.712	-13
782.818	-547
782.923	27
783.028	85
783.134	63
783.239	-220
783.344	-188
783.449	168
783.555	-213
783.660	-459
783.765	727
783.870	-1271
783.975	585
784.080	-615
784.185	119
784.291	-169
784.396	-647
784.501	-151
784.606	905
784.711	-715
784.816	-889
784.921	-1576
785.026	-473
785.130	-395
785.235	-335
785.340	-1038
785.445	-624
785.550	81
785.655	-125
785.760	-157
785.864	-601
785.969	-811
786.074	-551
786.178	126
786.283	6
786.388	-1562
786.492	-156
786.597	-276
786.702	-358
786.806	-870
786.911	-568
787.015	-424
787.120	-72
787.224	-789
787.329	-380
787.433	-976
787.538	-193
787.642	-729
787.747	-1001
787.851	-672
787.955	-833
788.060	-525
788.164	-736
788.268	-686
788.372	-780
788.477	-531
788.581	367
788.685	-403
788.789	-826
788.894	-764
788.998	-296
789.102	-98
789.206	-674
789.310	-806
789.414	110
789.518	-669
789.622	162
789.726	-1622
789.830	-120
789.934	-695
790.038	-319
790.142	-941
790.246	-208
790.350	-428
790.454	-1480
790.557	-1219
790.661	-305
790.765	-525
790.869	-1027
790.973	-945
791.076	395
791.180	-637
791.284	-801
791.388	8
791.491	-662
791.595	-642
791.698	-864
791.802	-431
791.906	266
792.009	-382
792.113	33
792.216	-663
792.320	-397
792.423	-735
792.527	-449
792.630	-1035
792.733	-275
792.837	-1135
792.940	-535
793.043	-539
793.147	-1114
793.250	-606
793.353	18
793.457	-822
793.560	36
793.663	-147
793.766	357
793.869	-447
793.973	110
794.076	-811
794.179	-354
794.282	-720
794.385	-752
794.488	-299
794.591	-755
794.694	366
794.797	1058
794.900	-484
795.003	-264
795.106	-1042
795.209	-148
795.312	-436
795.415	-523
795.517	-207
795.620	-667
795.723	-1752
795.826	-342
795.929	-1389
796.031	-185
796.134	-675
796.237	-821
796.339	-140
796.442	-503
796.545	-926
796.647	-577
796.750	-601
796.852	463
796.955	-546
797.057	-179
797.160	-919
797.262	-862
797.365	-962
797.467	-416
797.570	-224
797.672	-857
797.775	-205
797.877	257
797.979	-663
798.082	-677
798.184	-868
798.286	-425
798.388	-905
798.491	-710
798.593	-1291
798.695	-534
798.797	-267
798.899	-727
799.001	-814
799.104	-813
799.206	-2065
799.308	124
799.410	-656
799.512	-506
799.614	-1029
799.716	-383
799.818	-126
799.920	-1015
800.021	-331
800.123	-527
800.225	-346
800.327	-1080
800.429	-739
800.531	-614
800.633	-146
800.734	-408
800.836	-166
800.938	-425
801.039	-531
801.141	-424
801.243	-1536
801.344	-372
801.446	-762
801.548	-1682
801.649	-599
801.751	-201
801.852	-567
801.954	-869
802.055	-690
802.157	-712
802.258	-1266
802.360	-1835
802.461	-767
802.563	-1431
802.664	-570
802.765	-728
802.867	-1102
802.968	-1011
803.069	-106
803.170	-969
803.272	-1221
803.373	-52
803.474	-1395
803.575	-1213
803.676	-858
803.777	-1048
803.879	-1017
803.980	-441
804.081	-659
804.182	-524
804.283	-1267
804.384	-925
804.485	-927
804.586	-635
804.687	-383
804.788	-315
804.888	-611
804.989	-645
805.090	-1033
805.191	-937
805.292	-386
805.393	-805
805.493	-976
805.594	-1146
805.695	-1936
805.796	-710
805.896	-780
805.997	-911
806.098	-882
806.198	-1259
806.299	-1029
806.399	-1439
806.500	-1286
806.601	-586
806.701	-943
806.802	-1080
806.902	-1448
807.002	-950
807.103	-398
807.203	-134
807.304	-1100
807.404	-1044
807.504	-883
807.605	-2034
807.705	-1373
807.805	-132
807.906	-543
808.006	-850
808.106	-1058
808.206	-481
808.306	-1096
808.406	-931
808.507	-304
808.607	-485
808.707	-1633
808.807	-299
808.907	-1452
809.007	-474
809.107	-1938
809.207	-771
809.307	-844
809.407	-1158
809.507	-786
809.607	-370
809.706	-1009
809.806	-314
809.906	-1095
810.006	-611
810.106	-1355
810.205	-697
810.305	-2302
810.405	290
810.505	-1320
810.604	-687
810.704	-1609
810.804	-1327
810.903	-952
811.003	-435
811.102	-735
811.202	-1627
811.301	-599
811.401	-275
811.500	-938
811.600	-1250
811.699	-669
811.799	-730
811.898	-1155
811.997	-722
812.097	-715
812.196	-1102
812.295	-1215
812.395	-404
812.494	-1189
812.593	-263
812.692	-1155
812.792	-967
812.891	-611
812.990	-911
813.089	-519
813.188	-494
813.287	-1686
813.386	-187
813.485	-780
813.584	-1514
813.683	-1245
813.782	-1117
813.881	-678
813.980	-1120
814.079	-1533
814.178	-489
814.277	-901
814.376	-1413
814.475	-975
814.574	-581
814.672	-791
814.771	-880
814.870	-863
814.969	-958
815.067	-494
815.166	-810
815.265	-820
815.363	-247
815.462	-175
815.560	-224
815.659	-968
815.758	-724
815.856	-424
815.955	-855
816.053	-784
816.152	-341
816.250	-1616
816.348	-481
816.447	-931
816.545	-666
816.644	166
816.742	312
816.840	-330
816.938	-1281
817.037	-172
817.135	-693
817.233	-120
817.331	637
817.430	-794
817.528	467
817.626	-343
817.724	540
817.822	879
817.920	2385
818.018	5722
818.116	11419
818.214	33416
818.312	90385
818.410	147225
818.508	37375
818.606	6768
818.704	3878
818.802	2811
818.900	3313
818.997	3524
819.095	5057
819.193	10804
819.291	26171
819.389	66659
819.486	183319
819.584	210305
819.682	44059
819.779	9048
819.877	5236
819.975	3652
820.072	1800
820.170	1318
820.267	1338
820.365	-161
820.462	989
820.560	170
820.657	-315
820.755	-1067
820.852	461
820.949	-208
821.047	57
821.144	-12
821.241	250
821.339	-951
821.436	-199
821.533	520
821.631	733
821.728	210
821.825	-118
821.922	-335
822.019	135
822.116	-323
822.214	-464
822.311	-1212
822.408	-398
822.505	-661
822.602	-419
822.699	-1178
822.796	-800
822.893	-828
822.990	-363
823.086	-361
823.183	-396
823.280	-1361
823.377	-1176
823.474	-670
823.571	-425
823.667	-500
823.764	-934
823.861	-191
823.958	-1130
824.054	102
824.151	-919
824.248	-991
824.344	175
824.441	-1347
824.537	-803
824.634	-1587
824.731	-975
824.827	-446
824.924	-1039
825.020	-899
825.116	-1027
825.213	-829
825.309	-638
825.406	-952
825.502	-681
825.598	-1384
825.695	-456
825.791	-642
825.887	-88
825.983	-2038
826.080	-518
826.176	-1442
826.272	-452
826.368	-559
826.464	-1007
826.560	-390
826.656	-1916
826.753	-968
826.849	-1488
826.945	-409
827.041	-704
827.137	-1094
827.233	-609
827.328	-1352
827.424	-273
827.520	-981
827.616	-1164
827.712	-1880
827.808	-716
827.904	-1363
827.999	-230
828.095	-1554
828.191	-574
828.287	-1018
828.382	-1552
828.478	-589
828.574	-1407
828.669	-776
828.765	-791
828.860	-2121
828.956	-372
829.051	-1215
829.147	-510
829.242	-1550
829.338	-1104
829.433	-284
829.529	-591
829.624	-552
829.720	-606
829.815	-1169
829.910	-875
830.005	-1545
830.101	-1422
830.196	-1680
830.291	-1275
830.386	-1318
830.482	280
830.577	-379
830.672	-1031
830.767	-1010
830.862	-974
830.957	-468
831.052	-1096
831.147	-1094
831.242	-1645
831.337	-1326
831.432	-1089
831.527	-914
831.622	-965
831.717	-1892
831.812	-610
831.907	-604
832.002	-401
832.097	-1753
832.191	-1809
832.286	-647
832.381	-324
832.476	-540
832.570	176
832.665	-166
832.760	617
832.854	-1650
832.949	-713
833.044	-1029
833.138	-594
833.233	-938
833.327	-1709
833.422	-894
833.516	-525
833.611	-1545
833.705	-535
833.799	-869
833.894	-452
833.988	-335
834.083	-839
834.177	-875
834.271	-1671
834.365	-1598
834.460	-751
834.554	-1933
834.648	-155
834.742	-1894
834.836	-1089
834.931	-1462
835.025	-621
835.119	-470
835.213	-1498
835.307	-1059
835.401	-1156
835.495	-1004
835.589	-727
835.683	-1828
835.777	-1695
835.871	-1190
835.965	-1435
836.059	-844
836.152	330
836.246	-1157
836.340	-734
836.434	-681
836.528	-1044
836.621	-960
836.715	-1377
836.809	-1665
836.902	-206
836.996	-1857
837.090	-739
837.183	-1195
837.277	-568
837.370	-460
837.464	-1130
837.557	-1574
837.651	-922
837.744	-512
837.838	-1019
837.931	-809
838.025	-825
838.118	-1321
838.211	-642
838.305	-942
838.398	-178
838.491	-1565
838.584	-1073
838.678	-1110
838.771	562
838.864	-709
838.957	-1134
839.050	-1598
839.144	-750
839.237	-1161
839.330	-1561
839.423	-1437
839.516	-933
839.609	-1180
839.702	-1146
839.795	-1138
839.888	-1337
839.981	-1633
840.073	-801
840.166	-1262
840.259	-937
840.352	-1665
840.445	-1413
840.538	-1703
840.630	-785
840.723	-1878
840.816	-883
840.909	-1504
841.001	-1300
841.094	-1284
841.186	-381
841.279	-1265
841.372	-773
841.464	-1291
841.557	-966
841.649	-2193
841.742	-789
841.834	-1237
841.927	-1573
842.019	-2105
842.111	-957
842.204	-1393
842.296	-1540
842.388	-1586
842.481	-537
842.573	-22
842.665	602
842.758	-681
842.850	-820
842.942	-1175
843.034	-938
843.126	-1795
843.218	-729
843.310	-831
843.402	1619
843.495	3272
843.587	4437
843.679	-126
843.771	-1022
843.862	-905
843.954	-356
844.046	-1166
844.138	-916
844.230	-1242
844.322	-993
844.414	-1255
844.505	-542
844.597	-410
844.689	-634
844.781	-1978
844.872	-1056
844.964	-1607
845.056	-727
845.147	-1843
845.239	-698
845.331	-1267
845.422	-912
845.514	-1035
845.605	-732
845.697	-1697
845.788	-504
845.880	-1452
845.971	-1370
846.063	-1356
846.154	-1351
846.245	-1210
846.337	-615
846.428	-583
846.519	-1162
846.610	-1447
846.702	-759
846.793	-1346
846.884	-754
846.975	-1827
847.066	-917
847.158	-1493
847.249	-1393
847.340	-1110
847.431	-1339
847.522	-1187
847.613	-1377
847.704	-615
847.795	-647
847.886	-1408
847.977	-555
848.068	-1426
848.158	-1543
848.249	-1490
848.340	-1193
848.431	-694
848.522	-844
848.612	-1374
848.703	-754
848.794	-918
848.885	-11
848.975	-1180
849.066	-753
849.157	-1581
849.247	-1372
849.338	-1645
849.428	-428
849.519	624
849.609	3695
849.700	7718
849.790	17842
849.881	11873
849.971	744
850.061	-1329
850.152	-165
850.242	-1355
850.332	-1173
850.423	-1497
850.513	-1146
850.603	-1701
850.693	-526
850.784	-1630
850.874	-1413
850.964	-944
851.054	-935
851.144	-1372
851.234	-1354
851.324	-1992
851.414	-1735
851.505	-1552
851.595	-770
851.684	-966
851.774	-106
851.864	-1300
851.954	-996
852.044	-1109
852.134	-1524
852.224	-1139
852.314	-702
852.403	-1524
852.493	-1385
852.583	-1036
852.673	-1199
852.762	-1210
852.852	-1034
852.942	-1370
853.031	-709
853.121	-1321
853.210	-972
853.300	-829
853.389	-1395
853.479	-1350
853.568	-516
853.658	-355
853.747	2478
853.837	5262
853.926	14758
854.015	30717
854.105	53254
854.194	116077
854.283	82101
854.373	10082
854.462	1458
854.551	248
854.640	577
854.729	-419
854.819	-200
854.908	-753
854.997	-553
855.086	-1975
855.175	-822
855.264	-1312
855.353	-1200
855.442	-998
855.531	-1079
855.620	-1100
855.709	-1130
855.798	-1382
855.887	-1719
855.975	-1521
856.064	-954
856.153	-1625
856.242	-1116
856.331	-1130
856.419	-1373
856.508	-1625
856.597	-1573
856.685	-1071
856.774	-1090
856.863	-1458
856.951	-1542
857.040	-1481
857.128	-937
857.217	-1499
857.305	-1455
857.394	-1172
857.482	-1851
857.571	-962
857.659	-1900
857.747	-1341
857.836	-563
857.924	-1195
858.012	-1594
858.101	-1410
858.189	-757
858.277	-1496
858.365	-1096
858.454	-1239
858.542	-1361
858.630	-1688
858.718	-719
858.806	-2169
858.894	-1415
858.982	-1861
859.070	-1027
859.158	-1311
859.246	-1530
859.334	-143
859.422	-1568
859.510	-1547
859.598	-716
859.686	-1522
859.773	-1023
859.861	-1235
859.949	-675
860.037	-1321
860.125	-1402
860.212	-1738
860.300	-1146
860.388	-1316
860.475	-1767
860.563	-1426
860.651	-852
860.738	-1640
860.826	-1351
860.913	-1858
861.001	-1288
861.088	-1758
861.176	-995
861.263	-1252
861.350	-1677
861.438	-1099
861.525	-967
861.612	-948
861.700	-784
861.787	-2519
861.874	-1121
861.962	-1650
862.049	-1349
862.136	-1057
862.223	-947
862.310	-872
862.397	-471
862.484	-2146
862.572	-1174
862.659	-1921
862.746	-711
862.833	-1356
862.920	-214
863.007	-1077
863.094	-929
863.180	-1054
863.267	-1767
863.354	-1454
863.441	-995
863.528	-1361
863.615	-1383
863.701	-1630
863.788	-941
863.875	-1648
863.961	-1290
864.048	-1604
864.135	-1513
864.221	-1857
864.308	-1788
864.395	-1489
864.481	-1016
864.568	-1536
864.654	-687
864.741	-892
864.827	-1313
864.914	-1358
865.000	-21
865.086	-986
865.173	-230
865.259	-143
865.345	-749
865.432	-778
865.518	-5
865.604	27
865.690	116
865.776	2465
865.863	7376
865.949	14619
866.035	26003
866.121	41249
866.207	77568
866.293	33292
866.379	5009
866.465	-76
866.551	648
866.637	-708
866.723	-809
866.809	335
866.895	-667
866.981	-899
867.066	-658
867.152	-746
867.238	-1363
867.324	-630
867.409	-326
867.495	-214
867.581	-424
867.667	-938
867.752	-1363
867.838	-475
867.923	-1024
868.009	533
868.094	9
868.180	-21
868.266	-240
868.351	524
868.436	-696
868.522	-309
868.607	229
868.693	-65
868.778	303
868.863	748
868.949	-193
869.034	-1157
869.119	-582
869.204	-1296
869.290	-398
869.375	-843
869.460	-678
869.545	-2060
869.630	-1207
869.715	-993
869.800	-1258
869.885	-2172
869.970	-962
870.055	-753
870.140	-1571
870.225	-1283
870.310	-863
870.395	-1267
870.480	-1069
870.565	-1171
870.650	-988
870.734	-1221
870.819	-778
870.904	-1510
870.989	-624
871.073	-1215
871.158	-1493
871.243	-1703
871.327	-440
871.412	-1980
871.496	-1206
871.581	-2043
871.665	-976
871.750	-1409
871.834	-407
871.919	-1091
872.003	-1445
872.088	-1049
872.172	-1132
872.257	-1652
872.341	-1342
872.425	-1086
872.509	-1041
872.594	-1196
872.678	-1335
872.762	-848
872.846	-979
872.930	-1015
873.015	-1779
873.099	-2317
873.183	-895
873.267	-1759
873.351	-1089
873.435	-1609
873.519	-890
873.603	-771
873.687	-1450
873.771	-953
873.855	-768
873.938	-1340
874.022	-1379
874.106	-1477
874.190	-1307
874.274	-1262
874.358	-1577
874.383	-1630
874.441	-1755
874.490	-1695
874.525	-1653
874.598	-1936
874.609	-1986
874.692	-1395
874.705	-1363
874.776	-1200
874.813	-946
874.859	-617
874.920	-1134
874.943	-1340
875.027	-1209
875.028	-1212
875.110	-1619
875.135	-1407
875.194	-861
875.243	-748
875.277	-681
875.350	-1206
875.361	-1284
875.444	-1914
875.457	-1766
875.527	-1049
875.565	-1212
875.611	-1383
875.672	-1213
875.694	-1147
875.778	-1387
875.780	-1374
875.861	-934
875.887	-894
875.944	-842
875.994	-1149
876.027	-1328
876.101	-1110
876.111	-1092
876.194	-1126
876.209	-1158
876.277	-1208
876.316	-556
876.360	112
876.423	-968
876.443	-1281
876.526	-576
876.530	-592
876.610	-1110
876.637	-1179
876.693	-1299
876.745	-1154
876.776	-1073
876.852	-523
876.859	-465
876.942	-894
876.959	-874
877.025	-771
877.066	-723
877.108	-755
877.173	-705
877.190	-673
877.273	-716
877.280	-733
877.356	-891
877.387	-556
877.439	12
877.494	-93
877.522	-177
877.601	-109
877.605	-117
877.688	-285
877.708	-473
877.770	-642
877.815	-331
877.853	-243
877.922	-466
877.936	-503
878.018	-367
878.029	-482
878.101	-1063
878.136	-664
878.184	-291
878.242	-1073
878.266	-1345
878.349	-908
878.349	-910
878.431	-1378
878.456	-1106
878.514	-327
878.563	-902
878.596	-1316
878.670	-781
878.679	-736
878.761	-945
878.776	-916
878.844	-680
878.883	-852
878.926	-954
878.990	-355
879.008	-208
879.091	-829
879.097	-810
879.173	-648
879.203	-762
879.255	-1123
879.310	-1216
879.338	-1102
879.417	-1674
879.420	-1691
879.502	-369
879.523	-397
879.584	-895
879.630	-857
879.667	-674
879.736	-1168
879.749	-1289
879.831	-891
879.843	-962
879.913	-1130
879.949	-898
879.995	-613
880.056	-622
880.077	-723
880.159	-501
880.162	-513
880.241	-542
880.269	-373
880.323	-54
880.375	-544
880.405	-742
880.482	339
880.487	402
880.569	389
880.588	595
880.651	1492
880.694	762
880.733	136
880.801	472
880.815	387
880.896	-693
880.907	-718
880.978	-167
881.013	-160
881.060	-388
881.120	-389
881.142	-329
881.224	-582
881.226	-576
881.305	-395
881.332	-467
881.387	-484
881.438	-453
881.469	-547
881.545	-1090
881.550	-1110
881.632	-859
881.651	-862
881.713	-849
881.757	-754
881.795	-634
881.863	-450
881.876	-457
881.958	-839
881.969	-822
882.039	-492
882.075	-583
882.121	-683
882.181	-539
882.202	-536
882.284	-312
882.287	-313
882.365	-181
882.393	-244
882.446	-273
882.499	-315
882.528	-369
882.605	-94
882.609	-83
882.690	-336
882.711	-295
882.771	-472
882.817	-695
882.853	-427
882.923	176
882.934	198
883.015	-124
883.029	-66
883.096	35
883.135	-284
883.177	-501
883.241	-311
883.258	-289
883.339	-497
883.347	-527
883.420	-827
883.453	-845
883.501	-448
883.558	-172
883.583	-348
883.663	-1030
883.664	-1035
883.744	-417
883.770	-300
883.825	-376
883.876	-374
883.906	-219
883.981	-295
883.987	-360
884.068	-513
884.087	-688
884.149	-373
884.193	-84
884.230	-152
884.298	-589
884.310	-649
884.391	-506
884.404	-555
884.472	-976
884.510	-1047
884.552	-676
884.615	-379
884.633	-449
884.714	-413
884.721	-452
884.794	-654
884.826	-611
884.875	-548
884.932	-585
884.956	-453
885.036	23
885.037	23
885.117	-429
885.143	-540
885.197	-548
885.248	-488
885.278	-515
885.354	-792
885.358	-772
885.439	-394
885.459	-284
885.519	-265
885.565	-367
885.599	-271
885.670	133
885.680	130
885.760	-97
885.775	-122
885.840	-273
885.881	-517
885.921	-679
885.986	-799
886.001	-663
886.081	34
886.091	131
886.161	-65
886.196	-212
886.241	-135
886.302	-7
886.322	14
886.402	-161
886.407	-161
886.482	-137
886.512	-157
886.562	-145
886.617	-170
886.642	-176
886.722	-321
886.722	-326
886.802	158
886.828	314
886.882	361
886.933	400
886.962	138
887.038	-717
887.042	-688
887.122	31
887.143	146
887.202	67
887.248	117
887.281	7
887.353	-265
887.361	-256
887.441	-227
887.458	-239
887.521	-573
887.563	-713
887.601	-571
887.668	-550
887.680	-472
887.760	191
887.773	301
887.840	-352
887.878	-817
887.919	-699
887.983	-475
887.999	-422
888.079	-196
888.088	-187
888.158	-124
888.193	-9
888.238	87
888.297	86
888.317	91
888.397	273
888.402	258
888.476	-95
888.507	-152
888.556	-128
888.612	-147
888.635	-117
888.715	-15
888.717	-17
888.794	123
888.821	133
888.873	-244
888.926	-624
888.953	-485
889.031	-28
889.032	-28
889.111	-383
889.135	-459
889.190	152
889.240	597
889.270	498
889.345	321
889.349	305
889.428	-120
889.449	-237
889.507	146
889.554	442
889.586	153
889.658	-499
889.665	-483
889.744	-313
889.763	-274
889.824	-162
889.867	-82
889.903	-36
889.972	57
890.076	105
890.181	-755
890.285	894
890.390	-17
890.494	-458
890.599	-720
890.703	87
890.807	-674
890.912	182
891.016	-535
891.120	-10
891.224	325
891.329	1125
891.433	735
891.537	512
891.641	97
891.745	688
891.849	-397
891.953	403
892.058	-60
892.162	313
892.266	44
892.370	-111
892.474	-709
892.578	409
892.682	-21
892.786	1221
892.889	1105
892.993	334
893.097	215
893.201	194
893.305	-151
893.409	-232
893.512	380
893.616	260
893.720	-554
893.824	-369
893.927	-367
894.031	-211
894.135	-252
894.238	406
894.342	-885
894.445	480
894.549	-352
894.652	-37
894.756	-405
894.859	787
894.963	-35
895.066	528
895.170	-665
895.273	-359
895.377	-587
895.480	-31
895.583	-538
895.687	55
895.790	-233
895.893	481
895.997	-135
896.100	-387
896.203	150
896.306	199
896.409	-222
896.513	135
896.616	-591
896.719	450
896.822	111
896.925	112
897.028	-714
897.131	-431
897.234	-1023
897.337	-685
897.440	-1129
897.543	362
897.646	-786
897.749	68
897.852	102
897.954	-226
898.057	-853
898.160	-133
898.263	-169
898.366	-40
898.468	-704
898.571	260
898.674	-64
898.776	-199
898.879	-61
898.982	-638
899.084	-713
899.187	195
899.290	-811
899.392	-474
899.495	-1170
899.597	765
899.700	-347
899.802	-157
899.904	-628
900.007	621
900.109	163
900.212	188
900.314	-1268
900.416	-759
900.519	-472
900.621	-437
900.723	-292
900.826	29
900.928	-495
901.030	599
901.132	-598
901.234	-562
901.336	-405
901.439	102
901.541	-724
901.643	-275
901.745	-872
901.847	380
901.949	-356
902.051	509
902.153	-298
902.255	-144
902.357	-203
902.459	-164
902.560	-1128
902.662	74
902.764	-575
902.866	-51
902.968	-406
903.070	-231
903.171	-543
903.273	-3
903.375	-670
903.477	41
903.578	-395
903.680	-132
903.781	-639
903.883	-280
903.985	-289
904.086	-22
904.188	-142
904.289	-707
904.391	-259
904.492	-870
904.594	345
904.695	364
904.796	-163
904.898	1515
904.999	-678
905.100	473
905.202	455
905.303	290
905.404	-361
905.506	-35
905.607	-152
905.708	-222
905.809	-415
905.910	444
906.012	-941
906.113	133
906.214	26
906.315	-49
906.416	-685
906.517	574
906.618	-556
906.719	476
906.820	-73
906.921	-445
907.022	-856
907.123	144
907.224	-493
907.325	-354
907.425	-691
907.526	-128
907.627	-281
907.728	-462
907.828	-699
907.929	-853
908.030	-339
908.131	304
908.231	-922
908.332	336
908.433	-1517
908.533	116
908.634	-283
908.734	132
908.835	-566
908.935	489
909.036	-574
909.136	293
909.237	-575
909.337	-1245
909.438	-723
909.538	-70
909.638	-616
909.739	-27
909.839	-1090
909.939	-129
910.040	-646
910.140	236
910.240	36
910.340	257
910.440	-908
910.541	-577
910.641	-294
910.741	-1266
910.841	-454
910.941	-3
911.041	-785
911.141	430
911.241	-931
911.341	-285
911.441	-919
911.541	-35
911.641	-1101
911.741	-29
911.841	-620
911.941	-276
912.040	-333
912.140	-833
912.240	-160
912.340	152
912.440	-700
912.539	-231
912.639	-399
912.739	-937
912.838	-686
912.938	-84
913.038	-364
913.137	-267
913.237	-1126
913.336	-484
913.436	-1465
913.535	-282
913.635	-288
913.734	-584
913.834	-955
913.933	-652
914.033	148
914.132	-25
914.231	-257
914.331	-507
914.430	-771
914.529	-707
914.629	144
914.728	-689
914.827	-570
914.926	-183
915.025	-886
915.125	129
915.224	-532
915.323	-987
915.422	-531
915.521	-618
915.620	-529
915.719	-706
915.818	-409
915.917	-61
916.016	-288
916.115	-1398
916.214	-387
916.313	-500
916.412	-1010
916.510	-489
916.609	151
916.708	-288
916.807	-994
916.906	-1140
917.004	-324
917.103	-565
917.202	-768
917.301	-443
917.399	-772
917.498	-361
917.596	-551
917.695	-320
917.794	-1213
917.892	-839
917.991	-722
918.089	172
918.188	-377
918.286	-599
918.384	-555
918.483	248
918.581	299
918.680	-508
918.778	-1070
918.876	44
918.975	-480
919.073	-421
919.171	-573
919.269	-91
919.368	-1421
919.466	3
919.564	-1130
919.662	-309
919.760	-951
919.858	-170
919.956	-57
920.054	-660
920.153	-761
920.251	107
920.349	-1023
920.446	-39
920.544	-124
920.642	-271
920.740	-523
920.838	-625
920.936	-1697
921.034	85
921.132	-475
921.229	-187
921.327	-416
921.425	-467
921.523	-397
921.620	450
921.718	-158
921.816	10
921.913	-405
922.011	388
922.109	-171
922.206	-109
922.304	-972
922.401	-412
922.499	-82
922.596	198
922.694	30
922.791	392
922.888	-93
922.986	1
923.083	-155
923.181	430
923.278	-297
923.375	972
923.473	-854
923.570	-388
923.667	-47
923.764	174
923.861	-222
923.959	17
924.056	146
924.153	-178
924.250	46
924.347	366
924.444	-203
924.541	-847
924.638	-630
924.735	196
924.832	-97
924.929	78
925.026	-572
925.123	-3
925.220	-436
925.317	385
925.414	93
925.510	-307
925.607	475
925.704	135
925.801	-66
925.897	878
925.994	121
926.091	114
926.187	539
926.284	1476
926.381	1426
926.477	1902
926.574	1170
926.670	1655
926.767	1841
926.863	1691
926.960	-171
927.056	274
927.153	-139
927.249	36
927.346	205
927.442	-253
927.538	117
927.635	-319
927.731	-241
927.827	-198
927.924	-520
928.020	-469
928.116	-893
928.212	-4
928.308	-116
928.404	-451
928.501	-221
928.597	687
928.693	-1163
928.789	-451
928.885	-220
928.981	355
929.077	-397
929.173	-783
929.269	-663
929.365	-333
929.461	-208
929.557	198
929.652	-56
929.748	10
929.844	-1071
929.940	45
930.036	-696
930.131	-770
930.227	-1292
930.323	-480
930.419	-228
930.514	-862
930.610	-4
930.705	-429
930.801	205
930.897	152
930.992	-694
931.088	-16
931.183	-411
931.279	-917
931.374	-591
931.470	-100
931.565	-768
931.660	307
931.756	-8
931.851	-394
931.946	-592
932.042	565
932.137	-339
932.232	-787
932.327	-164
932.423	-242
932.518	123
932.613	194
932.708	-543
932.803	261
932.898	-376
932.994	622
933.089	-608
933.184	-313
933.279	-590
933.374	-317
933.469	-576
933.563	-289
933.658	-560
933.753	118
933.848	-655
933.943	26
934.038	-760
934.133	63
934.227	-1508
934.322	-275
934.417	-1536
934.512	-87
934.606	-979
934.701	-770
934.796	-330
934.890	-30
934.985	-729
935.079	-335
935.174	-850
935.269	-355
935.363	-1069
935.458	-443
935.552	-508
935.646	-77
935.741	-686
935.835	-50
935.930	-879
936.024	274
936.118	-603
936.213	136
936.307	-641
936.401	-591
936.496	-212
936.590	-279
936.684	-1029
936.778	-532
936.872	40
936.966	-137
937.060	-536
937.155	-411
937.249	-1301
937.343	-448
937.437	131
937.531	-469
937.625	-1328
937.719	-450
937.813	-958
937.906	-612
938.000	-479
938.094	-368
938.188	-920
938.282	519
938.376	-830
938.469	-388
938.563	-325
938.657	48
938.751	1437
938.844	3122
938.938	894
939.032	80
939.125	25
939.219	211
939.312	787
939.406	5048
939.500	2289
939.593	-200
939.686	-799
939.780	-483
939.873	-1474
939.967	-230
940.060	-184
940.154	232
940.247	-943
940.340	-396
940.434	-991
940.527	-390
940.620	-1555
940.713	124
940.806	-392
940.900	-913
940.993	-401
941.086	335
941.179	-1326
941.272	-447
941.365	-572
941.458	385
941.551	631
941.644	133
941.737	-1352
941.830	-14
941.923	-479
942.016	-125
942.109	-1174
942.202	-608
942.295	-852
942.388	-366
942.480	-1060
942.573	-911
942.666	-294
942.759	-35
942.851	-549
942.944	-1124
943.037	-1482
943.129	-455
943.222	-1376
943.315	-1634
943.407	-1010
943.500	-505
943.592	-657
943.685	-401
943.777	-1014
943.870	-103
943.962	-675
944.055	-719
944.147	-971
944.239	-1021
944.332	-1286
944.424	230
944.516	-269
944.609	-603
944.701	-1735
944.793	-709
944.885	-1067
944.977	-616
945.070	-384
945.162	-830
945.254	-529
945.346	-602
945.438	-848
945.530	191
945.622	-856
945.714	-309
945.806	-452
945.898	-502
945.990	-601
946.082	-565
946.174	-401
946.266	204
946.358	-1298
946.449	-685
946.541	-1095
946.633	-1325
946.725	174
946.816	-914
946.908	-1325
947.000	-1297
947.091	-1154
947.183	-237
947.275	-976
947.366	-136
947.458	-729
947.549	-1110
947.641	-451
947.732	-1405
947.824	-802
947.915	-330
948.007	-879
948.098	-159
948.190	-1034
948.281	-541
948.372	-562
948.464	-1132
948.555	-796
948.646	-517
948.737	-1394
948.829	-1333
948.920	-1523
949.011	-1273
949.102	-935
949.193	-4
949.284	-1612
949.376	-1136
949.467	-1949
949.558	-64
949.649	-884
949.740	-1446
949.831	-1097
949.922	-1197
950.013	-1503
950.104	-887
950.194	-1651
950.285	-702
950.376	-1214
950.467	-416
950.558	-1906
950.649	-503
950.739	-621
950.830	-719
950.921	-687
951.011	-1175
951.102	-999
951.193	-271
951.283	-1766
951.374	-601
951.464	-1062
951.555	-1330
951.646	-1187
951.736	153
951.826	-1194
951.917	-787
952.007	-1514
952.098	-460
952.188	-551
952.279	-1007
952.369	-182
952.459	-1871
952.549	-467
952.640	-953
952.730	-520
952.820	-709
952.910	-1371
953.001	-1406
953.091	-1433
953.181	-1214
953.271	-1308
953.361	-1418
953.451	-48
953.541	-682
953.631	-1769
953.721	-829
953.811	-1469
953.901	-746
953.991	-1532
954.081	-786
954.171	-1669
954.261	-639
954.350	-1165
954.440	-1206
954.530	-1415
954.620	-843
954.710	-1382
954.799	-1082
954.889	-2511
954.979	-76
955.068	-1393
955.158	-729
955.248	-1243
955.337	-1025
955.427	-509
955.516	-1234
955.606	-1620
955.695	-313
955.785	-1288
955.874	-777
955.964	-1970
956.053	-957
956.142	-1584
956.232	-985
956.321	-986
956.410	-1189
956.500	-937
956.589	-914
956.678	-2023
956.767	-947
956.856	-1759
956.946	-1270
957.035	-1594
957.124	-616
957.213	-1788
957.302	-1100
957.391	-1223
957.480	-1301
957.569	-1252
957.658	-624
957.747	-1529
957.836	-859
957.925	-1812
958.014	-833
958.103	-1148
958.192	-1637
958.280	-1678
958.369	-907
958.458	-1513
958.547	-1470
958.635	-1209
958.724	-668
958.813	-1644
958.901	-105
958.990	-1308
959.079	-1441
959.167	-1193
959.256	-794
959.344	-998
959.433	-1427
959.521	-1285
959.610	-1047
959.698	-1459
959.787	-1255
959.875	-1931
959.964	-850
960.052	-1342
960.140	-1307
960.228	-1060
960.317	-1463
960.405	-1893
960.493	-1418
960.581	-1193
960.670	-1709
960.758	-1215
960.846	-1470
960.934	-1703
961.022	-709
961.110	-1023
961.198	-492
961.286	-1470
961.374	-1052
961.462	-1454
961.550	-1447
961.638	-1203
961.726	-1534
961.814	-1323
961.902	-701
961.990	-1146
962.078	-78
962.165	-1721
962.253	-1255
962.341	-1547
962.429	-1650
962.516	-1217
962.604	-616
962.692	-910
962.779	-1071
962.867	-1409
962.955	-1308
963.042	-1212
963.130	-401
963.217	-988
963.305	-641
963.392	-1697
963.480	-1143
963.567	-2182
963.654	-1252
963.742	-1125
963.829	-708
963.917	91
964.004	281
964.091	-919
964.178	-1401
964.266	-1548
964.353	-1179
964.440	-1669
964.527	261
964.614	-2189
964.701	-1340
964.789	-1018
964.876	-272
964.963	-1474
965.050	-1636
965.137	-1815
965.224	-1849
965.311	-1251
965.398	-1219
965.485	-1404
965.571	-1101
965.658	-1297
965.745	-1012
965.832	-1678
965.919	-1380
966.006	-1830
966.092	-1700
966.179	-1494
966.266	-854
966.352	-1759
966.439	-1371
966.526	-2105
966.612	-517
966.699	-1156
966.786	-1065
966.872	-1909
966.959	-640
967.045	-1890
967.132	-807
967.218	-1222
967.304	-1600
967.391	-1674
967.477	-734
967.564	-309
967.650	-20
967.736	-774
967.822	-1059
967.909	-1719
967.995	-1048
968.081	-1885
968.167	-1714
968.254	-1246
968.340	-625
968.426	-2770
968.512	-518
968.598	-1856
968.684	-2146
968.770	-1413
968.856	-1700
968.942	-760
969.028	-1160
969.114	-2419
969.200	-1294
969.286	-1340
969.372	-854
969.457	-1576
969.543	-1216
969.629	-2139
969.715	-1574
969.801	-338
969.886	-1342
969.972	-1771
970.058	-1549
970.143	-1947
970.229	-112
970.315	-2187
970.400	-1452
970.486	-1148
970.571	-2016
970.657	-434
970.742	-668
970.828	-1881
970.913	-1085
970.999	-1994
971.084	-1400
971.169	-2697
971.255	-871
971.340	-2139
971.425	-1446
971.511	-1738
971.596	-1194
971.681	-1083
971.766	-1591
971.852	-1200
971.937	-1025
972.022	-896
972.107	-1451
972.192	-1937
972.277	-1241
972.362	-1997
972.447	-1383
972.532	-2393
972.617	-1298
972.702	-1862
972.787	-1863
972.872	-1875
972.957	-813
973.042	-1949
973.126	-1089
973.211	-1324
973.296	-2207
973.381	-1204
973.466	-1985
973.550	-1798
973.635	-1517
973.720	-1667
973.804	-1664
973.889	-1518
973.973	-985
974.058	-2093
974.143	-1019
974.227	-2237
974.312	-596
974.396	-2047
974.481	-1709
974.565	-1760
974.649	-1792
974.734	-2302
974.818	-1163
974.902	-2411
974.987	-1506
975.071	-2100
975.155	-2088
975.240	-1586
975.324	-1551
975.408	-2278
975.492	-1357
975.576	-2225
975.660	-1546
975.744	-2128
975.829	-2106
975.913	-608
975.997	-999
976.081	-2183
976.165	-549
976.249	-1711
976.333	-1782
976.416	-1785
976.500	-945
976.584	-2626
976.668	-881
976.752	-1724
976.836	-1742
976.919	-2310
977.003	-2279
977.087	-1351
977.171	-1167
977.254	-1979
977.338	-1689
977.422	-2081
977.505	-968
977.589	-1830
977.672	-1769
977.756	-2271
977.839	-1797
977.923	-1980
978.006	-1261
978.090	-1735
978.173	-2439
978.257	-1869
978.340	-1852
978.423	-1397
978.507	-2068
978.590	-2496
978.673	-1872
978.756	-1454
978.840	-933
978.923	-1980
979.006	-1933
979.089	-2085
979.172	-1500
979.255	-1175
979.338	-1545
979.422	-2458
979.505	-1900
979.588	-1538
979.671	-1951
979.754	-2252
979.836	-1824
979.919	-1615
980.002	-1579
980.085	-1739
980.168	-1249
980.251	-1943
980.334	-2451
980.416	-1631
980.499	-2191
980.582	-2307
980.665	-1211
980.747	-1749
980.830	-1469
980.912	-1897
980.995	-2192
981.078	-1493
981.160	-1890
981.243	-2397
981.325	-1403
981.408	-1534
981.490	-1261
981.573	-2421
981.655	-1298
981.738	-1363
981.820	-1603
981.902	-2114
981.984	-2136
982.067	-2559
982.149	-1538
982.231	-2067
982.314	-876
982.396	-1695
982.478	-1184
982.560	-1671
982.642	-1820
982.724	-2297
982.807	-2493
982.888	-2175
982.971	-1663
983.053	-2844
983.135	-2124
983.216	-2107
983.298	-1796
983.380	-2699
983.462	-1522
983.544	-2057
983.626	-2096
983.708	-1975
983.790	-2293
983.871	-1731
983.953	-1294
984.035	-2148
984.117	-1431
984.198	-2364
984.280	-1549
984.362	-2002
984.443	-1265
984.525	-1744
984.606	-1806
984.688	-2034
984.769	-2346
984.851	-1390
984.932	-1017
985.014	-1447
985.095	-2564
985.177	-2194
985.258	-2379
985.339	-2302
985.421	-1605
985.502	-1632
985.583	-2436
985.664	-1712
985.746	-2039
985.827	-2784
985.908	-850
985.989	-1797
986.070	-1705
986.151	-2764
986.232	-2067
986.313	-1058
986.395	-2262
986.476	-1546
986.557	-2084
986.637	-1211
986.718	-2369
986.799	-2282
986.880	-1786
986.961	-2242
987.042	-1910
987.123	-2189
987.204	-1839
987.284	-2184
987.365	-1364
987.446	-1994
987.526	-1835
987.607	-2729
987.688	-1718
987.768	-2801
987.849	-2305
987.930	-2515
988.010	-1826
988.091	-2658
988.171	-1126
988.252	-2398
988.332	-1862
988.413	-2626
988.493	-1861
988.573	-2717
988.654	-837
988.734	-2460
988.814	-2754
988.895	-1928
988.975	-2209
989.055	-2207
989.135	-1151
989.216	-2506
989.296	-1561
989.376	-3016
989.456	-1544
989.536	-1935
989.616	-832
989.696	-2168
989.776	-2691
989.856	-2756
989.936	-2225
990.016	-2689
990.096	-1042
990.176	-2727
990.256	-2405
990.336	-2190
990.416	-1013
990.495	-2370
990.575	-1597
990.655	-2118
990.735	-2173
990.814	-2092
990.894	-2545
990.974	-1884
991.053	-2220
991.133	-2380
991.213	-1254
991.292	-2295
991.372	-1354
991.451	-1871
991.531	-1928
991.610	-2999
991.690	-2251
991.769	-1661
991.849	-2546
991.928	-2869
992.007	-2032
992.087	-2681
992.166	-1736
992.245	-2162
992.324	-1509
992.404	-2278
992.483	-1339
992.562	-2442
992.641	-2387
992.720	-2414
992.799	-1492
992.879	-2336
992.958	-1704
993.037	-1736
993.116	-1094
993.195	-2146
993.274	-2033
993.353	-2662
993.432	-1944
993.510	-1362
993.589	-2227
993.668	-3225
993.747	-1523
993.826	-2480
993.904	-1493
993.983	-2229
994.062	-2262
994.141	-1825
994.219	-1563
994.298	-2652
994.377	-2255
994.455	-2330
994.534	-2390
994.612	-1970
994.691	-2580
994.769	-2543
994.848	-2454
994.926	-2447
995.005	-2159
995.083	-2637
995.161	-1036
995.240	-2894
995.318	-2011
995.397	-2638
995.475	-2439
995.553	-2162
995.631	-1222
995.710	-2177
995.788	-1998
995.866	-3253
995.944	-1486
996.022	-2273
996.100	-1826
996.178	-2930
996.256	-2630
996.334	-1136
996.412	-1892
996.490	-2424
996.568	-2418
996.646	-2998
996.724	-900
996.802	-3114
996.880	-3375
996.958	-1834
997.036	-1908
997.113	-2045
997.191	-1253
997.269	-1756
997.346	-2456
997.424	-1679
997.502	-1992
997.579	-2972
997.657	-2053
997.735	-1680
997.812	-1745
997.890	-2949
997.967	-2693
998.045	-2253
998.122	-2172
998.200	-2547
998.277	-1974
998.354	-2713
998.432	-2916
998.509	-3027
998.586	-2427
998.664	-2223
998.741	-2142
998.818	-2195
998.896	-2045
998.973	-2701
999.050	-1785
999.127	-2435
999.204	-2494
999.281	-3049
999.358	-1182
999.435	-2623
999.512	-2405
999.589	-2037
999.666	-2369
999.743	-2199
999.820	-2931
999.897	-2439
999.974	-2191
1000.051	-3044
1000.128	-2019
1000.205	-1976
1000.281	-1400
1000.358	-3018
1000.435	-2701
1000.512	-3063
1000.588	-2200
1000.665	-2890
1000.741	-2374
1000.818	-1697
1000.895	-2127
1000.971	-2665
1001.048	-1515
1001.124	-2384
1001.201	-1932
1001.277	-2724
1001.354	-2274
1001.430	-3123
1001.507	-2930
1001.583	-1463
1001.659	-1258
1001.736	-2192
1001.812	-2090
1001.888	-2426
1001.964	-2196
1002.041	-3282
1002.117	-1271
1002.193	-2610
1002.269	-2522
1002.345	-2804
1002.421	-2071
1002.497	-2486
1002.573	-1589
1002.649	-2056
1002.725	-2708
1002.801	-3132
1002.877	-1381
1002.953	-3084
1003.029	-1686
1003.105	-2290
1003.181	-2400
1003.257	-2718
1003.333	-1853
1003.408	-3173
1003.484	-2057
1003.560	-2249
1003.636	-1676
1003.711	-2441
1003.787	-1807
1003.862	-3047
1003.938	-3016
1004.014	-2670
1004.089	-2851
1004.165	-3215
1004.240	-1999
1004.316	-2524
1004.391	-2462
1004.467	-1468
1004.542	-2321
1004.617	-1491
1004.693	-2372
1004.768	-2128
1004.844	-1900
1004.919	-2407
1004.994	-1593
1005.069	-2124
1005.145	-2117
1005.220	-2621
1005.295	-2561
1005.370	-1985
1005.445	-2378
1005.520	-2800
1005.595	-2339
1005.670	-2422
1005.745	-2258
1005.820	-2726
1005.895	-2237
1005.970	-2454
1006.045	-1897
1006.120	-2072
1006.195	-2385
1006.270	-2274
1006.345	-2464
1006.419	-1740
1006.494	-1961
1006.569	-2914
1006.644	-1919
1006.718	-2237
1006.793	-2442
1006.868	-3585
1006.942	-1845
1007.017	-2443
1007.092	-2397
1007.166	-3116
1007.241	-1842
1007.315	-2515
1007.390	-1610
1007.464	-2458
1007.539	-2835
1007.613	-2821
1007.687	-1705
1007.762	-2918
1007.836	-2725
1007.910	-2344
1007.984	-2088
1008.059	-2384
1008.133	-1995
1008.207	-3199
1008.281	-2907
1008.356	-3005
1008.430	-1992
1008.504	-3045
1008.578	-2834
1008.652	-2566
1008.726	-1736
1008.800	-2786
1008.874	-2105
1008.948	-2377
1009.022	-2852
1009.096	-2199
1009.170	-2184
1009.244	-2528
1009.317	-2265
1009.391	-2250
1009.465	-2922
1009.539	-2872
1009.613	-2448
1009.686	-2084
1009.760	-2463
1009.834	-2924
1009.907	-1541
1009.981	-2411
1010.054	-1377
1010.128	-2969
1010.201	-1815
1010.275	-2477
1010.349	-1813
1010.422	-2349
1010.495	-2203
1010.569	-2294
1010.642	-2436
1010.716	-1923
1010.789	-2645
1010.862	-1221
1010.936	-1014
1011.009	-1943
1011.082	-1716
1011.155	-2492
1011.229	-1574
1011.302	-2035
1011.375	-1529
1011.448	-1103
1011.521	-1609
1011.594	-1491
1011.667	-1027
1011.740	-2851
1011.813	-1712
1011.886	-1707
1011.959	-2608
1012.032	-2747
1012.105	-2026
1012.178	-3372
1012.251	-1967
1012.324	-2293
1012.396	-2005
1012.469	-3132
1012.542	-2319
1012.614	-2521
1012.687	-2639
1012.760	-2629
1012.833	-1203
1012.905	-2462
1012.978	-1833
1013.050	-1986
1013.123	-2668
1013.195	-1963
1013.268	-2280
1013.340	-2967
1013.413	-2079
1013.485	-2887
1013.558	-2023
1013.630	-2226
1013.702	-2091
1013.775	-2769
1013.847	-1336
1013.919	-2964
1013.992	-2085
1014.064	-2212
1014.136	-3090
1014.208	-1959
1014.280	-2621
1014.353	-3193
1014.425	-2012
1014.497	-2578
1014.569	-2494
1014.641	-2458
1014.713	-2134
1014.785	-2073
1014.857	-2164
1014.929	-2312
1015.001	-2140
1015.072	-1950
1015.144	-2262
1015.216	-2284
1015.288	-1590
1015.360	-2613
1015.431	-2608
1015.503	-2614
1015.575	-2518
1015.647	-3129
1015.718	-2134
1015.790	-2091
1015.861	-2159
1015.933	-2534
1016.005	-1297
1016.076	-2590
1016.148	-2253
1016.219	-2153
1016.291	-2310
1016.362	-2460
1016.433	-2752
1016.505	-2009
1016.576	-1421
1016.647	-2659
1016.719	-2344
1016.790	-2567
1016.861	-2048
1016.932	-2676
1017.004	-2148
1017.075	-2793
1017.146	-2083
1017.217	-2670
1017.288	-2014
1017.359	-2242
1017.430	-2364
1017.502	-2379
1017.573	-1910
1017.644	-2416
1017.714	-1317
1017.785	-2839
1017.856	-2030
1017.927	-2498
1017.998	-2461
1018.069	-2986
1018.140	-2417
1018.210	-3224
1018.281	-2865
1018.352	-2805
1018.423	-2435
1018.493	-2075
1018.564	-1609
1018.635	-2580
1018.705	-2143
1018.776	-2879
1018.846	-2473
1018.917	-2250
1018.987	-1442
1019.058	-2818
1019.128	-2430
1019.199	-3395
1019.269	-2650
1019.340	-2288
1019.410	-2728
1019.480	-1874
1019.551	-1936
1019.621	-2619
1019.691	-1351
1019.761	-2420
1019.832	-2591
1019.902	-2509
1019.972	-1811
1020.042	-3149
1020.112	-2846
1020.182	-2766
1020.252	-2374
1020.322	-3297
1020.392	-2625
1020.462	-3342
1020.532	-2659
1020.602	-1712
1020.672	-2050
1020.742	-3108
1020.812	-2568
1020.882	-2345
1020.952	-2317
1021.021	-2309
1021.091	-2078
1021.161	-2556
1021.230	-2763
1021.300	-2515
1021.370	-1888
1021.440	-2515
1021.509	-1679
1021.579	-2741
1021.648	-2035
1021.718	-2956
1021.787	-2787
1021.857	-2792
1021.926	-2645
1021.996	-2191
1022.065	-2260
1022.134	-2194
1022.204	-2736
1022.273	-2650
1022.342	-3110
1022.412	-1924
1022.481	-1599
1022.550	-2442
1022.619	-3003
1022.689	-1728
1022.758	-3136
1022.827	-2470
1022.896	-2618
1022.965	-2975
1023.034	-2424
1023.103	-3214
1023.172	-2174
1023.241	-1582
1023.310	-2952
1023.379	-2818
1023.448	-2433
1023.517	-2885
1023.586	-2306
1023.654	-3266
1023.723	-1869
1023.792	-2967
1023.861	-2512
1023.929	-3369
1023.998	-2057
1024.067	-2769
1024.135	-1845
1024.204	-2492
1024.273	-2350
1024.341	-2590
1024.410	-2480
1024.478	-2216
1024.547	-2840
1024.615	-2749
1024.684	-2923
1024.752	-2931
1024.820	-2522
1024.889	-3215
1024.957	-3035
1025.026	-2506
1025.094	-2374
1025.162	-2952
1025.230	-1850
1025.299	-3164
1025.367	-2312
1025.435	-3065
1025.503	-2324
1025.571	-3328
1025.639	-3210
1025.707	-3336
1025.776	-2487
1025.844	-2896
1025.912	-2430
1025.979	-2625
1026.047	-2440
1026.115	-2954
1026.183	-2677
1026.251	-2382
1026.319	-3015
1026.387	-3075
1026.454	-1820
1026.522	-3101
1026.590	-2587
1026.658	-2566
1026.725	-1982
1026.793	-1857
1026.861	-2478
1026.928	-3084
1026.996	-2144
1027.064	-3345
1027.131	-2839
1027.199	-2879
1027.266	-2339
1027.334	-1747
1027.401	-2382
1027.468	-3313
1027.536	-1956
1027.603	-3299
1027.671	-2362
1027.738	-3423
1027.805	-2509
1027.872	-2687
1027.940	-2602
1028.007	-3443
1028.074	-2516
1028.141	-2301
1028.208	-2733
1028.275	-2349
1028.342	-2620
1028.409	-2431
1028.477	-2367
1028.544	-2538
1028.610	-2897
1028.678	-3224
1028.744	-2306
1028.811	-3319
1028.878	-1535
1028.945	-3285
1029.012	-2757
1029.079	-2378
1029.146	-2223
1029.212	-3326
1029.279	-2618
1029.346	-2496
1029.412	-2529
1029.479	-2837
1029.546	-1905
1029.612	-2792
1029.679	-1752
1029.745	-2656
1029.812	-2307
1029.878	-2435
1029.945	-2628
1030.011	-2307
1030.078	-2908
1030.144	-2838
1030.210	-2350
1030.277	-2715
1030.343	-2007
1030.409	-2174
1030.476	-1664
1030.542	-2754
1030.608	-2196
1030.674	-3180
1030.740	-2446
1030.807	-3012
1030.873	-2217
1030.939	-2426
1031.005	-2465
1031.071	-2608
1031.137	-2195
1031.203	-3122
1031.269	-1913
1031.335	-3052
1031.401	-2104
1031.467	-3249
1031.533	-2595
1031.598	-2293
1031.664	-2463
1031.730	-3126
1031.796	-1803
1031.861	-2727
1031.927	-2483
1031.993	-2574
1032.058	-1446
1032.124	-2885
1032.190	-2480
1032.255	-2781
1032.321	-1799
1032.386	-3457
1032.452	-1733
1032.518	-3082
1032.583	-2213
1032.648	-2518
1032.714	-1833
1032.779	-2188
1032.844	-2214
1032.910	-2973
1032.975	-1859
1033.040	-2966
1033.106	-2248
1033.171	-2272
1033.236	-2960
1033.301	-2541
1033.366	-2723
1033.432	-2832
1033.496	-1693
1033.562	-2531
1033.627	-2368
1033.692	-2330
1033.757	-2250
1033.822	-2318
1033.887	-2780
1033.952	-2076
1034.016	-2268
1034.081	-3048
1034.146	-2857
1034.211	-2300
1034.276	-1744
1034.340	-2717
1034.405	-2501
1034.470	-1715
1034.535	-2375
1034.599	-2014
1034.664	-1678
1034.729	-2818
1034.793	-1575
1034.858	-3493
1034.922	-2216
1034.987	-2781
1035.051	-2536
1035.116	-2564
1035.180	-2397
1035.245	-1959
1035.309	-1720
1035.373	-2601
1035.437	-1762
1035.502	-2587
1035.566	-2407
1035.630	-2553
1035.695	-2382
1035.759	-2275
1035.823	-2133
1035.887	-3574
1035.951	-2312
1036.015	-2728
1036.079	-1559
1036.143	-2786
1036.208	-2921
1036.271	-2604
1036.336	-2350
1036.399	-1739
1036.463	-2137
1036.527	-2463
1036.591	-1462
1036.655	-2252
1036.719	-1738
1036.783	-2869
1036.846	-1847
1036.910	-1884
1036.974	-2660
1037.037	-1988
1037.101	-1959
1037.165	-3099
1037.228	-2172
1037.292	-3049
1037.355	-2195
1037.419	-2856
1037.483	-2597
1037.546	-3005
1037.609	-2493
1037.673	-1730
1037.736	-3070
1037.800	-1951
1037.863	-2081
1037.926	-3046
1037.990	-2585
1038.053	-3452
1038.116	-1455
1038.179	-2094
1038.243	-1587
1038.306	-2709
1038.369	-2513
1038.432	-3136
1038.495	-1805
1038.558	-2442
1038.621	-2482
1038.684	-2851
1038.747	-2114
1038.810	-2065
1038.873	-2138
1038.936	-2891
1038.999	-2081
1039.062	-3064
1039.125	-1933
1039.188	-2353
1039.250	-2483
1039.313	-2787
1039.376	-2710
1039.438	-2542
1039.501	-1747
1039.564	-2778
1039.627	-1825
1039.689	-2811
1039.752	-2231
1039.814	-2494
1039.877	-1922
1039.939	-2406
1040.002	-2322
1040.064	-2495
1040.127	-2798
1040.189	-2262
1040.251	-2773
1040.314	-2592
1040.376	-2462
1040.438	-2807
1040.501	-1762
1040.563	-2683
1040.625	-1991
1040.687	-3287
1040.750	-2381
1040.812	-2914
1040.874	-1920
1040.936	-2723
1040.998	-2339
1041.060	-2179
1041.122	-2791
1041.184	-2616
1041.246	-1841
1041.308	-1962
1041.370	-3008
1041.432	-2712
1041.494	-2850
1041.555	-3049
1041.617	-2498
1041.679	-2541
1041.741	-2694
1041.802	-2729
1041.864	-1796
1041.926	-2604
1041.987	-1358
1042.049	-2684
1042.111	-1854
1042.172	-2982
1042.234	-2097
1042.295	-2801
1042.357	-2021
1042.418	-2612
1042.480	-2600
1042.541	-2730
1042.603	-1776
1042.664	-2456
1042.725	-2586
1042.786	-1764
1042.848	-1886
1042.909	-2716
1042.970	-2700
1043.031	-3086
1043.093	-2763
1043.154	-1882
1043.215	-2021
1043.276	-1873
1043.337	-2125
1043.398	-2839
1043.459	-2448
1043.520	-3085
1043.581	-2655
1043.642	-2402
1043.703	-2169
1043.764	-3470
1043.825	-2249
1043.886	-1550
1043.947	-2586
1044.007	-2745
1044.068	-3014
1044.129	-2735
1044.189	-2404
1044.250	-2585
1044.311	-2798
1044.371	-2635
1044.432	-2067
1044.493	-2633
1044.553	-2067
1044.614	-3219
1044.674	-2399
1044.735	-2283
1044.795	-2671
1044.856	-2479
1044.916	-2400
1044.976	-1949
1045.037	-2674
1045.097	-2462
1045.157	-2579
1045.218	-2054
1045.278	-1920
1045.338	-2131
1045.398	-2094
1045.458	-2148
1045.519	-2379
1045.579	-2078
1045.639	-1949
1045.699	-2536
1045.759	-1702
1045.819	-2604
1045.879	-1796
1045.939	-3189
1045.999	-2590
1046.059	-2351
1046.119	-1344
1046.179	-2767
1046.238	-1877
1046.298	-1601
1046.358	-1269
1046.418	-1459
1046.477	-1708
1046.537	-1497
1046.597	-1592
1046.656	-1965
1046.716	-1538
1046.776	-1567
1046.835	-820
1046.895	-1859
1046.954	-1467
1047.014	-1192
1047.073	-1270
1047.133	0
