'Start Wavelength	183.833
'End Wavelength	1047.133
'Gate Delay	5.000
'Gate Width (ms)	1.050
'Laser Output Level	0.000
'X Position	0.000
'Y Position	0.000
'Z Position	0.000
'Grid Point Number	1.000
'Shot Number	100.000
183.833	119.000
183.903	-485.000
183.973	400
184.042	616
184.112	484
184.182	188
184.252	110
184.321	-123
184.391	142
184.461	100
184.531	345
184.600	90
184.670	-25
184.740	465
184.809	517
184.879	-148
184.949	28
185.018	-817
185.088	715
185.158	-331
185.228	169
185.297	263
185.367	-263
185.436	323
185.506	-410
185.576	381
185.645	142
185.715	112
185.785	125
185.854	-59
185.924	963
185.993	70
186.063	53
186.133	-110
186.202	-34
186.272	558
186.341	814
186.411	719
186.481	786
186.550	1052
186.620	46
186.689	259
186.759	-565
186.828	-256
186.898	-265
186.967	92
187.037	726
187.106	386
187.176	662
187.246	384
187.315	269
187.385	-269
187.454	140
187.524	-683
187.593	-125
187.662	331
187.732	825
187.801	229
187.871	123
187.940	-223
188.010	73
188.079	340
188.149	602
188.218	113
188.288	734
188.357	838
188.426	-1
188.496	403
188.565	-351
188.635	1029
188.704	-111
188.773	38
188.843	64
188.912	353
188.981	385
189.051	-456
189.120	139
189.190	349
189.259	197
189.328	132
189.398	119
189.467	-768
189.536	-67
189.606	523
189.675	774
189.744	340
189.813	145
189.883	82
189.952	285
190.021	639
190.091	1862
190.160	212
190.229	655
190.298	-531
190.368	326
190.437	230
190.506	706
190.575	-602
190.645	339
190.714	394
190.783	-368
190.852	265
190.922	769
190.991	437
191.060	664
191.129	262
191.198	473
191.268	-521
191.337	-583
191.406	-682
191.475	10
191.544	-4
191.613	-227
191.683	-91
191.752	443
191.821	673
191.890	-537
191.959	41
192.028	576
192.097	160
192.166	-60
192.236	-428
192.305	835
192.374	408
192.443	-518
192.512	-201
192.581	-304
192.650	217
192.719	-47
192.788	181
192.857	328
192.926	-503
192.995	1016
193.064	-373
193.133	690
193.202	-151
193.271	436
193.340	716
193.409	747
193.478	186
193.547	238
193.616	657
193.685	1144
193.754	276
193.823	-190
193.892	854
193.961	1151
194.030	282
194.099	701
194.168	139
194.237	209
194.306	179
194.375	-494
194.444	-62
194.513	786
194.582	153
194.651	772
194.720	-341
194.788	448
194.857	50
194.926	-595
194.995	540
195.064	-343
195.133	212
195.202	461
195.270	-178
195.339	378
195.408	-48
195.477	510
195.546	178
195.615	46
195.683	248
195.752	918
195.821	430
195.890	446
195.959	547
196.027	828
196.096	211
196.165	549
196.234	-21
196.303	568
196.371	228
196.440	435
196.509	558
196.578	254
196.646	685
196.715	98
196.784	153
196.853	325
196.921	-317
196.990	99
197.059	50
197.127	261
197.196	-126
197.265	185
197.333	-324
197.402	-103
197.471	-95
197.539	527
197.608	603
197.677	2421
197.745	855
197.814	2574
197.883	953
197.951	1835
198.020	646
198.088	995
198.157	202
198.226	2291
198.294	1013
198.363	-89
198.431	-261
198.500	1877
198.569	2855
198.637	557
198.706	259
198.774	2938
198.843	2907
198.911	322
198.980	-368
199.048	878
199.117	-116
199.185	173
199.254	28
199.322	-642
199.391	168
199.459	169
199.528	-20
199.596	-575
199.665	467
199.733	200
199.802	526
199.870	306
199.939	-224
200.007	435
200.076	-246
200.144	-313
200.213	72
200.281	-120
200.349	-210
200.418	422
200.486	-312
200.555	-348
200.623	-272
200.691	-326
200.760	-62
200.828	299
200.897	-311
200.965	-470
201.033	294
201.102	142
201.170	-38
201.238	35
201.307	63
201.375	280
201.443	-74
201.512	452
201.580	-160
201.648	-2
201.716	-293
201.785	669
201.853	-79
201.921	35
201.990	-208
202.058	151
202.126	-710
202.194	651
202.263	58
202.331	748
202.399	595
202.467	-51
202.536	2559
202.604	278
202.672	-110
202.740	224
202.808	-363
202.877	717
202.945	377
203.013	708
203.081	-442
203.149	39
203.218	-137
203.286	108
203.354	-335
203.422	293
203.490	-139
203.558	-651
203.626	-129
203.695	492
203.763	307
203.831	493
203.899	202
203.967	-536
204.035	273
204.103	62
204.171	327
204.239	-234
204.307	173
204.375	894
204.443	121
204.512	438
204.580	-365
204.648	35
204.716	15
204.784	425
204.852	388
204.920	-23
204.988	469
205.056	23
205.124	26
205.192	-462
205.260	658
205.328	-39
205.396	-428
205.464	0
205.532	-198
205.600	-649
205.667	-239
205.735	2558
205.803	2769
205.871	1210
205.939	-471
206.007	-276
206.075	405
206.143	427
206.211	29
206.279	-503
206.347	-561
206.414	77
206.482	-188
206.550	492
206.618	-535
206.686	156
206.754	-97
206.822	400
206.889	-602
206.957	-127
207.025	-411
207.093	-382
207.161	-77
207.229	-403
207.296	152
207.364	332
207.432	-193
207.500	-266
207.567	205
207.635	-259
207.703	-391
207.771	67
207.839	432
207.906	265
207.974	109
208.042	110
208.109	8
208.177	175
208.245	415
208.313	-102
208.380	1388
208.448	665
208.516	239
208.583	631
208.651	296
208.719	-125
208.786	-62
208.854	594
208.922	178
208.989	263
209.057	565
209.125	-397
209.192	-119
209.260	-447
209.327	133
209.395	277
209.463	-682
209.530	-213
209.598	-583
209.665	253
209.733	-123
209.801	-221
209.868	73
209.936	371
210.003	55
210.071	222
210.138	131
210.206	-45
210.273	139
210.341	25
210.408	-93
210.476	858
210.543	-149
210.611	1092
210.678	-584
210.746	305
210.813	-256
210.881	1713
210.948	-35
211.016	541
211.083	584
211.151	-272
211.218	-4
211.285	491
211.353	18
211.420	419
211.488	-260
211.555	930
211.622	-68
211.690	175
211.757	303
211.825	437
211.892	-282
211.959	-72
212.027	-346
212.094	544
212.161	470
212.229	1573
212.296	3974
212.363	17276
212.431	5368
212.498	1398
212.565	487
212.633	842
212.700	1085
212.767	112
212.835	168
212.902	426
212.969	449
213.036	337
213.104	-473
213.171	394
213.238	-15
213.305	492
213.373	249
213.440	164
213.507	89
213.574	897
213.641	446
213.709	-276
213.776	458
213.843	1355
213.910	133
213.977	799
214.045	247
214.112	387
214.179	-173
214.246	302
214.313	290
214.380	230
214.447	407
214.515	350
214.582	315
214.649	286
214.716	418
214.783	-74
214.850	977
214.917	914
214.984	251
215.051	1143
215.118	674
215.185	396
215.253	-505
215.320	174
215.387	123
215.454	92
215.521	-110
215.588	-123
215.655	-580
215.722	634
215.789	405
215.856	686
215.923	1003
215.990	423
216.057	-553
216.124	372
216.191	-120
216.258	388
216.325	287
216.391	625
216.458	139
216.525	447
216.592	3546
216.659	3140
216.726	902
216.793	1337
216.860	559
216.927	396
216.994	440
217.061	667
217.127	106
217.194	641
217.261	908
217.328	1817
217.395	1427
217.462	17
217.529	227
217.595	144
217.662	475
217.729	3510
217.796	2217
217.863	718
217.929	225
217.996	887
218.063	55
218.130	-862
218.196	285
218.263	-56
218.330	-449
218.397	107
218.463	51
218.530	1477
218.597	3304
218.664	3418
218.730	253
218.797	450
218.864	82
218.930	142
218.997	-102
219.064	118
219.131	2792
219.197	998
219.264	273
219.331	60
219.397	-491
219.464	91
219.530	1937
219.597	1342
219.664	78
219.730	392
219.797	-541
219.864	79
219.930	1309
219.997	3285
220.063	1213
220.130	506
220.196	20
220.263	607
220.330	648
220.396	3424
220.463	1224
220.529	605
220.596	666
220.662	1135
220.729	7363
220.795	3799
220.862	2271
220.928	5981
220.995	9141
221.061	11630
221.128	8161
221.194	1564
221.261	1063
221.327	328
221.394	291
221.460	1321
221.526	1546
221.593	13196
221.659	6535
221.726	6943
221.792	4796
221.859	1485
221.925	523
221.991	582
222.058	-514
222.124	762
222.190	-58
222.257	492
222.323	-112
222.390	131
222.456	-106
222.522	-524
222.589	232
222.655	50
222.721	-3
222.788	202
222.854	-47
222.920	363
222.986	286
223.053	-488
223.119	-142
223.185	-550
223.251	-784
223.318	203
223.384	-1000
223.450	-665
223.516	-837
223.583	-550
223.649	-200
223.715	-579
223.781	-288
223.848	-196
223.914	-208
223.980	155
224.046	-203
224.112	-51
224.178	-139
224.245	133
224.311	37
224.377	31
224.443	-844
224.509	-246
224.575	153
224.641	3
224.708	-424
224.774	-398
224.840	1102
224.906	160
224.972	-214
225.038	335
225.104	527
225.170	233
225.236	-546
225.302	223
225.368	129
225.434	68
225.500	-337
225.566	-620
225.632	334
225.699	471
225.765	-270
225.831	741
225.897	1693
225.963	1428
226.028	1006
226.094	936
226.160	426
226.226	2818
226.292	6969
226.358	3047
226.424	1346
226.490	956
226.556	771
226.622	1082
226.688	1439
226.754	2327
226.820	12102
226.886	9595
226.951	1292
227.017	1204
227.083	900
227.149	1231
227.215	566
227.281	412
227.347	-64
227.412	481
227.478	997
227.544	2526
227.610	448
227.676	35
227.742	-45
227.807	48
227.873	1282
227.939	986
228.005	510
228.070	-305
228.136	-163
228.202	85
228.268	-62
228.333	1657
228.399	987
228.465	-87
228.531	-41
228.596	114
228.662	1248
228.728	895
228.793	671
228.859	22
228.925	989
228.990	171
229.056	863
229.122	-11
229.187	-765
229.253	-179
229.319	185
229.384	1048
229.450	-794
229.516	-1060
229.581	1281
229.647	690
229.712	4139
229.778	5361
229.844	1954
229.909	2118
229.975	670
230.040	-302
230.106	1053
230.171	877
230.237	3001
230.302	1739
230.368	92
230.433	21
230.499	669
230.564	-47
230.630	154
230.695	943
230.761	-308
230.826	1600
230.892	779
230.957	302
231.023	-447
231.088	-137
231.154	897
231.219	1809
231.285	662
231.350	310
231.415	-251
231.481	-109
231.546	763
231.612	216
231.677	-511
231.742	381
231.808	-517
231.873	173
231.938	1978
232.004	1882
232.069	163
232.135	255
232.200	31
232.265	-587
232.330	90
232.396	-983
232.461	-545
232.526	439
232.592	-385
232.657	3881
232.722	2009
232.788	690
232.853	-388
232.918	412
232.983	-411
233.048	3268
233.114	1892
233.179	6311
233.244	7825
233.309	1911
233.375	377
233.440	108
233.505	492
233.570	698
233.635	207
233.700	4561
233.766	5901
233.831	1231
233.896	1046
233.961	1164
234.026	468
234.091	1409
234.156	1302
234.222	3844
234.287	20105
234.352	15318
234.417	5541
234.482	2881
234.547	1380
234.612	1343
234.677	2733
234.742	18004
234.807	10044
234.872	2050
234.937	799
235.002	834
235.067	1309
235.132	1844
235.197	1169
235.262	43
235.327	551
235.392	2460
235.457	2567
235.522	1492
235.587	892
235.652	21
235.717	380
235.782	1839
235.847	7459
235.912	10291
235.977	10666
236.042	3249
236.107	2566
236.172	2293
236.236	1453
236.301	976
236.366	4221
236.431	10101
236.496	2983
236.561	3882
236.626	18147
236.691	10141
236.755	5725
236.820	5352
236.885	1756
236.950	2414
237.015	2400
237.079	2319
237.144	3582
237.209	17102
237.274	35164
237.339	14804
237.403	5187
237.468	6357
237.533	2311
237.598	1800
237.662	714
237.727	1923
237.792	3026
237.856	5763
237.921	3173
237.986	7032
238.050	6888
238.115	26041
238.180	20559
238.245	9576
238.309	4677
238.374	4086
238.438	3524
238.503	76
238.568	1702
238.632	443
238.697	1057
238.762	10917
238.826	13229
238.891	3460
238.955	2697
239.020	2036
239.085	1847
239.149	917
239.214	564
239.278	1346
239.343	594
239.407	2505
239.472	26733
239.536	19497
239.601	3991
239.665	2291
239.730	1122
239.794	5972
239.859	18140
239.923	6192
239.988	1534
240.052	1658
240.117	1187
240.181	1288
240.246	1108
240.310	1572
240.374	14052
240.439	25162
240.503	6157
240.568	11827
240.632	12980
240.696	3832
240.761	1545
240.825	800
240.890	1245
240.954	14220
241.018	24840
241.083	9291
241.147	2191
241.211	5080
241.276	11947
241.340	4113
241.404	1448
241.469	1559
241.533	943
241.597	1037
241.661	730
241.726	1444
241.790	318
241.854	771
241.919	1473
241.983	544
242.047	134
242.111	462
242.175	498
242.240	1493
242.304	1257
242.368	2050
242.432	806
242.496	751
242.561	347
242.625	893
242.689	62
242.753	673
242.817	790
242.881	1265
242.946	1198
243.010	1850
243.074	1475
243.138	1400
243.202	1435
243.266	1568
243.330	1749
243.394	12643
243.458	38999
243.522	10110
243.586	3320
243.651	1046
243.715	2493
243.779	2969
243.843	5177
243.907	6885
243.971	3763
244.035	2196
244.099	1317
244.163	2589
244.227	3623
244.291	3708
244.355	2727
244.419	2837
244.483	2642
244.546	1635
244.610	755
244.674	1924
244.738	2295
244.802	1877
244.866	373
244.930	690
244.994	933
245.058	1264
245.122	2329
245.186	1600
245.249	1679
245.313	1981
245.377	1818
245.441	62
245.505	1638
245.569	1433
245.632	1605
245.696	6750
245.760	3790
245.824	2919
245.888	1208
245.951	2059
246.015	2472
246.079	3065
246.143	11198
246.207	21335
246.270	6467
246.334	4138
246.398	4544
246.461	6504
246.525	3257
246.589	2540
246.653	2797
246.716	3469
246.780	3840
246.844	5740
246.907	2175
246.971	2980
247.035	2355
247.098	2905
247.162	9525
247.226	30677
247.289	11100
247.353	5094
247.416	8263
247.480	4438
247.544	3109
247.607	4398
247.671	2504
247.734	1841
247.798	3723
247.861	10658
247.925	26127
247.989	7461
248.052	2769
248.116	4015
248.179	7618
248.243	46674
248.306	40256
248.370	27261
248.433	8407
248.497	6225
248.560	8473
248.624	10061
248.687	15531
248.751	48356
248.814	19158
248.877	23061
248.941	33965
249.004	58274
249.068	44092
249.131	13249
249.194	8735
249.258	14123
249.321	7654
249.385	5123
249.448	3357
249.511	5325
249.575	8729
249.638	6026
249.701	3313
249.765	3674
249.828	5997
249.891	4638
249.955	3378
250.018	17843
250.081	21388
250.145	8036
250.208	4841
250.271	5725
250.334	4837
250.398	4375
250.461	5605
250.524	7737
250.587	52117
250.651	79042
250.714	19919
250.777	12043
250.840	7210
250.903	6774
250.967	11704
251.030	28044
251.093	11296
251.156	10150
251.219	8011
251.282	11946
251.345	74118
251.409	57893
251.472	28854
251.535	133445
251.598	71980
251.661	22812
251.724	32033
251.787	31841
251.850	85362
251.913	37231
251.976	12292
252.039	10128
252.103	8560
252.166	21171
252.229	53494
252.292	48484
252.355	114791
252.418	38033
252.481	18852
252.544	12609
252.607	13195
252.670	42351
252.733	46484
252.796	110395
252.858	57754
252.921	28670
252.984	15827
253.047	10937
253.110	8086
253.173	10636
253.236	8638
253.299	11313
253.362	9837
253.425	10697
253.488	24665
253.550	13828
253.613	16140
253.676	14109
253.739	6544
253.802	12392
253.865	9110
253.928	6169
253.990	15972
254.053	26528
254.116	15751
254.179	12697
254.242	6355
254.304	13103
254.367	12720
254.430	10262
254.493	16662
254.555	28322
254.618	13337
254.681	6712
254.743	5669
254.806	6448
254.869	19468
254.932	18458
254.994	5701
255.057	5111
255.120	3038
255.182	2759
255.245	4349
255.308	2430
255.370	1394
255.433	1933
255.496	1404
255.558	1886
255.621	1943
255.683	1475
255.746	2573
255.809	1678
255.871	699
255.934	1567
255.996	1829
256.059	1597
256.121	3579
256.184	19202
256.246	12796
256.309	11150
256.371	4331
256.434	2020
256.496	660
256.559	2347
256.621	5266
256.684	9617
256.746	22085
256.809	6545
256.871	3166
256.934	3433
256.996	3934
257.059	2624
257.121	1763
257.183	1626
257.246	1380
257.308	875
257.371	6129
257.433	31789
257.495	26280
257.558	17186
257.620	9155
257.683	4894
257.745	6119
257.807	2461
257.870	2196
257.932	1849
257.994	1628
258.056	1918
258.119	2896
258.181	10142
258.243	4817
258.306	2719
258.368	11473
258.430	11351
258.492	25920
258.555	33749
258.617	5450
258.679	3935
258.741	6629
258.803	3472
258.866	1887
258.928	1396
258.990	2160
259.052	4615
259.114	6937
259.177	3037
259.239	3552
259.301	11363
259.363	5703
259.425	2883
259.487	1795
259.549	1983
259.611	1923
259.674	3300
259.736	24591
259.798	45739
259.860	73065
259.922	48505
259.984	9459
260.046	5298
260.108	3332
260.170	2823
260.232	1944
260.294	2338
260.356	2102
260.418	3749
260.480	8733
260.542	7480
260.604	28341
260.666	44911
260.728	9050
260.790	6946
260.852	3470
260.914	3739
260.976	3328
261.038	6938
261.100	43272
261.161	37343
261.223	7541
261.285	21859
261.347	29132
261.409	6334
261.471	4089
261.533	2485
261.595	3082
261.656	12461
261.718	28403
261.780	7888
261.842	4775
261.904	4053
261.966	3810
262.027	3675
262.089	11386
262.151	7550
262.213	2925
262.274	7866
262.336	5918
262.398	3625
262.460	13043
262.521	31018
262.583	7615
262.645	3436
262.706	7353
262.768	29830
262.830	9800
262.892	4830
262.953	5718
263.015	45119
263.077	96944
263.138	23667
263.200	9956
263.261	5113
263.323	3946
263.385	2315
263.446	2677
263.508	7173
263.569	3296
263.631	1703
263.693	294
263.754	1309
263.816	835
263.877	1117
263.939	452
264.000	1538
264.062	3957
264.123	1984
264.185	-60
264.246	1146
264.308	3614
264.369	8866
264.431	2296
264.492	1450
264.554	2477
264.615	4688
264.677	2365
264.738	1120
264.800	-40
264.861	964
264.922	49
264.984	425
265.045	495
265.107	680
265.168	9490
265.229	5826
265.291	1227
265.352	1382
265.413	498
265.475	-185
265.536	1200
265.597	1062
265.659	-156
265.720	621
265.781	184
265.843	231
265.904	1827
265.965	17755
266.026	10101
266.088	3342
266.149	2538
266.210	1546
266.271	417
266.333	1588
266.394	2085
266.455	778
266.516	569
266.577	3876
266.639	6135
266.700	1367
266.761	310
266.822	375
266.883	1178
266.944	227
267.005	1075
267.067	488
267.128	-92
267.189	-398
267.250	386
267.311	384
267.372	-776
267.433	650
267.494	279
267.555	-168
267.616	67
267.677	-145
267.738	-463
267.799	5162
267.860	8967
267.921	2228
267.982	1827
268.043	1465
268.104	1034
268.165	-483
268.226	905
268.287	666
268.348	832
268.409	1477
268.470	213
268.531	-292
268.592	50
268.653	379
268.714	-296
268.775	407
268.836	4869
268.896	6761
268.957	1825
269.018	409
269.079	1015
269.140	-16
269.201	686
269.262	564
269.322	907
269.383	1367
269.444	2286
269.505	3459
269.565	3984
269.626	1545
269.687	613
269.748	901
269.809	1177
269.869	3959
269.930	1515
269.991	445
270.051	184
270.112	126
270.173	1174
270.234	386
270.294	228
270.355	803
270.416	46
270.476	1268
270.537	4383
270.598	9926
270.658	3851
270.719	1582
270.779	3286
270.840	2493
270.901	1455
270.961	2214
271.022	1660
271.082	4806
271.143	3578
271.203	2393
271.264	1528
271.325	3185
271.385	14731
271.446	6034
271.506	2495
271.567	2835
271.627	1408
271.688	2022
271.748	7162
271.809	44789
271.869	63650
271.930	13689
271.990	27973
272.050	52792
272.111	11360
272.171	6133
272.232	6925
272.292	35519
272.352	15689
272.413	9470
272.473	8028
272.534	8458
272.594	5972
272.654	9944
272.715	18040
272.775	6515
272.835	4360
272.896	2347
272.956	3842
273.016	7636
273.077	5047
273.137	3004
273.197	3418
273.257	18306
273.318	38864
273.378	11159
273.438	12673
273.498	28403
273.559	11111
273.619	22668
273.679	49586
273.739	15298
273.799	8021
273.860	30670
273.920	56502
273.980	10991
274.040	6236
274.100	10042
274.160	53756
274.221	51328
274.281	39435
274.341	35655
274.401	21704
274.461	8195
274.521	8340
274.581	47896
274.641	61400
274.701	19508
274.761	8851
274.821	25610
274.882	89770
274.942	64056
275.002	33139
275.062	11848
275.122	7271
275.182	4917
275.242	6780
275.302	10107
275.362	8912
275.421	7537
275.481	37375
275.541	72561
275.601	31343
275.661	14816
275.721	9488
275.781	5031
275.841	3321
275.901	3795
275.961	3081
276.021	2315
276.081	6695
276.140	21487
276.200	8874
276.260	5798
276.320	3621
276.380	4067
276.440	2969
276.499	2085
276.559	1466
276.619	4305
276.679	14339
276.738	10832
276.798	4094
276.858	5582
276.918	3616
276.978	2312
277.037	2051
277.097	5047
277.157	17919
277.216	7282
277.276	2914
277.336	2603
277.395	2874
277.455	2573
277.515	2159
277.574	8188
277.634	15514
277.694	5668
277.753	21399
277.813	17427
277.873	14471
277.932	43997
277.992	14858
278.051	11739
278.111	15425
278.171	7098
278.230	15996
278.290	12547
278.349	5961
278.409	2464
278.468	3059
278.528	2808
278.587	1573
278.647	3419
278.706	17524
278.766	52540
278.825	13120
278.885	5125
278.944	5525
279.004	7524
279.063	6517
279.122	5050
279.182	4881
279.241	3875
279.301	5371
279.360	10741
279.419	51456
279.479	231713
279.538	173645
279.598	36119
279.657	19587
279.716	27477
279.776	39996
279.835	15428
279.894	8641
279.953	6533
280.013	12582
280.072	21106
280.131	21097
280.191	166696
280.250	170043
280.309	32733
280.368	22230
280.428	19178
280.487	9919
280.546	7981
280.605	12173
280.664	17691
280.724	5581
280.783	2939
280.842	3108
280.901	3136
280.960	2878
281.019	2763
281.079	2115
281.138	2898
281.197	3820
281.256	29602
281.315	21340
281.374	4300
281.433	2412
281.492	2551
281.551	2343
281.611	1897
281.670	2834
281.729	2868
281.788	1734
281.847	1040
281.906	1963
281.965	939
282.024	896
282.083	629
282.142	1049
282.201	1950
282.260	11049
282.319	8016
282.378	2051
282.436	3755
282.495	17955
282.554	9468
282.613	2722
282.672	1713
282.731	3506
282.790	2568
282.849	2215
282.908	1888
282.967	877
283.025	1406
283.084	2473
283.143	11301
283.202	25529
283.261	7292
283.319	2886
283.378	2601
283.437	2462
283.496	4955
283.555	3370
283.613	2570
283.672	2295
283.731	6717
283.790	8397
283.848	1960
283.907	2183
283.966	4417
284.024	3974
284.083	2299
284.142	4238
284.201	2847
284.259	5171
284.318	25404
284.376	22539
284.435	5829
284.494	6955
284.552	6002
284.611	4299
284.670	4003
284.728	3766
284.787	6174
284.845	6041
284.904	5045
284.962	6776
285.021	15110
285.079	56619
285.138	291156
285.197	253916
285.255	69857
285.314	32094
285.372	20111
285.431	14255
285.489	11672
285.547	7934
285.606	6075
285.664	3494
285.723	4037
285.781	4063
285.840	3408
285.898	1842
285.957	1665
286.015	1580
286.073	1446
286.132	1612
286.190	2710
286.248	3704
286.307	6174
286.365	3852
286.423	2435
286.482	1570
286.540	2039
286.598	3524
286.657	1978
286.715	2234
286.773	2975
286.832	4987
286.890	8797
286.948	3434
287.006	2332
287.064	1626
287.123	1693
287.181	4429
287.239	3291
287.297	3668
287.356	9575
287.414	6705
287.472	3803
287.530	2276
287.588	2599
287.646	4254
287.704	6552
287.763	3600
287.821	4162
287.879	3859
287.937	5361
287.995	17637
288.053	119498
288.111	383187
288.169	140650
288.227	39597
288.285	23020
288.343	18887
288.401	13494
288.459	8615
288.517	5752
288.575	3835
288.633	3447
288.691	2816
288.749	3150
288.807	1913
288.865	1775
288.923	1721
288.981	2093
289.039	1749
289.097	2065
289.155	2345
289.213	1470
289.271	1661
289.329	3150
289.386	4998
289.444	6120
289.502	2039
289.560	1850
289.618	1079
289.676	864
289.734	1627
289.791	440
289.849	2503
289.907	2927
289.965	1424
290.022	1610
290.080	1364
290.138	3166
290.196	1329
290.253	597
290.311	146
290.369	611
290.427	140
290.484	404
290.542	-48
290.600	1682
290.657	944
290.715	2430
290.773	731
290.830	2033
290.888	1695
290.946	1790
291.003	815
291.061	1336
291.118	8673
291.176	20799
291.234	5872
291.291	1706
291.349	659
291.406	1403
291.464	631
291.521	1226
291.579	366
291.636	1107
291.694	2255
291.751	6909
291.809	3911
291.866	1495
291.924	746
291.981	1333
292.039	2007
292.096	1534
292.154	1043
292.211	2608
292.268	6390
292.326	7864
292.383	4915
292.441	3063
292.498	3814
292.555	4160
292.613	5846
292.670	2596
292.727	2735
292.785	10182
292.842	26949
292.899	16509
292.957	4595
293.014	1878
293.071	2140
293.129	1645
293.186	775
293.243	3301
293.300	2634
293.358	1459
293.415	922
293.472	690
293.529	3372
293.586	23940
293.644	66903
293.701	28926
293.758	11334
293.815	6228
293.872	7565
293.929	5533
293.987	3963
294.044	10297
294.101	19411
294.158	16275
294.215	6327
294.272	3482
294.329	3447
294.386	5883
294.443	3877
294.500	2522
294.558	2041
294.615	3461
294.672	17393
294.729	70481
294.786	51481
294.843	20229
294.900	12001
294.957	9451
295.014	7392
295.070	5146
295.127	3993
295.184	2574
295.241	6165
295.298	28929
295.355	56440
295.412	21933
295.469	7546
295.526	12926
295.583	19414
295.640	23679
295.696	40323
295.753	16288
295.810	6752
295.867	4931
295.924	9661
295.981	9473
296.037	4478
296.094	3469
296.151	1636
296.208	1855
296.265	411
296.321	1834
296.378	3580
296.435	16851
296.492	31347
296.548	21531
296.605	65062
296.662	90105
296.718	29905
296.775	11387
296.832	11585
296.888	25282
296.945	52421
297.002	39303
297.058	13455
297.115	8019
297.172	13735
297.228	68494
297.285	122283
297.341	44789
297.398	14469
297.454	8580
297.511	5936
297.568	6327
297.624	5379
297.681	3807
297.737	2477
297.794	2038
297.850	3065
297.907	2877
297.963	2634
298.020	8038
298.076	27852
298.133	26378
298.189	12684
298.245	26389
298.302	82443
298.358	49373
298.415	24588
298.471	17400
298.527	11764
298.584	7721
298.640	14689
298.697	34772
298.753	26477
298.809	9165
298.866	5069
298.922	3844
298.978	5354
299.035	5574
299.091	4386
299.147	4845
299.203	3340
299.260	4610
299.316	14765
299.372	71539
299.428	68300
299.485	22604
299.541	9847
299.597	7534
299.653	6443
299.710	5784
299.766	4907
299.822	10638
299.878	40525
299.934	47303
299.990	48788
300.046	90105
300.103	45973
300.159	18498
300.215	16839
300.271	18710
300.327	10480
300.383	5922
300.439	4700
300.495	4077
300.551	3592
300.607	10976
300.663	28228
300.719	44154
300.775	64406
300.831	35309
300.887	36969
300.943	31444
300.999	13033
301.055	8284
301.111	8699
301.167	6243
301.223	4216
301.279	3727
301.335	2610
301.391	2455
301.447	2242
301.503	4996
301.559	9766
301.614	8932
301.670	16416
301.726	24596
301.782	17634
301.838	26069
301.894	29763
301.949	73501
302.005	218842
302.061	212374
302.117	90451
302.173	32799
302.228	18628
302.284	18592
302.340	31463
302.396	27731
302.451	24760
302.507	63633
302.563	71993
302.618	37322
302.674	15073
302.730	7849
302.785	5549
302.841	5907
302.897	7514
302.952	13707
303.008	13742
303.064	16634
303.119	19309
303.175	10592
303.230	4659
303.286	3388
303.341	3314
303.397	2974
303.453	2896
303.508	3990
303.564	5688
303.619	19848
303.675	66610
303.730	55413
303.786	22080
303.841	8405
303.897	6724
303.952	8317
304.008	14089
304.063	13631
304.118	23225
304.174	23185
304.229	18077
304.285	9569
304.340	4988
304.372	4886
304.395	4826
304.451	4281
304.463	4317
304.506	4493
304.554	4685
304.562	4734
304.617	12474
304.644	30885
304.672	50264
304.728	76828
304.735	71929
304.783	39401
304.825	20863
304.838	15241
304.894	7270
304.916	6474
304.949	5758
305.004	5333
305.006	5272
305.059	4175
305.097	3064
305.115	2555
305.170	2796
305.188	3106
305.225	3870
305.278	4078
305.280	4095
305.336	3412
305.369	3383
305.391	3365
305.446	5822
305.459	5739
305.501	5576
305.550	6048
305.556	6140
305.612	13750
305.640	31069
305.667	48224
305.722	60539
305.731	57981
305.777	41912
305.821	55657
305.832	59877
305.887	63481
305.912	51160
305.942	32850
305.997	14462
306.002	13746
306.053	8629
306.092	6230
306.108	5496
306.163	4563
306.183	4175
306.218	3717
306.273	3252
306.273	3242
306.328	2720
306.364	2939
306.383	3050
306.438	2507
306.454	3205
306.493	5100
306.545	13757
306.548	14448
306.603	26799
306.635	35684
306.658	42040
306.713	39433
306.725	36080
306.768	20625
306.816	10215
306.823	9054
306.878	5258
306.906	4162
306.933	3580
306.988	3805
306.997	3792
307.043	3906
307.087	5217
307.098	5632
307.152	10296
307.177	12264
307.207	14946
307.262	17683
307.268	17278
307.317	11729
307.358	9070
307.372	8503
307.427	15635
307.448	21704
307.482	33814
307.536	40006
307.538	39635
307.591	23372
307.629	14978
307.646	11413
307.701	7360
307.719	8187
307.756	12999
307.809	26200
307.810	26458
307.865	21497
307.900	17498
307.920	13874
307.975	7678
307.990	7873
308.029	11160
308.080	28675
308.084	30987
308.139	101110
308.170	118842
308.194	126801
308.248	84103
308.261	79025
308.303	50271
308.351	28363
308.358	26595
308.412	16045
308.441	12694
308.467	10067
308.522	6559
308.531	6087
308.576	5335
308.621	5539
308.631	5808
308.686	11732
308.712	17969
308.740	27008
308.795	29542
308.802	29301
308.849	17909
308.892	10084
308.904	8852
308.959	6569
308.982	6917
309.013	8721
309.068	15751
309.072	17101
309.122	37103
309.162	77436
309.177	98860
309.231	188934
309.253	187310
309.286	149452
309.340	82268
309.343	80310
309.395	37570
309.433	17253
309.449	14524
309.504	10560
309.523	9935
309.558	10256
309.613	12943
309.613	12974
309.667	16840
309.703	16738
309.722	14965
309.776	10019
309.793	8828
309.830	7876
309.883	10677
309.885	11028
309.939	29419
309.973	37636
309.994	39201
310.048	35355
310.063	33799
310.102	21223
310.153	7652
310.157	7340
310.211	4871
310.243	3872
310.265	3744
310.320	3615
310.333	3527
310.374	2744
310.423	1934
310.428	1946
310.483	2207
310.513	2675
310.537	2992
310.591	3289
310.603	3312
310.646	2778
310.693	2127
310.700	2016
310.754	1384
310.783	1114
310.808	1168
310.862	1203
310.873	1181
310.917	1113
310.963	1464
310.971	1592
311.025	2339
311.053	2567
311.079	2199
311.133	1661
311.143	1569
311.188	1582
311.233	1537
311.242	1497
311.296	1298
311.323	1158
311.350	1143
311.404	1241
311.413	1246
311.458	1199
311.503	1230
311.512	1205
311.567	1151
311.593	1102
311.621	1583
311.675	2427
311.683	2567
311.729	2782
311.772	2960
311.783	2858
311.837	2331
311.862	2131
311.891	3030
311.945	4722
311.952	4951
311.999	3641
312.042	2429
312.053	2295
312.107	1680
312.132	1405
312.222	1566
312.311	2015
312.401	1340
312.491	1524
312.581	4419
312.671	1991
312.760	1251
312.850	853
312.940	1301
313.030	1486
313.119	1529
313.209	1455
313.299	1387
313.389	2233
313.478	1531
313.568	1009
313.658	345
313.747	639
313.837	90
313.927	950
314.016	1539
314.106	2139
314.195	1808
314.285	2117
314.375	2790
314.464	1115
314.554	539
314.643	924
314.733	796
314.823	1873
314.912	1255
315.002	840
315.091	2241
315.181	2749
315.270	2276
315.360	2237
315.449	1821
315.539	2761
315.628	2297
315.718	2365
315.807	3808
315.896	7914
315.986	2815
316.075	6304
316.165	9479
316.254	9149
316.344	1786
316.433	1248
316.522	1563
316.612	2313
316.701	1306
316.790	6101
316.880	9478
316.969	1347
317.058	935
317.148	947
317.237	675
317.326	709
317.415	633
317.505	2062
317.594	829
317.683	1497
317.772	2262
317.862	6318
317.951	12823
318.040	7345
318.129	3090
318.219	2301
318.308	3785
318.397	5622
318.486	5853
318.575	10284
318.664	17091
318.754	2355
318.843	2292
318.932	1160
319.021	3881
319.110	12576
319.199	25433
319.288	12247
319.377	4905
319.466	1372
319.555	1405
319.644	6255
319.733	6967
319.822	2142
319.911	11775
320.000	31106
320.089	7875
320.178	2503
320.267	4647
320.356	3537
320.445	1791
320.534	4142
320.623	1830
320.712	1619
320.801	1187
320.890	2294
320.979	3395
321.068	5463
321.157	9440
321.245	7631
321.334	7936
321.423	15630
321.512	4995
321.601	5769
321.690	10268
321.779	5484
321.867	4843
321.956	9386
322.045	3674
322.134	7697
322.222	18570
322.311	11575
322.400	3929
322.489	6476
322.577	21304
322.666	6309
322.755	7584
322.843	9871
322.932	12903
323.021	5397
323.110	4313
323.198	3753
323.287	5554
323.375	18955
323.464	40187
323.553	11680
323.641	34179
323.730	10244
323.819	8833
323.907	29191
323.996	8323
324.084	4147
324.173	19271
324.261	9604
324.350	3407
324.438	4509
324.527	1896
324.615	2097
324.704	9183
324.792	12116
324.881	7109
324.969	1456
325.058	1959
325.146	6365
325.235	11630
325.323	9975
325.412	8825
325.500	3535
325.588	361
325.677	356
325.765	340
325.853	695
325.942	828
326.030	1455
326.118	4485
326.207	4294
326.295	763
326.383	649
326.472	2685
326.560	3811
326.648	275
326.737	1115
326.825	1139
326.913	468
327.001	868
327.090	4459
327.178	4565
327.266	2063
327.354	5499
327.442	4076
327.531	493
327.619	802
327.707	826
327.795	2065
327.883	4145
327.971	1538
328.060	1575
328.148	1215
328.236	1825
328.324	769
328.412	1268
328.500	431
328.588	3361
328.676	11029
328.764	3737
328.852	926
328.940	536
329.028	443
329.116	1710
329.204	5382
329.292	1971
329.380	704
329.468	519
329.556	886
329.644	479
329.732	-297
329.820	646
329.908	591
329.996	207
330.084	649
330.172	2840
330.259	6007
330.347	1116
330.435	671
330.523	3985
330.611	13292
330.699	4633
330.787	2512
330.874	3102
330.962	3709
331.050	815
331.138	13
331.226	721
331.313	1195
331.401	4888
331.489	4932
331.577	650
331.664	1173
331.752	1231
331.840	2061
331.927	445
332.015	1172
332.103	1456
332.190	4599
332.278	16368
332.366	5616
332.453	721
332.541	649
332.629	1473
332.716	1068
332.804	735
332.891	8451
332.979	8260
333.066	206
333.154	2771
333.242	3017
333.329	434
333.417	1568
333.504	8328
333.592	2778
333.679	1934
333.767	1430
333.854	347
333.942	1880
334.029	7582
334.117	17413
334.204	29551
334.291	3833
334.379	2321
334.466	540
334.554	742
334.641	1610
334.728	2183
334.816	12349
334.903	63005
334.990	28338
335.078	2039
335.165	430
335.252	805
335.340	2682
335.427	20514
335.514	12143
335.602	1403
335.689	605
335.776	1984
335.863	2581
335.951	1847
336.038	17181
336.125	45216
336.212	7812
336.299	981
336.387	594
336.474	-92
336.561	732
336.648	1330
336.735	1768
336.822	1376
336.910	2820
336.997	9869
337.084	25348
337.171	27378
337.258	35764
337.345	11597
337.432	1075
337.519	644
337.606	716
337.693	10034
337.780	13801
337.867	3959
337.954	6406
338.041	8574
338.128	1270
338.215	2719
338.302	14481
338.389	27927
338.476	5078
338.563	12529
338.650	6647
338.737	7593
338.824	6287
338.911	816
338.998	923
339.085	1157
339.171	2350
339.258	4086
339.345	2612
339.432	7383
339.519	3210
339.606	-220
339.692	860
339.779	-28
339.866	2281
339.953	2680
340.040	324
340.126	836
340.213	1768
340.300	274
340.387	2192
340.473	1959
340.560	759
340.647	3806
340.733	12815
340.820	2728
340.907	373
340.993	799
341.080	1123
341.167	898
341.253	3462
341.340	3674
341.426	1549
341.513	127
341.600	296
341.686	1215
341.773	4526
341.859	2539
341.946	37
342.032	-498
342.119	619
342.205	1875
342.292	1901
342.378	1728
342.465	2226
342.551	1409
342.638	6847
342.724	11080
342.811	2958
342.897	389
342.984	126
343.070	154
343.156	542
343.243	584
343.329	514
343.416	-170
343.502	-77
343.588	-53
343.675	1370
343.761	1158
343.847	1359
343.934	6585
344.020	64949
344.106	65785
344.193	6874
344.279	4770
344.365	24748
344.451	11603
344.538	3610
344.624	-83
344.710	1058
344.796	215
344.882	-251
344.969	1015
345.055	1238
345.141	1409
345.227	2283
345.313	119
345.399	130
345.486	-666
345.572	807
345.658	-158
345.744	443
345.830	1056
345.916	354
346.002	797
346.088	2114
346.174	2036
346.260	544
346.346	376
346.432	1421
346.518	15592
346.604	23238
346.690	1522
346.776	341
346.862	214
346.948	660
347.034	513
347.120	459
347.206	520
347.292	228
347.378	894
347.464	14553
347.549	35353
347.635	22330
347.721	10396
347.807	1139
347.893	169
347.979	341
348.065	519
348.150	-426
348.236	13
348.322	162
348.408	-227
348.493	1255
348.579	560
348.665	-184
348.751	269
348.836	-833
348.922	2999
349.008	28248
349.094	21589
349.179	1532
349.265	182
349.351	174
349.436	354
349.522	903
349.608	1194
349.693	6339
349.779	16222
349.864	2868
349.950	57
350.036	318
350.121	-283
350.207	-684
350.292	-462
350.378	251
350.463	2269
350.549	732
350.634	313
350.720	-90
350.805	464
350.891	-52
350.976	217
351.062	2130
351.147	1061
351.233	90
351.318	7523
351.404	8974
351.489	135
351.574	82
351.660	758
351.745	27
351.830	113
351.916	-43
352.001	1378
352.086	11734
352.172	5405
352.257	197
352.342	1024
352.428	1467
352.513	4897
352.598	21194
352.684	6761
352.769	1836
352.854	240
352.939	847
353.024	140
353.110	398
353.195	1102
353.280	4430
353.365	1714
353.450	416
353.536	787
353.621	4069
353.706	1630
353.791	984
353.876	-332
353.961	900
354.046	5197
354.131	7528
354.216	5469
354.302	1185
354.387	71
354.472	595
354.557	385
354.642	406
354.727	1235
354.812	457
354.897	1
354.982	137
355.067	608
355.152	215
355.237	621
355.321	2225
355.406	6348
355.491	12104
355.576	1713
355.661	5092
355.746	5990
355.831	22701
355.916	5606
356.001	1687
356.085	544
356.170	-123
356.255	-284
356.340	1093
356.425	7651
356.509	47578
356.594	15783
356.679	1881
356.764	1852
356.849	3519
356.933	41758
357.018	74241
357.103	9345
357.187	3556
357.272	1418
357.357	2518
357.441	1265
357.526	2277
357.611	265
357.695	403
357.780	1069
357.865	948
357.949	2390
358.034	35288
358.118	80254
358.203	12696
358.288	1243
358.372	2417
358.457	16557
358.541	29537
358.626	18143
358.710	17801
358.795	3114
358.879	2918
358.964	811
359.048	77
359.133	-726
359.217	-478
359.302	196
359.386	406
359.470	1330
359.555	929
359.639	-465
359.724	314
359.808	1038
359.892	1136
359.977	-65
360.061	379
360.145	506
360.230	1516
360.314	3144
360.398	739
360.483	4249
360.567	6991
360.651	11044
360.735	3822
360.820	33363
360.904	37858
360.988	10991
361.072	2988
361.157	1184
361.241	349
361.325	135
361.409	1050
361.493	1014
361.577	775
361.662	1848
361.746	8472
361.830	50746
361.914	26616
361.998	1881
362.082	4050
362.166	5554
362.250	3136
362.334	2026
362.418	2458
362.502	1382
362.586	972
362.671	-113
362.754	-171
362.839	102
362.922	-514
363.006	7051
363.090	50117
363.174	34348
363.258	3209
363.342	1428
363.426	5493
363.510	23707
363.594	8925
363.678	1576
363.762	1691
363.846	1390
363.929	-115
364.013	4629
364.097	1440
364.181	10135
364.265	26265
364.349	5709
364.432	6017
364.516	2316
364.600	3346
364.684	14411
364.767	49202
364.851	10741
364.935	6344
365.019	3225
365.102	4527
365.186	1962
365.270	14216
365.353	24333
365.437	4160
365.521	334
365.604	33
365.688	942
365.771	1762
365.855	1125
365.939	1107
366.022	1303
366.106	-207
366.189	-432
366.273	997
366.357	-434
366.440	-966
366.524	-415
366.607	47
366.691	-8
366.774	-20
366.858	2196
366.941	2829
367.024	479
367.108	1748
367.191	1101
367.275	235
367.358	-787
367.442	717
367.525	-1133
367.608	133
367.692	2141
367.775	2190
367.858	1590
367.942	18059
368.025	10078
368.108	619
368.192	2780
368.275	4223
368.358	2769
368.442	9772
368.525	14703
368.608	4682
368.691	19380
368.775	12540
368.858	2030
368.941	2989
369.024	1881
369.107	-291
369.190	200
369.274	51
369.357	3173
369.440	1917
369.523	1111
369.606	-942
369.689	1098
369.772	471
369.855	-421
369.939	-152
370.022	1364
370.105	2614
370.188	1711
370.271	499
370.354	2579
370.437	6642
370.520	27907
370.603	11466
370.686	4059
370.769	10808
370.852	18532
370.935	21528
371.018	3322
371.100	-63
371.183	69
371.266	-608
371.349	-1073
371.432	-70
371.515	-60
371.598	1893
371.681	2662
371.763	1971
371.846	4164
371.929	50346
372.012	43290
372.095	6504
372.177	16594
372.260	23846
372.343	3163
372.426	4960
372.508	2566
372.591	1518
372.674	14011
372.757	26884
372.839	3827
372.922	10208
373.005	8290
373.087	1659
373.170	3717
373.253	16170
373.335	23167
373.418	60477
373.500	59439
373.583	13732
373.666	59852
373.748	26185
373.831	3094
373.913	2931
373.996	3931
374.078	16665
374.161	4976
374.243	10079
374.326	20951
374.408	8744
374.491	46010
374.573	58023
374.656	8362
374.738	20148
374.821	44705
374.903	70947
374.985	27506
375.068	2017
375.150	1917
375.233	18293
375.315	13766
375.397	2358
375.480	-220
375.562	685
375.644	1689
375.727	21140
375.809	55851
375.891	24100
375.973	6490
376.056	8895
376.138	9337
376.220	2899
376.302	26478
376.385	32371
376.467	5055
376.549	5493
376.631	16049
376.713	30980
376.795	3665
376.878	331
376.960	17
377.042	-40
377.124	2130
377.206	182
377.288	-440
377.370	650
377.452	-798
377.534	-15
377.616	-201
377.699	-412
377.781	-731
377.863	559
377.945	-482
378.027	-502
378.109	-206
378.190	-125
378.272	-191
378.354	-42
378.436	-841
378.518	1834
378.600	4189
378.682	5253
378.764	15922
378.846	3114
378.928	1912
379.010	2194
379.091	923
379.173	463
379.255	-195
379.337	1280
379.419	11996
379.501	17375
379.582	1305
379.664	841
379.746	4799
379.828	15160
379.909	19640
379.991	7190
380.073	-262
380.155	591
380.236	-809
380.318	-316
380.400	178
380.481	2881
380.563	1667
380.645	2224
380.726	1072
380.808	955
380.889	-614
380.971	-132
381.053	206
381.134	1006
381.216	7514
381.297	11067
381.379	2638
381.460	8640
381.542	45319
381.623	15912
381.705	1190
381.786	812
381.868	2471
381.949	29216
382.031	59098
382.112	12577
382.193	1460
382.275	2447
382.356	16852
382.438	27307
382.519	45926
382.600	35137
382.682	15985
382.763	34923
382.844	13988
382.926	14179
383.007	3199
383.088	5684
383.170	35415
383.251	23643
383.332	21987
383.413	34735
383.495	5249
383.576	2436
383.657	5052
383.738	33531
383.820	53291
383.901	11451
383.982	30797
384.063	42826
384.144	8634
384.225	1756
384.306	902
384.388	148
384.469	-23
384.550	274
384.631	1836
384.712	499
384.793	173
384.874	2363
384.955	16631
385.036	6491
385.117	882
385.198	1145
385.279	339
385.360	702
385.441	1240
385.522	7999
385.603	28980
385.684	6502
385.765	1615
385.846	4568
385.927	45530
386.008	28312
386.089	1735
386.169	227
386.250	58
386.331	589
386.412	543
386.493	11049
386.574	6290
386.654	1416
386.735	5
386.816	849
386.897	-188
386.977	-5
387.058	-307
387.139	3591
387.220	13926
387.300	3827
387.381	1471
387.462	403
387.542	1485
387.623	567
387.704	8031
387.784	32644
387.865	17202
387.946	1098
388.026	195
388.107	-1391
388.187	3299
388.268	3114
388.349	768
388.429	1160
388.510	8175
388.590	38848
388.671	19695
388.751	7521
388.832	10121
388.912	1966
388.993	-370
389.073	-21
389.154	-477
389.234	-502
389.314	1569
389.395	-447
389.475	7697
389.556	11828
389.636	1908
389.716	806
389.797	1534
389.877	9178
389.957	17496
390.038	4082
390.118	-538
390.198	6484
390.279	12630
390.359	2791
390.439	8310
390.519	12767
390.600	6608
390.680	1150
390.760	300
390.840	-425
390.920	198
391.001	-729
391.081	-379
391.161	-539
391.241	-860
391.321	1802
391.401	1212
391.481	582
391.562	-743
391.642	819
391.722	1127
391.802	2089
391.882	735
391.962	10737
392.042	5409
392.122	1426
392.202	8669
392.282	12794
392.362	3134
392.442	3185
392.522	738
392.602	1794
392.682	6133
392.762	17942
392.842	4765
392.921	10336
393.001	20530
393.081	5108
393.161	6140
393.241	36487
393.321	148860
393.401	51844
393.480	6814
393.560	1171
393.640	529
393.720	77
393.800	-437
393.879	398
393.959	-207
394.039	266
394.119	-515
394.198	1609
394.278	16791
394.358	79213
394.437	23331
394.517	1543
394.597	36
394.676	1730
394.756	6857
394.836	10294
394.915	1551
394.995	632
395.075	819
395.154	377
395.234	198
395.313	556
395.393	-1736
395.472	1436
395.552	5763
395.631	11030
395.711	7225
395.790	15108
395.870	2874
395.949	2381
396.029	22142
396.108	100957
396.188	32751
396.267	5787
396.346	2006
396.426	2124
396.505	1649
396.585	1693
396.664	5674
396.743	48792
396.823	109756
396.902	34767
396.981	3965
397.061	1944
397.140	-636
397.219	291
397.298	-570
397.378	-67
397.457	-194
397.536	-646
397.615	-1987
397.694	1419
397.774	-41
397.853	-696
397.932	-601
398.011	-624
398.090	6304
398.169	9682
398.249	1135
398.328	1072
398.407	-935
398.486	-1232
398.565	212
398.644	-502
398.723	-262
398.802	-707
398.881	6408
398.960	11701
399.039	1029
399.118	-1810
399.197	-1024
399.276	-353
399.355	-805
399.434	-706
399.513	-1258
399.592	-814
399.671	955
399.750	5126
399.829	16975
399.908	3208
399.986	-176
400.065	-1079
400.144	-1840
400.223	734
400.302	-1439
400.380	-194
400.459	8695
400.538	4366
400.617	-99
400.696	-1112
400.774	-537
400.853	2003
400.932	466
401.011	603
401.089	-738
401.168	-419
401.247	-596
401.325	-640
401.404	-508
401.483	-937
401.561	-360
401.640	-560
401.718	-125
401.797	-707
401.876	-961
401.954	-1139
402.033	-849
402.111	347
402.190	-966
402.268	-746
402.347	-134
402.425	2658
402.504	-732
402.582	-609
402.661	-955
402.739	-1053
402.818	-50
402.896	-836
402.974	3214
403.053	4549
403.131	888
403.210	1954
403.288	2465
403.366	1539
403.445	643
403.523	-304
403.601	-960
403.680	-1929
403.758	-443
403.836	-645
403.915	-1216
403.993	-1012
404.071	298
404.149	-1103
404.228	-1071
404.306	740
404.384	736
404.462	9060
404.540	43752
404.618	9232
404.697	88
404.775	32
404.853	-459
404.931	-1837
405.009	-1081
405.087	-1452
405.165	-772
405.243	-1326
405.321	-792
405.399	-683
405.478	646
405.556	-210
405.634	-1808
405.712	-1276
405.790	184
405.868	-934
405.945	-88
406.023	-85
406.101	-1646
406.179	1028
406.257	11029
406.335	27577
406.413	4549
406.491	-455
406.569	-980
406.647	-470
406.724	-268
406.802	-216
406.880	-512
406.958	-426
407.036	1635
407.113	22218
407.191	9523
407.269	-207
407.347	-862
407.424	-513
407.502	-551
407.580	259
407.658	477
407.735	2310
407.813	1535
407.891	-143
407.968	-1513
408.046	-460
408.124	-1264
408.201	205
408.279	-1302
408.356	-304
408.434	-596
408.512	-1211
408.589	-1347
408.667	-825
408.744	-1316
408.822	-1215
408.899	-1672
408.977	-747
409.054	-1867
409.132	-1021
409.209	-1253
409.287	-764
409.364	-1153
409.441	-860
409.519	-467
409.596	-747
409.674	-1580
409.751	-1084
409.828	-720
409.906	-91
409.983	-2097
410.060	-1479
410.138	-906
410.215	-668
410.292	-1898
410.370	-1428
410.447	-976
410.524	-1379
410.601	-758
410.678	-152
410.756	-829
410.833	-1678
410.910	91
410.987	224
411.064	-395
411.142	-368
411.219	-778
411.296	-497
411.373	-1193
411.450	-1234
411.527	-1262
411.604	-1650
411.681	-1726
411.758	176
411.835	-358
411.913	-742
411.990	-1170
412.067	-957
412.144	-367
412.221	-1112
412.298	-231
412.374	-1687
412.451	-859
412.528	-1591
412.605	-1070
412.682	-322
412.759	-266
412.836	-816
412.913	-1513
412.990	-801
413.067	310
413.143	6021
413.220	2966
413.297	-898
413.374	345
413.451	-563
413.527	-587
413.604	-649
413.681	-1533
413.758	-440
413.834	-1124
413.911	-1663
413.988	-1723
414.065	-261
414.141	-1040
414.218	-111
414.295	6340
414.371	8246
414.448	-1012
414.524	-929
414.601	-1166
414.678	-1178
414.754	-1023
414.831	-1351
414.907	-626
414.984	-1025
415.060	-507
415.137	-1176
415.213	-734
415.290	-311
415.366	103
415.443	-610
415.519	-1510
415.596	-1277
415.672	950
415.749	-860
415.825	-888
415.902	-1391
415.978	-1120
416.054	-731
416.131	-1290
416.207	-2292
416.283	-1141
416.360	-545
416.436	-491
416.512	-1574
416.589	-1277
416.665	-1215
416.741	-715
416.817	-1191
416.894	-1376
416.970	-467
417.046	-828
417.122	-1339
417.198	-1132
417.275	-1421
417.351	-1625
417.427	-579
417.503	-372
417.579	-1022
417.655	-1075
417.731	552
417.808	-1506
417.884	-215
417.960	-1383
418.036	-1784
418.112	1140
418.188	-282
418.264	-1321
418.340	-127
418.416	-1258
418.492	-355
418.568	-490
418.644	1569
418.720	1466
418.796	84
418.872	-926
418.947	-1694
419.023	-699
419.099	808
419.175	-1730
419.251	-1078
419.327	-1399
419.403	-647
419.478	-1131
419.554	-1021
419.630	-1354
419.706	-947
419.782	1678
419.857	1342
419.933	-962
420.009	-32
420.085	999
420.160	6605
420.236	694
420.312	-606
420.387	-1802
420.463	-971
420.539	-800
420.614	-1347
420.690	-1450
420.766	-2029
420.841	-253
420.917	-1666
420.992	-988
421.068	-1522
421.143	-1022
421.219	-1431
421.294	-586
421.370	-1259
421.445	384
421.521	241
421.596	-328
421.672	-1095
421.747	-954
421.823	-1414
421.898	-135
421.974	-806
422.049	-986
422.124	-574
422.200	-1013
422.275	212
422.350	204
422.426	556
422.501	4785
422.576	37503
422.652	55198
422.727	12288
422.802	1471
422.878	-780
422.953	-1023
423.028	-974
423.103	-830
423.178	-900
423.254	-1518
423.329	534
423.404	-666
423.479	-189
423.554	1815
423.630	-725
423.705	-795
423.780	-876
423.855	-456
423.930	-1023
424.005	-1881
424.080	-1366
424.155	-1610
424.230	-1266
424.305	-1583
424.380	-1496
424.455	-1087
424.530	-581
424.605	-1674
424.680	-800
424.755	-663
424.830	-1194
424.905	-729
424.980	5347
425.055	5051
425.130	-856
425.204	-754
425.279	-1612
425.354	-803
425.429	-1780
425.504	-1398
425.579	-1089
425.653	-1146
425.728	-1089
425.803	-1650
425.878	-348
425.952	2878
426.027	5857
426.102	-368
426.177	-1295
426.251	99
426.326	-1534
426.401	-1387
426.475	-727
426.550	-698
426.625	-1033
426.699	-834
426.774	-1322
426.848	-748
426.923	-1056
426.998	-270
427.072	10715
427.147	18153
427.221	1939
427.296	-1131
427.370	-930
427.445	-722
427.519	-1719
427.594	-1802
427.668	-558
427.743	-2059
427.817	-476
427.892	-1921
427.966	-1359
428.040	-2505
428.115	-599
428.189	2015
428.263	4495
428.338	-672
428.412	-999
428.486	-1282
428.561	271
428.635	143
428.709	-16
428.784	-522
428.858	4236
428.932	2269
429.006	784
429.080	-544
429.155	-747
429.229	-1951
429.303	225
429.377	2159
429.451	-789
429.526	478
429.600	-647
429.674	-1412
429.748	-315
429.822	5933
429.896	5141
429.970	5098
430.044	7541
430.118	3346
430.192	11142
430.266	3237
430.340	-1927
430.414	-488
430.488	3358
430.562	7342
430.636	2697
430.710	18937
430.784	12881
430.858	-92
430.932	-1438
431.006	-1015
431.080	-1541
431.153	-1700
431.227	-1727
431.301	-1720
431.375	10
431.449	973
431.523	-346
431.596	-1186
431.670	-1699
431.744	-84
431.818	4367
431.891	-217
431.965	-1776
432.039	-1439
432.112	-1232
432.186	-1346
432.260	-886
432.333	-1090
432.407	126
432.481	10166
432.554	16248
432.628	1587
432.702	-1576
432.775	-2109
432.849	-1663
432.922	-1024
432.996	-1373
433.069	-1665
433.143	-1689
433.216	-1695
433.290	-2065
433.363	-1893
433.437	-1386
433.510	-1989
433.584	-1157
433.657	-1483
433.730	-1096
433.804	-2271
433.877	-1080
433.951	-1229
434.024	-1325
434.097	-2127
434.171	-1587
434.244	-2056
434.317	-1827
434.391	-1454
434.464	-1349
434.537	-1435
434.610	-1257
434.684	-1433
434.757	-1162
434.830	-1875
434.903	-1691
434.977	-1721
435.050	-1884
435.123	-1761
435.196	-1425
435.269	-1000
435.342	-1956
435.415	-1845
435.489	-1334
435.562	-1750
435.635	-1875
435.708	-1608
435.781	-1967
435.854	-1228
435.927	-1577
436.000	-2056
436.073	-908
436.146	-1939
436.219	-2192
436.292	-2567
436.365	-1556
436.438	-1679
436.511	-1731
436.584	-1378
436.657	-1524
436.729	-1585
436.802	-1255
436.875	-1559
436.948	-824
437.021	-1427
437.094	-1407
437.166	-1885
437.239	-935
437.312	-1115
437.385	-1894
437.457	-1090
437.530	-584
437.603	-970
437.676	-1557
437.748	-2007
437.821	-1153
437.894	-832
437.966	-1678
438.039	-1500
438.112	-1741
438.184	-357
438.257	14302
438.330	25697
438.402	3912
438.475	-42
438.547	-1420
438.620	-1645
438.692	-1273
438.765	-1358
438.837	-1117
438.910	-1277
438.982	-764
439.055	-1504
439.127	-1188
439.200	-1307
439.272	-1942
439.345	-994
439.417	-506
439.489	-382
439.562	-1236
439.634	-1316
439.707	-1562
439.779	-1826
439.851	-1555
439.923	-1143
439.996	-1722
440.068	-1645
440.140	-1856
440.213	-2410
440.285	-738
440.357	3229
440.429	17113
440.502	2521
440.574	-1235
440.646	-64
440.718	-1246
440.790	-112
440.862	-749
440.935	-1741
441.007	-1330
441.079	-1163
441.151	-1811
441.223	-1857
441.295	-1545
441.367	-557
441.439	5234
441.511	2428
441.583	-569
441.655	-1221
441.727	-1458
441.799	-1633
441.871	-1894
441.943	-2040
442.015	-2256
442.087	-1076
442.159	-2035
442.231	-1466
442.303	-628
442.374	-1762
442.446	292
442.518	1566
442.590	631
442.662	823
442.734	-587
442.805	-1280
442.877	-2537
442.949	-2039
443.021	-1158
443.092	-1848
443.164	-1991
443.236	-856
443.308	-1213
443.379	1167
443.451	6932
443.523	4009
443.594	-610
443.666	-1221
443.737	-1784
443.809	-1875
443.881	-1809
443.952	-946
444.024	-1201
444.095	-1909
444.167	-684
444.238	-546
444.310	-764
444.381	-1120
444.453	-1351
444.524	-1975
444.596	-1937
444.667	-1438
444.739	-1085
444.810	-737
444.882	-634
444.953	-367
445.024	-463
445.096	-1173
445.167	-482
445.238	-372
445.310	1406
445.381	5402
445.452	10799
445.524	2277
445.595	511
445.666	-233
445.737	29
445.809	-1788
445.880	-1132
445.951	-1355
446.022	-1664
446.094	-1716
446.165	-792
446.236	-844
446.307	-1351
446.378	-1861
446.449	-1385
446.520	-1765
446.591	-945
446.663	-1868
446.734	-1052
446.805	-664
446.876	-808
446.947	-1797
447.018	-806
447.089	-2056
447.160	-1186
447.231	-1983
447.302	-2297
447.373	-1378
447.444	-1204
447.514	-1345
447.585	-1045
447.656	-1799
447.727	-1088
447.798	-2221
447.869	-1778
447.940	-1000
448.010	-1594
448.081	-997
448.152	-477
448.223	-1516
448.294	-1092
448.364	-1592
448.435	-1565
448.506	-1844
448.577	-1593
448.647	-2139
448.718	-2116
448.789	-1940
448.859	-966
448.930	-1035
449.001	-1994
449.071	-1763
449.142	-2426
449.213	-1976
449.283	-1742
449.354	-1211
449.424	-734
449.495	-1297
449.565	-1170
449.636	-1334
449.706	-1576
449.777	-1863
449.847	-1746
449.918	-2100
449.988	-1690
450.059	-1781
450.129	-1508
450.200	-1111
450.270	-1757
450.340	-1246
450.411	-1748
450.481	-2084
450.551	-1527
450.622	-1796
450.692	-1476
450.762	-2381
450.833	-1648
450.903	-1644
450.973	-1997
451.043	-2434
451.114	-1908
451.184	-1725
451.254	-414
451.324	-2068
451.395	-2637
451.465	-2083
451.535	-1478
451.605	-1664
451.675	-1851
451.745	-380
451.815	155
451.885	-2217
451.956	-2096
452.026	-1844
452.096	-1784
452.166	-2035
452.236	875
452.306	-1105
452.376	-1263
452.446	-1227
452.516	-1413
452.586	-1501
452.656	-687
452.725	611
452.795	-287
452.865	-903
452.935	-897
453.005	-1048
453.075	-1513
453.145	-1050
453.215	497
453.284	1918
453.354	3356
453.424	6311
453.494	7613
453.564	7318
453.633	-770
453.703	-1932
453.773	-2610
453.843	-2132
453.895	-1640
453.912	-1506
453.976	-1685
453.982	-1731
454.052	-1836
454.057	-1800
454.121	-1730
454.139	-1569
454.191	-1044
454.220	-1062
454.261	-1382
454.301	-1082
454.330	-1226
454.382	-561
454.400	-302
454.463	-71
454.469	-55
454.539	-1239
454.544	-1136
454.608	-82
454.625	364
454.678	1641
454.707	2528
454.748	2265
454.788	3275
454.817	3041
454.869	1917
454.887	1856
454.950	326
454.956	275
455.026	1838
455.031	2146
455.095	3631
455.112	4285
455.165	5858
455.193	6564
455.234	6154
455.274	6082
455.303	4655
455.355	3629
455.373	3516
455.436	2683
455.442	2414
455.512	1021
455.517	827
455.581	-348
455.598	-550
455.650	-1026
455.679	-701
455.720	-317
455.760	-752
455.789	-975
455.841	-429
455.858	-393
455.922	-182
455.928	-163
455.997	-829
456.003	-747
456.066	603
456.084	658
456.136	1357
456.165	2427
456.205	2937
456.245	3221
456.274	2079
456.326	182
456.343	151
456.407	-118
456.412	-168
456.482	-260
456.488	-281
456.551	-664
456.569	-524
456.620	204
456.650	161
456.689	-254
456.730	-661
456.758	-676
456.811	75
456.827	464
456.892	1605
456.897	1840
456.966	6015
456.973	6590
457.035	11477
457.054	12937
457.104	5981
457.134	1472
457.173	484
457.215	-52
457.242	179
457.296	690
457.311	739
457.377	450
457.380	423
457.449	580
457.457	662
457.518	1430
457.538	1501
457.587	2698
457.619	3742
457.656	5736
457.699	7829
457.725	6581
457.780	4729
457.794	4904
457.861	5359
457.863	5487
457.932	10165
457.941	10871
458.001	12046
458.022	12654
458.070	7374
458.103	3425
458.138	2985
458.183	2692
458.207	3181
458.264	4152
458.276	4876
458.344	9363
458.345	9418
458.414	20420
458.425	22282
458.483	14757
458.506	11745
458.551	7296
458.586	3532
458.620	2673
458.667	1324
458.689	1217
458.747	1841
458.758	1982
458.826	2705
458.828	2721
458.895	2537
458.908	2531
458.964	2819
458.989	2907
459.033	3828
459.069	4501
459.101	4320
459.150	4138
459.170	3837
459.230	3109
459.239	3069
459.307	2577
459.311	2554
459.376	3174
459.391	3331
459.444	3280
459.471	3215
459.513	2892
459.552	2851
459.582	3440
459.632	3855
459.650	3743
459.713	3626
459.719	3652
459.787	4353
459.793	4363
459.856	3390
459.873	3172
459.924	3611
459.954	3649
459.993	4665
460.034	6071
460.061	7713
460.114	10785
460.130	10000
460.195	6872
460.198	6754
460.267	3631
460.275	3289
460.335	3962
460.355	4107
460.404	5918
460.436	7270
460.472	11727
460.516	17041
460.540	19424
460.596	24604
460.609	21515
460.676	5135
460.677	5143
460.745	4164
460.757	4092
460.814	4204
460.837	4048
460.882	5922
460.917	7403
460.950	7773
460.997	8163
461.019	6983
461.077	4064
461.087	4239
461.155	5315
461.158	5324
461.224	4475
461.238	4293
461.292	4218
461.318	4275
461.360	5700
461.398	6564
461.428	10681
461.478	18158
461.496	23185
461.558	39812
461.565	37998
461.633	17182
461.638	15427
461.701	9796
461.719	7942
461.769	7808
461.799	7780
461.837	6146
461.879	4576
461.905	4803
461.959	5143
461.973	5864
462.039	8536
462.042	8974
462.110	20136
462.119	21454
462.178	18085
462.199	16855
462.246	10581
462.279	6165
462.314	6983
462.359	7633
462.382	6795
462.439	4746
462.450	4720
462.518	4655
462.519	4631
462.586	5372
462.599	5459
462.654	7181
462.679	7863
462.722	11065
462.759	13931
462.790	11995
462.839	8644
462.858	8053
462.919	6078
462.926	5997
462.993	4826
462.999	4704
463.061	5967
463.078	6386
463.129	7065
463.158	7109
463.197	7299
463.238	7858
463.265	7843
463.318	7450
463.333	7528
463.398	7532
463.401	7568
463.468	7662
463.478	7645
463.536	11756
463.558	13134
463.604	17708
463.637	20947
463.672	22628
463.717	24670
463.739	29882
463.797	42954
463.807	40311
463.875	21397
463.877	20788
463.943	9305
463.957	6731
464.010	6770
464.036	6690
464.078	6935
464.116	7282
464.146	8539
464.196	10532
464.213	10339
464.275	9096
464.281	9429
464.349	13527
464.355	13827
464.416	10748
464.435	9724
464.484	10997
464.515	11685
464.551	13496
464.594	15528
464.619	13938
464.674	10072
464.686	10001
464.754	9488
464.754	9558
464.821	12128
464.833	12534
464.889	9933
464.913	8706
464.956	8104
464.992	7478
465.024	7603
465.072	7735
465.091	8111
465.152	9267
465.159	9855
465.226	14585
465.231	14853
465.294	21908
465.311	23683
465.361	21931
465.390	20805
465.429	30126
465.470	39691
465.496	33777
465.549	21330
465.563	19259
465.629	8881
465.631	8937
465.698	9006
465.708	8958
465.765	7898
465.788	7499
465.833	7730
465.867	7706
465.900	8232
465.947	8940
465.967	9116
466.026	9423
466.035	9534
466.102	9945
466.106	9907
466.169	9933
466.185	9868
466.236	10670
466.265	11000
466.304	11673
466.344	12268
466.371	14169
466.423	17662
466.438	20796
466.503	34335
466.505	35676
466.572	70481
466.582	75261
466.639	54105
466.662	45446
466.707	30437
466.741	18546
466.774	17086
466.820	14744
466.841	14289
466.900	12669
466.908	12830
466.975	13552
466.979	13516
467.042	16050
467.058	16587
467.109	17122
467.138	17266
467.176	17082
467.217	16695
467.243	16371
467.296	15431
467.310	15774
467.375	16875
467.377	16859
467.455	11816
467.534	13039
467.613	16125
467.692	26021
467.772	24649
467.851	17957
467.930	29889
468.009	70743
468.088	41702
468.167	12841
468.246	14007
468.326	14747
468.405	11916
468.484	11956
468.563	15033
468.642	17532
468.721	13679
468.800	13591
468.879	18251
468.958	31846
469.037	17817
469.116	11631
469.195	10007
469.274	11373
469.353	10900
469.432	11177
469.511	12175
469.590	16080
469.669	20775
469.748	25520
469.827	13602
469.905	13630
469.984	14635
470.063	20315
470.142	34962
470.221	30127
470.300	18513
470.378	14458
470.457	14082
470.536	25546
470.615	24162
470.694	14285
470.772	20681
470.851	31888
470.930	14680
471.008	9724
471.087	8202
471.166	8586
471.245	9709
471.323	10754
471.402	9535
471.480	8823
471.559	9531
471.638	8513
471.716	9558
471.795	9285
471.873	8975
471.952	9936
472.031	14023
472.109	16206
472.188	11648
472.266	7821
472.345	6667
472.423	8873
472.502	10560
472.580	16234
472.659	13042
472.737	14941
472.815	10133
472.894	12144
472.972	14174
473.051	10444
473.129	13020
473.207	15546
473.286	12212
473.364	13770
473.443	24912
473.521	41710
473.599	16019
473.677	10398
473.756	13649
473.834	13021
473.912	10863
473.991	16234
474.069	23514
474.147	26467
474.225	8406
474.303	11223
474.382	13616
474.460	12955
474.538	10914
474.616	13058
474.694	10974
474.772	9339
474.851	9695
474.929	9392
475.007	10899
475.085	12112
475.163	13405
475.241	23764
475.319	13798
475.397	10158
475.475	11536
475.553	21736
475.631	48152
475.709	51197
475.787	53702
475.865	12530
475.943	10575
476.021	16935
476.099	19840
476.177	11669
476.255	10364
476.333	11450
476.410	17330
476.488	20079
476.566	10002
476.644	12856
476.722	10539
476.800	10665
476.877	8176
476.955	11097
477.033	12589
477.111	14459
477.189	9627
477.266	8138
477.344	7141
477.422	9367
477.499	8733
477.577	9308
477.655	13777
477.732	10253
477.810	10425
477.888	9100
477.965	8662
478.043	11396
478.121	15494
478.198	27539
478.276	9743
478.353	9076
478.431	9729
478.508	15691
478.586	10413
478.664	10746
478.741	15753
478.819	20703
478.896	9137
478.974	10155
479.051	13267
479.128	14312
479.206	7286
479.283	7703
479.361	8311
479.438	10974
479.516	10322
479.593	9417
479.670	11780
479.748	12911
479.825	22565
479.902	12837
479.980	9672
480.057	8464
480.134	9605
480.211	10610
480.289	15018
480.366	29351
480.443	14755
480.520	9250
480.598	10396
480.675	12476
480.752	11339
480.829	10921
480.906	11524
480.984	10452
481.061	11026
481.138	8354
481.215	6958
481.292	10260
481.369	8521
481.446	11653
481.523	7921
481.600	8161
481.677	9378
481.754	11741
481.831	20235
481.908	28234
481.985	9865
482.062	11804
482.139	20594
482.216	30524
482.293	10420
482.370	10557
482.447	8944
482.524	8587
482.601	10065
482.678	7007
482.755	6956
482.832	8180
482.908	8051
482.985	10092
483.062	10916
483.139	11147
483.216	8526
483.293	9522
483.369	8602
483.446	13598
483.523	8385
483.600	8954
483.676	10855
483.753	13183
483.830	23867
483.906	59591
483.983	39821
484.060	18307
484.136	19009
484.213	16269
484.290	13645
484.366	11731
484.443	12614
484.519	14143
484.596	13135
484.673	18242
484.749	14513
484.826	11774
484.902	12353
484.979	14982
485.055	12232
485.132	11930
485.208	12330
485.285	15832
485.361	26284
485.437	57096
485.514	24848
485.590	16382
485.667	16389
485.743	30348
485.819	70463
485.896	22642
485.972	12509
486.049	12516
486.125	12132
486.201	16884
486.277	17253
486.354	14806
486.430	14977
486.506	18479
486.583	21142
486.659	42167
486.735	31113
486.811	46841
486.887	84027
486.964	167840
487.040	149885
487.116	57832
487.192	15471
487.268	15766
487.344	18636
487.420	22268
487.497	22406
487.573	43981
487.649	123252
487.725	76289
487.801	17085
487.877	16263
487.953	20394
488.029	23820
488.105	17596
488.181	17960
488.257	29015
488.333	75052
488.409	50167
488.485	21061
488.561	19005
488.637	20337
488.712	31243
488.788	42025
488.864	101920
488.940	267439
489.016	282989
489.092	35913
489.168	16603
489.243	13373
489.319	11111
489.395	10033
489.471	11095
489.547	11725
489.622	11734
489.698	15681
489.774	34208
489.849	70960
489.925	18208
490.001	11718
490.076	16698
490.152	40604
490.228	32042
490.303	11622
490.379	8837
490.455	8502
490.530	9388
490.606	12438
490.681	12987
490.757	16237
490.833	22955
490.908	24632
490.984	17847
491.059	13202
491.135	24583
491.210	54456
491.286	18734
491.361	15670
491.436	14446
491.512	20374
491.587	29832
491.663	65794
491.738	185827
491.814	181296
491.889	432857
491.964	160344
492.040	32460
492.115	13946
492.190	15757
492.266	22461
492.341	17816
492.416	13189
492.491	10864
492.567	14387
492.642	23713
492.717	21231
492.792	10118
492.868	11425
492.943	9153
493.018	10919
493.093	16069
493.168	38408
493.243	98951
493.318	38026
493.394	10056
493.469	9252
493.544	12518
493.619	21695
493.694	44529
493.769	37645
493.844	17200
493.919	10577
493.994	9623
494.069	9956
494.144	7754
494.219	7367
494.294	8383
494.369	10399
494.444	13416
494.519	16730
494.594	9105
494.669	10609
494.744	8985
494.818	11537
494.893	11103
494.968	9989
495.043	10519
495.118	13455
495.193	14231
495.267	20183
495.342	29210
495.417	44539
495.492	115764
495.566	494024
495.641	557677
495.716	39218
495.791	12958
495.865	12834
495.940	9498
496.015	10459
496.089	11200
496.164	10571
496.239	10585
496.313	15521
496.388	18312
496.462	34752
496.537	16049
496.612	16464
496.686	19533
496.761	15060
496.835	15073
496.910	15418
496.984	11426
497.059	12624
497.133	21106
497.208	19630
497.282	15475
497.357	24092
497.431	20735
497.505	16805
497.580	23387
497.654	38239
497.729	42955
497.803	41925
497.877	64431
497.952	197605
498.026	618416
498.100	157533
498.175	75573
498.249	62222
498.323	39642
498.397	52873
498.472	25868
498.546	20133
498.620	22027
498.694	33421
498.768	56057
498.843	74464
498.917	301764
498.991	358956
499.065	24424
499.139	14108
499.213	18390
499.287	22610
499.362	16539
499.436	15978
499.510	21673
499.584	30352
499.658	38394
499.732	122596
499.806	377205
499.880	66032
499.954	45660
500.028	63260
500.102	35317
500.176	18301
500.250	19497
500.324	31697
500.397	77133
500.471	150715
500.545	240824
500.619	165463
500.693	19001
500.767	15572
500.841	19287
500.914	15024
500.988	23978
501.062	54938
501.136	51676
501.210	117121
501.283	280213
501.357	78017
501.431	51736
501.505	51974
501.578	12853
501.652	22157
501.726	28354
501.799	45423
501.873	87728
501.947	21394
502.020	27203
502.094	72022
502.167	80684
502.241	23706
502.315	61231
502.388	61522
502.462	26987
502.535	20687
502.609	20375
502.682	16365
502.756	5965
502.829	9241
502.903	7656
502.976	9489
503.050	7944
503.123	9081
503.196	11059
503.270	14463
503.343	29799
503.417	112824
503.490	153432
503.563	43202
503.637	40309
503.710	81246
503.783	44409
503.857	93603
503.930	49240
504.003	68370
504.076	39888
504.150	13434
504.223	14624
504.296	11158
504.369	6935
504.443	7512
504.516	7638
504.589	8324
504.662	11686
504.735	14961
504.808	36489
504.881	29239
504.954	11613
505.028	27169
505.101	12324
505.174	13625
505.247	7716
505.320	7714
505.393	5716
505.466	6758
505.539	6013
505.612	6157
505.685	4822
505.758	8180
505.831	4599
505.904	7718
505.977	6860
506.049	12008
506.122	11373
506.195	16231
506.268	57781
506.341	112313
506.414	21886
506.487	11919
506.559	10685
506.632	11664
506.705	24674
506.778	21004
506.851	9040
506.923	8086
506.996	15128
507.069	16220
507.141	10608
507.214	11061
507.287	22835
507.360	24471
507.432	8065
507.505	10638
507.577	6369
507.650	9229
507.723	20476
507.795	28691
507.868	10784
507.940	6778
508.013	6950
508.086	6378
508.158	13087
508.231	11596
508.303	6658
508.376	6871
508.448	6129
508.520	9178
508.593	11371
508.665	6224
508.738	6575
508.810	5229
508.883	8788
508.955	12587
509.027	5809
509.100	5379
509.172	3951
509.244	4268
509.317	3781
509.389	6006
509.461	8438
509.534	15016
509.606	12238
509.678	15344
509.750	20236
509.822	6624
509.895	6245
509.967	4222
510.039	6638
510.111	8060
510.183	8321
510.255	7635
510.328	6832
510.400	13286
510.472	9033
510.544	11962
510.616	24029
510.688	10319
510.760	9695
510.832	14127
510.904	20675
510.976	8623
511.048	5559
511.120	7703
511.192	15151
511.264	7280
511.336	4299
511.408	6326
511.480	5388
511.552	5402
511.624	5515
511.695	6599
511.767	6596
511.839	11767
511.911	22731
511.983	9831
512.055	9533
512.126	8222
512.198	13384
512.270	15810
512.342	20280
512.414	19914
512.485	11359
512.557	12246
512.629	11499
512.700	7090
512.772	11219
512.844	7611
512.915	6903
512.987	11857
513.059	11999
513.130	19613
513.202	46792
513.273	27767
513.345	10625
513.416	8530
513.488	10891
513.560	19231
513.631	21941
513.703	24197
513.774	87452
513.845	65321
513.917	9783
513.988	9974
514.060	15334
514.131	22394
514.203	11194
514.274	7423
514.345	13902
514.417	21038
514.488	7514
514.560	12766
514.631	19765
514.702	16908
514.773	12390
514.845	8934
514.916	11191
514.987	12998
515.059	17667
515.130	12838
515.201	14808
515.272	12156
515.343	7378
515.414	6664
515.486	6293
515.557	6910
515.628	5468
515.699	8639
515.770	10117
515.841	9199
515.912	10735
515.983	12502
516.055	27096
516.126	36432
516.197	18596
516.268	18044
516.339	26659
516.410	40953
516.481	72858
516.552	257032
516.622	479658
516.693	51245
516.764	44119
516.835	35565
516.906	50421
516.977	99234
517.048	226642
517.119	768958
517.190	330611
517.260	79438
517.331	14664
517.402	13585
517.473	12295
517.544	10565
517.614	12840
517.685	12735
517.756	17329
517.827	23100
517.897	31882
517.968	49781
518.039	75741
518.109	165225
518.180	682648
518.250	1032777
518.321	80322
518.392	22063
518.462	20059
518.533	18499
518.603	20286
518.674	34471
518.745	66514
518.815	30562
518.886	21519
518.956	40134
519.027	79568
519.097	109919
519.168	106182
519.238	21842
519.309	23881
519.379	37788
519.449	20096
519.520	9276
519.590	7462
519.660	7475
519.731	12276
519.801	8290
519.871	6792
519.942	9429
520.012	10595
520.082	21689
520.153	10814
520.223	5704
520.293	8596
520.363	6326
520.434	10215
520.504	10184
520.574	7573
520.644	13144
520.714	25013
520.784	21744
520.855	53863
520.925	88672
520.995	9613
521.065	8131
521.135	6401
521.205	6805
521.275	7749
521.345	15366
521.415	20332
521.485	23773
521.555	14588
521.625	17897
521.695	10696
521.765	6837
521.835	9088
521.905	6612
521.975	6130
522.045	6174
522.115	11188
522.185	14295
522.254	24784
522.324	37991
522.394	24676
522.464	33559
522.534	119708
522.603	155866
522.673	15708
522.743	11216
522.813	17307
522.883	19237
522.952	13424
523.022	19860
523.092	48103
523.161	167421
523.231	36154
523.301	7587
523.370	8188
523.440	6570
523.509	5424
523.579	4476
523.649	4769
523.718	7257
523.788	4891
523.857	4503
523.927	4544
523.996	6349
524.066	7364
524.135	13134
524.205	4958
524.274	5560
524.344	4202
524.413	5189
524.483	5027
524.552	6849
524.621	4993
524.691	4733
524.760	4527
524.830	4842
524.899	10458
524.968	8762
525.038	6352
525.107	6490
525.176	4350
525.245	5711
525.315	4678
525.384	5506
525.453	6630
525.522	4884
525.591	5018
525.661	6170
525.730	5462
525.799	8704
525.868	15033
525.937	19859
526.006	48028
526.076	81347
526.145	40021
526.214	40776
526.283	60967
526.352	58129
526.421	135682
526.490	92219
526.559	71651
526.628	36172
526.697	61957
526.766	195245
526.835	471041
526.904	312826
526.973	45764
527.042	11546
527.110	9857
527.179	18474
527.248	9293
527.317	7104
527.386	5516
527.455	5439
527.523	4429
527.592	4902
527.661	2895
527.730	5496
527.799	5345
527.867	4742
527.936	8145
528.005	18988
528.074	26039
528.142	14006
528.211	39127
528.280	24274
528.348	6730
528.417	3197
528.485	3670
528.554	4331
528.623	2232
528.691	4250
528.760	2888
528.828	4455
528.897	2473
528.965	3262
529.034	3200
529.102	2430
529.171	3371
529.239	4545
529.308	3100
529.376	2455
529.445	5704
529.513	2735
529.581	6340
529.650	7611
529.718	5728
529.786	4075
529.855	3565
529.923	2574
529.992	5339
530.060	13481
530.128	16938
530.196	4274
530.265	2818
530.333	2013
530.401	2790
530.469	1052
530.537	3126
530.606	5241
530.674	2492
530.742	2719
530.810	2089
530.878	2406
530.946	3338
531.014	2123
531.083	2916
531.151	2293
531.219	2456
531.287	2635
531.355	2089
531.423	4462
531.491	4253
531.559	5392
531.627	1817
531.695	3667
531.763	2452
531.831	3597
531.898	4301
531.966	5900
532.034	7452
532.102	9103
532.170	15153
532.238	43097
532.306	80879
532.374	17150
532.441	15120
532.509	20522
532.577	48943
532.645	196033
532.712	177512
532.780	17345
532.848	6757
532.916	4444
532.983	3407
533.051	4373
533.119	4746
533.186	6400
533.254	3189
533.322	2464
533.389	2911
533.457	3602
533.524	4472
533.592	5298
533.659	4782
533.727	5231
533.794	11101
533.862	29029
533.930	23118
533.997	23185
534.064	3806
534.132	4041
534.199	3301
534.267	3686
534.334	4185
534.402	3294
534.469	2117
534.536	5026
534.604	4039
534.671	6337
534.738	14481
534.806	46856
534.873	19168
534.940	5427
535.008	5597
535.075	3233
535.142	4291
535.209	6067
535.276	3456
535.344	3191
535.411	3052
535.478	2724
535.545	2910
535.612	3433
535.679	2655
535.747	2978
535.814	3247
535.881	2575
535.948	3364
536.015	4931
536.082	4196
536.149	6376
536.216	7492
536.283	13717
536.350	26108
536.417	16474
536.484	14054
536.551	21461
536.618	32843
536.685	17000
536.752	17074
536.818	35438
536.885	50242
536.952	51774
537.019	156560
537.086	32503
537.153	4976
537.219	6364
537.286	2719
537.353	2340
537.420	2329
537.487	3646
537.553	4286
537.620	5160
537.687	3886
537.753	3673
537.820	5553
537.887	6562
537.953	5666
538.020	7957
538.087	13320
538.153	33080
538.220	52342
538.286	10645
538.353	5455
538.419	4504
538.486	4051
538.553	3433
538.619	2891
538.685	4764
538.752	5313
538.818	8540
538.885	5996
538.951	5343
539.018	8815
539.084	7517
539.150	14465
539.217	17335
539.283	5498
539.350	6772
539.416	10090
539.482	15398
539.549	51779
539.615	57982
539.681	7718
539.747	6119
539.814	5438
539.880	11422
539.946	11837
540.012	8710
540.078	8632
540.145	13971
540.211	27813
540.277	61565
540.343	34753
540.409	57898
540.475	73356
540.541	6385
540.607	5113
540.673	4376
540.740	6264
540.806	10451
540.872	12590
540.937	24334
541.004	16202
541.069	6560
541.135	6143
541.201	8490
541.267	13089
541.333	26998
541.399	41509
541.465	11114
541.531	5145
541.597	3690
541.663	3164
541.728	2787
541.794	3449
541.860	3597
541.926	5194
541.992	6424
542.057	7850
542.123	13020
542.189	22548
542.255	52050
542.320	33247
542.386	7162
542.452	5550
542.517	6070
542.583	6356
542.648	8530
542.714	13752
542.780	33241
542.845	91872
542.911	18265
542.976	3190
543.042	6155
543.107	5657
543.173	9352
543.238	12528
543.304	39273
543.369	25408
543.435	4167
543.500	2962
543.566	4092
543.631	2329
543.697	3390
543.762	2088
543.827	2420
543.893	2403
543.958	3317
544.023	2329
544.089	4924
544.154	4249
544.219	5535
544.284	9839
544.350	17537
544.415	18270
544.480	22409
544.545	69285
544.610	39768
544.676	4364
544.741	5086
544.806	3379
544.871	3317
544.936	3908
545.001	5106
545.066	5821
545.132	6462
545.197	7405
545.262	11491
545.327	18520
545.392	45137
545.457	52544
545.522	6917
545.587	5229
545.652	3668
545.717	3394
545.781	3156
545.846	3884
545.911	5410
545.976	5427
546.041	6128
546.106	9230
546.171	17177
546.236	12518
546.300	4691
546.365	2889
546.430	5977
546.495	6147
546.559	7122
546.624	3166
546.689	3910
546.754	3481
546.818	4270
546.883	4290
546.948	5367
547.012	4929
547.077	6326
547.142	6790
547.206	8177
547.271	10673
547.335	8170
547.400	7214
547.464	10148
547.529	15553
547.594	9832
547.658	7915
547.722	6511
547.787	5723
547.852	5999
547.916	7039
547.980	10901
548.045	9776
548.109	6469
548.174	6604
548.238	6488
548.302	4803
548.367	5570
548.431	6260
548.495	6098
548.560	6972
548.624	8380
548.688	10198
548.752	7074
548.817	6414
548.881	9297
548.945	5764
549.009	5528
549.073	4936
549.138	5208
549.202	7246
549.266	6254
549.330	6273
549.394	7142
549.458	6586
549.522	7654
549.586	10466
549.650	13006
549.715	7359
549.779	5182
549.843	6787
549.907	7727
549.971	8719
550.034	11658
550.098	6381
550.162	7628
550.226	7717
550.290	8947
550.354	6297
550.418	9000
550.482	8920
550.546	16438
550.609	10537
550.673	7688
550.737	8446
550.801	9342
550.865	8767
550.928	11347
550.992	12427
551.056	18342
551.120	31022
551.183	24836
551.247	16540
551.311	29806
551.374	16644
551.438	7191
551.502	6483
551.565	5759
551.629	6564
551.692	6848
551.756	5562
551.819	7357
551.883	4922
551.946	6423
552.010	5130
552.073	6736
552.137	6119
552.200	5763
552.264	5760
552.327	5783
552.391	7114
552.454	7489
552.517	8314
552.581	8121
552.644	11999
552.708	22922
552.771	19631
552.834	8607
552.897	7638
552.961	7791
553.024	5948
553.087	5995
553.151	6340
553.214	6157
553.277	6111
553.340	7539
553.403	13072
553.466	10618
553.530	6269
553.593	6007
553.656	5609
553.719	5646
553.782	5660
553.845	6171
553.908	4546
553.971	5255
554.034	4961
554.097	6338
554.160	6927
554.223	7682
554.286	5651
554.349	6530
554.412	4892
554.475	5875
554.538	6508
554.601	6613
554.664	5251
554.727	4425
554.789	4348
554.852	5085
554.915	4025
554.978	4801
555.041	4462
555.104	5133
555.166	5698
555.229	5884
555.292	5535
555.354	8025
555.417	5471
555.480	4226
555.542	2685
555.605	5119
555.668	4496
555.730	5005
555.793	4109
555.856	5304
555.918	4999
555.981	4235
556.043	4133
556.106	5641
556.168	7010
556.231	6972
556.293	5635
556.356	6859
556.418	10836
556.481	8988
556.543	5518
556.606	3532
556.668	6161
556.730	8407
556.793	12634
556.855	20297
556.918	6903
556.980	5780
557.042	7637
557.104	16924
557.167	33281
557.229	10906
557.291	4395
557.354	6030
557.416	5464
557.478	10404
557.540	6456
557.602	2525
557.664	2561
557.727	3923
557.789	4437
557.851	4611
557.913	5908
557.975	11092
558.037	22100
558.099	29573
558.161	6775
558.223	6322
558.285	8741
558.347	10834
558.409	16633
558.471	25187
558.533	56108
558.595	59963
558.657	56372
558.719	146021
558.781	174105
558.843	33547
558.905	34459
558.966	11401
559.028	9150
559.090	11083
559.152	17943
559.214	26934
559.275	64142
559.337	120221
559.399	24208
559.461	9983
559.522	11440
559.584	15590
559.646	27067
559.707	76027
559.769	51374
559.831	11414
559.892	11013
559.954	20744
560.015	37446
560.077	18343
560.139	30607
560.200	27773
560.262	5087
560.323	3956
560.385	3948
560.446	2244
560.508	2003
560.569	2218
560.631	2420
560.692	2850
560.753	2703
560.815	3011
560.876	1596
560.937	3524
560.999	3629
561.060	4769
561.122	4059
561.183	5843
561.244	8979
561.305	12098
561.367	22281
561.428	59564
561.489	38070
561.550	5519
561.612	4487
561.673	3547
561.734	3254
561.795	3523
561.856	2592
561.917	3952
561.978	2579
562.039	2881
562.101	3902
562.162	2927
562.223	4589
562.284	7465
562.345	11307
562.406	5041
562.467	2204
562.528	2708
562.589	1637
562.649	3499
562.710	1779
562.771	3141
562.832	2475
562.893	2666
562.954	3022
563.015	3509
563.076	1934
563.136	3222
563.197	1864
563.258	4048
563.319	2971
563.380	2923
563.440	3705
563.501	3088
563.562	3587
563.622	4403
563.683	4295
563.744	4386
563.804	3134
563.865	2949
563.926	2603
563.986	3747
564.047	3042
564.107	3056
564.168	4005
564.229	5329
564.289	9120
564.350	5460
564.410	2371
564.471	2848
564.531	1152
564.591	2196
564.652	2432
564.712	4459
564.773	4558
564.833	2913
564.893	2747
564.954	3798
565.014	3518
565.074	2103
565.135	2804
565.195	1722
565.255	2392
565.316	3065
565.376	4026
565.436	5233
565.496	3275
565.557	3617
565.617	4729
565.677	4833
565.737	10149
565.797	8468
565.857	3759
565.917	4869
565.978	4449
566.038	6239
566.098	11255
566.158	10057
566.218	3659
566.278	3556
566.338	2248
566.398	2860
566.458	3381
566.518	4314
566.578	4296
566.638	4345
566.698	2447
566.757	3667
566.817	3657
566.877	4107
566.937	3145
566.997	4002
567.057	2917
567.116	3993
567.176	4093
567.236	5530
567.296	4592
567.355	5858
567.415	7305
567.475	4888
567.535	4509
567.594	4779
567.654	3746
567.714	5561
567.773	5828
567.833	7346
567.892	7655
567.952	9420
568.012	10866
568.071	15475
568.131	23383
568.190	26768
568.250	20427
568.309	18267
568.369	15659
568.428	15244
568.488	15322
568.547	20621
568.607	24814
568.666	33673
568.725	48852
568.785	40402
568.844	27436
568.903	18610
568.963	14193
569.022	11930
569.081	8292
569.141	7002
569.200	5783
569.259	6446
569.318	3599
569.378	4540
569.437	3146
569.496	4150
569.555	2739
569.614	4166
569.673	2996
569.732	3495
569.792	2764
569.851	2202
569.910	3355
569.969	3283
570.028	4866
570.087	3424
570.146	3476
570.205	3472
570.264	2214
570.323	2564
570.382	3865
570.441	3969
570.500	4352
570.559	3028
570.618	2854
570.676	4735
570.735	5057
570.794	6077
570.853	4908
570.912	2850
570.971	2469
571.029	2948
571.088	3451
571.147	1940
571.206	2155
571.264	2591
571.323	2065
571.382	3847
571.440	2490
571.499	1516
571.558	1351
571.616	1642
571.675	2722
571.733	2333
571.792	1271
571.851	1507
571.909	2646
571.968	2185
572.026	1566
572.085	1913
572.143	860
572.202	2705
572.260	1481
572.319	714
572.377	1540
572.435	2559
572.494	1134
572.552	2634
572.611	2548
572.669	1750
572.727	1170
572.786	679
572.844	1815
572.902	1676
572.960	1367
573.019	1706
573.077	2544
573.135	1333
573.193	554
573.251	1666
573.310	1036
573.368	1261
573.426	1320
573.484	1821
573.542	747
573.600	2022
573.658	1798
573.716	2194
573.774	1787
573.832	2292
573.891	2314
573.948	2092
574.006	1251
574.064	1759
574.122	1128
574.180	1306
574.238	1031
574.296	1295
574.354	421
574.412	932
574.470	579
574.528	910
574.585	406
574.643	1731
574.701	1235
574.759	1389
574.817	1265
574.874	1748
574.932	562
574.990	1357
575.047	2222
575.105	2026
575.163	1589
575.221	3097
575.278	950
575.336	1921
575.393	699
575.451	1501
575.509	817
575.566	715
575.624	1190
575.681	1489
575.739	1565
575.796	1627
575.854	729
575.911	1278
575.969	1828
576.026	2309
576.083	3233
576.141	4005
576.198	5716
576.256	2568
576.313	1203
576.370	2426
576.428	2545
576.485	2433
576.542	1893
576.599	850
576.657	1111
576.714	1979
576.771	1163
576.828	1650
576.886	698
576.943	764
577.000	1033
577.057	2251
577.114	1821
577.171	2123
577.228	1682
577.286	2692
577.343	1590
577.400	1257
577.457	1610
577.514	1859
577.571	1517
577.628	770
577.685	-334
577.742	1796
577.799	654
577.855	1443
577.912	761
577.969	1868
578.026	2528
578.083	2101
578.140	578
578.197	1521
578.254	1156
578.310	1605
578.367	1420
578.424	2562
578.481	1410
578.537	1235
578.594	586
578.651	1415
578.707	37
578.764	1053
578.821	-111
578.877	1368
578.934	244
578.991	1895
579.047	1561
579.104	1279
579.160	542
579.217	756
579.273	944
579.330	1102
579.387	741
579.443	963
579.499	556
579.556	1651
579.612	1514
579.669	1850
579.725	1342
579.782	613
579.838	495
579.894	1729
579.951	609
580.007	1285
580.063	149
580.120	1425
580.176	1348
580.232	1018
580.288	1398
580.345	2813
580.401	1298
580.457	1957
580.513	1712
580.569	1380
580.619	330
580.625	186
580.682	1612
580.692	1584
580.738	1512
580.765	1436
580.794	1349
580.838	1165
580.850	1115
580.906	1932
580.911	1850
580.962	1105
580.984	1104
581.018	1099
581.057	594
581.074	375
581.130	1228
581.130	1236
581.186	355
581.203	540
581.242	964
581.276	744
581.298	601
581.349	643
581.354	648
581.410	1491
581.422	1490
581.466	1505
581.494	1329
581.522	1170
581.567	1564
581.577	1642
581.633	429
581.640	480
581.689	915
581.713	666
581.745	332
581.786	736
581.801	887
581.857	459
581.859	507
581.912	1580
581.932	1264
581.968	655
582.004	1043
582.024	1249
582.077	45
582.080	-3
582.135	1062
582.150	846
582.191	217
582.223	607
582.247	916
582.296	574
582.302	508
582.358	449
582.368	459
582.414	582
582.441	861
582.469	1131
582.514	466
582.525	338
582.581	970
582.587	926
582.636	319
582.659	260
582.692	302
582.732	628
582.747	704
582.803	1020
582.805	1018
582.858	1143
582.877	1206
582.914	1386
582.950	751
582.969	356
583.023	754
583.025	776
583.080	1163
583.095	1139
583.135	1084
583.168	771
583.191	430
583.240	718
583.246	796
583.302	555
583.313	819
583.357	1627
583.385	833
583.412	125
583.458	351
583.468	378
583.523	747
583.531	727
583.578	803
583.603	737
583.634	529
583.676	768
583.689	914
583.744	739
583.748	776
583.799	897
583.820	715
583.854	588
583.893	844
583.910	901
583.965	191
583.965	195
584.020	812
584.038	711
584.075	587
584.110	834
584.130	897
584.183	512
584.185	494
584.240	1218
584.255	979
584.296	383
584.328	1035
584.351	1467
584.400	694
584.406	617
584.461	906
584.472	901
584.516	469
584.545	543
584.571	911
584.617	1277
584.626	1316
584.681	1027
584.689	1070
584.736	1270
584.762	1185
584.791	1083
584.834	1046
584.846	1020
584.900	1493
584.906	1455
584.955	1161
584.978	1383
585.010	1623
585.051	1094
585.065	979
585.120	1793
585.123	1772
585.175	1579
585.195	2059
585.230	2721
585.267	2961
585.284	3123
585.339	4070
585.340	4068
585.394	4033
585.412	4874
585.449	6491
585.484	7201
585.503	7705
585.556	10489
585.558	10610
585.613	18618
585.628	20338
585.667	25089
585.700	15284
585.722	9128
585.772	6045
585.777	5507
585.831	3961
585.845	3369
585.886	2948
585.917	2252
585.941	1873
585.989	2098
585.995	2111
586.050	2411
586.061	2449
586.104	2452
586.133	2442
586.159	2612
586.205	2372
586.213	2290
586.268	1658
586.277	1673
586.322	2088
586.349	2404
586.377	2396
586.421	2249
586.431	2296
586.486	2748
586.493	3044
586.540	5090
586.565	4151
586.595	2958
586.637	2771
586.649	2716
586.703	2601
586.709	2585
586.758	2280
586.781	2106
586.812	1850
586.853	2349
586.866	2555
586.921	2021
586.925	2030
586.975	2132
586.996	2091
587.029	2237
587.068	2613
587.083	2608
587.138	2340
587.140	2352
587.192	3027
587.212	3038
587.246	2741
587.284	2713
587.300	2858
587.355	2802
587.356	2810
587.409	2778
587.427	2876
587.463	3320
587.499	3660
587.517	3714
587.571	3446
587.571	3445
587.625	3851
587.643	3851
587.679	3680
587.715	4041
587.733	4214
587.786	4399
587.787	4414
587.841	5297
587.858	5745
587.895	6067
587.930	6029
587.949	6321
588.001	6930
588.003	6954
588.057	8549
588.073	8981
588.111	10202
588.145	11510
588.165	12189
588.217	14281
588.219	14398
588.273	17743
588.288	18746
588.327	21501
588.360	24707
588.381	26683
588.431	32995
588.435	33425
588.489	43556
588.503	46931
588.542	55296
588.575	65054
588.596	71224
588.646	91066
588.650	92440
588.704	121338
588.718	131995
588.757	162511
588.789	198957
588.811	229451
588.861	335752
588.865	347140
588.919	430441
588.932	418197
588.972	392792
589.004	402332
589.026	321456
589.075	192675
589.080	185074
589.133	100662
589.147	80950
589.187	73861
589.218	72057
589.241	74880
589.290	84655
589.294	85487
589.348	105602
589.361	113863
589.401	142046
589.433	183420
589.455	221457
589.504	290097
589.508	300102
589.562	309980
589.576	322261
589.615	238865
589.647	199687
589.669	150666
589.718	45637
589.722	44072
589.776	24902
589.790	20284
589.829	16739
589.861	13624
589.883	12325
589.932	9964
589.936	9814
589.989	8363
590.004	7929
590.043	7420
590.075	7089
590.096	6790
590.146	6081
590.149	6045
590.203	5737
590.218	5670
590.256	5468
590.289	5140
590.309	5040
590.360	4734
590.362	4684
590.416	4062
590.431	3815
590.469	4130
590.503	4457
590.522	4160
590.574	3410
590.575	3416
590.629	3745
590.645	3858
590.682	3565
590.716	3453
590.735	3575
590.787	3697
590.788	3689
590.841	3323
590.859	3155
590.894	3468
590.930	3918
590.947	3725
591.000	2982
591.001	2977
591.053	2956
591.072	2916
591.106	3158
591.143	3542
591.159	3540
591.212	3418
591.214	3421
591.265	3107
591.285	2906
591.318	3157
591.356	3539
591.371	3613
591.424	3637
591.427	3658
591.477	3433
591.498	3227
591.530	2669
591.569	2056
591.583	2174
591.636	2714
591.640	2754
591.689	2564
591.711	2541
591.741	2923
591.782	3324
591.794	3242
591.847	2952
591.853	2915
591.900	3253
591.924	3422
591.953	2927
591.995	2275
592.005	2379
592.058	2842
592.066	2932
592.111	2943
592.137	2909
592.164	3066
592.208	3361
592.216	3270
592.269	2664
592.279	2561
592.322	2946
592.350	3189
592.374	2996
592.421	2643
592.427	2630
592.479	2558
592.491	2547
592.532	2940
592.562	3229
592.585	3086
592.633	2753
592.704	2553
592.775	2992
592.846	2456
592.916	2379
592.987	3085
593.058	3370
593.128	2234
593.199	3441
593.270	2431
593.341	3063
593.411	2003
593.482	2103
593.553	2462
593.623	2646
593.694	2219
593.764	2520
593.835	2025
593.906	3206
593.976	2629
594.047	2371
594.117	2941
594.188	2789
594.258	2139
594.329	2465
594.399	3081
594.470	2778
594.540	2841
594.611	2852
594.681	1733
594.751	2052
594.822	2633
594.892	3411
594.963	2938
595.033	2998
595.103	2459
595.174	3163
595.244	2910
595.314	4226
595.384	3213
595.455	2937
595.525	3261
595.595	3022
595.665	2581
595.736	3076
595.806	3058
595.876	2792
595.946	3166
596.016	2869
596.087	2978
596.157	3389
596.227	2615
596.297	2799
596.367	3185
596.437	3220
596.507	4418
596.577	4329
596.647	2872
596.717	3811
596.787	3324
596.857	3851
596.927	3344
596.997	3883
597.067	3673
597.137	3671
597.207	3190
597.277	2989
597.347	2992
597.417	3925
597.487	4016
597.557	3951
597.626	4012
597.696	3785
597.766	3638
597.836	4305
597.906	3450
597.975	3587
598.045	2509
598.115	3014
598.185	3738
598.254	4045
598.324	3861
598.394	4667
598.464	4855
598.533	3565
598.603	3842
598.672	4425
598.742	3549
598.812	3614
598.881	3345
598.951	4045
599.020	3387
599.090	4453
599.159	5155
599.229	3679
599.299	3105
599.368	3167
599.437	3465
599.507	4087
599.576	3270
599.646	3338
599.715	3523
599.785	3352
599.854	2311
599.924	3025
599.993	2300
600.062	3330
600.132	3059
600.201	3582
600.270	3594
600.340	3980
600.409	3484
600.478	3698
600.547	3231
600.617	4574
600.686	2060
600.755	2630
600.824	2628
600.894	3162
600.963	2564
601.032	3168
601.101	2505
601.170	2811
601.239	1818
601.308	2364
601.378	2315
601.447	2914
601.516	1674
601.585	3155
601.654	2018
601.723	3092
601.792	1998
601.861	2121
601.930	2760
601.999	2370
602.068	1363
602.137	2340
602.206	2344
602.275	2645
602.343	2058
602.412	2628
602.481	2206
602.550	2486
602.619	2569
602.688	3499
602.756	2338
602.825	3157
602.894	2616
602.963	2876
603.032	2666
603.100	3174
603.169	3140
603.238	1936
603.307	3035
603.375	2419
603.444	2746
603.513	2700
603.581	2928
603.650	3082
603.719	2116
603.787	2634
603.856	3008
603.924	2894
603.993	2835
604.061	3452
604.130	3231
604.198	2663
604.267	3342
604.335	4046
604.404	3579
604.472	3590
604.541	3339
604.609	4020
604.678	3260
604.746	2894
604.815	2897
604.883	3813
604.951	3516
605.020	3693
605.088	4089
605.156	4644
605.225	3168
605.293	4404
605.361	3418
605.429	4636
605.498	4367
605.566	4252
605.634	3555
605.702	4344
605.771	5148
605.839	4605
605.907	4384
605.975	4572
606.043	3985
606.111	4311
606.180	4112
606.248	4019
606.316	3197
606.384	3419
606.452	4524
606.520	4452
606.588	4006
606.656	4094
606.724	3983
606.792	3601
606.860	3490
606.928	3500
606.996	3709
607.064	3150
607.132	2843
607.200	2665
607.267	3388
607.335	4020
607.403	3892
607.471	3348
607.539	2986
607.607	4203
607.674	2732
607.742	3296
607.810	2452
607.878	4085
607.946	2205
608.013	2847
608.081	3003
608.149	3196
608.216	2657
608.284	3507
608.352	3150
608.419	3383
608.487	2820
608.555	3560
608.622	2917
608.690	3216
608.757	3368
608.825	4443
608.893	3689
608.960	3524
609.028	3460
609.095	3055
609.163	2974
609.230	3096
609.298	2229
609.365	3249
609.432	2499
609.500	3071
609.567	3502
609.635	5469
609.702	4290
609.769	3818
609.837	3708
609.904	3196
609.971	2081
610.039	3922
610.106	3602
610.173	6026
610.241	10250
610.308	9014
610.375	3411
610.442	2924
610.509	2437
610.577	3178
610.644	3434
610.711	2860
610.778	3210
610.845	3369
610.912	3229
610.980	3702
611.047	2647
611.114	4288
611.181	2773
611.248	3194
611.315	4939
611.382	3618
611.449	3169
611.516	3616
611.583	3418
611.650	4175
611.717	3754
611.784	3950
611.851	3441
611.918	4504
611.984	4625
612.051	7529
612.118	12762
612.185	23997
612.252	21342
612.319	5967
612.386	4319
612.452	4978
612.519	4128
612.586	4725
612.653	4939
612.719	3807
612.786	3335
612.853	3915
612.919	3901
612.986	3913
613.053	3500
613.120	2786
613.186	2780
613.253	4200
613.319	3588
613.386	2594
613.453	2425
613.519	3612
613.586	3180
613.652	4986
613.719	3219
613.785	3849
613.852	3284
613.918	3014
613.985	3135
614.051	3440
614.118	3373
614.184	3889
614.250	2740
614.317	3626
614.383	2934
614.449	3186
614.516	2707
614.582	3819
614.648	2345
614.715	2546
614.781	3280
614.847	3134
614.914	3369
614.980	3424
615.046	2908
615.112	3139
615.179	2979
615.245	3301
615.311	2184
615.377	3943
615.443	3038
615.509	3392
615.575	3399
615.642	2634
615.708	3396
615.774	3573
615.840	3687
615.906	4178
615.972	5659
616.038	9321
616.104	16349
616.170	29947
616.236	32485
616.302	8299
616.368	4313
616.434	2728
616.500	3386
616.565	4282
616.631	3759
616.697	3309
616.763	3715
616.829	4870
616.895	7337
616.961	7458
617.026	3778
617.092	2710
617.158	3090
617.224	3406
617.289	2013
617.355	2456
617.421	1556
617.487	3156
617.552	2551
617.618	2532
617.684	1788
617.749	3294
617.815	2460
617.880	2007
617.946	2597
618.012	1885
618.077	2291
618.143	2199
618.208	1961
618.274	2871
618.339	2658
618.405	2085
618.470	2514
618.536	2149
618.601	2188
618.667	2340
618.732	1727
618.798	1766
618.863	2418
618.928	2121
618.994	1413
619.059	2038
619.124	2650
619.190	2377
619.255	1930
619.320	1645
619.386	945
619.451	1025
619.516	1690
619.581	1564
619.647	1290
619.712	1330
619.777	1011
619.842	1790
619.907	1479
619.972	1585
620.038	2201
620.103	1188
620.168	778
620.233	1756
620.298	1684
620.363	1214
620.428	1435
620.493	1726
620.558	1241
620.623	1712
620.688	1790
620.753	1909
620.818	1358
620.883	1669
620.948	2035
621.013	1635
621.078	1465
621.143	956
621.207	2761
621.272	1590
621.337	1737
621.402	1814
621.467	739
621.532	1841
621.596	1599
621.661	1541
621.726	976
621.791	1202
621.855	1393
621.920	2548
621.985	1383
622.049	2165
622.114	1890
622.179	1628
622.243	1468
622.308	2167
622.373	1826
622.437	2081
622.502	1200
622.566	2457
622.631	1736
622.695	2381
622.760	1959
622.824	1647
622.889	1883
622.953	1872
623.018	2181
623.082	2534
623.147	1775
623.211	1297
623.276	1546
623.340	1428
623.404	1227
623.469	2458
623.533	1408
623.597	1747
623.662	973
623.726	1425
623.790	478
623.854	1339
623.919	667
623.983	1085
624.047	695
624.111	1585
624.176	996
624.240	1865
624.304	2006
624.368	2015
624.432	2092
624.496	1667
624.560	853
624.625	1164
624.689	1494
624.753	2199
624.817	1256
624.881	1688
624.945	844
625.009	684
625.073	1531
625.137	1759
625.201	1299
625.265	1852
625.329	682
625.393	1709
625.456	2024
625.520	1548
625.584	1585
625.648	1386
625.712	2045
625.776	2535
625.839	2731
625.903	1871
625.967	658
626.031	2616
626.095	1591
626.158	2644
626.222	336
626.286	1294
626.349	453
626.413	188
626.477	1669
626.540	499
626.604	-57
626.668	1261
626.731	811
626.795	416
626.858	376
626.922	80
626.986	812
627.049	214
627.113	1061
627.176	1482
627.240	343
627.303	848
627.366	635
627.430	1493
627.493	468
627.557	270
627.620	598
627.684	507
627.747	413
627.810	88
627.874	657
627.937	290
628.000	1047
628.064	712
628.127	-418
628.190	173
628.253	793
628.317	275
628.380	62
628.443	378
628.506	277
628.569	204
628.632	-97
628.696	169
628.759	519
628.822	-282
628.885	-354
628.948	637
629.011	-165
629.074	-153
629.137	-515
629.200	248
629.263	-252
629.326	75
629.389	-311
629.452	239
629.515	298
629.578	102
629.641	357
629.704	-117
629.767	-295
629.830	-191
629.892	-690
629.955	180
630.018	233
630.081	-428
630.144	-175
630.207	-127
630.269	793
630.332	-162
630.395	-611
630.458	605
630.520	208
630.583	835
630.646	379
630.708	50
630.771	-585
630.834	339
630.896	-89
630.959	-323
631.021	-732
631.084	-167
631.146	15
631.209	420
631.272	-345
631.334	23
631.397	-654
631.459	-194
631.522	-625
631.584	-214
631.646	-173
631.709	477
631.771	-886
631.834	98
631.896	102
631.958	-654
632.021	-228
632.083	-140
632.145	334
632.208	-382
632.270	303
632.332	-786
632.395	-857
632.457	206
632.519	-678
632.581	362
632.643	-1354
632.706	588
632.768	-998
632.830	33
632.892	-712
632.954	-418
633.016	-365
633.078	-426
633.141	-706
633.203	-299
633.265	485
633.327	-46
633.389	-482
633.451	-12
633.513	-780
633.575	-796
633.637	-1319
633.698	426
633.760	-407
633.822	-551
633.884	-834
633.946	-195
634.008	-1042
634.070	-214
634.132	-276
634.193	-405
634.255	-822
634.317	-940
634.379	-544
634.441	-274
634.502	-308
634.564	-518
634.626	-497
634.687	768
634.749	-751
634.811	-169
634.873	-434
634.934	-22
634.996	-111
635.057	-222
635.119	-455
635.181	-128
635.242	-478
635.304	-1654
635.365	157
635.427	-504
635.488	-823
635.550	17
635.611	-660
635.673	-972
635.734	185
635.796	-224
635.857	-216
635.918	-456
635.980	-207
636.041	-916
636.102	-499
636.164	-394
636.225	36
636.286	-821
636.348	-352
636.409	-324
636.470	-1303
636.531	-981
636.593	-942
636.654	-421
636.715	-121
636.776	-552
636.838	-1473
636.899	-444
636.960	-1204
637.021	-787
637.082	-600
637.143	-428
637.204	-984
637.265	-1131
637.326	-51
637.387	-398
637.448	-1083
637.509	-309
637.570	-318
637.631	-362
637.692	-1338
637.753	-1424
637.814	-802
637.875	-757
637.936	398
637.997	-860
638.058	-1014
638.119	280
638.179	-772
638.240	-1069
638.301	-284
638.362	-964
638.423	-1106
638.483	50
638.544	-1319
638.605	-517
638.666	-1155
638.726	-314
638.787	-624
638.848	18
638.908	-586
638.969	283
639.030	-615
639.090	-442
639.151	-1162
639.211	-853
639.272	-256
639.332	-176
639.393	-1145
639.453	-1194
639.514	-956
639.574	-839
639.635	-172
639.695	-482
639.756	-1785
639.816	-780
639.877	-581
639.937	433
639.997	-749
640.058	-443
640.118	-1307
640.178	-119
640.239	-346
640.299	-481
640.359	-1149
640.420	-388
640.480	-845
640.540	-566
640.600	-796
640.661	-264
640.721	-1856
640.781	898
640.841	-1542
640.901	-182
640.961	-106
641.021	-510
641.082	-1770
641.142	-368
641.202	-563
641.262	-1430
641.322	-345
641.382	-2060
641.442	-958
641.502	-774
641.562	-449
641.622	-1272
641.682	-1012
641.742	-444
641.802	-974
641.861	-495
641.921	-1050
641.981	-247
642.041	-692
642.101	-450
642.161	-1700
642.221	-1526
642.280	-1766
642.340	-1102
642.400	-670
642.460	-410
642.519	-1035
642.579	-1186
642.639	-1055
642.698	-1849
642.758	738
642.818	-613
642.877	-1667
642.937	-1050
642.997	-340
643.056	-1011
643.116	-1746
643.175	-231
643.235	-888
643.294	-391
643.354	-1099
643.414	104
643.473	-921
643.532	-1258
643.592	-792
643.651	346
643.711	210
643.770	2360
643.830	5635
643.889	11158
643.948	6141
644.008	2
644.067	-818
644.126	-798
644.186	-1286
644.245	-390
644.304	-1463
644.363	424
644.423	-1214
644.482	-419
644.541	-421
644.600	-1755
644.659	-286
644.719	-1466
644.778	-850
644.837	-483
644.896	234
644.955	649
645.014	-756
645.073	-888
645.132	-1331
645.191	-298
645.250	-1305
645.309	-91
645.368	-1166
645.427	-405
645.486	-1170
645.545	358
645.604	-1245
645.663	46
645.722	-1108
645.781	-472
645.840	-419
645.898	-983
645.957	-795
646.016	-1231
646.075	1033
646.134	1413
646.192	4608
646.251	8085
646.310	1779
646.369	-316
646.427	24
646.486	-1132
646.545	-947
646.603	-642
646.662	-1134
646.721	-394
646.779	-1915
646.838	-1974
646.896	-898
646.955	-284
647.014	-412
647.072	-1041
647.131	207
647.189	371
647.248	-799
647.306	-584
647.365	-1094
647.423	-1602
647.481	-549
647.540	-1720
647.598	374
647.657	-1282
647.715	-873
647.773	-1139
647.832	-573
647.890	-1972
647.948	-1650
648.007	-353
648.065	-1849
648.123	-1170
648.181	-394
648.240	-677
648.298	-1822
648.356	-1109
648.414	-975
648.472	-641
648.531	-564
648.589	-1215
648.647	-653
648.705	-1263
648.763	-1011
648.821	-776
648.879	-1726
648.937	-579
648.995	-923
649.053	-587
649.111	-1699
649.169	-947
649.227	-335
649.285	-328
649.343	3175
649.401	2234
649.459	459
649.516	-24
649.574	-2062
649.632	-505
649.690	-980
649.748	-233
649.806	-1309
649.863	154
649.921	-694
649.979	-649
650.037	-522
650.094	-1655
650.152	-1149
650.210	-934
650.268	-309
650.325	-679
650.383	-1642
650.440	-1276
650.498	-1032
650.556	-319
650.613	-1336
650.671	-783
650.728	-1579
650.786	-1255
650.843	-1342
650.901	-1690
650.958	-1156
651.016	-1289
651.073	-818
651.131	-1342
651.188	-2057
651.246	-1278
651.303	-1604
651.360	-289
651.418	-1746
651.475	-1038
651.532	-1862
651.590	-608
651.647	-2086
651.704	-1185
651.762	-1019
651.819	-1623
651.876	-2134
651.933	-785
651.990	-630
652.048	-2183
652.105	-1451
652.162	-811
652.219	-1601
652.276	-887
652.333	-750
652.390	-1258
652.448	-1598
652.505	-904
652.562	-1338
652.619	-1326
652.676	-1876
652.733	-472
652.790	-1615
652.847	-1680
652.904	-900
652.961	-1695
653.017	-2179
653.074	-389
653.131	-1403
653.188	-1674
653.245	-1483
653.302	-843
653.359	-2150
653.415	-1347
653.472	-1198
653.529	-1070
653.586	-1775
653.642	-879
653.699	-1135
653.756	-2110
653.813	-876
653.869	-1426
653.926	-2242
653.983	-1572
654.039	-1447
654.096	-1080
654.152	-386
654.209	-1662
654.266	-951
654.322	-2323
654.379	-1376
654.435	-1463
654.492	-1900
654.548	-1494
654.605	-1750
654.661	-1180
654.717	-907
654.774	-1058
654.830	-682
654.887	-313
654.943	-1699
655.000	-699
655.056	-1943
655.112	-1783
655.168	-2076
655.225	-1298
655.281	-1997
655.337	-1204
655.394	-836
655.450	-1053
655.506	-1417
655.562	-1259
655.618	-698
655.675	-1252
655.731	-1601
655.787	-1726
655.843	-375
655.899	-1582
655.955	-491
656.011	-1466
656.067	-2588
656.123	-748
656.179	-1659
656.235	-663
656.291	-2578
656.347	132
656.403	-2087
656.459	-969
656.515	-1450
656.571	-1412
656.627	-1056
656.683	-2292
656.739	-401
656.795	-1293
656.850	-813
656.906	-933
656.962	-988
657.018	-1976
657.074	-1487
657.129	-761
657.185	-931
657.241	-1095
657.297	-1720
657.352	-921
657.408	-2001
657.464	-325
657.519	-1238
657.575	-1967
657.630	-1474
657.686	-1339
657.742	-1390
657.797	-1287
657.853	-1499
657.908	-278
657.964	-2821
658.019	-1291
658.075	-661
658.130	-642
658.186	-2071
658.241	-1007
658.297	-1752
658.352	-1697
658.407	-1027
658.463	-2246
658.518	-721
658.573	-1140
658.629	-1804
658.684	-943
658.739	-1337
658.795	-1954
658.850	-1121
658.905	-1253
658.960	-941
659.016	-1953
659.071	-1122
659.126	-430
659.181	-2202
659.236	96
659.291	-491
659.346	-1513
659.401	-1628
659.457	-1238
659.512	-2066
659.567	-772
659.622	-1424
659.677	-2196
659.732	-1872
659.787	-1297
659.842	-1428
659.897	-630
659.952	-1427
660.007	-648
660.061	-1508
660.116	-1574
660.171	-1511
660.226	-1334
660.281	-1055
660.336	-1785
660.391	-1169
660.445	-1284
660.500	-1171
660.555	-825
660.610	-1740
660.664	-403
660.719	-1673
660.774	-1170
660.828	-1064
660.883	-660
660.938	-1236
660.992	-2099
661.047	-1012
661.101	-1072
661.156	-2056
661.211	-1390
661.265	-1694
661.320	-765
661.374	-1889
661.429	-866
661.483	-1529
661.538	-1114
661.592	-1631
661.647	-1041
661.701	-1448
661.755	-1512
661.810	-1564
661.864	-1690
661.919	-1458
661.973	-966
662.027	-1109
662.081	-2095
662.136	-2120
662.190	-759
662.244	-358
662.299	-1288
662.353	-1043
662.407	-1438
662.461	-2400
662.515	-1241
662.569	-1927
662.624	-488
662.678	-1914
662.732	-1643
662.786	-1897
662.840	-1116
662.894	-1786
662.948	-1907
663.002	-605
663.056	-1628
663.110	-2160
663.164	-1740
663.218	-1351
663.272	-1335
663.326	-1248
663.380	-1374
663.434	-957
663.488	-2716
663.542	-1784
663.595	-1144
663.649	-1914
663.703	-376
663.757	-2293
663.811	-1780
663.864	-1769
663.918	-738
663.972	-1815
664.026	-1076
664.079	-2189
664.133	-970
664.187	-1619
664.240	-1312
664.294	-1705
664.348	-1349
664.401	-1407
664.455	-1333
664.508	-1800
664.562	-1813
664.615	-1618
664.669	-2236
664.722	-2062
664.776	-909
664.829	-1594
664.883	-2134
664.936	-1987
664.990	-1360
665.043	-1269
665.097	-1573
665.150	-1483
665.203	-1113
665.257	-1793
665.310	-937
665.363	-2173
665.417	-1437
665.470	-1805
665.523	-1006
665.576	-2221
665.630	-1130
665.683	-2203
665.736	-1526
665.789	-395
665.842	-1812
665.895	-1669
665.949	-1763
666.002	-2154
666.055	-1042
666.108	-1356
666.161	-1534
666.214	-1769
666.267	-1066
666.320	-1439
666.373	-422
666.426	-1424
666.479	-1374
666.532	-1312
666.585	-1606
666.638	-1644
666.691	-2221
666.744	-1248
666.796	-1551
666.849	-1877
666.902	-1215
666.955	-2187
667.008	-1305
667.060	-1573
667.113	-1756
667.166	-1554
667.219	-969
667.271	-2079
667.324	-1560
667.377	-2383
667.430	-554
667.482	-1905
667.535	-1137
667.587	-1974
667.640	-1329
667.693	-2228
667.745	-1742
667.798	-788
667.850	-1071
667.903	-1706
667.955	-1435
668.008	-1804
668.060	-1189
668.113	-1808
668.165	-956
668.218	-1668
668.270	-1771
668.322	-1433
668.375	-1566
668.427	-1619
668.479	-2214
668.532	-1584
668.584	-825
668.636	-1493
668.689	-1432
668.741	-1790
668.793	-1354
668.845	-2097
668.898	-1586
668.950	-1721
669.002	-1649
669.054	-1876
669.106	-1585
669.158	-1475
669.211	-1401
669.263	-1553
669.315	-1020
669.367	-1505
669.419	-1773
669.471	-1385
669.523	-956
669.575	-1536
669.627	-601
669.679	-2426
669.731	-1384
669.783	-2019
669.835	-1086
669.886	-1999
669.938	-1755
669.990	-1215
670.042	-1748
670.094	-2013
670.146	-930
670.197	-1420
670.249	-1308
670.301	-1722
670.353	-1321
670.404	-820
670.456	-1183
670.508	-1112
670.560	-590
670.611	-431
670.663	575
670.715	2521
670.766	6690
670.818	4124
670.869	-502
670.921	-882
670.972	-1242
671.024	-2235
671.075	-1084
671.127	-1543
671.178	-1845
671.230	-1208
671.281	-911
671.333	-1582
671.384	-1373
671.436	-1938
671.487	-1399
671.538	-918
671.590	-1393
671.641	-1777
671.692	-1154
671.744	-1552
671.795	-267
671.846	-1829
671.897	-1359
671.949	-1829
672.000	-1215
672.051	-1152
672.102	-1726
672.153	-2889
672.204	-1922
672.256	-1647
672.307	-668
672.358	-1994
672.409	-1578
672.460	-1525
672.511	-1397
672.562	-1533
672.613	-1665
672.664	-1371
672.715	-1281
672.766	-2144
672.817	-1610
672.868	-1939
672.919	-1276
672.970	-1761
673.021	-1039
673.071	-2514
673.122	-758
673.173	-1473
673.224	-935
673.275	-1430
673.326	-1490
673.376	-1973
673.427	-1893
673.478	-1980
673.528	-719
673.579	-2113
673.630	-1611
673.680	-1519
673.731	-1686
673.782	-1408
673.832	-1220
673.883	-1709
673.934	-2113
673.984	-1340
674.035	-1280
674.085	-1251
674.136	-1082
674.186	-2364
674.237	-2433
674.287	-2406
674.338	-969
674.388	-1260
674.438	-1657
674.489	-1294
674.539	-1917
674.589	-1950
674.640	-1208
674.690	-1672
674.740	-2181
674.791	-1700
674.841	-1537
674.891	-1467
674.942	-1863
674.992	-2257
675.042	-2073
675.092	-1522
675.142	-1301
675.193	-2556
675.243	-1582
675.293	-1882
675.343	-2098
675.393	-2676
675.443	-1475
675.493	-1913
675.543	-2505
675.593	-1839
675.643	-1341
675.693	-1999
675.743	-1904
675.793	-1489
675.843	-2131
675.893	-1926
675.943	-1419
675.993	-2204
676.043	-1829
676.093	-1652
676.142	-2014
676.192	-1807
676.242	-1536
676.292	-2317
676.341	-1952
676.391	-2059
676.441	-1416
676.491	-2082
676.540	-2195
676.590	-1707
676.640	-1111
676.689	-1568
676.739	-1214
676.789	-2196
676.838	-1495
676.888	-1872
676.937	-1686
676.987	-1750
677.037	-1304
677.086	-2339
677.136	-1739
677.185	-2599
677.235	-1566
677.284	-2158
677.333	-1962
677.383	-2123
677.432	-1663
677.482	-1611
677.531	-2247
677.580	-2376
677.630	-2028
677.679	-1371
677.728	-1803
677.778	-1967
677.827	-1637
677.876	-2151
677.925	-2081
677.975	-1748
678.024	-1880
678.073	-2319
678.122	-1598
678.171	-2229
678.220	-1837
678.269	-2229
678.319	-1919
678.368	-1551
678.417	-2025
678.466	-1927
678.515	-2157
678.564	-2533
678.613	-1454
678.662	-2067
678.711	-1691
678.760	-1652
678.809	-2045
678.857	-2355
678.906	-1810
678.955	-1964
679.004	-830
679.053	-2537
679.102	-1829
679.151	-1384
679.199	-1638
679.248	-1847
679.297	-1920
679.346	-2369
679.394	-1714
679.443	-1108
679.492	-1268
679.540	-1722
679.589	-1736
679.638	-1130
679.686	-1611
679.735	-2274
679.784	-1318
679.832	-2094
679.881	-2036
679.929	-2012
679.978	-1534
680.026	-1863
680.075	-1321
680.123	-2719
680.172	-1971
680.220	-1426
680.268	-1657
680.317	-1666
680.365	-2504
680.414	-1765
680.462	-1577
680.510	-2088
680.559	-1569
680.607	-1880
680.655	-1910
680.703	-1598
680.752	-2067
680.800	-2324
680.848	-1542
680.896	-1489
680.945	-2212
680.993	-2492
681.041	-2142
681.089	-1889
681.137	-1635
681.185	-2473
681.233	-2352
681.281	-2101
681.308	-2220
681.329	-2324
681.377	-2178
681.425	-1694
681.430	-1720
681.473	-2034
681.521	-1992
681.552	-1627
681.569	-1437
681.617	-2102
681.665	-1385
681.674	-1382
681.713	-1393
681.761	-1442
681.796	-2205
681.809	-2503
681.857	-1424
681.904	-1503
681.918	-1601
681.952	-1880
682.000	-1127
682.039	-1634
682.048	-1745
682.096	-1178
682.143	-2247
682.161	-1989
682.191	-1601
682.239	-1390
682.283	-1535
682.286	-1553
682.334	-1754
682.382	-1915
682.405	-1955
682.430	-1985
682.477	-1399
682.525	-1367
682.527	-1375
682.572	-1675
682.620	-2139
682.648	-1711
682.667	-1436
682.715	-1782
682.763	-1919
682.770	-1846
682.810	-1506
682.857	-1827
682.892	-2065
682.905	-2158
682.952	-971
683.000	-1981
683.014	-1683
683.047	-999
683.095	-1077
683.135	-1659
683.142	-1752
683.190	-1341
683.237	-1534
683.257	-1412
683.284	-1291
683.332	-1768
683.379	-1053
683.379	-1052
683.426	-1444
683.473	-1583
683.501	-1506
683.521	-1482
683.568	-1555
683.615	-1584
683.622	-1554
683.662	-1438
683.709	-1012
683.744	-1464
683.757	-1610
683.804	-1112
683.851	-1960
683.865	-1630
683.898	-941
683.945	-1563
683.987	-522
683.992	-393
684.039	-1495
684.086	-1112
684.109	-1129
684.133	-1165
684.180	-1030
684.227	-1098
684.230	-1069
684.274	-703
684.321	-852
684.352	-986
684.368	-1036
684.415	-844
684.462	-1420
684.473	-1418
684.509	-1458
684.556	-705
684.595	-1116
684.603	-1197
684.649	-577
684.696	-1463
684.716	-1225
684.743	-913
684.790	-939
684.837	-1426
684.838	-1422
684.883	-1278
684.930	-571
684.959	-778
684.977	-880
685.023	-1334
685.070	-986
685.081	-1074
685.117	-1494
685.164	-1302
685.202	-1337
685.210	-1311
685.257	-1295
685.303	-947
685.324	-937
685.350	-994
685.396	-445
685.443	-914
685.445	-908
685.490	-690
685.536	-964
685.566	-509
685.583	-261
685.629	-1201
685.675	-871
685.688	-1047
685.722	-1589
685.768	-942
685.809	-369
685.815	-274
685.861	-391
685.908	-672
685.930	-645
685.954	-617
686.000	-1008
686.047	-432
686.052	-437
686.093	-524
686.139	-175
686.173	-541
686.185	-636
686.232	-391
686.278	-396
686.294	-440
686.324	-598
686.370	-940
686.416	-124
686.416	-106
686.463	-770
686.509	-329
686.537	-460
686.555	-519
686.601	-539
686.647	-858
686.658	-805
686.693	-500
686.739	-603
686.779	-223
686.785	-187
686.831	-307
686.877	-639
686.900	-774
686.923	-905
686.969	-536
687.015	-872
687.022	-813
687.061	-374
687.107	-471
687.143	-170
687.153	-64
687.199	-156
687.245	-225
687.264	-268
687.291	-416
687.336	-206
687.382	-842
687.385	-817
687.428	-295
687.474	-611
687.506	-772
687.520	-791
687.565	-529
687.611	112
687.627	-6
687.657	-332
687.702	-153
687.748	-449
687.748	-453
687.794	-26
687.839	19
687.869	279
687.885	318
687.931	-283
687.976	427
687.990	107
688.022	-518
688.067	-326
688.111	-575
688.113	-573
688.158	-324
688.204	-408
688.233	-245
688.249	-201
688.295	-281
688.340	-691
688.354	-605
688.386	-267
688.431	-186
688.474	-57
688.477	-47
688.522	180
688.567	-24
688.595	-165
688.613	-216
688.658	-78
688.703	404
688.716	178
688.749	-513
688.794	-196
688.837	-342
688.839	-332
688.884	-21
688.930	-90
688.958	-38
688.975	-39
689.020	-149
689.065	-216
689.079	-208
689.110	-62
689.155	-91
689.200	151
689.201	159
689.246	135
689.291	-115
689.321	158
689.336	373
689.381	-458
689.426	-32
689.442	-189
689.471	-468
689.516	140
689.561	-222
689.562	-215
689.606	340
689.651	69
689.683	93
689.696	6
689.741	159
689.785	-93
689.804	-140
689.830	52
689.875	81
689.920	-48
689.925	-32
689.965	-70
690.010	-206
690.046	130
690.054	257
690.099	-63
690.144	36
690.166	-28
690.189	-114
690.233	-137
690.278	-152
690.287	-76
690.323	351
690.367	-251
690.408	71
690.412	102
690.457	-282
690.501	109
690.528	99
690.546	162
690.590	38
690.635	-2
690.649	-141
690.680	-437
690.724	-60
690.769	225
690.770	216
690.813	322
690.857	387
690.890	444
690.902	450
690.946	139
690.991	176
691.011	168
691.035	237
691.080	480
691.124	130
691.132	164
691.168	303
691.213	270
691.252	416
691.257	471
691.301	212
691.346	191
691.373	353
691.390	328
691.434	120
691.478	13
691.493	-10
691.522	225
691.567	478
691.611	496
691.614	494
691.655	620
691.699	468
691.734	858
691.743	911
691.787	763
691.831	426
691.855	70
691.875	-120
691.919	404
691.964	74
691.975	147
692.008	504
692.052	394
692.096	776
692.096	762
692.139	789
692.183	793
692.216	751
692.227	759
692.271	1133
692.315	996
692.337	1150
692.359	1132
692.403	459
692.447	333
692.457	215
692.490	373
692.534	754
692.577	955
692.578	966
692.622	390
692.666	197
692.698	276
692.709	337
692.753	90
692.797	166
692.818	-3
692.840	38
692.884	370
692.928	418
692.938	511
692.971	761
693.015	824
693.059	852
693.059	837
693.102	985
693.146	851
693.179	490
693.189	434
693.233	643
693.276	633
693.299	510
693.320	543
693.363	824
693.407	1008
693.420	1083
693.450	1032
693.493	972
693.537	758
693.540	733
693.580	893
693.624	1164
693.660	1237
693.667	1205
693.710	862
693.753	756
693.780	362
693.797	416
693.840	815
693.883	1454
693.901	1508
693.926	1318
693.970	1119
694.013	1454
694.021	1399
694.056	1098
694.099	868
694.141	506
694.142	518
694.185	607
694.229	607
694.261	425
694.272	393
694.315	658
694.358	488
694.381	481
694.401	620
694.444	1025
694.487	1190
694.501	1284
694.530	1337
694.573	1125
694.616	1346
694.621	1320
694.659	1277
694.702	1197
694.741	1059
694.745	1056
694.787	954
694.830	708
694.862	593
694.873	657
694.916	417
694.959	847
694.982	744
695.002	507
695.044	376
695.087	83
695.102	48
695.130	544
695.172	880
695.215	1295
695.222	1351
695.258	1359
695.301	1296
695.342	1272
695.343	1291
695.386	1374
695.428	1061
695.462	1111
695.471	1157
695.514	992
695.556	954
695.582	827
695.599	806
695.641	834
695.684	959
695.701	986
695.726	1084
695.769	909
695.811	1071
695.821	1075
695.854	1119
695.896	1012
695.938	1174
695.941	1154
695.981	1108
696.023	1096
696.061	1016
696.065	1039
696.108	1142
696.150	1166
696.181	1426
696.192	1479
696.235	1290
696.277	1070
696.301	947
696.319	999
696.361	1169
696.404	1353
696.421	1409
696.446	1375
696.488	1155
696.530	898
696.541	869
696.572	1068
696.614	1125
696.656	1378
696.660	1364
696.698	1191
696.740	1154
696.780	1016
696.783	1026
696.825	978
696.867	687
696.900	609
696.909	688
696.951	888
696.992	1286
697.020	1331
697.034	1314
697.076	1379
697.118	1424
697.139	1434
697.160	1395
697.202	1226
697.244	1066
697.259	1046
697.286	1269
697.327	1370
697.369	1601
697.379	1645
697.411	1585
697.453	1363
697.494	1133
697.499	1099
697.536	1111
697.578	1079
697.618	1025
697.620	1045
697.661	1168
697.703	1181
697.738	1314
697.744	1351
697.786	1366
697.828	1397
697.858	1425
697.869	1513
697.911	1723
697.952	1895
697.977	2026
697.994	1888
698.035	1400
698.077	1005
698.097	778
698.118	848
698.160	925
698.201	1049
698.216	1071
698.243	1249
698.284	1484
698.325	1756
698.336	1793
698.367	1698
698.408	1553
698.449	1428
698.455	1391
698.491	1329
698.532	1211
698.573	1090
698.575	1068
698.614	1262
698.656	1465
698.694	1629
698.697	1641
698.738	1513
698.779	1344
698.814	1208
698.820	1238
698.862	1330
698.903	1424
698.933	1467
698.944	1585
698.985	1996
699.026	2398
699.053	2646
699.067	2447
699.172	809
699.292	1980
699.411	1119
699.530	1164
699.650	2141
699.769	1955
699.889	1742
700.008	1760
700.127	1112
700.246	1495
700.366	920
700.485	1316
700.604	1677
700.723	1559
700.843	1679
700.962	1470
701.081	1159
701.200	1488
701.319	1586
701.438	1410
701.557	1943
701.676	2356
701.796	1425
701.915	1741
702.034	752
702.153	1441
702.272	1664
702.391	1770
702.509	1775
702.628	985
702.747	864
702.866	1609
702.985	1083
703.104	574
703.223	747
703.342	1021
703.460	2282
703.579	1517
703.698	2331
703.817	601
703.935	1593
704.054	1621
704.173	1032
704.292	1200
704.410	1106
704.529	1094
704.648	1205
704.766	1204
704.885	1090
705.003	316
705.122	1501
705.240	1845
705.359	1099
705.477	1524
705.596	2475
705.714	1942
705.833	1923
705.951	1380
706.070	1751
706.188	316
706.307	2105
706.425	1725
706.543	1807
706.662	978
706.780	2308
706.898	2433
707.016	2502
707.135	1516
707.253	1224
707.371	1154
707.489	1377
707.608	1909
707.726	1018
707.844	2127
707.962	1078
708.080	1369
708.198	1671
708.316	1531
708.434	1708
708.552	1695
708.670	842
708.788	2311
708.906	2470
709.024	2090
709.142	1984
709.260	1787
709.378	2262
709.496	2068
709.614	2167
709.732	2094
709.850	2018
709.968	2158
710.085	1380
710.203	1635
710.321	1839
710.439	1656
710.556	2186
710.674	1387
710.792	1179
710.910	2259
711.027	1908
711.145	1898
711.263	1522
711.380	1065
711.498	2190
711.615	1390
711.733	1882
711.851	1367
711.968	1595
712.086	1506
712.203	1139
712.321	2042
712.438	1653
712.555	2357
712.673	3169
712.790	2599
712.908	1688
713.025	1954
713.142	2720
713.260	1714
713.377	1570
713.494	2527
713.612	1778
713.729	2827
713.846	1906
713.963	2283
714.081	2311
714.198	2542
714.315	2182
714.432	2051
714.549	2830
714.666	5174
714.783	14739
714.901	41789
715.018	6078
715.135	1802
715.252	2132
715.369	2102
715.486	1142
715.603	2009
715.720	958
715.837	1144
715.953	2551
716.070	2237
716.187	1741
716.304	1809
716.421	2150
716.538	1697
716.655	2153
716.771	2540
716.888	1670
717.005	2192
717.122	1373
717.238	1868
717.355	1589
717.472	2247
717.589	2421
717.705	1431
717.822	1558
717.938	1244
718.055	589
718.172	1345
718.288	1569
718.405	892
718.521	1007
718.638	1507
718.754	3828
718.871	3218
718.987	1848
719.104	1610
719.220	1549
719.336	884
719.453	1214
719.569	1121
719.685	962
719.802	1424
719.918	1344
720.034	1584
720.151	3996
720.267	14374
720.383	4816
720.499	1327
720.616	1429
720.732	3013
720.848	3434
720.964	6013
721.080	4741
721.196	470
721.312	1363
721.428	1507
721.544	984
721.660	2048
721.776	1834
721.892	1096
722.008	1081
722.124	778
722.240	1073
722.356	1752
722.472	1064
722.588	1734
722.704	1353
722.820	1276
722.936	85
723.051	1011
723.167	1224
723.283	1225
723.399	496
723.515	1178
723.630	923
723.746	708
723.862	1459
723.977	554
724.093	305
724.209	1011
724.324	942
724.440	1786
724.555	3730
724.671	854
724.786	262
724.902	351
725.017	717
725.133	1747
725.248	2838
725.364	938
725.479	1238
725.595	514
725.710	701
725.826	640
725.941	1104
726.056	544
726.172	293
726.287	340
726.402	628
726.517	1105
726.633	300
726.748	652
726.863	507
726.978	997
727.093	886
727.208	390
727.324	245
727.439	833
727.554	1428
727.669	909
727.784	522
727.899	423
728.014	1408
728.129	1042
728.244	742
728.359	146
728.474	247
728.589	1327
728.704	146
728.819	180
728.934	719
729.049	992
729.163	1253
729.278	656
729.393	323
729.508	673
729.622	-307
729.737	635
729.852	1037
729.967	-49
730.081	637
730.196	-362
730.311	482
730.425	525
730.540	574
730.655	186
730.769	86
730.884	1000
730.998	126
731.113	161
731.227	1269
731.342	-389
731.456	137
731.571	448
731.685	-358
731.800	-275
731.914	1642
732.028	330
732.143	226
732.257	12
732.371	807
732.486	1140
732.600	3989
732.714	8249
732.829	418
732.943	120
733.057	211
733.171	642
733.285	828
733.399	406
733.514	-219
733.628	971
733.742	1124
733.856	695
733.970	-7
734.084	-383
734.198	532
734.312	798
734.426	831
734.540	1408
734.654	670
734.768	18
734.882	188
734.996	968
735.109	810
735.223	958
735.337	535
735.451	165
735.565	131
735.679	900
735.792	715
735.906	1399
736.020	294
736.134	451
736.247	793
736.361	108
736.475	1101
736.588	347
736.702	1114
736.815	-19
736.929	-31
737.043	-642
737.156	-575
737.270	3
737.383	379
737.497	64
737.610	33
737.723	550
737.837	460
737.950	301
738.064	-252
738.177	187
738.290	11
738.404	534
738.517	257
738.630	620
738.744	261
738.857	640
738.970	207
739.083	-56
739.197	145
739.310	-482
739.423	-237
739.536	-182
739.649	-529
739.762	242
739.875	426
739.988	187
740.102	411
740.215	497
740.328	-595
740.441	-70
740.553	9
740.667	263
740.779	111
740.892	798
741.005	499
741.118	5
741.231	822
741.344	-209
741.457	88
741.569	-1
741.682	282
741.795	187
741.908	80
742.020	25
742.133	-120
742.246	97
742.358	895
742.471	710
742.584	668
742.696	-493
742.809	257
742.922	-539
743.034	19
743.147	-224
743.259	-616
743.372	-223
743.484	21
743.597	260
743.709	153
743.822	-314
743.934	-354
744.046	17
744.159	1266
744.271	385
744.383	164
744.496	465
744.608	1068
744.720	427
744.832	-311
744.945	-762
745.057	-54
745.169	-610
745.281	38
745.393	425
745.506	131
745.618	225
745.730	-174
745.842	380
745.954	-14
746.066	-576
746.178	-1037
746.290	275
746.402	357
746.514	-626
746.626	-703
746.738	-131
746.850	744
746.962	-87
747.074	-88
747.185	-91
747.297	137
747.409	-90
747.521	156
747.633	-165
747.744	23
747.856	-137
747.968	-610
748.080	-495
748.191	-782
748.303	-895
748.414	-360
748.526	-640
748.638	344
748.749	203
748.861	-240
748.972	-151
749.084	445
749.195	-66
749.307	467
749.418	-370
749.530	790
749.641	187
749.753	921
749.864	-470
749.975	-228
750.087	300
750.198	-252
750.310	267
750.421	-518
750.532	208
750.643	-758
750.755	447
750.866	-182
750.977	-118
751.088	1046
751.199	2451
751.310	-101
751.422	-379
751.533	-613
751.644	-646
751.755	123
751.866	-365
751.977	-373
752.088	52
752.199	-470
752.310	-872
752.421	-58
752.532	573
752.643	-153
752.753	-355
752.864	-373
752.975	-802
753.086	-254
753.197	245
753.308	-1
753.418	-494
753.529	-186
753.640	23
753.751	50
753.861	1
753.972	-395
754.083	-915
754.193	-139
754.304	138
754.415	-532
754.525	-391
754.636	-168
754.746	-781
754.857	109
754.967	-79
755.078	-156
755.188	217
755.299	3
755.409	-951
755.520	-132
755.630	92
755.740	170
755.851	876
755.961	-176
756.071	-160
756.182	-397
756.292	-163
756.402	-27
756.512	-325
756.623	-495
756.733	-413
756.843	-82
756.953	66
757.063	-259
757.173	-219
757.283	-13
757.393	-205
757.504	-14
757.614	-138
757.724	-813
757.834	-977
757.944	486
758.053	-781
758.164	-588
758.273	238
758.383	-429
758.493	336
758.603	-766
758.713	203
758.823	-226
758.932	-104
759.042	-239
759.152	118
759.262	-150
759.372	-167
759.481	-625
759.591	-499
759.701	218
759.810	196
759.920	-266
760.029	25
760.139	-743
760.249	741
760.358	319
760.468	-714
760.577	-1108
760.687	-306
760.796	-883
760.906	-208
761.015	895
761.124	-844
761.234	-147
761.343	362
761.453	-505
761.562	-828
761.671	-1283
761.781	132
761.890	-1366
761.999	-627
762.108	-600
762.218	-729
762.327	-996
762.436	347
762.545	-202
762.654	-39
762.763	-325
762.872	-319
762.982	118
763.091	-439
763.200	-296
763.309	-70
763.418	164
763.527	-413
763.635	-358
763.744	947
763.853	-464
763.962	-149
764.071	128
764.180	273
764.289	-273
764.398	-724
764.506	-717
764.615	477
764.724	-1544
764.833	-885
764.941	-476
765.050	-827
765.159	-101
765.268	-199
765.376	-548
765.485	-346
765.593	-88
765.702	844
765.810	-214
765.919	475
766.028	1643
766.136	3561
766.245	8098
766.353	22925
766.461	97334
766.570	192223
766.678	29003
766.787	4560
766.895	1871
767.003	754
767.112	1201
767.220	58
767.328	768
767.437	241
767.545	455
767.653	-193
767.761	-236
767.870	87
767.978	-98
768.086	-1592
768.194	483
768.302	67
768.410	-282
768.518	385
768.626	-66
768.734	82
768.842	22
768.950	373
769.058	-303
769.166	-130
769.274	-3
769.382	665
769.490	1296
769.598	3503
769.706	8085
769.813	30556
769.921	124676
770.029	73105
770.137	4456
770.245	1584
770.352	926
770.460	864
770.568	-41
770.675	167
770.783	145
770.891	152
770.998	-260
771.106	346
771.213	-516
771.321	-459
771.428	596
771.536	-216
771.643	-51
771.751	130
771.858	445
771.966	-18
772.073	-767
772.181	86
772.288	596
772.395	16
772.503	409
772.610	-340
772.717	-1094
772.825	-318
772.932	-554
773.039	-5
773.146	-650
773.253	-129
773.361	-616
773.468	-371
773.575	-423
773.682	-45
773.789	51
773.896	-316
774.003	-259
774.110	-194
774.217	-700
774.324	-355
774.431	-522
774.538	-855
774.645	-231
774.752	231
774.859	762
774.966	258
775.073	-409
775.179	-529
775.286	-933
775.393	-67
775.500	51
775.607	29
775.713	-908
775.820	-161
775.927	723
776.033	-543
776.140	-139
776.247	-59
776.353	-317
776.460	-7
776.566	-565
776.673	-278
776.779	-233
776.886	-1065
776.992	201
777.099	159
777.205	576
777.312	-207
777.418	365
777.524	475
777.631	-308
777.737	-96
777.843	-679
777.950	60
778.056	-138
778.162	164
778.268	-497
778.375	-541
778.481	-281
778.587	-10
778.693	-257
778.799	-504
778.906	-251
779.012	-449
779.118	387
779.224	-238
779.330	-326
779.436	-488
779.542	-1028
779.648	40
779.754	-605
779.860	-9
779.966	280
780.071	887
780.177	-531
780.283	-306
780.389	-221
780.495	-545
780.601	-820
780.706	-1627
780.812	-400
780.918	143
781.024	-473
781.129	-787
781.235	164
781.341	236
781.446	-1362
781.552	-543
781.657	-262
781.763	-487
781.869	-585
781.974	-322
782.080	-564
782.185	397
782.291	-765
782.396	-972
782.501	-383
782.607	58
782.712	-1311
782.818	-878
782.923	-293
783.028	-70
783.134	240
783.239	731
783.344	127
783.449	-189
783.555	-782
783.660	-519
783.765	102
783.870	-561
783.975	-101
784.080	-629
784.185	-659
784.291	-1130
784.396	-282
784.501	-318
784.606	-304
784.711	-248
784.816	-373
784.921	-481
785.026	-838
785.130	51
785.235	-1010
785.340	-231
785.445	-781
785.550	-478
785.655	-576
785.760	-351
785.864	-622
785.969	-710
786.074	-512
786.178	-25
786.283	49
786.388	-525
786.492	-609
786.597	-445
786.702	-1378
786.806	-1141
786.911	-857
787.015	272
787.120	-1014
787.224	-43
787.329	-1287
787.433	-732
787.538	-1390
787.642	-459
787.747	-597
787.851	-342
787.955	-1012
788.060	-106
788.164	-1099
788.268	-586
788.372	-688
788.477	-1059
788.581	-822
788.685	-655
788.789	337
788.894	-740
788.998	-980
789.102	-210
789.206	-393
789.310	-1126
789.414	-236
789.518	-144
789.622	-232
789.726	-730
789.830	-560
789.934	-726
790.038	-514
790.142	-394
790.246	-406
790.350	-599
790.454	-424
790.557	-796
790.661	-1523
790.765	-174
790.869	-651
790.973	-923
791.076	291
791.180	-814
791.284	-1314
791.388	-233
791.491	-572
791.595	-1100
791.698	-1111
791.802	-259
791.906	-351
792.009	-852
792.113	75
792.216	-934
792.320	-495
792.423	-560
792.527	-287
792.630	-661
792.733	-661
792.837	-1238
792.940	5
793.043	-610
793.147	-694
793.250	-972
793.353	200
793.457	-795
793.560	-770
793.663	154
793.766	25
793.869	-1516
793.973	-81
794.076	-947
794.179	-606
794.282	-733
794.385	63
794.488	-603
794.591	-642
794.694	307
794.797	624
794.900	-508
795.003	-44
795.106	-769
795.209	-237
795.312	-969
795.415	-871
795.517	-475
795.620	-879
795.723	-1151
795.826	-781
795.929	-1114
796.031	-739
796.134	-294
796.237	-1446
796.339	-244
796.442	-763
796.545	-1036
796.647	-525
796.750	-601
796.852	-1108
796.955	-468
797.057	-1178
797.160	-1320
797.262	-828
797.365	-111
797.467	-142
797.570	-355
797.672	-375
797.775	-330
797.877	-793
797.979	-366
798.082	-741
798.184	-213
798.286	-709
798.388	-457
798.491	-707
798.593	-937
798.695	-392
798.797	44
798.899	-690
799.001	-940
799.104	-1045
799.206	-903
799.308	-716
799.410	-956
799.512	-443
799.614	-961
799.716	-629
799.818	-123
799.920	-217
800.021	490
800.123	-577
800.225	-17
800.327	-920
800.429	-388
800.531	-134
800.633	-256
800.734	-1535
800.836	-886
800.938	-806
801.039	-541
801.141	-222
801.243	-868
801.344	-898
801.446	-909
801.548	-1209
801.649	-1223
801.751	-279
801.852	-657
801.954	-440
802.055	-672
802.157	-1627
802.258	-657
802.360	-989
802.461	-612
802.563	-979
802.664	-533
802.765	-740
802.867	-1234
802.968	-2494
803.069	-90
803.170	-1101
803.272	-852
803.373	-959
803.474	-876
803.575	-688
803.676	-1811
803.777	-868
803.879	-1371
803.980	-1423
804.081	-90
804.182	-832
804.283	-345
804.384	-1635
804.485	-651
804.586	-128
804.687	475
804.788	-401
804.888	-720
804.989	-675
805.090	-1025
805.191	-1470
805.292	-482
805.393	-1536
805.493	-870
805.594	-1174
805.695	-919
805.796	-469
805.896	-946
805.997	-1181
806.098	-507
806.198	-773
806.299	-1242
806.399	-1734
806.500	-110
806.601	-950
806.701	-1167
806.802	-898
806.902	-848
807.002	-223
807.103	-706
807.203	-191
807.304	130
807.404	-967
807.504	67
807.605	-1786
807.705	-862
807.805	-795
807.906	-871
808.006	-1192
808.106	-428
808.206	-165
808.306	-812
808.406	-892
808.507	-107
808.607	-604
808.707	-927
808.807	-367
808.907	-877
809.007	-193
809.107	-586
809.207	-977
809.307	-1188
809.407	-1476
809.507	-1039
809.607	-1148
809.706	-920
809.806	-899
809.906	-89
810.006	-1045
810.106	-947
810.205	-1029
810.305	-1629
810.405	-387
810.505	-712
810.604	-755
810.704	-850
810.804	-1509
810.903	-1167
811.003	-747
811.102	-457
811.202	-1229
811.301	-977
811.401	-1275
811.500	-399
811.600	-793
811.699	-366
811.799	-1079
811.898	-798
811.997	-839
812.097	-649
812.196	-790
812.295	-660
812.395	-1255
812.494	-848
812.593	-709
812.692	-1561
812.792	-141
812.891	-737
812.990	-1210
813.089	-244
813.188	-438
813.287	-1454
813.386	-443
813.485	-1072
813.584	-1831
813.683	-1048
813.782	-819
813.881	-497
813.980	-1167
814.079	-607
814.178	-852
814.277	-590
814.376	-1801
814.475	-1063
814.574	-907
814.672	-1086
814.771	-1020
814.870	-634
814.969	-864
815.067	-1196
815.166	-1706
815.265	-1425
815.363	-448
815.462	-916
815.560	-734
815.659	-810
815.758	-482
815.856	-181
815.955	-648
816.053	-1074
816.152	-352
816.250	-850
816.348	-1614
816.447	-629
816.545	-89
816.644	-625
816.742	-508
816.840	-1223
816.938	-1134
817.037	-389
817.135	-295
817.233	-614
817.331	-521
817.430	-547
817.528	-413
817.626	-386
817.724	-868
817.822	-1380
817.920	-1329
818.018	563
818.116	3095
818.214	9292
818.312	27394
818.410	40840
818.508	6741
818.606	803
818.704	94
818.802	453
818.900	386
818.997	540
819.095	802
819.193	3317
819.291	7599
819.389	21038
819.486	65371
819.584	64464
819.682	9012
819.779	813
819.877	308
819.975	-151
820.072	-616
820.170	321
820.267	376
820.365	-423
820.462	-1044
820.560	-501
820.657	-698
820.755	-687
820.852	-77
820.949	-398
821.047	-688
821.144	-1262
821.241	-532
821.339	-1181
821.436	-988
821.533	-416
821.631	-107
821.728	-765
821.825	-543
821.922	-442
822.019	213
822.116	767
822.214	-776
822.311	-611
822.408	-580
822.505	-779
822.602	-1158
822.699	-1929
822.796	-1398
822.893	-1437
822.990	-823
823.086	-1266
823.183	-1052
823.280	-883
823.377	-1337
823.474	-291
823.571	-953
823.667	-728
823.764	-1151
823.861	-617
823.958	-868
824.054	319
824.151	-1619
824.248	-520
824.344	-335
824.441	-1234
824.537	-816
824.634	-871
824.731	-1952
824.827	-275
824.924	-1034
825.020	-875
825.116	-921
825.213	-966
825.309	-1112
825.406	-848
825.502	-1276
825.598	-1503
825.695	-721
825.791	-515
825.887	-515
825.983	-1566
826.080	-1651
826.176	-1084
826.272	-783
826.368	-1022
826.464	-1477
826.560	-509
826.656	-1791
826.753	-1112
826.849	-1037
826.945	-911
827.041	-1548
827.137	-1283
827.233	-233
827.328	-1024
827.424	-856
827.520	-49
827.616	-1553
827.712	-1533
827.808	-146
827.904	-1337
827.999	-681
828.095	-975
828.191	-997
828.287	-907
828.382	-662
828.478	-777
828.574	-982
828.669	-912
828.765	-942
828.860	-1003
828.956	-645
829.051	-1526
829.147	-767
829.242	-1390
829.338	-1523
829.433	-490
829.529	-1412
829.624	-682
829.720	-906
829.815	-873
829.910	-1254
830.005	-982
830.101	-541
830.196	-1295
830.291	-1059
830.386	-1480
830.482	-608
830.577	-538
830.672	-2088
830.767	-812
830.862	-740
830.957	-623
831.052	-1050
831.147	-1398
831.242	-1603
831.337	-1181
831.432	-1012
831.527	-1355
831.622	-1211
831.717	-1667
831.812	-463
831.907	-981
832.002	-623
832.097	-1770
832.191	-941
832.286	25
832.381	-758
832.476	-601
832.570	-630
832.665	1041
832.760	1055
832.854	-540
832.949	-1165
833.044	-1431
833.138	-1049
833.233	-870
833.327	-1179
833.422	-681
833.516	-667
833.611	-1338
833.705	-857
833.799	-1471
833.894	-1605
833.988	-636
834.083	-623
834.177	-1291
834.271	-1687
834.365	-944
834.460	-1257
834.554	-1780
834.648	-1252
834.742	-1257
834.836	-1125
834.931	-1170
835.025	-1461
835.119	-840
835.213	-1522
835.307	-977
835.401	-1689
835.495	-1202
835.589	-800
835.683	-941
835.777	-1067
835.871	-944
835.965	-2080
836.059	-1377
836.152	-1263
836.246	-1174
836.340	-902
836.434	61
836.528	-1133
836.621	253
836.715	-1545
836.809	-1278
836.902	-800
836.996	-1116
837.090	-1607
837.183	-463
837.277	-997
837.370	-752
837.464	-1378
837.557	-1722
837.651	-1042
837.744	-878
837.838	-88
837.931	-462
838.025	-946
838.118	-366
838.211	-792
838.305	-428
838.398	-664
838.491	-438
838.584	-332
838.678	-637
838.771	1519
838.864	375
838.957	-1228
839.050	-1173
839.144	-1616
839.237	-979
839.330	-1286
839.423	-1265
839.516	-918
839.609	-667
839.702	37
839.795	-1146
839.888	-1027
839.981	-890
840.073	-1271
840.166	-1132
840.259	-1775
840.352	-632
840.445	-1563
840.538	-892
840.630	-935
840.723	-1107
840.816	-334
840.909	-1747
841.001	-1344
841.094	-542
841.186	116
841.279	-1257
841.372	-1840
841.464	-1027
841.557	-1360
841.649	-1343
841.742	-517
841.834	-1632
841.927	-1517
842.019	-1347
842.111	-846
842.204	-529
842.296	-730
842.388	-819
842.481	-948
842.573	-381
842.665	912
842.758	-164
842.850	-1163
842.942	-1464
843.034	-218
843.126	-1058
843.218	-942
843.310	-467
843.402	2099
843.495	4011
843.587	3288
843.679	-35
843.771	-631
843.862	-614
843.954	-407
844.046	-1088
844.138	-1313
844.230	-1396
844.322	-696
844.414	-559
844.505	-1010
844.597	-1233
844.689	-608
844.781	-678
844.872	-1061
844.964	-1138
845.056	-1043
845.147	-1649
845.239	-1675
845.331	-1521
845.422	-1076
845.514	-1063
845.605	-774
845.697	-2432
845.788	-619
845.880	-1934
845.971	-959
846.063	-953
846.154	-950
846.245	-1233
846.337	-1305
846.428	-1034
846.519	-1047
846.610	-1253
846.702	-532
846.793	-408
846.884	-43
846.975	-2324
847.066	-1882
847.158	-1022
847.249	-1642
847.340	134
847.431	-1894
847.522	-1112
847.613	-610
847.704	-1598
847.795	-1023
847.886	-1218
847.977	-902
848.068	-1490
848.158	-27
848.249	-1090
848.340	-1829
848.431	-832
848.522	-1419
848.612	-1354
848.703	-1485
848.794	-1289
848.885	-1091
848.975	-1116
849.066	-1533
849.157	-1533
849.247	-1107
849.338	-1154
849.428	-619
849.519	156
849.609	2515
849.700	4636
849.790	10250
849.881	5160
849.971	-847
850.061	-1049
850.152	-730
850.242	-1398
850.332	-626
850.423	-1181
850.513	-1566
850.603	-883
850.693	-910
850.784	-1478
850.874	-758
850.964	-803
851.054	-1229
851.144	-1240
851.234	-1102
851.324	-679
851.414	-877
851.505	-521
851.595	-744
851.684	-1253
851.774	-909
851.864	-549
851.954	-1246
852.044	-615
852.134	-1241
852.224	-811
852.314	-654
852.403	-1603
852.493	-999
852.583	-497
852.673	-1904
852.762	-936
852.852	-1630
852.942	-1747
853.031	-1892
853.121	-1232
853.210	-1052
853.300	-884
853.389	-1528
853.479	-849
853.568	-374
853.658	-428
853.747	1391
853.837	2617
853.926	10116
854.015	19748
854.105	36065
854.194	80237
854.283	45858
854.373	3782
854.462	-479
854.551	-1265
854.640	-566
854.729	-1179
854.819	-1274
854.908	-853
854.997	-597
855.086	-1274
855.175	-1452
855.264	-1858
855.353	-1441
855.442	-341
855.531	-1771
855.620	-1410
855.709	-1151
855.798	-939
855.887	-1247
855.975	-1219
856.064	-1047
856.153	-685
856.242	-1395
856.331	-797
856.419	-1585
856.508	-1613
856.597	-787
856.685	-890
856.774	-1544
856.863	-1623
856.951	-1341
857.040	124
857.128	-1166
857.217	-1491
857.305	-990
857.394	-1135
857.482	-1190
857.571	-271
857.659	-1695
857.747	-974
857.836	-1590
857.924	-1028
858.012	-1375
858.101	-1374
858.189	-1783
858.277	-920
858.365	-823
858.454	-186
858.542	-1215
858.630	-1507
858.718	-750
858.806	-1678
858.894	-1596
858.982	-1350
859.070	-950
859.158	-992
859.246	-1433
859.334	-1105
859.422	-1164
859.510	-1127
859.598	-1359
859.686	-1148
859.773	-1084
859.861	-1265
859.949	-1032
860.037	-1576
860.125	-1252
860.212	-1139
860.300	-1062
860.388	-2069
860.475	-1582
860.563	-968
860.651	-1305
860.738	-1625
860.826	-1410
860.913	-1192
861.001	-1355
861.088	-960
861.176	-1366
861.263	-1393
861.350	-717
861.438	-1108
861.525	-843
861.612	-1072
861.700	-1456
861.787	-1022
861.874	-1563
861.962	-1182
862.049	-728
862.136	-1415
862.223	-1333
862.310	-543
862.397	-362
862.484	-1904
862.572	-1731
862.659	-603
862.746	-881
862.833	-469
862.920	-1129
863.007	-1894
863.094	-1153
863.180	-1548
863.267	-1598
863.354	-2352
863.441	-1387
863.528	-869
863.615	-1217
863.701	-891
863.788	-852
863.875	-612
863.961	-1973
864.048	-2050
864.135	-1408
864.221	-1555
864.308	-1580
864.395	-1691
864.481	-1275
864.568	-1689
864.654	-1300
864.741	-1714
864.827	-1805
864.914	-417
865.000	-899
865.086	-1501
865.173	-1101
865.259	-847
865.345	-1250
865.432	-915
865.518	-328
865.604	-346
865.690	-664
865.776	1007
865.863	4693
865.949	10088
866.035	16445
866.121	29972
866.207	51661
866.293	17299
866.379	1329
866.465	-1541
866.551	-1302
866.637	-949
866.723	-1175
866.809	-993
866.895	-1356
866.981	-490
867.066	-1551
867.152	-776
867.238	-1248
867.324	-1336
867.409	-862
867.495	-118
867.581	-1094
867.667	-667
867.752	-1424
867.838	-676
867.923	-383
868.009	-1241
868.094	-980
868.180	-1182
868.266	-1150
868.351	-410
868.436	-666
868.522	-412
868.607	55
868.693	107
868.778	1492
868.863	3959
868.949	519
869.034	-372
869.119	-1117
869.204	-1315
869.290	-1437
869.375	-1492
869.460	-1917
869.545	-1885
869.630	-1011
869.715	-1210
869.800	-975
869.885	-1643
869.970	-1505
870.055	-1067
870.140	-1632
870.225	-1694
870.310	-1619
870.395	-1442
870.480	-1748
870.565	-1671
870.650	-1147
870.734	-1524
870.819	-1095
870.904	-1278
870.989	-1567
871.073	-1134
871.158	-1660
871.243	-1485
871.327	-1327
871.412	-1582
871.496	-1154
871.581	-1235
871.665	-1197
871.750	-664
871.834	-684
871.919	-1230
872.003	-1536
872.088	-619
872.172	-1027
872.257	-1756
872.341	-1191
872.425	-1180
872.509	-2098
872.594	-1952
872.678	-1245
872.762	-1177
872.846	-1466
872.930	-899
873.015	-1693
873.099	-1436
873.183	-2002
873.267	-1056
873.351	-2060
873.435	-1412
873.519	-1254
873.603	-1548
873.687	-1170
873.771	-1121
873.855	-1421
873.938	-1467
874.022	-1836
874.106	-1474
874.190	-1883
874.274	-1597
874.358	-1591
874.383	-1529
874.441	-1387
874.490	-1321
874.525	-1277
874.598	-1285
874.609	-1292
874.692	-1698
874.705	-1608
874.776	-1154
874.813	-1069
874.859	-942
874.920	-1179
874.943	-1280
875.027	-1606
875.028	-1604
875.110	-1607
875.135	-1324
875.194	-646
875.243	-1066
875.277	-1398
875.350	-1548
875.361	-1559
875.444	-823
875.457	-891
875.527	-1375
875.565	-1033
875.611	-534
875.672	-1020
875.694	-1237
875.778	-1492
875.780	-1487
875.861	-1273
875.887	-1213
875.944	-1196
875.994	-1239
876.027	-1130
876.101	-1089
876.111	-1122
876.194	-465
876.209	-538
876.277	-686
876.316	-431
876.360	-247
876.423	-934
876.443	-1137
876.526	-1390
876.530	-1382
876.610	-1176
876.637	-1094
876.693	-982
876.745	-1170
876.776	-1299
876.852	-1139
876.859	-1110
876.942	-1129
876.959	-1015
877.025	-608
877.066	-547
877.108	-571
877.173	-884
877.190	-944
877.273	-422
877.280	-470
877.356	-998
877.387	-697
877.439	-194
877.494	-513
877.522	-704
877.601	-554
877.605	-546
877.688	-808
877.708	-837
877.770	-897
877.815	-900
877.853	-945
877.922	-1089
877.936	-1108
878.018	-737
878.029	-731
878.101	-816
878.136	-1078
878.184	-1343
878.242	-957
878.266	-827
878.349	-735
878.349	-735
878.431	-552
878.456	-608
878.514	-766
878.563	-831
878.596	-943
878.670	-518
878.679	-464
878.761	-1061
878.776	-1007
878.844	-771
878.883	-823
878.926	-702
878.990	-458
879.008	-431
879.091	-585
879.097	-602
879.173	-1092
879.203	-897
879.255	-370
879.310	-615
879.338	-680
879.417	-355
879.420	-353
879.502	-130
879.523	-257
879.584	-773
879.630	-1192
879.667	-1373
879.736	-1076
879.749	-1034
879.831	-1095
879.843	-953
879.913	7
879.949	-372
879.995	-989
880.056	-1225
880.077	-1221
880.159	-448
880.162	-435
880.241	-379
880.269	-266
880.323	105
880.375	154
880.405	243
880.482	614
880.487	613
880.569	955
880.588	1200
880.651	2499
880.694	1916
880.733	1565
880.801	1433
880.815	1092
880.896	227
880.907	61
880.978	-234
881.013	-250
881.060	-280
881.120	-696
881.142	-845
881.224	-657
881.226	-671
881.305	-835
881.332	-574
881.387	45
881.438	-54
881.469	-300
881.545	-897
881.550	-898
881.632	-264
881.651	-243
881.713	-533
881.757	-562
881.795	-399
881.863	-198
881.876	-250
881.958	-1028
881.969	-1058
882.039	-470
882.075	-260
882.121	-351
882.181	-247
882.202	-93
882.284	411
882.287	445
882.365	739
882.393	460
882.446	621
882.499	1226
882.528	1034
882.605	-21
882.609	-51
882.690	-155
882.711	-341
882.771	-768
882.817	-742
882.853	-496
882.923	-532
882.934	-548
883.015	-323
883.029	-296
883.096	-352
883.135	-389
883.177	-309
883.241	-265
883.258	-240
883.339	143
883.347	128
883.420	-220
883.453	-191
883.501	-94
883.558	-272
883.583	-338
883.663	-466
883.664	-469
883.744	-225
883.770	-227
883.825	-367
883.876	-696
883.906	-584
883.981	-16
883.987	-0
884.068	14
884.087	32
884.149	-295
884.193	-623
884.230	-545
884.298	-221
884.310	-166
884.391	16
884.404	48
884.472	14
884.510	-73
884.552	-190
884.615	-118
884.633	-183
884.714	-535
884.721	-596
884.794	-341
884.826	-218
884.875	-449
884.932	-577
884.956	-465
885.036	-274
885.037	-272
885.117	-15
885.143	-151
885.197	-219
885.248	24
885.278	-31
885.354	-310
885.358	-314
885.439	-424
885.459	-486
885.519	-452
885.565	-508
885.599	-410
885.670	220
885.680	225
885.760	-243
885.775	-317
885.840	-251
885.881	-41
885.921	159
885.986	-33
886.001	-69
886.081	84
886.091	97
886.161	-143
886.196	-400
886.241	-315
886.302	44
886.322	-7
886.402	-429
886.407	-448
886.482	-37
886.512	88
886.562	217
886.617	373
886.642	363
886.722	96
886.722	90
886.802	638
886.828	803
886.882	410
886.933	125
886.962	185
887.038	191
887.042	172
887.122	-304
887.143	-431
887.202	-199
887.248	-35
887.281	33
887.353	338
887.361	348
887.441	81
887.458	72
887.521	358
887.563	531
887.601	350
887.668	-177
887.680	-175
887.760	-25
887.773	-7
887.840	-300
887.878	-525
887.919	-217
887.983	349
887.999	322
888.079	132
888.088	99
888.158	-164
888.193	-285
888.238	-300
888.297	-323
888.317	-207
888.397	187
888.402	216
888.476	354
888.507	351
888.556	504
888.612	701
888.635	439
888.715	-468
888.717	-495
888.794	88
888.821	278
888.873	-122
888.926	-530
888.953	-194
889.031	771
889.032	766
889.111	-134
889.135	-412
889.190	-21
889.240	313
889.270	238
889.345	38
889.349	69
889.428	579
889.449	709
889.507	448
889.554	230
889.586	220
889.658	179
889.665	185
889.744	211
889.763	214
889.824	497
889.867	697
889.903	651
889.972	552
890.076	558
890.181	220
890.285	-193
890.390	5
890.494	-208
890.599	-368
890.703	892
890.807	401
890.912	119
891.016	421
891.120	223
891.224	-479
891.329	1050
891.433	617
891.537	-33
891.641	323
891.745	157
891.849	633
891.953	422
892.058	465
892.162	-305
892.266	419
892.370	591
892.474	135
892.578	739
892.682	583
892.786	124
892.889	799
892.993	-161
893.097	-71
893.201	537
893.305	53
893.409	-378
893.512	-728
893.616	1491
893.720	-554
893.824	52
893.927	61
894.031	4
894.135	-90
894.238	855
894.342	-198
894.445	-280
894.549	-427
894.652	484
894.756	-294
894.859	-180
894.963	-420
895.066	303
895.170	-100
895.273	-42
895.377	419
895.480	58
895.583	-68
895.687	667
895.790	-511
895.893	-378
895.997	538
896.100	424
896.203	-198
896.306	-492
896.409	-144
896.513	238
896.616	-64
896.719	-374
896.822	326
896.925	1258
897.028	-98
897.131	-189
897.234	-332
897.337	-85
897.440	-712
897.543	660
897.646	-232
897.749	-462
897.852	80
897.954	352
898.057	-617
898.160	-250
898.263	1477
898.366	447
898.468	-362
898.571	576
898.674	-732
898.776	128
898.879	-40
898.982	386
899.084	-168
899.187	738
899.290	-322
899.392	51
899.495	-212
899.597	-441
899.700	-3
899.802	286
899.904	-89
900.007	1496
900.109	1846
900.212	-398
900.314	-493
900.416	678
900.519	-87
900.621	-36
900.723	-452
900.826	163
900.928	-217
901.030	-294
901.132	-408
901.234	116
901.336	20
901.439	-116
901.541	-402
901.643	-441
901.745	-92
901.847	-521
901.949	224
902.051	-274
902.153	40
902.255	111
902.357	412
902.459	-477
902.560	281
902.662	-340
902.764	-483
902.866	153
902.968	-82
903.070	910
903.171	117
903.273	462
903.375	57
903.477	545
903.578	-162
903.680	-180
903.781	446
903.883	413
903.985	112
904.086	823
904.188	-349
904.289	-220
904.391	37
904.492	239
904.594	494
904.695	1367
904.796	234
904.898	38
904.999	370
905.100	1026
905.202	132
905.303	45
905.404	-34
905.506	614
905.607	57
905.708	1014
905.809	402
905.910	79
906.012	-343
906.113	951
906.214	144
906.315	865
906.416	112
906.517	-222
906.618	438
906.719	162
906.820	544
906.921	690
907.022	-325
907.123	-166
907.224	-469
907.325	-118
907.425	-134
907.526	-341
907.627	-820
907.728	568
907.828	-834
907.929	-84
908.030	-196
908.131	-580
908.231	-773
908.332	183
908.433	-633
908.533	50
908.634	-249
908.734	182
908.835	375
908.935	352
909.036	368
909.136	1202
909.237	-57
909.337	-312
909.438	-839
909.538	5
909.638	-322
909.739	14
909.839	-738
909.939	308
910.040	-711
910.140	224
910.240	-436
910.340	-370
910.440	95
910.541	251
910.641	-211
910.741	261
910.841	534
910.941	147
911.041	111
911.141	759
911.241	-838
911.341	7
911.441	-457
911.541	476
911.641	57
911.741	-272
911.841	112
911.941	315
912.040	-213
912.140	110
912.240	-763
912.340	-614
912.440	-282
912.539	447
912.639	-211
912.739	-203
912.838	-859
912.938	4
913.038	-45
913.137	336
913.237	-354
913.336	-627
913.436	-663
913.535	-442
913.635	694
913.734	-26
913.834	-464
913.933	771
914.033	-342
914.132	184
914.231	-203
914.331	-14
914.430	-524
914.529	87
914.629	-86
914.728	310
914.827	-151
914.926	-443
915.025	-380
915.125	-435
915.224	-272
915.323	423
915.422	-692
915.521	570
915.620	699
915.719	-312
915.818	-349
915.917	7
916.016	-412
916.115	-653
916.214	-524
916.313	342
916.412	-822
916.510	312
916.609	-730
916.708	4
916.807	-148
916.906	-336
917.004	-72
917.103	43
917.202	-194
917.301	640
917.399	631
917.498	-545
917.596	-71
917.695	580
917.794	-786
917.892	344
917.991	-111
918.089	-184
918.188	52
918.286	982
918.384	441
918.483	426
918.581	527
918.680	354
918.778	-80
918.876	324
918.975	-610
919.073	12
919.171	-502
919.269	-15
919.368	-510
919.466	66
919.564	414
919.662	-399
919.760	37
919.858	143
919.956	-149
920.054	97
920.153	-481
920.251	142
920.349	396
920.446	511
920.544	-563
920.642	508
920.740	-281
920.838	-255
920.936	298
921.034	175
921.132	110
921.229	224
921.327	802
921.425	421
921.523	-162
921.620	672
921.718	-153
921.816	-217
921.913	-379
922.011	915
922.109	64
922.206	26
922.304	390
922.401	317
922.499	-131
922.596	412
922.694	-217
922.791	-210
922.888	226
922.986	1100
923.083	520
923.181	842
923.278	289
923.375	2
923.473	249
923.570	-167
923.667	-228
923.764	-210
923.861	790
923.959	655
924.056	-807
924.153	76
924.250	741
924.347	421
924.444	557
924.541	1015
924.638	-355
924.735	668
924.832	380
924.929	-405
925.026	-200
925.123	-161
925.220	764
925.317	-178
925.414	451
925.510	1070
925.607	585
925.704	748
925.801	834
925.897	907
925.994	521
926.091	885
926.187	643
926.284	2516
926.381	1942
926.477	2584
926.574	1783
926.670	1840
926.767	3684
926.863	3611
926.960	821
927.056	992
927.153	370
927.249	571
927.346	-95
927.442	-148
927.538	-308
927.635	90
927.731	-227
927.827	473
927.924	72
928.020	454
928.116	-411
928.212	-79
928.308	-862
928.404	1389
928.501	-29
928.597	405
928.693	-327
928.789	632
928.885	140
928.981	166
929.077	689
929.173	534
929.269	-459
929.365	-162
929.461	61
929.557	698
929.652	517
929.748	-289
929.844	-3
929.940	1487
930.036	-578
930.131	-177
930.227	-304
930.323	461
930.419	-412
930.514	604
930.610	-766
930.705	323
930.801	440
930.897	511
930.992	621
931.088	379
931.183	-33
931.279	682
931.374	89
931.470	353
931.565	-63
931.660	-245
931.756	-397
931.851	190
931.946	-53
932.042	-114
932.137	-367
932.232	-500
932.327	-351
932.423	233
932.518	-1
932.613	-68
932.708	-373
932.803	67
932.898	-908
932.994	379
933.089	-156
933.184	797
933.279	-374
933.374	-69
933.469	190
933.563	-52
933.658	-199
933.753	294
933.848	74
933.943	951
934.038	466
934.133	869
934.227	-427
934.322	367
934.417	-101
934.512	440
934.606	-693
934.701	381
934.796	-232
934.890	430
934.985	-210
935.079	256
935.174	-563
935.269	269
935.363	385
935.458	29
935.552	683
935.646	376
935.741	-704
935.835	0
935.930	-722
936.024	60
936.118	-856
936.213	-93
936.307	-210
936.401	83
936.496	-732
936.590	-667
936.684	242
936.778	-270
936.872	230
936.966	-7
937.060	781
937.155	36
937.249	-537
937.343	-477
937.437	367
937.531	-94
937.625	-6
937.719	-321
937.813	-597
937.906	383
938.000	-636
938.094	428
938.188	-334
938.282	627
938.376	450
938.469	327
938.563	261
938.657	1595
938.751	2007
938.844	3514
938.938	1245
939.032	795
939.125	-91
939.219	1090
939.312	1584
939.406	7252
939.500	2395
939.593	1129
939.686	-1051
939.780	-470
939.873	-37
939.967	257
940.060	-391
940.154	561
940.247	235
940.340	93
940.434	-196
940.527	715
940.620	-890
940.713	-485
940.806	-424
940.900	75
940.993	-304
941.086	476
941.179	-155
941.272	109
941.365	-21
941.458	481
941.551	1677
941.644	97
941.737	311
941.830	-65
941.923	-240
942.016	-246
942.109	623
942.202	66
942.295	-360
942.388	-448
942.480	-13
942.573	54
942.666	-369
942.759	-447
942.851	-653
942.944	-219
943.037	-881
943.129	358
943.222	502
943.315	-277
943.407	-1229
943.500	486
943.592	54
943.685	-136
943.777	-866
943.870	462
943.962	-1031
944.055	187
944.147	-888
944.239	-462
944.332	130
944.424	363
944.516	-617
944.609	86
944.701	-689
944.793	156
944.885	91
944.977	-200
945.070	-454
945.162	-219
945.254	-599
945.346	480
945.438	-331
945.530	394
945.622	389
945.714	-731
945.806	54
945.898	208
945.990	-583
946.082	49
946.174	-194
946.266	611
946.358	-491
946.449	5
946.541	-369
946.633	-422
946.725	-172
946.816	5
946.908	-321
947.000	519
947.091	-1296
947.183	572
947.275	1
947.366	-330
947.458	-710
947.549	-7
947.641	165
947.732	-828
947.824	-764
947.915	-275
948.007	-506
948.098	91
948.190	-1330
948.281	-246
948.372	-206
948.464	-171
948.555	-174
948.646	-167
948.737	-139
948.829	240
948.920	187
949.011	503
949.102	-1011
949.193	-561
949.284	-180
949.376	340
949.467	-632
949.558	-714
949.649	-415
949.740	106
949.831	155
949.922	-456
950.013	160
950.104	93
950.194	197
950.285	-438
950.376	-383
950.467	-117
950.558	154
950.649	229
950.739	-44
950.830	-642
950.921	604
951.011	334
951.102	-231
951.193	296
951.283	-1033
951.374	-765
951.464	601
951.555	-552
951.646	-119
951.736	-320
951.826	-327
951.917	-157
952.007	110
952.098	-202
952.188	-311
952.279	-28
952.369	-490
952.459	-688
952.549	360
952.640	-24
952.730	-227
952.820	106
952.910	91
953.001	-422
953.091	-419
953.181	320
953.271	-503
953.361	4
953.451	-249
953.541	799
953.631	-408
953.721	133
953.811	-985
953.901	-288
953.991	-512
954.081	23
954.171	532
954.261	142
954.350	230
954.440	-263
954.530	-556
954.620	550
954.710	537
954.799	596
954.889	-1107
954.979	365
955.068	-223
955.158	99
955.248	-411
955.337	125
955.427	-701
955.516	-124
955.606	310
955.695	-648
955.785	138
955.874	232
955.964	-373
956.053	-656
956.142	-648
956.232	80
956.321	-955
956.410	571
956.500	-606
956.589	-448
956.678	-870
956.767	-872
956.856	-457
956.946	156
957.035	-799
957.124	498
957.213	176
957.302	-236
957.391	-242
957.480	-187
957.569	63
957.658	-169
957.747	-844
957.836	54
957.925	169
958.014	-902
958.103	-712
958.192	777
958.280	-1035
958.369	121
958.458	-102
958.547	-571
958.635	-1025
958.724	504
958.813	-9
958.901	-396
958.990	-949
959.079	331
959.167	-498
959.256	207
959.344	-852
959.433	-459
959.521	-479
959.610	893
959.698	-249
959.787	-45
959.875	-318
959.964	846
960.052	-26
960.140	716
960.228	63
960.317	-65
960.405	-781
960.493	-4
960.581	-900
960.670	280
960.758	-274
960.846	195
960.934	-97
961.022	910
961.110	-380
961.198	186
961.286	-75
961.374	-213
961.462	174
961.550	-775
961.638	-144
961.726	-34
961.814	-407
961.902	-483
961.990	-657
962.078	254
962.165	-535
962.253	141
962.341	-549
962.429	-201
962.516	27
962.604	-643
962.692	548
962.779	409
962.867	-425
962.955	408
963.042	9
963.130	465
963.217	-325
963.305	-215
963.392	-314
963.480	-194
963.567	107
963.654	170
963.742	614
963.829	1985
963.917	4025
964.004	1161
964.091	350
964.178	360
964.266	-537
964.353	20
964.440	-170
964.527	144
964.614	-1141
964.701	466
964.789	-56
964.876	586
964.963	-142
965.050	400
965.137	-567
965.224	-572
965.311	-953
965.398	249
965.485	686
965.571	438
965.658	-1030
965.745	-282
965.832	-485
965.919	-449
966.006	-705
966.092	-351
966.179	-656
966.266	222
966.352	-674
966.439	559
966.526	-775
966.612	262
966.699	8
966.786	-217
966.872	-514
966.959	280
967.045	-341
967.132	-204
967.218	-817
967.304	736
967.391	310
967.477	461
967.564	1221
967.650	1962
967.736	883
967.822	495
967.909	-67
967.995	-366
968.081	-745
968.167	-461
968.254	-247
968.340	-31
968.426	-1511
968.512	610
968.598	-549
968.684	-116
968.770	882
968.856	96
968.942	-218
969.028	628
969.114	677
969.200	-141
969.286	128
969.372	528
969.457	-141
969.543	-372
969.629	-624
969.715	44
969.801	15
969.886	707
969.972	344
970.058	-360
970.143	-941
970.229	568
970.315	186
970.400	-343
970.486	52
970.571	465
970.657	284
970.742	471
970.828	272
970.913	570
970.999	-487
971.084	-417
971.169	50
971.255	-235
971.340	-390
971.425	-8
971.511	140
971.596	573
971.681	7
971.766	157
971.852	240
971.937	205
972.022	138
972.107	134
972.192	-402
972.277	174
972.362	-586
972.447	-521
972.532	-379
972.617	-895
972.702	-99
972.787	120
972.872	-6
972.957	151
973.042	-864
973.126	-952
973.211	-155
973.296	344
973.381	-199
973.466	-1331
973.550	-163
973.635	-647
973.720	-1163
973.804	-520
973.889	-549
973.973	-296
974.058	583
974.143	458
974.227	-148
974.312	101
974.396	-181
974.481	-411
974.565	-964
974.649	-805
974.734	-129
974.818	120
974.902	-594
974.987	-728
975.071	-936
975.155	652
975.240	-127
975.324	-470
975.408	-675
975.492	-742
975.576	-640
975.660	-569
975.744	-880
975.829	-367
975.913	-237
975.997	-673
976.081	-1332
976.165	448
976.249	-265
976.333	255
976.416	-807
976.500	-478
976.584	-96
976.668	-172
976.752	-617
976.836	-803
976.919	-824
977.003	-706
977.087	-287
977.171	-216
977.254	-463
977.338	-613
977.422	-316
977.505	-250
977.589	-884
977.672	-1449
977.756	-916
977.839	53
977.923	-867
978.006	339
978.090	324
978.173	-1259
978.257	-319
978.340	143
978.423	631
978.507	-867
978.590	-851
978.673	-49
978.756	232
978.840	-443
978.923	-408
979.006	-332
979.089	-1231
979.172	-96
979.255	-440
979.338	-627
979.422	-563
979.505	-591
979.588	-752
979.671	-957
979.754	-1026
979.836	-625
979.919	-617
980.002	-504
980.085	-164
980.168	-1119
980.251	-422
980.334	-146
980.416	-972
980.499	-628
980.582	-403
980.665	-1572
980.747	-793
980.830	-900
980.912	-362
980.995	-598
981.078	-834
981.160	-934
981.243	-901
981.325	-321
981.408	-123
981.490	-938
981.573	-1821
981.655	-959
981.738	-330
981.820	-920
981.902	-501
981.984	-504
982.067	-1270
982.149	-554
982.231	-499
982.314	-546
982.396	-319
982.478	-422
982.560	-869
982.642	-543
982.724	-1412
982.807	-779
982.888	-706
982.971	-94
983.053	-1359
983.135	-1001
983.216	-913
983.298	-353
983.380	-1422
983.462	-368
983.544	-830
983.626	-577
983.708	-1744
983.790	-512
983.871	-1202
983.953	-677
984.035	-515
984.117	-930
984.198	-857
984.280	-353
984.362	-741
984.443	-924
984.525	-1404
984.606	-934
984.688	-1049
984.769	-1206
984.851	-742
984.932	-613
985.014	-1141
985.095	-500
985.177	-1341
985.258	-1525
985.339	-1663
985.421	-51
985.502	-1314
985.583	-1480
985.664	-325
985.746	-259
985.827	-2527
985.908	-92
985.989	-480
986.070	-358
986.151	-407
986.232	-1531
986.313	-503
986.395	37
986.476	-345
986.557	-230
986.637	-1432
986.718	-1256
986.799	-1009
986.880	-538
986.961	-1102
987.042	-328
987.123	-1067
987.204	-574
987.284	-1135
987.365	-721
987.446	-1596
987.526	-823
987.607	-1155
987.688	203
987.768	-1061
987.849	-329
987.930	-1179
988.010	-1075
988.091	-415
988.171	-1586
988.252	-1296
988.332	-877
988.413	-837
988.493	-523
988.573	-1347
988.654	60
988.734	-800
988.814	-1245
988.895	-615
988.975	-532
989.055	-1241
989.135	-876
989.216	-784
989.296	-830
989.376	-1086
989.456	-1153
989.536	-1082
989.616	-514
989.696	-1446
989.776	-820
989.856	-1042
989.936	-1053
990.016	-821
990.096	-72
990.176	-987
990.256	-937
990.336	-1470
990.416	-653
990.495	-1901
990.575	32
990.655	-617
990.735	-544
990.814	-1224
990.894	-1271
990.974	-1364
991.053	-303
991.133	-1346
991.213	-597
991.292	-1594
991.372	-388
991.451	-1253
991.531	-894
991.610	-1284
991.690	-679
991.769	-827
991.849	-872
991.928	-922
992.007	-1446
992.087	-1488
992.166	-862
992.245	-1000
992.324	-1310
992.404	-610
992.483	-1719
992.562	-786
992.641	-800
992.720	-1066
992.799	-447
992.879	-1299
992.958	-1371
993.037	-777
993.116	-1890
993.195	-1148
993.274	-1970
993.353	-792
993.432	-854
993.510	-883
993.589	-954
993.668	-1685
993.747	-1069
993.826	-1514
993.904	-896
993.983	-1618
994.062	-1348
994.141	-170
994.219	-1187
994.298	-2010
994.377	-872
994.455	-753
994.534	-1217
994.612	-943
994.691	-1537
994.769	-1368
994.848	-1239
994.926	-2129
995.005	-813
995.083	-2032
995.161	-500
995.240	-1953
995.318	-974
995.397	-1487
995.475	-1566
995.553	-1272
995.631	-1725
995.710	-861
995.788	-1542
995.866	-2206
995.944	-859
996.022	-2040
996.100	-1314
996.178	-868
996.256	-1837
996.334	-439
996.412	-804
996.490	-2033
996.568	-1002
996.646	-1440
996.724	-605
996.802	-1421
996.880	-675
996.958	-1492
997.036	-1076
997.113	-2459
997.191	-865
997.269	-838
997.346	-1102
997.424	-775
997.502	-2034
997.579	-1447
997.657	-1642
997.735	-1686
997.812	-836
997.890	-2199
997.967	-1623
998.045	-1315
998.122	-1476
998.200	-780
998.277	-1839
998.354	-1494
998.432	-2254
998.509	-851
998.586	-1527
998.664	-1283
998.741	-743
998.818	-894
998.896	-1569
998.973	-712
999.050	-1553
999.127	-1346
999.204	-1114
999.281	-1633
999.358	-541
999.435	-1118
999.512	-1495
999.589	-1139
999.666	-267
999.743	-1043
999.820	-1387
999.897	-1703
999.974	-1458
1000.051	-1070
1000.128	-2442
1000.205	-1884
1000.281	-1025
1000.358	-2373
1000.435	-1034
1000.512	-2185
1000.588	-720
1000.665	-1927
1000.741	-1263
1000.818	-1531
1000.895	-490
1000.971	-1288
1001.048	-1189
1001.124	-1406
1001.201	-878
1001.277	-1628
1001.354	-909
1001.430	-1328
1001.507	-1562
1001.583	-1320
1001.659	-1059
1001.736	-1571
1001.812	-829
1001.888	-1116
1001.964	-1633
1002.041	-1797
1002.117	-1514
1002.193	-1056
1002.269	-1475
1002.345	-1117
1002.421	-1516
1002.497	-1647
1002.573	-1349
1002.649	-1245
1002.725	-1554
1002.801	-2178
1002.877	-560
1002.953	-1599
1003.029	-1137
1003.105	-1212
1003.181	-1482
1003.257	-1759
1003.333	-1225
1003.408	-2051
1003.484	-1723
1003.560	-2207
1003.636	-1772
1003.711	-1676
1003.787	-1304
1003.862	-2011
1003.938	-1484
1004.014	-1321
1004.089	-1272
1004.165	-2216
1004.240	-856
1004.316	-1543
1004.391	-2003
1004.467	-851
1004.542	-1967
1004.617	-1491
1004.693	-1329
1004.768	-2608
1004.844	-1625
1004.919	-1312
1004.994	-1507
1005.069	-1993
1005.145	-750
1005.220	-1108
1005.295	-613
1005.370	-1049
1005.445	-533
1005.520	-1235
1005.595	-2258
1005.670	-1033
1005.745	-1203
1005.820	-1206
1005.895	-1857
1005.970	-1743
1006.045	-593
1006.120	-1473
1006.195	-1080
1006.270	-1570
1006.345	-978
1006.419	-1849
1006.494	-1372
1006.569	-1403
1006.644	-1137
1006.718	-1360
1006.793	-1304
1006.868	-1631
1006.942	-1276
1007.017	-1479
1007.092	-957
1007.166	-2428
1007.241	-967
1007.315	-2302
1007.390	-1004
1007.464	-1328
1007.539	-1050
1007.613	-1666
1007.687	-1131
1007.762	-1246
1007.836	-1535
1007.910	-731
1007.984	-1159
1008.059	-1829
1008.133	-1010
1008.207	-2557
1008.281	-818
1008.356	-1838
1008.430	-1657
1008.504	-2392
1008.578	-2336
1008.652	-2163
1008.726	-1582
1008.800	-1310
1008.874	-1656
1008.948	-1627
1009.022	-1904
1009.096	-875
1009.170	-2060
1009.244	-1412
1009.317	-1171
1009.391	-1512
1009.465	-1575
1009.539	-1620
1009.613	-689
1009.686	-2062
1009.760	-1831
1009.834	-2002
1009.907	-1205
1009.981	-2118
1010.054	-1184
1010.128	-1674
1010.201	-416
1010.275	-734
1010.349	-1762
1010.422	-1268
1010.495	-1883
1010.569	-1907
1010.642	-1016
1010.716	-407
1010.789	-1051
1010.862	-1044
1010.936	-1606
1011.009	-762
1011.082	-429
1011.155	-1667
1011.229	-373
1011.302	-1053
1011.375	577
1011.448	-619
1011.521	-805
1011.594	-475
1011.667	-1240
1011.740	-2011
1011.813	-640
1011.886	-1714
1011.959	-1550
1012.032	-670
1012.105	-951
1012.178	-2001
1012.251	-1222
1012.324	-1132
1012.396	-792
1012.469	-1536
1012.542	-801
1012.614	-739
1012.687	-1743
1012.760	-1225
1012.833	-1503
1012.905	-2134
1012.978	-1394
1013.050	-1562
1013.123	-1062
1013.195	-1784
1013.268	-1903
1013.340	-1258
1013.413	-883
1013.485	-1724
1013.558	-1851
1013.630	-1498
1013.702	-1581
1013.775	-1239
1013.847	-984
1013.919	-1193
1013.992	-1735
1014.064	-862
1014.136	-2083
1014.208	-2229
1014.280	-1037
1014.353	-780
1014.425	-1958
1014.497	-919
1014.569	-1067
1014.641	-1125
1014.713	-1284
1014.785	-2136
1014.857	-741
1014.929	-1322
1015.001	-455
1015.072	-1431
1015.144	-1409
1015.216	-1219
1015.288	-763
1015.360	-1866
1015.431	-1572
1015.503	-1708
1015.575	-1722
1015.647	-1454
1015.718	-1374
1015.790	-1946
1015.861	-1535
1015.933	-1073
1016.005	-791
1016.076	-1980
1016.148	-1115
1016.219	-2307
1016.291	-1627
1016.362	-1249
1016.433	-1498
1016.505	-1384
1016.576	-879
1016.647	-940
1016.719	-987
1016.790	-1870
1016.861	-1250
1016.932	-1669
1017.004	-1077
1017.075	-2591
1017.146	-1044
1017.217	-1472
1017.288	-2188
1017.359	-2074
1017.430	-1329
1017.502	-2715
1017.573	-1027
1017.644	-1607
1017.714	-1606
1017.785	-1844
1017.856	-1129
1017.927	-1588
1017.998	-1305
1018.069	-2441
1018.140	-334
1018.210	-1908
1018.281	-945
1018.352	-1867
1018.423	-1422
1018.493	-1816
1018.564	-1427
1018.635	-1569
1018.705	-1217
1018.776	-1877
1018.846	-791
1018.917	-1788
1018.987	-1693
1019.058	-1767
1019.128	-1047
1019.199	-1710
1019.269	-1259
1019.340	-1753
1019.410	-2122
1019.480	-1584
1019.551	-2477
1019.621	-1498
1019.691	-1566
1019.761	-1611
1019.832	-1154
1019.902	-1983
1019.972	-1224
1020.042	-1641
1020.112	-1514
1020.182	-2203
1020.252	-1009
1020.322	-1474
1020.392	-1252
1020.462	-2503
1020.532	-1632
1020.602	-1982
1020.672	-951
1020.742	-1985
1020.812	-934
1020.882	-1642
1020.952	-1504
1021.021	-2067
1021.091	-1850
1021.161	-1356
1021.230	-998
1021.300	-1994
1021.370	-1830
1021.440	-1685
1021.509	-1101
1021.579	-2329
1021.648	-1445
1021.718	-1057
1021.787	-1696
1021.857	-1968
1021.926	-1433
1021.996	-1912
1022.065	-1242
1022.134	-2162
1022.204	-774
1022.273	-1439
1022.342	-1640
1022.412	-1621
1022.481	-951
1022.550	-2151
1022.619	-742
1022.689	-1386
1022.758	-1305
1022.827	-1752
1022.896	-1378
1022.965	-2059
1023.034	-1535
1023.103	-1999
1023.172	-1816
1023.241	-1538
1023.310	-1853
1023.379	-1465
1023.448	-1236
1023.517	-1102
1023.586	-1714
1023.654	-2697
1023.723	-1260
1023.792	-1053
1023.861	-1384
1023.929	-1951
1023.998	-1346
1024.067	-1231
1024.135	-1191
1024.204	-1021
1024.273	-2066
1024.341	-1186
1024.410	-1792
1024.478	-1820
1024.547	-1395
1024.615	-1725
1024.684	-2281
1024.752	-783
1024.820	-1282
1024.889	-1905
1024.957	-1446
1025.026	-1949
1025.094	-1117
1025.162	-2089
1025.230	-1398
1025.299	-2003
1025.367	-1607
1025.435	-1683
1025.503	-857
1025.571	-1139
1025.639	-976
1025.707	-2107
1025.776	-643
1025.844	-2051
1025.912	-1767
1025.979	-1518
1026.047	-1049
1026.115	-1721
1026.183	-1607
1026.251	-2206
1026.319	-1397
1026.387	-2260
1026.454	-1349
1026.522	-1479
1026.590	-766
1026.658	-1681
1026.725	-1239
1026.793	-1694
1026.861	-1364
1026.928	-2399
1026.996	-1184
1027.064	-1556
1027.131	-1623
1027.199	-1594
1027.266	-1360
1027.334	-1295
1027.401	-2130
1027.468	-2179
1027.536	-1202
1027.603	-1448
1027.671	-945
1027.738	-1469
1027.805	-1268
1027.872	-1145
1027.940	-1445
1028.007	-2018
1028.074	-910
1028.141	-1226
1028.208	-1784
1028.275	-1832
1028.342	-1275
1028.409	-2340
1028.477	-1498
1028.544	-1868
1028.610	-1654
1028.678	-2024
1028.744	-1278
1028.811	-1892
1028.878	-812
1028.945	-2393
1029.012	-2291
1029.079	-1834
1029.146	-1440
1029.212	-1603
1029.279	-1860
1029.346	-1596
1029.412	-1704
1029.479	-1706
1029.546	-1629
1029.612	-1821
1029.679	-1132
1029.745	-1612
1029.812	-887
1029.878	-1804
1029.945	-906
1030.011	-1117
1030.078	-1592
1030.144	-916
1030.210	-1450
1030.277	-1634
1030.343	-1032
1030.409	-2237
1030.476	-513
1030.542	-1790
1030.608	-2047
1030.674	-1450
1030.740	-2470
1030.807	-2366
1030.873	-1817
1030.939	-1738
1031.005	-1539
1031.071	-2019
1031.137	-2166
1031.203	-1377
1031.269	-1534
1031.335	-1834
1031.401	-922
1031.467	-2202
1031.533	-826
1031.598	-1522
1031.664	-1349
1031.730	-1798
1031.796	-1430
1031.861	-1281
1031.927	-2057
1031.993	-2222
1032.058	-1262
1032.124	-2301
1032.190	-1764
1032.255	-1311
1032.321	-1213
1032.386	-1486
1032.452	-1361
1032.518	-2016
1032.583	-2178
1032.648	-2012
1032.714	-1595
1032.779	-2298
1032.844	-1837
1032.910	-2022
1032.975	-1906
1033.040	-1496
1033.106	-1635
1033.171	-1230
1033.236	-1398
1033.301	-1638
1033.366	-1973
1033.432	-2760
1033.496	-893
1033.562	-2002
1033.627	-1192
1033.692	-1457
1033.757	-1970
1033.822	-1716
1033.887	-1482
1033.952	-2473
1034.016	-1770
1034.081	-1637
1034.146	-2065
1034.211	-1618
1034.276	-1535
1034.340	-2937
1034.405	-1276
1034.470	-1115
1034.535	-731
1034.599	-1400
1034.664	-1706
1034.729	-1549
1034.793	-1387
1034.858	-1398
1034.922	-1123
1034.987	-1141
1035.051	-1636
1035.116	-2020
1035.180	-1382
1035.245	-2650
1035.309	-2045
1035.373	-1787
1035.437	-2132
1035.502	-2313
1035.566	-1890
1035.630	-1326
1035.695	-1020
1035.759	-1498
1035.823	-2078
1035.887	-2164
1035.951	-1792
1036.015	-1552
1036.079	-2565
1036.143	-1970
1036.208	-1441
1036.271	-1936
1036.336	-1814
1036.399	-2072
1036.463	-1588
1036.527	-2025
1036.591	-1457
1036.655	-1372
1036.719	-1341
1036.783	-1119
1036.846	-908
1036.910	-1402
1036.974	-2243
1037.037	-1488
1037.101	-1965
1037.165	-2696
1037.228	-1774
1037.292	-2328
1037.355	-1722
1037.419	-1870
1037.483	-2187
1037.546	-2238
1037.609	-2031
1037.673	-2379
1037.736	-2390
1037.800	-1859
1037.863	-2244
1037.926	-3051
1037.990	-2723
1038.053	-2742
1038.116	-1930
1038.179	-1782
1038.243	-2760
1038.306	-1813
1038.369	-1988
1038.432	-2778
1038.495	-2651
1038.558	-1707
1038.621	-1432
1038.684	-1919
1038.747	-1782
1038.810	-1678
1038.873	-1343
1038.936	-2822
1038.999	-2293
1039.062	-2184
1039.125	-1658
1039.188	-1782
1039.250	-1549
1039.313	-2075
1039.376	-2220
1039.438	-2250
1039.501	-1543
1039.564	-2167
1039.627	-1984
1039.689	-1983
1039.752	-1870
1039.814	-2510
1039.877	-2394
1039.939	-2079
1040.002	-1606
1040.064	-1810
1040.127	-2125
1040.189	-1948
1040.251	-1530
1040.314	-2158
1040.376	-2101
1040.438	-1683
1040.501	-1540
1040.563	-1977
1040.625	-1343
1040.687	-2331
1040.750	-2106
1040.812	-2647
1040.874	-2110
1040.936	-3619
1040.998	-2142
1041.060	-2328
1041.122	-1661
1041.184	-1372
1041.246	-1923
1041.308	-1911
1041.370	-2274
1041.432	-2398
1041.494	-1706
1041.555	-2224
1041.617	-1524
1041.679	-2411
1041.741	-2233
1041.802	-2505
1041.864	-1968
1041.926	-3092
1041.987	-2144
1042.049	-2497
1042.111	-2673
1042.172	-2244
1042.234	-2147
1042.295	-2681
1042.357	-1613
1042.418	-2096
1042.480	-1742
1042.541	-2584
1042.603	-2329
1042.664	-2116
1042.725	-2142
1042.786	-2267
1042.848	-2329
1042.909	-2080
1042.970	-1528
1043.031	-2905
1043.093	-2069
1043.154	-2283
1043.215	-2217
1043.276	-2467
1043.337	-2239
1043.398	-2195
1043.459	-1427
1043.520	-2652
1043.581	-2184
1043.642	-2882
1043.703	-1981
1043.764	-2353
1043.825	-1803
1043.886	-2549
1043.947	-1929
1044.007	-2112
1044.068	-1126
1044.129	-2586
1044.189	-1877
1044.250	-2914
1044.311	-2459
1044.371	-2486
1044.432	-2575
1044.493	-2661
1044.553	-2012
1044.614	-2410
1044.674	-1948
1044.735	-2652
1044.795	-1404
1044.856	-2883
1044.916	-973
1044.976	-1945
1045.037	-1665
1045.097	-2401
1045.157	-1995
1045.218	-2078
1045.278	-2098
1045.338	-2811
1045.398	-1823
1045.458	-1997
1045.519	-2193
1045.579	-1702
1045.639	-1749
1045.699	-1875
1045.759	-2655
1045.819	-2598
1045.879	-1978
1045.939	-1553
1045.999	-1623
1046.059	-1960
1046.119	-2034
1046.179	-1943
1046.238	-1435
1046.298	-2411
1046.358	-1688
1046.418	-1978
1046.477	-1716
1046.537	-2307
1046.597	-1611
1046.656	-1700
1046.716	-1773
1046.776	-1199
1046.835	-624
1046.895	-907
1046.954	-694
1047.014	-840
1047.073	133
1047.133	0
