'Start Wavelength	183.833
'End Wavelength	1047.133
'Gate Delay	5.000
'Gate Width (ms)	1.050
'Laser Output Level	0.000
'X Position	0.000
'Y Position	0.000
'Z Position	0.000
'Grid Point Number	1.000
'Shot Number	100.000
183.833	-606.000
183.903	-365.000
183.973	129
184.042	-84
184.112	126
184.182	-443
184.252	-515
184.321	646
184.391	-791
184.461	564
184.531	-411
184.600	-35
184.670	-410
184.740	729
184.809	-520
184.879	171
184.949	283
185.018	846
185.088	-279
185.158	247
185.228	416
185.297	1459
185.367	-218
185.436	809
185.506	-183
185.576	865
185.645	138
185.715	173
185.785	280
185.854	209
185.924	647
185.993	552
186.063	-296
186.133	237
186.202	-825
186.272	373
186.341	-50
186.411	-202
186.481	307
186.550	1497
186.620	499
186.689	77
186.759	-199
186.828	545
186.898	676
186.967	410
187.037	1093
187.106	802
187.176	-114
187.246	573
187.315	-434
187.385	264
187.454	805
187.524	1007
187.593	-28
187.662	851
187.732	486
187.801	670
187.871	718
187.940	274
188.010	-409
188.079	-230
188.149	810
188.218	1155
188.288	865
188.357	449
188.426	152
188.496	1016
188.565	115
188.635	561
188.704	-495
188.773	-167
188.843	637
188.912	389
188.981	367
189.051	462
189.120	-325
189.190	173
189.259	140
189.328	-213
189.398	-246
189.467	-435
189.536	-132
189.606	469
189.675	387
189.744	549
189.813	-334
189.883	598
189.952	-254
190.021	2036
190.091	2661
190.160	1020
190.229	-46
190.298	91
190.368	-361
190.437	129
190.506	-107
190.575	134
190.645	269
190.714	-81
190.783	-287
190.852	297
190.922	210
190.991	82
191.060	-68
191.129	610
191.198	821
191.268	454
191.337	468
191.406	260
191.475	414
191.544	269
191.613	-90
191.683	395
191.752	425
191.821	511
191.890	-150
191.959	506
192.028	-229
192.097	-676
192.166	395
192.236	103
192.305	-76
192.374	27
192.443	262
192.512	662
192.581	-264
192.650	277
192.719	-170
192.788	729
192.857	-161
192.926	128
192.995	297
193.064	1046
193.133	1211
193.202	1624
193.271	361
193.340	1020
193.409	1152
193.478	1476
193.547	2099
193.616	1753
193.685	1064
193.754	669
193.823	-443
193.892	715
193.961	272
194.030	583
194.099	226
194.168	722
194.237	277
194.306	586
194.375	583
194.444	1093
194.513	363
194.582	190
194.651	1310
194.720	144
194.788	32
194.857	504
194.926	631
194.995	708
195.064	348
195.133	322
195.202	569
195.270	947
195.339	173
195.408	112
195.477	538
195.546	511
195.615	562
195.683	1373
195.752	759
195.821	539
195.890	358
195.959	437
196.027	584
196.096	636
196.165	1046
196.234	114
196.303	-171
196.371	437
196.440	640
196.509	307
196.578	-227
196.646	724
196.715	-128
196.784	920
196.853	820
196.921	232
196.990	224
197.059	743
197.127	651
197.196	856
197.265	-109
197.333	406
197.402	214
197.471	653
197.539	918
197.608	1509
197.677	2768
197.745	1139
197.814	2668
197.883	1728
197.951	1749
198.020	1005
198.088	1281
198.157	1297
198.226	3142
198.294	1366
198.363	859
198.431	835
198.500	1487
198.569	2774
198.637	1720
198.706	939
198.774	3867
198.843	3204
198.911	957
198.980	637
199.048	153
199.117	848
199.185	862
199.254	888
199.322	540
199.391	691
199.459	-287
199.528	590
199.596	48
199.665	413
199.733	552
199.802	498
199.870	-193
199.939	1036
200.007	282
200.076	1130
200.144	416
200.213	55
200.281	608
200.349	823
200.418	1887
200.486	769
200.555	322
200.623	720
200.691	314
200.760	778
200.828	647
200.897	1046
200.965	652
201.033	45
201.102	410
201.170	1443
201.238	653
201.307	467
201.375	633
201.443	1351
201.512	651
201.580	686
201.648	-111
201.716	744
201.785	735
201.853	1018
201.921	79
201.990	294
202.058	622
202.126	616
202.194	620
202.263	223
202.331	622
202.399	425
202.467	461
202.536	4449
202.604	1351
202.672	1214
202.740	659
202.808	916
202.877	759
202.945	429
203.013	43
203.081	1150
203.149	687
203.218	514
203.286	650
203.354	872
203.422	530
203.490	590
203.558	-9
203.626	1118
203.695	773
203.763	688
203.831	653
203.899	924
203.967	391
204.035	684
204.103	491
204.171	1330
204.239	885
204.307	1478
204.375	492
204.443	619
204.512	128
204.580	472
204.648	125
204.716	54
204.784	1271
204.852	-118
204.920	333
204.988	659
205.056	970
205.124	477
205.192	232
205.260	980
205.328	386
205.396	768
205.464	1282
205.532	866
205.600	714
205.667	540
205.735	3084
205.803	5596
205.871	1159
205.939	1293
206.007	297
206.075	1197
206.143	679
206.211	977
206.279	578
206.347	982
206.414	120
206.482	633
206.550	589
206.618	1409
206.686	586
206.754	2059
206.822	834
206.889	223
206.957	1445
207.025	1365
207.093	223
207.161	1179
207.229	-29
207.296	1061
207.364	1082
207.432	836
207.500	558
207.567	643
207.635	263
207.703	183
207.771	676
207.839	1146
207.906	556
207.974	1146
208.042	-116
208.109	1622
208.177	1156
208.245	2149
208.313	1584
208.380	2668
208.448	509
208.516	1032
208.583	1315
208.651	2197
208.719	1117
208.786	1135
208.854	582
208.922	730
208.989	862
209.057	960
209.125	308
209.192	690
209.260	258
209.327	1378
209.395	1686
209.463	669
209.530	709
209.598	1161
209.665	401
209.733	766
209.801	413
209.868	551
209.936	817
210.003	2235
210.071	1186
210.138	1041
210.206	1932
210.273	1887
210.341	618
210.408	730
210.476	1342
210.543	669
210.611	1865
210.678	1315
210.746	1153
210.813	1641
210.881	1555
210.948	1644
211.016	858
211.083	560
211.151	1693
211.218	2232
211.285	721
211.353	1055
211.420	1786
211.488	1087
211.555	1456
211.622	2385
211.690	262
211.757	1680
211.825	1660
211.892	1281
211.959	1176
212.027	784
212.094	1110
212.161	1734
212.229	2991
212.296	5879
212.363	17359
212.431	6636
212.498	2676
212.565	1130
212.633	734
212.700	1759
212.767	1424
212.835	1565
212.902	1153
212.969	1451
213.036	1140
213.104	1614
213.171	1878
213.238	1999
213.305	1850
213.373	2176
213.440	1239
213.507	2029
213.574	1682
213.641	849
213.709	552
213.776	2224
213.843	1254
213.910	1624
213.977	1018
214.045	1512
214.112	1085
214.179	1032
214.246	1045
214.313	1426
214.380	1321
214.447	2092
214.515	2040
214.582	2042
214.649	1066
214.716	1408
214.783	519
214.850	1923
214.917	1931
214.984	3704
215.051	2981
215.118	2303
215.185	1434
215.253	1413
215.320	882
215.387	1297
215.454	659
215.521	751
215.588	372
215.655	1141
215.722	1242
215.789	1216
215.856	1414
215.923	420
215.990	173
216.057	724
216.124	597
216.191	925
216.258	986
216.325	1376
216.391	466
216.458	1718
216.525	1923
216.592	3737
216.659	4187
216.726	2861
216.793	4058
216.860	4166
216.927	2497
216.994	1756
217.061	2652
217.127	2343
217.194	2872
217.261	5397
217.328	7396
217.395	5083
217.462	2600
217.529	2215
217.595	840
217.662	1451
217.729	3029
217.796	3500
217.863	1166
217.929	1339
217.996	1146
218.063	874
218.130	1440
218.196	841
218.263	376
218.330	586
218.397	485
218.463	1221
218.530	1219
218.597	3845
218.664	3289
218.730	1710
218.797	948
218.864	218
218.930	702
218.997	734
219.064	1464
219.131	3364
219.197	1269
219.264	457
219.331	1112
219.397	233
219.464	869
219.530	2609
219.597	2244
219.664	1118
219.730	1691
219.797	945
219.864	365
219.930	2242
219.997	4840
220.063	2843
220.130	1631
220.196	1422
220.263	2278
220.330	5338
220.396	11235
220.463	5979
220.529	2599
220.596	2719
220.662	2674
220.729	8936
220.795	7061
220.862	9135
220.928	19037
220.995	17502
221.061	14650
221.128	10648
221.194	3893
221.261	2236
221.327	1054
221.394	838
221.460	1002
221.526	2019
221.593	12518
221.659	8273
221.726	7810
221.792	6836
221.859	3210
221.925	996
221.991	1606
222.058	481
222.124	1486
222.190	2774
222.257	1075
222.323	1138
222.390	-214
222.456	982
222.522	1302
222.589	1016
222.655	294
222.721	925
222.788	581
222.854	664
222.920	493
222.986	374
223.053	85
223.119	1686
223.185	-156
223.251	271
223.318	-204
223.384	985
223.450	53
223.516	-346
223.583	-259
223.649	325
223.715	-29
223.781	479
223.848	99
223.914	676
223.980	947
224.046	447
224.112	-225
224.178	362
224.245	96
224.311	767
224.377	115
224.443	236
224.509	-296
224.575	360
224.641	705
224.708	473
224.774	509
224.840	1158
224.906	803
224.972	393
225.038	-7
225.104	1203
225.170	362
225.236	989
225.302	821
225.368	702
225.434	-127
225.500	633
225.566	692
225.632	622
225.699	1350
225.765	2001
225.831	990
225.897	3345
225.963	1950
226.028	1900
226.094	1682
226.160	2900
226.226	11772
226.292	27974
226.358	10803
226.424	4879
226.490	2176
226.556	2115
226.622	2210
226.688	3625
226.754	7381
226.820	35193
226.886	33371
226.951	8403
227.017	4233
227.083	1980
227.149	2508
227.215	1194
227.281	993
227.347	1436
227.412	1754
227.478	6263
227.544	5204
227.610	1985
227.676	993
227.742	1035
227.807	1206
227.873	1366
227.939	1689
228.005	449
228.070	400
228.136	838
228.202	647
228.268	518
228.333	1505
228.399	1329
228.465	631
228.531	1794
228.596	842
228.662	2294
228.728	1462
228.793	527
228.859	-415
228.925	1565
228.990	983
229.056	886
229.122	841
229.187	2534
229.253	-216
229.319	1164
229.384	575
229.450	672
229.516	-727
229.581	1186
229.647	597
229.712	5123
229.778	4938
229.844	2355
229.909	2184
229.975	2348
230.040	1432
230.106	1878
230.171	1639
230.237	4526
230.302	2790
230.368	990
230.433	427
230.499	1634
230.564	489
230.630	1296
230.695	413
230.761	710
230.826	2276
230.892	597
230.957	556
231.023	844
231.088	880
231.154	517
231.219	2565
231.285	1983
231.350	422
231.415	139
231.481	568
231.546	1155
231.612	246
231.677	259
231.742	1659
231.808	434
231.873	-388
231.938	2993
232.004	2104
232.069	1470
232.135	784
232.200	952
232.265	831
232.330	1079
232.396	523
232.461	571
232.526	450
232.592	850
232.657	1832
232.722	1694
232.788	1086
232.853	565
232.918	214
232.983	628
233.048	1516
233.114	1588
233.179	3629
233.244	3995
233.309	660
233.375	1025
233.440	901
233.505	631
233.570	474
233.635	1131
233.700	1850
233.766	3018
233.831	946
233.896	1341
233.961	1360
234.026	1516
234.091	1256
234.156	1135
234.222	1707
234.287	9796
234.352	6605
234.417	3957
234.482	1890
234.547	1831
234.612	1324
234.677	1636
234.742	8015
234.807	5063
234.872	2477
234.937	1922
235.002	1948
235.067	959
235.132	1838
235.197	1607
235.262	1046
235.327	1264
235.392	1913
235.457	2129
235.522	1350
235.587	1328
235.652	1264
235.717	1799
235.782	1863
235.847	4045
235.912	5015
235.977	4977
236.042	2344
236.107	1955
236.172	2061
236.236	2186
236.301	2280
236.366	3034
236.431	5634
236.496	3399
236.561	8203
236.626	44944
236.691	32186
236.755	9355
236.820	5983
236.885	4912
236.950	3837
237.015	4544
237.079	4636
237.144	12144
237.209	42656
237.274	81930
237.339	26131
237.403	10391
237.468	6028
237.533	4527
237.598	2715
237.662	2951
237.727	4528
237.792	8990
237.856	4669
237.921	2722
237.986	3700
238.050	4387
238.115	13842
238.180	13429
238.245	5272
238.309	3493
238.374	1499
238.438	2936
238.503	937
238.568	2644
238.632	2295
238.697	1225
238.762	4566
238.826	6870
238.891	4121
238.955	2453
239.020	1545
239.085	2772
239.149	260
239.214	1540
239.278	1261
239.343	1719
239.407	1421
239.472	13215
239.536	10391
239.601	3094
239.665	1276
239.730	3610
239.794	10193
239.859	11077
239.923	3713
239.988	2056
240.052	1158
240.117	1551
240.181	1131
240.246	1480
240.310	1603
240.374	6170
240.439	12598
240.503	3986
240.568	4722
240.632	6186
240.696	1930
240.761	1654
240.825	896
240.890	1301
240.954	6099
241.018	11522
241.083	4696
241.147	1326
241.211	2550
241.276	6036
241.340	2890
241.404	1762
241.469	1396
241.533	2259
241.597	898
241.661	1785
241.726	1713
241.790	1292
241.854	1275
241.919	1872
241.983	1127
242.047	659
242.111	1171
242.175	987
242.240	2183
242.304	1402
242.368	1422
242.432	1093
242.496	952
242.561	902
242.625	1069
242.689	1149
242.753	795
242.817	2283
242.881	1139
242.946	1244
243.010	1503
243.074	1406
243.138	2019
243.202	1561
243.266	1781
243.330	2604
243.394	14792
243.458	49927
243.522	15224
243.586	5783
243.651	3345
243.715	2564
243.779	4206
243.843	6301
243.907	5463
243.971	3541
244.035	2885
244.099	1604
244.163	2390
244.227	4679
244.291	5007
244.355	2494
244.419	1719
244.483	2318
244.546	-172
244.610	1261
244.674	2462
244.738	2736
244.802	1428
244.866	1497
244.930	115
244.994	710
245.058	1653
245.122	3393
245.186	3154
245.249	3845
245.313	1782
245.377	2278
245.441	1185
245.505	2046
245.569	1078
245.632	2161
245.696	7430
245.760	3901
245.824	1109
245.888	2058
245.951	2511
246.015	2087
246.079	3175
246.143	9921
246.207	20638
246.270	7190
246.334	3156
246.398	3977
246.461	5817
246.525	4253
246.589	2965
246.653	2555
246.716	3810
246.780	4041
246.844	5243
246.907	2201
246.971	2467
247.035	2079
247.098	2951
247.162	8444
247.226	27741
247.289	11739
247.353	3887
247.416	6847
247.480	3736
247.544	3315
247.607	3066
247.671	3028
247.734	2278
247.798	3058
247.861	7836
247.925	24050
247.989	7815
248.052	3653
248.116	3932
248.179	6259
248.243	36255
248.306	35896
248.370	24693
248.433	7967
248.497	6537
248.560	6304
248.624	9227
248.687	12999
248.751	40410
248.814	19565
248.877	19082
248.941	29797
249.004	48594
249.068	41139
249.131	12702
249.194	6779
249.258	7803
249.321	6247
249.385	4720
249.448	5026
249.511	5269
249.575	8195
249.638	6771
249.701	4265
249.765	5263
249.828	5713
249.891	4476
249.955	4616
250.018	16421
250.081	21523
250.145	8231
250.208	6445
250.271	6534
250.334	6116
250.398	4964
250.461	6240
250.524	9594
250.587	53164
250.651	93621
250.714	25976
250.777	13456
250.840	7664
250.903	7979
250.967	11906
251.030	27538
251.093	12461
251.156	9989
251.219	9103
251.282	13338
251.345	78420
251.409	71789
251.472	36134
251.535	150506
251.598	98745
251.661	30020
251.724	31940
251.787	34126
251.850	94193
251.913	47727
251.976	15073
252.039	10290
252.103	9759
252.166	17561
252.229	47150
252.292	46210
252.355	122825
252.418	44615
252.481	17765
252.544	10916
252.607	12570
252.670	35970
252.733	46652
252.796	120745
252.858	63455
252.921	28063
252.984	15919
253.047	10329
253.110	8619
253.173	14120
253.236	10290
253.299	8300
253.362	7282
253.425	7990
253.488	22627
253.550	12949
253.613	11149
253.676	11058
253.739	5811
253.802	6884
253.865	5786
253.928	5038
253.990	14306
254.053	23990
254.116	13507
254.179	11360
254.242	5934
254.304	9508
254.367	11855
254.430	9035
254.493	13749
254.555	26036
254.618	11588
254.681	4694
254.743	4921
254.806	4463
254.869	16140
254.932	18022
254.994	5662
255.057	4422
255.120	3699
255.182	1720
255.245	3569
255.308	2676
255.370	2443
255.433	1435
255.496	2054
255.558	2269
255.621	2837
255.683	1348
255.746	2952
255.809	1934
255.871	2370
255.934	1900
255.996	1848
256.059	1438
256.121	3038
256.184	8680
256.246	5953
256.309	5690
256.371	3868
256.434	2613
256.496	2240
256.559	2625
256.621	4892
256.684	19630
256.746	69204
256.809	20487
256.871	8091
256.934	5689
256.996	4901
257.059	3777
257.121	2900
257.183	2886
257.246	2551
257.308	2837
257.371	10885
257.433	87417
257.495	78107
257.558	27443
257.620	13414
257.683	6323
257.745	5593
257.807	3445
257.870	4309
257.932	2538
257.994	2216
258.056	2417
258.119	4164
258.181	6446
258.243	3834
258.306	2362
258.368	11057
258.430	10093
258.492	12746
258.555	17404
258.617	4131
258.679	4232
258.741	5824
258.803	2401
258.866	2641
258.928	2903
258.990	1954
259.052	2667
259.114	4461
259.177	3418
259.239	3483
259.301	10282
259.363	6476
259.425	2479
259.487	2403
259.549	2673
259.611	1496
259.674	2485
259.736	12220
259.798	23290
259.860	39825
259.922	30292
259.984	7075
260.046	3979
260.108	3083
260.170	2909
260.232	1460
260.294	2042
260.356	878
260.418	3377
260.480	7369
260.542	7943
260.604	17367
260.666	25264
260.728	5575
260.790	3823
260.852	2590
260.914	2768
260.976	2278
261.038	3491
261.100	20202
261.161	19679
261.223	5315
261.285	9167
261.347	14200
261.409	3917
261.471	3136
261.533	1275
261.595	2306
261.656	5266
261.718	13688
261.780	5338
261.842	3738
261.904	976
261.966	3161
262.027	2710
262.089	5085
262.151	3737
262.213	3049
262.274	6954
262.336	5898
262.398	2622
262.460	5089
262.521	14098
262.583	4851
262.645	2176
262.706	4342
262.768	12439
262.830	6176
262.892	3386
262.953	3656
263.015	26293
263.077	75364
263.138	20663
263.200	8855
263.261	4373
263.323	3346
263.385	1705
263.446	2226
263.508	5855
263.569	4282
263.631	1656
263.693	1514
263.754	1524
263.816	1292
263.877	371
263.939	1204
264.000	1398
264.062	2637
264.123	1553
264.185	399
264.246	1255
264.308	3090
264.369	5798
264.431	1855
264.492	722
264.554	2463
264.615	1156
264.677	1548
264.738	1189
264.800	368
264.861	598
264.922	936
264.984	573
265.045	1202
265.107	2967
265.168	33221
265.229	27998
265.291	4543
265.352	3335
265.413	1825
265.475	984
265.536	1566
265.597	1077
265.659	840
265.720	362
265.781	991
265.843	1041
265.904	6428
265.965	60306
266.026	41571
266.088	8481
266.149	4815
266.210	3123
266.271	1052
266.333	1332
266.394	1861
266.455	742
266.516	1117
266.577	2763
266.639	5511
266.700	1415
266.761	852
266.822	1008
266.883	1786
266.944	885
267.005	1869
267.067	1549
267.128	775
267.189	946
267.250	2111
267.311	172
267.372	405
267.433	1552
267.494	1534
267.555	323
267.616	434
267.677	1860
267.738	623
267.799	2203
267.860	9546
267.921	2445
267.982	1692
268.043	1253
268.104	966
268.165	166
268.226	860
268.287	0
268.348	852
268.409	1422
268.470	43
268.531	838
268.592	-349
268.653	122
268.714	306
268.775	1570
268.836	4611
268.896	5843
268.957	2371
269.018	377
269.079	875
269.140	312
269.201	411
269.262	515
269.322	622
269.383	488
269.444	1896
269.505	1909
269.565	3204
269.626	2083
269.687	1329
269.748	1063
269.809	2302
269.869	3371
269.930	1254
269.991	530
270.051	859
270.112	1056
270.173	926
270.234	730
270.294	1262
270.355	1153
270.416	325
270.476	742
270.537	3717
270.598	8481
270.658	3467
270.719	1730
270.779	2654
270.840	1606
270.901	1599
270.961	1468
271.022	1477
271.082	3970
271.143	3396
271.203	1515
271.264	1426
271.325	1337
271.385	6783
271.446	2739
271.506	1667
271.567	2316
271.627	1511
271.688	1578
271.748	5748
271.809	35963
271.869	60459
271.930	13961
271.990	25120
272.050	52950
272.111	12260
272.171	5732
272.232	5910
272.292	33813
272.352	17974
272.413	8074
272.473	6553
272.534	7051
272.594	4999
272.654	4928
272.715	9691
272.775	4574
272.835	3527
272.896	1270
272.956	2403
273.016	3516
273.077	3617
273.137	2927
273.197	3422
273.257	14870
273.318	38468
273.378	11966
273.438	10804
273.498	26869
273.559	9763
273.619	17578
273.679	48259
273.739	16257
273.799	7917
273.860	15550
273.920	29964
273.980	7000
274.040	4625
274.100	6934
274.160	47612
274.221	44136
274.281	24540
274.341	30894
274.401	19368
274.461	6969
274.521	4563
274.581	22618
274.641	29532
274.701	11135
274.761	5087
274.821	10426
274.882	43600
274.942	51705
275.002	32225
275.062	9447
275.122	5284
275.182	4110
275.242	4732
275.302	7354
275.362	7340
275.421	4755
275.481	18019
275.541	43618
275.601	27647
275.661	12113
275.721	8307
275.781	4238
275.841	2202
275.901	3189
275.961	3228
276.021	2307
276.081	6060
276.140	17155
276.200	7752
276.260	5065
276.320	2948
276.380	3480
276.440	3174
276.499	2088
276.559	1818
276.619	3295
276.679	10563
276.738	8594
276.798	3754
276.858	3833
276.918	4125
276.978	2617
277.037	2734
277.097	4612
277.157	17244
277.216	7759
277.276	3641
277.336	2918
277.395	3474
277.455	3608
277.515	4398
277.574	17990
277.634	39746
277.694	11181
277.753	39906
277.813	32651
277.873	25503
277.932	101694
277.992	33464
278.051	27169
278.111	38656
278.171	14577
278.230	41520
278.290	27664
278.349	9328
278.409	5992
278.468	5148
278.528	4596
278.587	4276
278.647	4175
278.706	16716
278.766	52962
278.825	15037
278.885	7103
278.944	7673
279.004	10868
279.063	11667
279.122	7322
279.182	7353
279.241	7835
279.301	9724
279.360	16095
279.419	79191
279.479	288132
279.538	259612
279.598	59213
279.657	30496
279.716	38891
279.776	72919
279.835	26651
279.894	13851
279.953	10564
280.013	22123
280.072	38727
280.131	28455
280.191	192052
280.250	236804
280.309	50990
280.368	28605
280.428	22774
280.487	12654
280.546	9803
280.605	13451
280.664	17409
280.724	7721
280.783	5279
280.842	3592
280.901	3583
280.960	3957
281.019	3776
281.079	3843
281.138	3630
281.197	5383
281.256	26378
281.315	23223
281.374	5925
281.433	3728
281.492	3960
281.551	2942
281.611	3082
281.670	4648
281.729	3331
281.788	2299
281.847	1919
281.906	2216
281.965	1810
282.024	1105
282.083	1477
282.142	1892
282.201	2807
282.260	10021
282.319	7223
282.378	3313
282.436	2964
282.495	16552
282.554	8526
282.613	3776
282.672	2075
282.731	3903
282.790	3182
282.849	3010
282.908	1511
282.967	2269
283.025	1870
283.084	3096
283.143	8116
283.202	23260
283.261	6510
283.319	3839
283.378	3410
283.437	3549
283.496	6079
283.555	4763
283.613	3372
283.672	2805
283.731	6618
283.790	7854
283.848	3126
283.907	4077
283.966	4754
284.024	4224
284.083	3355
284.142	3740
284.201	3385
284.259	6400
284.318	23867
284.376	22648
284.435	7326
284.494	8119
284.552	7593
284.611	6464
284.670	7683
284.728	8650
284.787	11867
284.845	13884
284.904	13754
284.962	16833
285.021	32110
285.079	112191
285.138	489848
285.197	494404
285.255	161521
285.314	73321
285.372	42541
285.431	28769
285.489	21100
285.547	15124
285.606	11800
285.664	8944
285.723	7605
285.781	7001
285.840	6420
285.898	4905
285.957	3785
286.015	3970
286.073	2984
286.132	4348
286.190	3805
286.248	4433
286.307	5435
286.365	4794
286.423	3672
286.482	3477
286.540	2781
286.598	5520
286.657	3652
286.715	3849
286.773	4232
286.832	5262
286.890	8782
286.948	3815
287.006	3386
287.064	2780
287.123	3181
287.181	3913
287.239	3033
287.297	4093
287.356	10440
287.414	6054
287.472	4254
287.530	3260
287.588	3776
287.646	4168
287.704	5484
287.763	3283
287.821	3820
287.879	4701
287.937	7224
287.995	19763
288.053	134821
288.111	493451
288.169	198074
288.227	56304
288.285	29393
288.343	19747
288.401	13797
288.459	10416
288.517	7844
288.575	5799
288.633	4310
288.691	3622
288.749	3042
288.807	3223
288.865	2233
288.923	2821
288.981	1555
289.039	1270
289.097	1673
289.155	2408
289.213	2168
289.271	2964
289.329	2699
289.386	4628
289.444	4608
289.502	2706
289.560	1655
289.618	1644
289.676	962
289.734	2170
289.791	1844
289.849	2333
289.907	2447
289.965	1817
290.022	1190
290.080	1822
290.138	3048
290.196	1420
290.253	833
290.311	1322
290.369	491
290.427	168
290.484	419
290.542	950
290.600	1248
290.657	823
290.715	2221
290.773	1346
290.830	1638
290.888	963
290.946	721
291.003	1442
291.061	847
291.118	5768
291.176	15972
291.234	4508
291.291	1810
291.349	1156
291.406	1158
291.464	1429
291.521	1410
291.579	-417
291.636	354
291.694	1624
291.751	4674
291.809	2980
291.866	907
291.924	461
291.981	2012
292.039	1927
292.096	976
292.154	1239
292.211	1826
292.268	5163
292.326	5745
292.383	3668
292.441	2145
292.498	2812
292.555	2989
292.613	3863
292.670	2215
292.727	1592
292.785	6793
292.842	23938
292.899	13990
292.957	3925
293.014	2344
293.071	2345
293.129	1554
293.186	2212
293.243	3129
293.300	3287
293.358	1762
293.415	818
293.472	770
293.529	3878
293.586	23215
293.644	70671
293.701	28235
293.758	11258
293.815	7682
293.872	8325
293.929	5132
293.987	4940
294.044	8765
294.101	16378
294.158	10263
294.215	4915
294.272	3081
294.329	3414
294.386	3898
294.443	3171
294.500	1571
294.558	2042
294.615	2261
294.672	13534
294.729	64038
294.786	43189
294.843	16650
294.900	10576
294.957	8222
295.014	6080
295.070	4074
295.127	3171
295.184	2113
295.241	4061
295.298	23201
295.355	53391
295.412	19816
295.469	6897
295.526	6236
295.583	8668
295.640	16418
295.696	37793
295.753	14300
295.810	6099
295.867	4189
295.924	7070
295.981	6141
296.037	4453
296.094	2351
296.151	1945
296.208	1036
296.265	1823
296.321	1713
296.378	3074
296.435	13312
296.492	27540
296.548	16613
296.605	62929
296.662	95642
296.718	32145
296.775	12018
296.832	10515
296.888	19532
296.945	47226
297.002	35661
297.058	11718
297.115	6647
297.172	11381
297.228	64081
297.285	126147
297.341	44792
297.398	14829
297.454	8696
297.511	6803
297.568	5833
297.624	4475
297.681	3482
297.737	2330
297.794	1508
297.850	2544
297.907	1353
297.963	2791
298.020	6194
298.076	24798
298.133	22820
298.189	10463
298.245	24177
298.302	84763
298.358	50874
298.415	19443
298.471	12160
298.527	9293
298.584	8590
298.640	14587
298.697	42406
298.753	33598
298.809	12405
298.866	5606
298.922	4542
298.978	4830
299.035	4650
299.091	4383
299.147	3696
299.203	2968
299.260	2559
299.316	13918
299.372	73172
299.428	77212
299.485	28266
299.541	11936
299.597	8630
299.653	10033
299.710	10186
299.766	5722
299.822	9456
299.878	37404
299.934	45230
299.990	46411
300.046	95229
300.103	48709
300.159	17817
300.215	15838
300.271	15203
300.327	8984
300.383	4775
300.439	4199
300.495	4685
300.551	6521
300.607	20665
300.663	38140
300.719	44809
300.775	64967
300.831	36797
300.887	39092
300.943	29237
300.999	12267
301.055	7788
301.111	6809
301.167	6265
301.223	4346
301.279	3094
301.335	2776
301.391	3603
301.447	4358
301.503	4755
301.559	7118
301.614	7172
301.670	13013
301.726	22896
301.782	14853
301.838	21027
301.894	22706
301.949	65249
302.005	222681
302.061	225982
302.117	99824
302.173	35869
302.228	19005
302.284	17159
302.340	28793
302.396	23527
302.451	20049
302.507	56974
302.563	66528
302.618	33202
302.674	14513
302.730	7238
302.785	5980
302.841	5175
302.897	5351
302.952	10027
303.008	10740
303.064	12821
303.119	14765
303.175	8857
303.230	3829
303.286	2741
303.341	3490
303.397	2701
303.453	2696
303.508	2860
303.564	4787
303.619	16059
303.675	67459
303.730	56848
303.786	22502
303.841	9104
303.897	6988
303.952	8989
304.008	11481
304.063	10417
304.118	18564
304.174	18416
304.229	15030
304.285	7595
304.340	4593
304.372	4274
304.395	4057
304.451	4124
304.463	3844
304.506	2937
304.554	3807
304.562	3968
304.617	10255
304.644	29516
304.672	49637
304.728	79328
304.735	74064
304.783	39806
304.825	20737
304.838	15065
304.894	8108
304.916	7801
304.949	7598
305.004	6830
305.006	6749
305.059	5314
305.097	4182
305.115	3682
305.170	2193
305.188	2526
305.225	3301
305.278	3173
305.280	3177
305.336	3647
305.369	4386
305.391	4884
305.446	6224
305.459	6125
305.501	5781
305.550	5174
305.556	5156
305.612	12822
305.640	29623
305.667	45636
305.722	53840
305.731	51040
305.777	35572
305.821	52991
305.832	57870
305.887	62991
305.912	49224
305.942	30398
305.997	13665
306.002	13038
306.053	8173
306.092	6267
306.108	5642
306.163	4199
306.183	4022
306.218	3704
306.273	3030
306.273	3023
306.328	3214
306.364	4213
306.383	4744
306.438	3187
306.454	3369
306.493	3750
306.545	6466
306.548	6685
306.603	13660
306.635	23077
306.658	30036
306.713	29012
306.725	26172
306.768	14783
306.816	6902
306.823	5951
306.878	4245
306.906	3779
306.933	3408
306.988	3058
306.997	2921
307.043	2187
307.087	2514
307.098	2646
307.152	3120
307.177	3322
307.207	3609
307.262	3817
307.268	3793
307.317	3223
307.358	2950
307.372	3054
307.427	6138
307.448	9682
307.482	15558
307.536	21660
307.538	21364
307.591	12846
307.629	9199
307.646	7511
307.701	4818
307.719	4740
307.756	5490
307.809	7901
307.810	7944
307.865	7129
307.900	6741
307.920	6741
307.975	8332
307.990	10511
308.029	18011
308.080	55052
308.084	59938
308.139	210195
308.170	247838
308.194	261366
308.248	163500
308.261	149515
308.303	83122
308.351	37936
308.358	34682
308.412	20756
308.441	16177
308.467	13265
308.522	10505
308.531	10057
308.576	8176
308.621	7201
308.631	7064
308.686	7712
308.712	8421
308.740	9313
308.795	9243
308.802	9104
308.849	7320
308.892	6424
308.904	6371
308.959	8550
308.982	10110
309.013	13140
309.068	25459
309.072	27953
309.122	65804
309.162	149197
309.177	193116
309.231	377557
309.253	375714
309.286	298397
309.340	155924
309.343	151746
309.395	72358
309.433	35503
309.449	29671
309.504	20792
309.523	19428
309.558	19375
309.613	25814
309.613	25880
309.667	31163
309.703	28526
309.722	25241
309.776	15462
309.793	13455
309.830	10500
309.883	10189
309.885	10274
309.939	19868
309.973	23014
309.994	23662
310.048	19683
310.063	18227
310.102	11608
310.153	5554
310.157	5328
310.211	3388
310.243	2479
310.265	2297
310.320	2271
310.333	2280
310.374	1873
310.423	1438
310.428	1397
310.483	1250
310.513	1056
310.537	996
310.591	1140
310.603	1125
310.646	1239
310.693	1398
310.700	1297
310.754	463
310.783	166
310.808	506
310.862	874
310.873	1043
310.917	1038
310.963	881
310.971	867
311.025	849
311.053	756
311.079	739
311.133	800
311.143	797
311.188	856
311.233	1094
311.242	1126
311.296	1204
311.323	1274
311.350	1279
311.404	1280
311.413	1291
311.458	778
311.503	240
311.512	287
311.567	653
311.593	861
311.621	792
311.675	552
311.683	521
311.729	729
311.772	1020
311.783	1070
311.837	1318
311.862	1462
311.891	1525
311.945	1626
311.952	1648
311.999	803
312.042	28
312.053	114
312.107	607
312.132	845
312.222	924
312.311	635
312.401	876
312.491	802
312.581	1348
312.671	822
312.760	494
312.850	1369
312.940	832
313.030	376
313.119	1064
313.209	1122
313.299	-90
313.389	714
313.478	455
313.568	704
313.658	509
313.747	61
313.837	39
313.927	344
314.016	707
314.106	635
314.195	522
314.285	869
314.375	1222
314.464	608
314.554	314
314.643	412
314.733	755
314.823	395
314.912	333
315.002	784
315.091	1208
315.181	1560
315.270	1123
315.360	1098
315.449	806
315.539	1312
315.628	978
315.718	2380
315.807	9924
315.896	24579
315.986	3237
316.075	2084
316.165	905
316.254	1438
316.344	-132
316.433	1014
316.522	622
316.612	1022
316.701	686
316.790	1195
316.880	1456
316.969	1035
317.058	804
317.148	729
317.237	632
317.326	1100
317.415	85
317.505	2165
317.594	1029
317.683	214
317.772	2939
317.862	19119
317.951	37962
318.040	7350
318.129	6139
318.219	1281
318.308	1423
318.397	1921
318.486	1721
318.575	1858
318.664	2389
318.754	869
318.843	693
318.932	1135
319.021	972
319.110	1663
319.199	3424
319.288	2890
319.377	1491
319.466	713
319.555	528
319.644	2925
319.733	2401
319.822	582
319.911	2625
320.000	4903
320.089	893
320.178	163
320.267	544
320.356	1290
320.445	905
320.534	1679
320.623	811
320.712	-72
320.801	702
320.890	1480
320.979	2066
321.068	1916
321.157	3598
321.245	2574
321.334	2919
321.423	5069
321.512	1233
321.601	1546
321.690	1237
321.779	610
321.867	887
321.956	3282
322.045	864
322.134	2980
322.222	5322
322.311	1909
322.400	1749
322.489	3909
322.577	8290
322.666	2817
322.755	2692
322.843	2307
322.932	1569
323.021	2060
323.110	1235
323.198	602
323.287	1270
323.375	3497
323.464	4988
323.553	1799
323.641	3505
323.730	493
323.819	1116
323.907	4421
323.996	1825
324.084	1073
324.173	2143
324.261	395
324.350	1212
324.438	1687
324.527	982
324.615	1218
324.704	5524
324.792	5653
324.881	1175
324.969	232
325.058	407
325.146	407
325.235	1807
325.323	634
325.412	1341
325.500	559
325.588	101
325.677	-97
325.765	298
325.853	496
325.942	305
326.030	95
326.118	899
326.207	1236
326.295	502
326.383	330
326.472	1174
326.560	1316
326.648	-148
326.737	563
326.825	-368
326.913	142
327.001	451
327.090	888
327.178	744
327.266	707
327.354	3421
327.442	1882
327.531	548
327.619	552
327.707	66
327.795	-49
327.883	507
327.971	17
328.060	-262
328.148	-221
328.236	-4
328.324	539
328.412	193
328.500	274
328.588	1599
328.676	2973
328.764	933
328.852	354
328.940	-119
329.028	676
329.116	661
329.204	1086
329.292	572
329.380	-138
329.468	-192
329.556	-105
329.644	-367
329.732	565
329.820	-124
329.908	-47
329.996	210
330.084	538
330.172	4624
330.259	7621
330.347	1517
330.435	292
330.523	1053
330.611	4056
330.699	1226
330.787	523
330.874	-599
330.962	133
331.050	28
331.138	-111
331.226	289
331.313	-265
331.401	629
331.489	211
331.577	116
331.664	-75
331.752	-158
331.840	-14
331.927	-330
332.015	814
332.103	544
332.190	141
332.278	1252
332.366	798
332.453	141
332.541	67
332.629	-703
332.716	342
332.804	378
332.891	1813
332.979	1390
333.066	646
333.154	585
333.242	1759
333.329	-153
333.417	720
333.504	936
333.592	1334
333.679	2544
333.767	744
333.854	-610
333.942	1312
334.029	1131
334.117	2863
334.204	3787
334.291	994
334.379	1887
334.466	1115
334.554	-212
334.641	417
334.728	356
334.816	2224
334.903	8557
334.990	5562
335.078	925
335.165	493
335.252	256
335.340	321
335.427	2308
335.514	633
335.602	403
335.689	350
335.776	503
335.863	598
335.951	634
336.038	3615
336.125	8290
336.212	3393
336.299	669
336.387	618
336.474	61
336.561	-402
336.648	856
336.735	126
336.822	105
336.910	72
336.997	1354
337.084	3352
337.171	3553
337.258	4576
337.345	1290
337.432	579
337.519	-165
337.606	-98
337.693	619
337.780	1995
337.867	769
337.954	1004
338.041	431
338.128	-167
338.215	551
338.302	1790
338.389	2243
338.476	589
338.563	821
338.650	613
338.737	670
338.824	760
338.911	-83
338.998	743
339.085	-314
339.171	926
339.258	585
339.345	766
339.432	1234
339.519	476
339.606	-413
339.692	662
339.779	-496
339.866	1257
339.953	1027
340.040	-24
340.126	488
340.213	189
340.300	71
340.387	626
340.473	594
340.560	-188
340.647	1852
340.733	5241
340.820	713
340.907	247
340.993	293
341.080	97
341.167	-107
341.253	1532
341.340	771
341.426	549
341.513	320
341.600	78
341.686	155
341.773	1786
341.859	860
341.946	460
342.032	-444
342.119	-518
342.205	70
342.292	886
342.378	742
342.465	859
342.551	749
342.638	2889
342.724	2776
342.811	865
342.897	-199
342.984	352
343.070	-13
343.156	331
343.243	123
343.329	438
343.416	-89
343.502	233
343.588	-307
343.675	566
343.761	137
343.847	743
343.934	4393
344.020	38522
344.106	29871
344.193	2702
344.279	1765
344.365	8161
344.451	2302
344.538	893
344.624	126
344.710	142
344.796	-171
344.882	314
344.969	-207
345.055	994
345.141	-34
345.227	981
345.313	-69
345.399	-162
345.486	-422
345.572	145
345.658	-17
345.744	-24
345.830	298
345.916	-1
346.002	-859
346.088	303
346.174	-202
346.260	710
346.346	-111
346.432	1114
346.518	7090
346.604	7890
346.690	-145
346.776	838
346.862	188
346.948	-1043
347.034	363
347.120	804
347.206	-252
347.292	638
347.378	1314
347.464	7710
347.549	13610
347.635	7766
347.721	1848
347.807	-430
347.893	-644
347.979	-543
348.065	-742
348.150	-211
348.236	-523
348.322	-282
348.408	-71
348.493	1207
348.579	-592
348.665	-482
348.751	33
348.836	-164
348.922	2132
349.008	12642
349.094	7444
349.179	-227
349.265	-173
349.351	64
349.436	-23
349.522	156
349.608	35
349.693	2446
349.779	5043
349.864	517
349.950	251
350.036	21
350.121	141
350.207	198
350.292	-247
350.378	170
350.463	-517
350.549	-231
350.634	-175
350.720	588
350.805	-345
350.891	-269
350.976	-317
351.062	-91
351.147	6
351.233	-822
351.318	3241
351.404	2381
351.489	80
351.574	-559
351.660	-260
351.745	592
351.830	84
351.916	-122
352.001	-133
352.086	4347
352.172	1311
352.257	131
352.342	282
352.428	238
352.513	1888
352.598	7447
352.684	1265
352.769	848
352.854	-528
352.939	630
353.024	-222
353.110	749
353.195	195
353.280	483
353.365	-441
353.450	296
353.536	-140
353.621	938
353.706	36
353.791	756
353.876	-350
353.961	43
354.046	1732
354.131	1630
354.216	1378
354.302	447
354.387	-244
354.472	305
354.557	-12
354.642	342
354.727	216
354.812	699
354.897	-577
354.982	-109
355.067	-406
355.152	-7
355.237	-261
355.321	301
355.406	1676
355.491	4119
355.576	729
355.661	1850
355.746	1903
355.831	7721
355.916	1065
356.001	830
356.085	-478
356.170	-169
356.255	-479
356.340	263
356.425	4302
356.509	23040
356.594	5378
356.679	431
356.764	1094
356.849	2359
356.933	26290
357.018	36126
357.103	3777
357.187	1069
357.272	8
357.357	1448
357.441	729
357.526	770
357.611	525
357.695	-268
357.780	954
357.865	2105
357.949	1880
358.034	27746
358.118	50246
358.203	5351
358.288	658
358.372	617
358.457	6144
358.541	10451
358.626	5807
358.710	4951
358.795	884
358.879	860
358.964	155
359.048	-285
359.133	-471
359.217	361
359.302	1357
359.386	1474
359.470	-150
359.555	-53
359.639	-619
359.724	-278
359.808	-393
359.892	102
359.977	-602
360.061	235
360.145	223
360.230	945
360.314	826
360.398	259
360.483	1787
360.567	2359
360.651	4132
360.735	1129
360.820	18109
360.904	14991
360.988	3456
361.072	634
361.157	687
361.241	-89
361.325	-68
361.409	-316
361.493	194
361.577	108
361.662	635
361.746	4405
361.830	25735
361.914	11450
361.998	966
362.082	1291
362.166	1550
362.250	1896
362.334	2165
362.418	2259
362.502	266
362.586	316
362.671	-103
362.754	-597
362.839	326
362.922	1043
363.006	9999
363.090	30885
363.174	14313
363.258	1581
363.342	874
363.426	1054
363.510	2946
363.594	1401
363.678	-460
363.762	-169
363.846	532
363.929	44
364.013	1063
364.097	1080
364.181	1403
364.265	4711
364.349	6983
364.432	12317
364.516	2147
364.600	1879
364.684	8841
364.767	22698
364.851	4463
364.935	1601
365.019	237
365.102	1238
365.186	394
365.270	2063
365.353	2630
365.437	-121
365.521	-1025
365.604	-751
365.688	758
365.771	-964
365.855	-161
365.939	-266
366.022	1342
366.106	-144
366.189	-616
366.273	-224
366.357	-675
366.440	132
366.524	-103
366.607	-515
366.691	-177
366.774	-308
366.858	842
366.941	1151
367.024	500
367.108	-190
367.191	-239
367.275	53
367.358	-333
367.442	815
367.525	-532
367.608	303
367.692	203
367.775	372
367.858	825
367.942	6673
368.025	2589
368.108	-230
368.192	970
368.275	1574
368.358	-308
368.442	1302
368.525	1146
368.608	1895
368.691	6286
368.775	3738
368.858	279
368.941	1056
369.024	481
369.107	801
369.190	-1308
369.274	-662
369.357	1478
369.440	-116
369.523	77
369.606	-482
369.689	1485
369.772	-894
369.855	186
369.939	-91
370.022	578
370.105	509
370.188	941
370.271	282
370.354	19
370.437	3201
370.520	13675
370.603	9444
370.686	1159
370.769	3610
370.852	7890
370.935	7122
371.018	409
371.100	-903
371.183	560
371.266	-246
371.349	-1088
371.432	200
371.515	-516
371.598	439
371.681	737
371.763	490
371.846	3185
371.929	36021
372.012	23467
372.095	4066
372.177	7991
372.260	7664
372.343	566
372.426	963
372.508	691
372.591	-57
372.674	6471
372.757	7817
372.839	1138
372.922	1735
373.005	1153
373.087	183
373.170	1684
373.253	6622
373.335	9459
373.418	41121
373.500	31840
373.583	11768
373.666	46507
373.748	15456
373.831	454
373.913	285
373.996	783
374.078	2305
374.161	939
374.243	4166
374.326	6864
374.408	3269
374.491	25141
374.573	24704
374.656	2684
374.738	10952
374.821	20633
374.903	42627
374.985	13124
375.068	967
375.150	319
375.233	1955
375.315	1743
375.397	-345
375.480	87
375.562	326
375.644	1195
375.727	12434
375.809	25074
375.891	5751
375.973	781
376.056	859
376.138	1294
376.220	842
376.302	13382
376.385	12912
376.467	2070
376.549	2219
376.631	8358
376.713	11661
376.795	1083
376.878	280
376.960	-383
377.042	-169
377.124	-591
377.206	306
377.288	-339
377.370	235
377.452	-109
377.534	81
377.616	129
377.699	216
377.781	-398
377.863	169
377.945	304
378.027	-515
378.109	-386
378.190	-496
378.272	-255
378.354	-383
378.436	9
378.518	151
378.600	661
378.682	2060
378.764	5531
378.846	480
378.928	640
379.010	447
379.091	189
379.173	-28
379.255	-198
379.337	374
379.419	3555
379.501	4521
379.582	-286
379.664	766
379.746	753
379.828	5597
379.909	5708
379.991	1898
380.073	-303
380.155	-53
380.236	-122
380.318	-290
380.400	419
380.481	1049
380.563	453
380.645	663
380.726	-119
380.808	398
380.889	-480
380.971	-486
381.053	38
381.134	1073
381.216	1964
381.297	3303
381.379	543
381.460	4463
381.542	21405
381.623	5109
381.705	1029
381.786	1001
381.868	2361
381.949	20233
382.031	32821
382.112	5961
382.193	319
382.275	1823
382.356	6776
382.438	10710
382.519	25467
382.600	16273
382.682	8044
382.763	14723
382.844	13721
382.926	16431
383.007	3669
383.088	10323
383.170	49851
383.251	24789
383.332	12301
383.413	14260
383.495	2939
383.576	1640
383.657	7219
383.738	53560
383.820	63469
383.901	10130
383.982	13287
384.063	15564
384.144	2588
384.225	249
384.306	781
384.388	619
384.469	239
384.550	482
384.631	209
384.712	443
384.793	75
384.874	1364
384.955	5515
385.036	1298
385.117	-315
385.198	873
385.279	219
385.360	353
385.441	430
385.522	4039
385.603	10848
385.684	2529
385.765	462
385.846	2911
385.927	29297
386.008	13574
386.089	652
386.169	653
386.250	-563
386.331	361
386.412	945
386.493	3108
386.574	994
386.654	327
386.735	-779
386.816	417
386.897	-464
386.977	634
387.058	246
387.139	1674
387.220	4706
387.300	1962
387.381	136
387.462	-729
387.542	948
387.623	-111
387.704	3217
387.784	12858
387.865	4066
387.946	644
388.026	-544
388.107	-1647
388.187	425
388.268	645
388.349	-196
388.429	888
388.510	4804
388.590	16853
388.671	5580
388.751	2759
388.832	3766
388.912	484
388.993	-905
389.073	494
389.154	443
389.234	-717
389.314	1335
389.395	-19
389.475	3041
389.556	3256
389.636	1326
389.716	651
389.797	99
389.877	4267
389.957	4904
390.038	1433
390.118	-778
390.198	2441
390.279	3576
390.359	849
390.439	8581
390.519	24155
390.600	6412
390.680	-42
390.760	815
390.840	330
390.920	288
391.001	-324
391.081	662
391.161	-300
391.241	-385
391.321	853
391.401	388
391.481	-364
391.562	-1002
391.642	401
391.722	224
391.802	1814
391.882	260
391.962	3783
392.042	1818
392.122	1431
392.202	3651
392.282	4445
392.362	1068
392.442	949
392.522	433
392.602	1456
392.682	3181
392.762	6591
392.842	3009
392.921	6862
393.001	10122
393.081	7099
393.161	18471
393.241	100741
393.321	275312
393.401	95373
393.480	16273
393.560	6590
393.640	2932
393.720	1017
393.800	659
393.879	1535
393.959	827
394.039	1531
394.119	1108
394.198	5620
394.278	44009
394.358	144278
394.437	36549
394.517	3718
394.597	1556
394.676	1779
394.756	1746
394.836	1472
394.915	122
394.995	611
395.075	914
395.154	656
395.234	717
395.313	1024
395.393	-1068
395.472	1858
395.552	1006
395.631	4619
395.711	3255
395.790	3486
395.870	2888
395.949	7053
396.029	56051
396.108	179018
396.188	50000
396.267	7693
396.346	2037
396.426	2186
396.505	3381
396.585	4372
396.664	16166
396.743	113037
396.823	180209
396.902	40994
396.981	5985
397.061	3024
397.140	541
397.219	1347
397.298	2653
397.378	1455
397.457	1192
397.536	-142
397.615	-1744
397.694	1470
397.774	374
397.853	-310
397.932	-446
398.011	-590
398.090	610
398.169	1394
398.249	-419
398.328	167
398.407	-281
398.486	-206
398.565	380
398.644	-1286
398.723	-395
398.802	-1
398.881	1234
398.960	1074
399.039	-598
399.118	-480
399.197	-174
399.276	273
399.355	-628
399.434	-384
399.513	-283
399.592	-978
399.671	229
399.750	466
399.829	1945
399.908	412
399.986	-732
400.065	-719
400.144	-1210
400.223	1505
400.302	-490
400.380	-577
400.459	3956
400.538	1477
400.617	-1201
400.696	71
400.774	-310
400.853	-440
400.932	-1281
401.011	965
401.089	-207
401.168	-604
401.247	-309
401.325	-410
401.404	-232
401.483	-903
401.561	-472
401.640	-335
401.718	385
401.797	-1258
401.876	-291
401.954	-841
402.033	-998
402.111	21
402.190	-922
402.268	121
402.347	-657
402.425	317
402.504	-1154
402.582	-347
402.661	-685
402.739	-603
402.818	-318
402.896	27
402.974	2079
403.053	2339
403.131	-33
403.210	1486
403.288	971
403.366	1393
403.445	543
403.523	-78
403.601	-979
403.680	-988
403.758	25
403.836	-736
403.915	-1054
403.993	-831
404.071	1077
404.149	-265
404.228	-750
404.306	828
404.384	777
404.462	5769
404.540	19020
404.618	3824
404.697	-697
404.775	461
404.853	-655
404.931	-923
405.009	-401
405.087	-686
405.165	-1008
405.243	-1257
405.321	23
405.399	-879
405.478	610
405.556	-283
405.634	-1121
405.712	-1348
405.790	324
405.868	-403
405.945	-24
406.023	-411
406.101	-1913
406.179	807
406.257	4315
406.335	10179
406.413	1455
406.491	-851
406.569	-732
406.647	-182
406.724	-505
406.802	-753
406.880	-158
406.958	14
407.036	398
407.113	9081
407.191	2842
407.269	-78
407.347	-735
407.424	-204
407.502	-796
407.580	384
407.658	2251
407.735	8981
407.813	701
407.891	-19
407.968	-987
408.046	-808
408.124	-825
408.201	256
408.279	-1582
408.356	-259
408.434	-615
408.512	-903
408.589	-957
408.667	-125
408.744	140
408.822	-567
408.899	-641
408.977	-116
409.054	-687
409.132	-290
409.209	461
409.287	191
409.364	410
409.441	163
409.519	622
409.596	-96
409.674	-377
409.751	-1143
409.828	431
409.906	1427
409.983	-1365
410.060	-758
410.138	256
410.215	-445
410.292	-737
410.370	-712
410.447	-180
410.524	-870
410.601	-551
410.678	268
410.756	-41
410.833	-1459
410.910	244
410.987	56
411.064	-1273
411.142	-976
411.219	192
411.296	-106
411.373	-671
411.450	-371
411.527	-1146
411.604	-1726
411.681	-945
411.758	-509
411.835	16
411.913	-696
411.990	-1048
412.067	-278
412.144	-112
412.221	-653
412.298	-668
412.374	-564
412.451	-630
412.528	74
412.605	-659
412.682	-991
412.759	-223
412.836	-618
412.913	-823
412.990	-791
413.067	210
413.143	1229
413.220	603
413.297	-777
413.374	579
413.451	-557
413.527	-387
413.604	-645
413.681	-702
413.758	-472
413.834	-1073
413.911	-603
413.988	-553
414.065	232
414.141	190
414.218	-516
414.295	2468
414.371	2721
414.448	-908
414.524	-407
414.601	-271
414.678	-1064
414.754	-543
414.831	-640
414.907	383
414.984	-561
415.060	-1003
415.137	-138
415.213	261
415.290	286
415.366	-212
415.443	-255
415.519	-831
415.596	-971
415.672	118
415.749	-687
415.825	-1226
415.902	223
415.978	-865
416.054	525
416.131	-1097
416.207	-1027
416.283	-1019
416.360	-926
416.436	-877
416.512	-361
416.589	-920
416.665	-1312
416.741	-152
416.817	-1053
416.894	-607
416.970	-921
417.046	15
417.122	-190
417.198	-578
417.275	-33
417.351	-836
417.427	-2
417.503	-426
417.579	-1055
417.655	-385
417.731	-785
417.808	-1403
417.884	-218
417.960	-843
418.036	-1437
418.112	-263
418.188	-284
418.264	-509
418.340	29
418.416	-1306
418.492	-475
418.568	-646
418.644	357
418.720	381
418.796	-377
418.872	-1000
418.947	-1068
419.023	19
419.099	492
419.175	-924
419.251	-637
419.327	-1214
419.403	243
419.478	-515
419.554	-61
419.630	-61
419.706	-826
419.782	948
419.857	485
419.933	-189
420.009	-160
420.085	-99
420.160	1394
420.236	292
420.312	-539
420.387	-587
420.463	39
420.539	-46
420.614	-869
420.690	171
420.766	-1112
420.841	129
420.917	-488
420.992	-543
421.068	-991
421.143	-571
421.219	-811
421.294	-419
421.370	-955
421.445	2116
421.521	2026
421.596	-100
421.672	86
421.747	193
421.823	-749
421.898	187
421.974	-442
422.049	-122
422.124	-197
422.200	-74
422.275	874
422.350	1157
422.426	2988
422.501	12965
422.576	68145
422.652	75386
422.727	17128
422.802	3378
422.878	1430
422.953	-125
423.028	-868
423.103	114
423.178	-259
423.254	-486
423.329	902
423.404	-1534
423.479	373
423.554	390
423.630	-597
423.705	0
423.780	-962
423.855	-701
423.930	-396
424.005	-881
424.080	-592
424.155	-800
424.230	-1002
424.305	-429
424.380	-761
424.455	-770
424.530	-686
424.605	-1172
424.680	-564
424.755	-661
424.830	-552
424.905	-867
424.980	1284
425.055	1044
425.130	-921
425.204	-309
425.279	-301
425.354	272
425.429	-1146
425.504	-447
425.579	-532
425.653	-1048
425.728	13
425.803	-41
425.878	-275
425.952	730
426.027	787
426.102	-837
426.177	-753
426.251	118
426.326	-672
426.401	-928
426.475	-876
426.550	-1002
426.625	-291
426.699	-747
426.774	-966
426.848	-526
426.923	-419
426.998	-864
427.072	4823
427.147	5699
427.221	42
427.296	-781
427.370	-728
427.445	-142
427.519	-1237
427.594	-1380
427.668	-526
427.743	-1687
427.817	-635
427.892	-624
427.966	-975
428.040	-464
428.115	260
428.189	4687
428.263	10185
428.338	438
428.412	-800
428.486	-562
428.561	-1342
428.635	-615
428.709	-405
428.784	841
428.858	9068
428.932	4175
429.006	-287
429.080	-1683
429.155	-412
429.229	-147
429.303	224
429.377	219
429.451	-231
429.526	-221
429.600	-850
429.674	-1550
429.748	-108
429.822	7033
429.896	4227
429.970	169
430.044	53
430.118	5428
430.192	25686
430.266	6728
430.340	-145
430.414	-108
430.488	63
430.562	-507
430.636	2914
430.710	16072
430.784	6411
430.858	-669
430.932	-1147
431.006	-400
431.080	-1584
431.153	-1008
431.227	-773
431.301	-966
431.375	147
431.449	-494
431.523	-47
431.596	-888
431.670	-682
431.744	3150
431.818	10823
431.891	732
431.965	-83
432.039	-625
432.112	-725
432.186	-1639
432.260	248
432.333	-1016
432.407	-714
432.481	4788
432.554	5161
432.628	-96
432.702	-685
432.775	-1246
432.849	-1069
432.922	-353
432.996	-1357
433.069	-1150
433.143	-849
433.216	-602
433.290	-728
433.363	-946
433.437	-713
433.510	-1389
433.584	-475
433.657	-763
433.730	-681
433.804	-1509
433.877	-555
433.951	-1362
434.024	125
434.097	-1177
434.171	-621
434.244	-1231
434.317	-651
434.391	-472
434.464	-1191
434.537	-1377
434.610	-1389
434.684	-1046
434.757	-662
434.830	-1000
434.903	-1082
434.977	-1318
435.050	-983
435.123	-934
435.196	-261
435.269	-1419
435.342	-630
435.415	-669
435.489	-716
435.562	-926
435.635	-560
435.708	-699
435.781	-281
435.854	-625
435.927	-796
436.000	-1170
436.073	26
436.146	-823
436.219	-705
436.292	-1590
436.365	-949
436.438	-854
436.511	-486
436.584	-1229
436.657	-801
436.729	-313
436.802	-1017
436.875	-737
436.948	-410
437.021	-1407
437.094	-587
437.166	-787
437.239	-797
437.312	-1264
437.385	-1285
437.457	-970
437.530	-1441
437.603	-1084
437.676	-1059
437.748	-1280
437.821	-713
437.894	-625
437.966	-1060
438.039	-1162
438.112	-456
438.184	111
438.257	8059
438.330	9844
438.402	984
438.475	-869
438.547	-585
438.620	-673
438.692	-626
438.765	-952
438.837	-738
438.910	-764
438.982	-868
439.055	-990
439.127	-1003
439.200	-922
439.272	-1141
439.345	-1004
439.417	-385
439.489	-933
439.562	-818
439.634	-1480
439.707	-755
439.779	-906
439.851	-681
439.923	-1255
439.996	-631
440.068	-529
440.140	-1429
440.213	-1862
440.285	107
440.357	1322
440.429	5875
440.502	103
440.574	-776
440.646	-119
440.718	-861
440.790	-695
440.862	-807
440.935	-1170
441.007	-503
441.079	-323
441.151	-768
441.223	-814
441.295	-932
441.367	-1063
441.439	1721
441.511	175
441.583	-777
441.655	-1175
441.727	-998
441.799	-1478
441.871	-1124
441.943	-1028
442.015	-809
442.087	-691
442.159	-438
442.231	-1063
442.303	-458
442.374	-208
442.446	4358
442.518	5184
442.590	-30
442.662	-429
442.734	-374
442.805	-1644
442.877	-1189
442.949	-1230
443.021	-965
443.092	-596
443.164	-1114
443.236	-937
443.308	-245
443.379	5882
443.451	18779
443.523	9453
443.594	517
443.666	-868
443.737	-1088
443.809	-735
443.881	-1297
443.952	-1249
444.024	-723
444.095	-1051
444.167	-1030
444.238	-480
444.310	-962
444.381	-653
444.453	-1252
444.524	-1355
444.596	-507
444.667	-1128
444.739	-1088
444.810	-1215
444.882	-1055
444.953	-1479
445.024	-836
445.096	-1189
445.167	-383
445.238	-428
445.310	1609
445.381	17257
445.452	23007
445.524	7902
445.595	2750
445.666	-291
445.737	-555
445.809	-1250
445.880	-783
445.951	-1200
446.022	-1348
446.094	-1426
446.165	-858
446.236	-1345
446.307	-411
446.378	-1653
446.449	-1113
446.520	-1092
446.591	-1125
446.663	-731
446.734	-1172
446.805	-873
446.876	-562
446.947	-1103
447.018	-1341
447.089	-1132
447.160	-1401
447.231	-1735
447.302	-1135
447.373	-1363
447.444	-1152
447.514	-1252
447.585	-784
447.656	-770
447.727	-1280
447.798	-708
447.869	-1121
447.940	-1186
448.010	-330
448.081	-850
448.152	-1092
448.223	-1149
448.294	-684
448.364	-265
448.435	-1231
448.506	-856
448.577	-1728
448.647	-813
448.718	-692
448.789	-1527
448.859	-1199
448.930	-903
449.001	-617
449.071	-1066
449.142	-1255
449.213	-911
449.283	-1426
449.354	49
449.424	-483
449.495	-1257
449.565	-1388
449.636	-1092
449.706	-1180
449.777	-1146
449.847	-970
449.918	-1712
449.988	-1188
450.059	-1053
450.129	-617
450.200	-617
450.270	-408
450.340	-930
450.411	-1152
450.481	-1896
450.551	-672
450.622	-554
450.692	-1170
450.762	-1387
450.833	-906
450.903	-1091
450.973	-1394
451.043	-1554
451.114	-821
451.184	-1004
451.254	-193
451.324	-699
451.395	-1346
451.465	-1405
451.535	-1504
451.605	-1330
451.675	-1243
451.745	-1398
451.815	-189
451.885	-1538
451.956	-1171
452.026	-1815
452.096	-700
452.166	-1151
452.236	-522
452.306	-1442
452.376	-1384
452.446	-1420
452.516	-931
452.586	-689
452.656	-932
452.725	-43
452.795	-369
452.865	-1145
452.935	-674
453.005	-945
453.075	-869
453.145	-1565
453.215	-288
453.284	-764
453.354	-1241
453.424	-158
453.494	-247
453.564	-39
453.633	-1024
453.703	-1575
453.773	-1001
453.843	-1793
453.895	-1142
453.912	-945
453.976	-737
453.982	-742
454.052	-1001
454.057	-968
454.121	-877
454.139	-901
454.191	-1020
454.220	-972
454.261	-980
454.301	-800
454.330	-725
454.382	-944
454.400	-1031
454.463	-548
454.469	-526
454.539	-1109
454.544	-1073
454.608	-933
454.625	-657
454.678	82
454.707	95
454.748	-98
454.788	64
454.817	-29
454.869	256
454.887	413
454.950	-478
454.956	-584
455.026	-260
455.031	-215
455.095	247
455.112	524
455.165	1561
455.193	2021
455.234	1640
455.274	2206
455.303	1954
455.355	749
455.373	667
455.436	212
455.442	96
455.512	101
455.517	56
455.581	-723
455.598	-727
455.650	-573
455.679	-552
455.720	-500
455.760	-666
455.789	-770
455.841	-88
455.858	64
455.922	-776
455.928	-864
455.997	-418
456.003	-385
456.066	-23
456.084	158
456.136	674
456.165	800
456.205	813
456.245	934
456.274	774
456.326	565
456.343	562
456.407	-168
456.412	-249
456.482	-268
456.488	-223
456.551	-32
456.569	-2
456.620	201
456.650	127
456.689	-26
456.730	126
456.758	242
456.811	125
456.827	136
456.892	593
456.897	607
456.966	1617
456.973	1659
457.035	1933
457.054	2227
457.104	1592
457.134	876
457.173	655
457.215	465
457.242	378
457.296	577
457.311	680
457.377	1574
457.380	1590
457.449	1077
457.457	1092
457.518	2011
457.538	2492
457.587	5852
457.619	7766
457.656	11212
457.699	15732
457.725	13770
457.780	9666
457.794	9583
457.861	9243
457.863	9500
457.932	18763
457.941	20140
458.001	22566
458.022	23902
458.070	14520
458.103	7345
458.138	6311
458.183	4965
458.207	5648
458.264	7515
458.276	9052
458.344	18141
458.345	18239
458.414	36686
458.425	39966
458.483	27104
458.506	22051
458.551	13393
458.586	5899
458.620	4714
458.667	3450
458.689	3177
458.747	2577
458.758	2556
458.826	1950
458.828	1954
458.895	2002
458.908	2045
458.964	2468
458.989	2751
459.033	3164
459.069	3068
459.101	2960
459.150	3013
459.170	2782
459.230	2420
459.239	2467
459.307	2824
459.311	2817
459.376	2955
459.391	3103
459.444	3186
459.471	3174
459.513	3011
459.552	2630
459.582	2705
459.632	2750
459.650	2586
459.713	2602
459.719	2694
459.787	3718
459.793	3773
459.856	3196
459.873	3058
459.924	3427
459.954	3497
459.993	3800
460.034	4374
460.061	5101
460.114	6549
460.130	6218
460.195	4331
460.198	4285
460.267	3524
460.275	3418
460.335	4364
460.355	4663
460.404	7194
460.436	8862
460.472	15066
460.516	22831
460.540	25425
460.596	31066
460.609	27026
460.676	5515
460.677	5522
460.745	3916
460.757	3731
460.814	3256
460.837	2953
460.882	4294
460.917	5559
460.950	5738
460.997	6007
461.019	5517
461.077	4188
461.087	4190
461.155	3900
461.158	3876
461.224	4112
461.238	4137
461.292	3283
461.318	3004
461.360	3904
461.398	4402
461.428	4719
461.478	5676
461.496	6174
461.558	7448
461.565	7246
461.633	4405
461.638	4219
461.701	5746
461.719	5981
461.769	5274
461.799	5047
461.837	4792
461.879	4263
461.905	4099
461.959	3685
461.973	3820
462.039	4526
462.042	4558
462.110	5020
462.119	5045
462.178	5789
462.199	6002
462.246	4896
462.279	4004
462.314	5080
462.359	6565
462.382	5904
462.439	4365
462.450	4529
462.518	5125
462.519	5109
462.586	3826
462.599	3622
462.654	3906
462.679	4085
462.722	5107
462.759	5664
462.790	5095
462.839	4428
462.858	4764
462.919	5554
462.926	5452
462.993	4177
462.999	4064
463.061	5097
463.078	5433
463.129	5549
463.158	5283
463.197	5318
463.238	5628
463.265	5449
463.318	4881
463.333	4878
463.398	4633
463.401	4680
463.468	5679
463.478	5728
463.536	6369
463.558	6636
463.604	9016
463.637	10528
463.672	9344
463.717	7882
463.739	8149
463.797	8679
463.807	8477
463.875	6747
463.877	6666
463.943	5425
463.957	5154
464.010	5475
464.036	5554
464.078	5797
464.116	5946
464.146	6490
464.196	7470
464.213	7254
464.275	6012
464.281	6158
464.349	7786
464.355	7908
464.416	8464
464.435	8567
464.484	9701
464.515	10288
464.551	11065
464.594	11996
464.619	11006
464.674	8497
464.686	8428
464.754	7790
464.754	7837
464.821	8555
464.833	8620
464.889	7772
464.913	7388
464.956	8156
464.992	8708
465.024	9037
465.072	9328
465.091	8775
465.152	6906
465.159	7261
465.226	10124
465.231	10282
465.294	13442
465.311	14230
465.361	10944
465.390	8870
465.429	9798
465.470	10747
465.496	10360
465.549	9378
465.563	9102
465.629	7461
465.631	7513
465.698	7916
465.708	7897
465.765	7158
465.788	6888
465.833	7423
465.867	7705
465.900	8331
465.947	9107
465.967	8959
466.026	8368
466.035	8483
466.102	9065
466.106	9042
466.169	9113
466.185	9078
466.236	8695
466.265	8381
466.304	9022
466.344	9650
466.371	10571
466.423	12136
466.438	12735
466.503	15181
466.505	15533
466.572	23645
466.582	24729
466.639	22536
466.662	21494
466.707	17145
466.741	13644
466.774	13647
466.820	13469
466.841	13174
466.900	12012
466.908	12066
466.975	11980
466.979	11909
467.042	13773
467.058	14158
467.109	14273
467.138	14219
467.176	13680
467.217	12958
467.243	12720
467.296	12024
467.310	11762
467.375	10175
467.377	10234
467.455	10196
467.534	9650
467.613	12849
467.692	18532
467.772	17981
467.851	11694
467.930	12592
468.009	16879
468.088	13460
468.167	11864
468.246	15917
468.326	17779
468.405	14785
468.484	10723
468.563	11027
468.642	9544
468.721	10212
468.800	11182
468.879	11331
468.958	14820
469.037	12003
469.116	10487
469.195	8777
469.274	11554
469.353	11216
469.432	11177
469.511	10911
469.590	12632
469.669	12796
469.748	14247
469.827	13014
469.905	13993
469.984	19382
470.063	31188
470.142	57907
470.221	51265
470.300	29452
470.378	18894
470.457	15625
470.536	18608
470.615	17567
470.694	11655
470.772	13011
470.851	15477
470.930	10135
471.008	9060
471.087	8087
471.166	7731
471.245	9107
471.323	9623
471.402	8567
471.480	8375
471.559	9864
471.638	9344
471.716	7879
471.795	8705
471.873	8472
471.952	9150
472.031	10370
472.109	9940
472.188	8386
472.266	7397
472.345	6979
472.423	8861
472.502	9987
472.580	14139
472.659	12004
472.737	11748
472.815	8424
472.894	9853
472.972	10719
473.051	8193
473.129	8794
473.207	9607
473.286	10689
473.364	10372
473.443	18026
473.521	25538
473.599	12680
473.677	8920
473.756	9771
473.834	10349
473.912	9576
473.991	10470
474.069	11631
474.147	9864
474.225	7290
474.303	9291
474.382	11331
474.460	9992
474.538	10083
474.616	9120
474.694	9879
474.772	8260
474.851	8403
474.929	8303
475.007	10088
475.085	10431
475.163	12551
475.241	21800
475.319	12196
475.397	8339
475.475	9895
475.553	9950
475.631	12516
475.709	11228
475.787	13078
475.865	8651
475.943	9664
476.021	15673
476.099	18573
476.177	9703
476.255	7772
476.333	10304
476.410	15165
476.488	17234
476.566	8709
476.644	10155
476.722	8058
476.800	7979
476.877	6628
476.955	8141
477.033	8183
477.111	9189
477.189	8841
477.266	7097
477.344	6007
477.422	7356
477.499	6558
477.577	6412
477.655	7104
477.732	7282
477.810	7012
477.888	6848
477.965	6789
478.043	8618
478.121	15492
478.198	25675
478.276	9227
478.353	7287
478.431	6276
478.508	11701
478.586	8387
478.664	8056
478.741	11730
478.819	14004
478.896	7096
478.974	7683
479.051	7618
479.128	8260
479.206	6823
479.283	7818
479.361	6494
479.438	7491
479.516	8136
479.593	7035
479.670	7459
479.748	7453
479.825	9388
479.902	8121
479.980	7785
480.057	6136
480.134	6975
480.211	8013
480.289	7816
480.366	9693
480.443	7305
480.520	7348
480.598	7848
480.675	7030
480.752	6734
480.829	8365
480.906	7482
480.984	8219
481.061	8562
481.138	6551
481.215	6194
481.292	8060
481.369	5132
481.446	8178
481.523	5955
481.600	6563
481.677	7322
481.754	7249
481.831	8660
481.908	10385
481.985	8434
482.062	11729
482.139	20964
482.216	28637
482.293	10417
482.370	8890
482.447	7560
482.524	7886
482.601	8734
482.678	6860
482.755	7511
482.832	7102
482.908	8205
482.985	9205
483.062	11555
483.139	9783
483.216	9693
483.293	10000
483.369	7440
483.446	8279
483.523	6847
483.600	8202
483.676	8865
483.753	7696
483.830	10601
483.906	14122
483.983	13506
484.060	20101
484.136	21231
484.213	15176
484.290	14632
484.366	12509
484.443	13839
484.519	15301
484.596	14419
484.673	13847
484.749	13951
484.826	11991
484.902	13026
484.979	13280
485.055	12915
485.132	11797
485.208	12231
485.285	13419
485.361	16394
485.437	19182
485.514	15489
485.590	15744
485.667	16328
485.743	21703
485.819	43731
485.896	17989
485.972	12985
486.049	13231
486.125	11923
486.201	12824
486.277	14604
486.354	14349
486.430	14814
486.506	17743
486.583	16285
486.659	19600
486.735	18066
486.811	23102
486.887	39455
486.964	92691
487.040	85031
487.116	36936
487.192	15224
487.268	14285
487.344	18556
487.420	22887
487.497	30539
487.573	68840
487.649	181606
487.725	115645
487.801	28596
487.877	17714
487.953	17335
488.029	17079
488.105	13612
488.181	12412
488.257	13932
488.333	20315
488.409	19605
488.485	16040
488.561	15709
488.637	13498
488.712	21509
488.788	27234
488.864	59307
488.940	142703
489.016	149494
489.092	24158
489.168	11552
489.243	11137
489.319	10699
489.395	9035
489.471	10454
489.547	8653
489.622	9032
489.698	10060
489.774	11930
489.849	17756
489.925	10135
490.001	9760
490.076	11879
490.152	25915
490.228	19772
490.303	10036
490.379	8675
490.455	7366
490.530	8739
490.606	10407
490.681	10140
490.757	11588
490.833	16795
490.908	15704
490.984	12031
491.059	8988
491.135	11355
491.210	13345
491.286	10515
491.361	11317
491.436	10499
491.512	13047
491.587	19779
491.663	36467
491.738	100241
491.814	95469
491.889	225710
491.964	80996
492.040	13226
492.115	10907
492.190	13595
492.266	16585
492.341	9692
492.416	8624
492.491	7864
492.567	10955
492.642	12211
492.717	8896
492.792	9349
492.868	9233
492.943	7467
493.018	8461
493.093	11240
493.168	22031
493.243	47076
493.318	20987
493.394	10098
493.469	7189
493.544	9263
493.619	11978
493.694	23557
493.769	21740
493.844	10655
493.919	7816
493.994	6983
494.069	7794
494.144	6547
494.219	6458
494.294	7385
494.369	8477
494.444	9872
494.519	11101
494.594	5915
494.669	7069
494.744	8989
494.818	7873
494.893	9023
494.968	8348
495.043	8387
495.118	9544
495.193	9832
495.267	12951
495.342	17448
495.417	25028
495.492	63905
495.566	263062
495.641	285633
495.716	22686
495.791	7093
495.865	8864
495.940	7185
496.015	7763
496.089	8782
496.164	6939
496.239	6696
496.313	8088
496.388	11990
496.462	20829
496.537	10466
496.612	11168
496.686	11444
496.761	8652
496.835	9794
496.910	10295
496.984	7964
497.059	8221
497.133	12122
497.208	12259
497.282	9949
497.357	10604
497.431	10221
497.505	10356
497.580	11523
497.654	16469
497.729	19936
497.803	15241
497.877	20413
497.952	38537
498.026	90815
498.100	50386
498.175	42070
498.249	35167
498.323	23669
498.397	30683
498.472	14834
498.546	10302
498.620	10948
498.694	13622
498.768	16807
498.843	16586
498.917	44824
498.991	49773
499.065	9280
499.139	8920
499.213	11739
499.287	11147
499.362	9892
499.436	8223
499.510	9572
499.584	9676
499.658	11046
499.732	21302
499.806	48359
499.880	14153
499.954	16691
500.028	34686
500.102	20859
500.176	10698
500.250	11137
500.324	16129
500.397	40419
500.471	64005
500.545	43432
500.619	29619
500.693	10364
500.767	7955
500.841	8998
500.914	7196
500.988	10720
501.062	21229
501.136	14803
501.210	19263
501.283	41513
501.357	27125
501.431	11489
501.505	12806
501.578	7815
501.652	15974
501.726	16250
501.799	12022
501.873	15863
501.947	9901
502.020	14209
502.094	22433
502.167	15163
502.241	7295
502.315	12137
502.388	11612
502.462	9247
502.535	13283
502.609	13041
502.682	10938
502.756	5193
502.829	6006
502.903	5560
502.976	6293
503.050	5920
503.123	5202
503.196	4238
503.270	6316
503.343	8158
503.417	17212
503.490	22031
503.563	9714
503.637	10795
503.710	15095
503.783	16952
503.857	25317
503.930	43168
504.003	86718
504.076	51940
504.150	16279
504.223	11491
504.296	8946
504.369	5778
504.443	5882
504.516	6840
504.589	5671
504.662	7888
504.735	9007
504.808	20075
504.881	14871
504.954	6098
505.028	14225
505.101	6625
505.174	5861
505.247	5705
505.320	5781
505.393	6424
505.466	9279
505.539	7557
505.612	4845
505.685	4563
505.758	6850
505.831	3071
505.904	6445
505.977	4059
506.049	3502
506.122	5368
506.195	4962
506.268	13086
506.341	24558
506.414	9390
506.487	5280
506.559	5561
506.632	7811
506.705	12474
506.778	11280
506.851	6090
506.923	4897
506.996	7213
507.069	7795
507.141	6986
507.214	6466
507.287	13956
507.360	13872
507.432	6710
507.505	6809
507.577	4951
507.650	7682
507.723	12083
507.795	17196
507.868	8466
507.940	5729
508.013	6574
508.086	3759
508.158	9417
508.231	6806
508.303	5258
508.376	3852
508.448	5031
508.520	3966
508.593	6705
508.665	4084
508.738	6743
508.810	4104
508.883	7807
508.955	8313
509.027	5512
509.100	4020
509.172	3201
509.244	3425
509.317	3868
509.389	6298
509.461	7138
509.534	9865
509.606	8234
509.678	9340
509.750	12366
509.822	5387
509.895	6347
509.967	4028
510.039	7451
510.111	7923
510.183	7561
510.255	5400
510.328	5543
510.400	6734
510.472	6057
510.544	8709
510.616	12306
510.688	8184
510.760	6346
510.832	9670
510.904	11558
510.976	6382
511.048	4649
511.120	4240
511.192	6094
511.264	5001
511.336	4031
511.408	5754
511.480	5165
511.552	4209
511.624	4348
511.695	5003
511.767	3921
511.839	5456
511.911	5932
511.983	5442
512.055	6811
512.126	6999
512.198	10408
512.270	11472
512.342	14267
512.414	12003
512.485	8730
512.557	7207
512.629	8645
512.700	5947
512.772	7336
512.844	6459
512.915	6919
512.987	7991
513.059	8848
513.130	13571
513.202	27930
513.273	17191
513.345	8454
513.416	7173
513.488	8211
513.560	13098
513.631	13265
513.703	16004
513.774	47506
513.845	33084
513.917	6986
513.988	6828
514.060	10730
514.131	14025
514.203	8232
514.274	5790
514.345	9221
514.417	7295
514.488	5770
514.560	7554
514.631	10785
514.702	10577
514.773	11685
514.845	7258
514.916	8305
514.987	7586
515.059	9352
515.130	6767
515.201	9134
515.272	7648
515.343	7266
515.414	6648
515.486	6400
515.557	7453
515.628	5976
515.699	7312
515.770	8654
515.841	8893
515.912	10282
515.983	12266
516.055	18932
516.126	25228
516.197	18128
516.268	19468
516.339	28031
516.410	43896
516.481	90338
516.552	342840
516.622	515308
516.693	53667
516.764	44156
516.835	43501
516.906	65491
516.977	124131
517.048	333954
517.119	1269884
517.190	473054
517.260	43477
517.331	17835
517.402	16544
517.473	15396
517.544	14027
517.614	17389
517.685	17117
517.756	24356
517.827	31199
517.897	44193
517.968	73491
518.039	118216
518.109	279794
518.180	1150786
518.250	1615912
518.321	130420
518.392	32112
518.462	24824
518.533	25252
518.603	31279
518.674	56286
518.745	103391
518.815	44384
518.886	21827
518.956	27051
519.027	44631
519.097	49899
519.168	25669
519.238	9954
519.309	14835
519.379	20855
519.449	14238
519.520	7434
519.590	7175
519.660	6810
519.731	8115
519.801	6999
519.871	6126
519.942	5329
520.012	7178
520.082	13851
520.153	7431
520.223	6555
520.293	16661
520.363	10370
520.434	19895
520.504	16299
520.574	6439
520.644	15001
520.714	35420
520.784	9114
520.855	10336
520.925	12185
520.995	5962
521.065	4768
521.135	3776
521.205	4889
521.275	4801
521.345	8707
521.415	12382
521.485	12355
521.555	9031
521.625	9122
521.695	4094
521.765	4056
521.835	3928
521.905	4040
521.975	4458
522.045	2635
522.115	4961
522.185	5369
522.254	7323
522.324	10144
522.394	10487
522.464	17354
522.534	60378
522.603	71013
522.673	8963
522.743	5780
522.813	11311
522.883	10838
522.952	8297
523.022	11125
523.092	26564
523.161	84619
523.231	19113
523.301	4856
523.370	6846
523.440	4671
523.509	4820
523.579	3394
523.649	4319
523.718	4178
523.788	3198
523.857	3950
523.927	3158
523.996	4038
524.066	5374
524.135	9035
524.205	3935
524.274	2805
524.344	3440
524.413	5154
524.483	2861
524.552	3535
524.621	3144
524.691	3961
524.760	3054
524.830	2563
524.899	6901
524.968	5085
525.038	3826
525.107	4037
525.176	3244
525.245	3449
525.315	4480
525.384	4228
525.453	4746
525.522	5185
525.591	5078
525.661	5572
525.730	7587
525.799	12382
525.868	21149
525.937	33700
526.006	94834
526.076	155300
526.145	65350
526.214	50099
526.283	112433
526.352	102716
526.421	238896
526.490	83380
526.559	44173
526.628	30577
526.697	46413
526.766	135658
526.835	342015
526.904	432129
526.973	56585
527.042	10836
527.110	9446
527.179	12397
527.248	5672
527.317	6231
527.386	4983
527.455	5334
527.523	2488
527.592	3606
527.661	3192
527.730	4562
527.799	4677
527.867	2855
527.936	6671
528.005	11584
528.074	13487
528.142	7414
528.211	19167
528.280	12438
528.348	5030
528.417	1917
528.485	3319
528.554	2854
528.623	1925
528.691	2167
528.760	834
528.828	2758
528.897	2104
528.965	1165
529.034	2751
529.102	1732
529.171	2680
529.239	3745
529.308	2093
529.376	1380
529.445	4587
529.513	1564
529.581	2334
529.650	5088
529.718	3877
529.786	2690
529.855	3252
529.923	2715
529.992	4009
530.060	8335
530.128	10232
530.196	3677
530.265	2118
530.333	1624
530.401	3003
530.469	750
530.537	2169
530.606	4415
530.674	2919
530.742	1953
530.810	2467
530.878	2255
530.946	3276
531.014	872
531.083	2856
531.151	2570
531.219	1633
531.287	2141
531.355	1192
531.423	2729
531.491	5231
531.559	3044
531.627	1915
531.695	3335
531.763	3235
531.831	2107
531.898	2800
531.966	4513
532.034	4993
532.102	5083
532.170	9139
532.238	24083
532.306	42466
532.374	9011
532.441	7469
532.509	10390
532.577	24673
532.645	93219
532.712	76795
532.780	9248
532.848	4252
532.916	2813
532.983	2860
533.051	3051
533.119	3248
533.186	3835
533.254	2673
533.322	2711
533.389	3111
533.457	2311
533.524	1934
533.592	3274
533.659	3556
533.727	1801
533.794	7099
533.862	15529
533.930	12190
533.997	11877
534.064	1368
534.132	3977
534.199	3641
534.267	2112
534.334	3955
534.402	4013
534.469	3604
534.536	4572
534.604	7133
534.671	11424
534.738	27064
534.806	92940
534.873	31760
534.940	3941
535.008	3389
535.075	3024
535.142	3421
535.209	3796
535.276	2711
535.344	2052
535.411	2211
535.478	2285
535.545	3005
535.612	3824
535.679	2686
535.747	2669
535.814	2830
535.881	2301
535.948	3440
536.015	2992
536.082	3682
536.149	4215
536.216	5732
536.283	9214
536.350	14648
536.417	7610
536.484	9803
536.551	13293
536.618	17994
536.685	9796
536.752	9719
536.818	18404
536.885	24087
536.952	26611
537.019	70505
537.086	13748
537.153	3197
537.219	4177
537.286	2622
537.353	1790
537.420	2363
537.487	3433
537.553	4501
537.620	4554
537.687	3102
537.753	2401
537.820	4291
537.887	4515
537.953	3649
538.020	5802
538.087	9180
538.153	20344
538.220	27214
538.286	6975
538.353	3813
538.419	2867
538.486	2589
538.553	2940
538.619	2534
538.685	2631
538.752	3734
538.818	4750
538.885	3442
538.951	4422
539.018	4573
539.084	5796
539.150	7543
539.217	11087
539.283	2863
539.350	4632
539.416	5436
539.482	7326
539.549	24245
539.615	24964
539.681	5064
539.747	5484
539.814	3913
539.880	6500
539.946	7114
540.012	5794
540.078	5459
540.145	8255
540.211	18048
540.277	34013
540.343	17603
540.409	28781
540.475	30743
540.541	3403
540.607	3749
540.673	2805
540.740	6157
540.806	6924
540.872	10003
540.937	14430
541.004	9193
541.069	4221
541.135	4590
541.201	6440
541.267	9125
541.333	16791
541.399	21888
541.465	6716
541.531	2605
541.597	3350
541.663	2808
541.728	1867
541.794	2454
541.860	2326
541.926	3674
541.992	4989
542.057	4638
542.123	8757
542.189	13982
542.255	28926
542.320	17444
542.386	4998
542.452	3711
542.517	2977
542.583	4026
542.648	4306
542.714	6318
542.780	15096
542.845	41220
542.911	8032
542.976	2490
543.042	3655
543.107	3802
543.173	5205
543.238	7510
543.304	18687
543.369	12039
543.435	1982
543.500	1912
543.566	2426
543.631	1617
543.697	2819
543.762	1605
543.827	1437
543.893	1799
543.958	2876
544.023	1426
544.089	3418
544.154	2831
544.219	3261
544.284	7370
544.350	10815
544.415	8488
544.480	10998
544.545	32772
544.610	17882
544.676	2815
544.741	1382
544.806	2472
544.871	2329
544.936	2879
545.001	2602
545.066	3331
545.132	4040
545.197	4561
545.262	6561
545.327	11118
545.392	22252
545.457	23157
545.522	3760
545.587	3439
545.652	2268
545.717	3382
545.781	2439
545.846	3041
545.911	2237
545.976	4517
546.041	2961
546.106	6035
546.171	9877
546.236	7580
546.300	3901
546.365	2051
546.430	4157
546.495	4992
546.559	4960
546.624	3667
546.689	3907
546.754	2366
546.818	3204
546.883	3802
546.948	4279
547.012	4127
547.077	6452
547.142	7082
547.206	6763
547.271	8037
547.335	7020
547.400	7504
547.464	10279
547.529	11818
547.594	8123
547.658	5455
547.722	6477
547.787	7048
547.852	6286
547.916	7161
547.980	8276
548.045	7718
548.109	6012
548.174	7618
548.238	6708
548.302	4781
548.367	6284
548.431	6347
548.495	7089
548.560	5931
548.624	8117
548.688	9105
548.752	7537
548.817	6441
548.881	6591
548.945	4380
549.009	5700
549.073	5884
549.138	5878
549.202	9679
549.266	7392
549.330	7100
549.394	7179
549.458	6814
549.522	8752
549.586	9620
549.650	11037
549.715	10127
549.779	7359
549.843	9091
549.907	8795
549.971	8861
550.034	8961
550.098	7850
550.162	8149
550.226	7452
550.290	8615
550.354	8115
550.418	10026
550.482	9785
550.546	13029
550.609	11649
550.673	9839
550.737	11076
550.801	11999
550.865	12180
550.928	14413
550.992	17183
551.056	21084
551.120	27967
551.183	28478
551.247	15152
551.311	14093
551.374	11458
551.438	10329
551.502	9193
551.565	7373
551.629	9307
551.692	9566
551.756	7882
551.819	9241
551.883	8252
551.946	8449
552.010	8163
552.073	7999
552.137	8997
552.200	8009
552.264	8295
552.327	6992
552.391	9622
552.454	9673
552.517	12444
552.581	13498
552.644	19974
552.708	38183
552.771	34250
552.834	14258
552.897	9768
552.961	9716
553.024	7752
553.087	6428
553.151	7847
553.214	6793
553.277	7472
553.340	7548
553.403	11192
553.466	9296
553.530	8120
553.593	7435
553.656	7734
553.719	6960
553.782	6851
553.845	6679
553.908	6364
553.971	6417
554.034	6701
554.097	6828
554.160	8746
554.223	7583
554.286	7313
554.349	7749
554.412	6676
554.475	5681
554.538	6775
554.601	6192
554.664	6318
554.727	5338
554.789	5147
554.852	4721
554.915	5652
554.978	6122
555.041	4642
555.104	6091
555.166	6518
555.229	5992
555.292	6480
555.354	7851
555.417	6428
555.480	4639
555.542	4393
555.605	5895
555.668	6277
555.730	5684
555.793	5527
555.856	5015
555.918	4698
555.981	5191
556.043	4235
556.106	5180
556.168	5803
556.231	5960
556.293	4720
556.356	4620
556.418	6985
556.481	6030
556.543	5852
556.606	3921
556.668	6979
556.730	6808
556.793	8414
556.855	12656
556.918	5784
556.980	5788
557.042	5544
557.104	11316
557.167	18762
557.229	6317
557.291	4028
557.354	4307
557.416	4696
557.478	7501
557.540	4828
557.602	3074
557.664	4330
557.727	4462
557.789	5865
557.851	7205
557.913	10830
557.975	18409
558.037	45085
558.099	54679
558.161	8939
558.223	7438
558.285	9502
558.347	13011
558.409	19414
558.471	27675
558.533	53228
558.595	71418
558.657	105432
558.719	300180
558.781	332809
558.843	62882
558.905	65915
558.966	18163
559.028	15807
559.090	20025
559.152	31077
559.214	53250
559.275	130860
559.337	231107
559.399	41420
559.461	16562
559.522	19182
559.584	29028
559.646	49569
559.707	147451
559.769	95288
559.831	16256
559.892	18977
559.954	37411
560.015	69745
560.077	29901
560.139	53817
560.200	40485
560.262	4537
560.323	4509
560.385	2899
560.446	2087
560.508	998
560.569	1762
560.631	2065
560.692	2107
560.753	1682
560.815	617
560.876	1467
560.937	2679
560.999	2869
561.060	2874
561.122	2478
561.183	3342
561.244	5786
561.305	6702
561.367	11399
561.428	31143
561.489	18616
561.550	2919
561.612	2654
561.673	2317
561.734	2204
561.795	2355
561.856	1519
561.917	2284
561.978	1524
562.039	1716
562.101	3278
562.162	1991
562.223	2974
562.284	4204
562.345	6090
562.406	2692
562.467	2169
562.528	1790
562.589	1842
562.649	1229
562.710	1079
562.771	1532
562.832	664
562.893	809
562.954	1333
563.015	1974
563.076	311
563.136	1624
563.197	612
563.258	2741
563.319	2233
563.380	494
563.440	2616
563.501	1458
563.562	2432
563.622	1955
563.683	1849
563.744	2149
563.804	1899
563.865	703
563.926	1500
563.986	1887
564.047	2095
564.107	789
564.168	1557
564.229	1581
564.289	1425
564.350	1781
564.410	1480
564.471	1704
564.531	1698
564.591	1191
564.652	1097
564.712	2565
564.773	2389
564.833	2214
564.893	1748
564.954	1542
565.014	2157
565.074	1296
565.135	2690
565.195	1295
565.255	2283
565.316	1679
565.376	1456
565.436	3332
565.496	1576
565.557	1539
565.617	2430
565.677	1681
565.737	6757
565.797	3646
565.857	1131
565.917	2268
565.978	2059
566.038	1994
566.098	3374
566.158	4074
566.218	1323
566.278	1078
566.338	1633
566.398	1275
566.458	2194
566.518	1771
566.578	2751
566.638	2490
566.698	2559
566.757	1716
566.817	2601
566.877	2298
566.937	1156
566.997	1722
567.057	1842
567.116	1269
567.176	1444
567.236	3714
567.296	3071
567.355	2890
567.415	2446
567.475	2272
567.535	2601
567.594	2635
567.654	3015
567.714	3061
567.773	3378
567.833	2747
567.892	4118
567.952	5399
568.012	6632
568.071	9414
568.131	14619
568.190	17098
568.250	12702
568.309	12116
568.369	10164
568.428	8744
568.488	10122
568.547	12093
568.607	14850
568.666	21971
568.725	31098
568.785	22976
568.844	16657
568.903	11594
568.963	9521
569.022	7619
569.081	5551
569.141	4749
569.200	3773
569.259	3966
569.318	2551
569.378	2115
569.437	1684
569.496	1855
569.555	2346
569.614	2276
569.673	2064
569.732	1857
569.792	1172
569.851	1302
569.910	1106
569.969	2072
570.028	3389
570.087	1083
570.146	1922
570.205	2237
570.264	1421
570.323	1497
570.382	2779
570.441	3055
570.500	3194
570.559	1954
570.618	1940
570.676	3029
570.735	3952
570.794	4877
570.853	3517
570.912	1537
570.971	1959
571.029	2532
571.088	1200
571.147	763
571.206	2685
571.264	1277
571.323	403
571.382	1460
571.440	870
571.499	715
571.558	1026
571.616	1380
571.675	856
571.733	1589
571.792	1199
571.851	118
571.909	1247
571.968	1066
572.026	998
572.085	274
572.143	454
572.202	1130
572.260	970
572.319	426
572.377	-3
572.435	973
572.494	309
572.552	1776
572.611	818
572.669	338
572.727	-77
572.786	441
572.844	320
572.902	661
572.960	-537
573.019	1122
573.077	499
573.135	1173
573.193	116
573.251	782
573.310	916
573.368	300
573.426	-142
573.484	1139
573.542	474
573.600	1071
573.658	1041
573.716	1054
573.774	993
573.832	936
573.891	1093
573.948	1684
574.006	1133
574.064	1028
574.122	752
574.180	1001
574.238	1096
574.296	257
574.354	40
574.412	543
574.470	744
574.528	376
574.585	877
574.643	1397
574.701	590
574.759	246
574.817	198
574.874	-32
574.932	-646
574.990	167
575.047	444
575.105	1302
575.163	1755
575.221	748
575.278	-303
575.336	506
575.393	164
575.451	551
575.509	228
575.566	-50
575.624	1067
575.681	896
575.739	361
575.796	951
575.854	-400
575.911	-358
575.969	1784
576.026	732
576.083	785
576.141	1197
576.198	3182
576.256	4
576.313	892
576.370	231
576.428	1184
576.485	479
576.542	263
576.599	-50
576.657	482
576.714	421
576.771	772
576.828	401
576.886	-26
576.943	867
577.000	57
577.057	659
577.114	1504
577.171	968
577.228	337
577.286	259
577.343	643
577.400	-164
577.457	1328
577.514	334
577.571	379
577.628	-246
577.685	134
577.742	230
577.799	938
577.855	319
577.912	-197
577.969	709
578.026	1088
578.083	554
578.140	-677
578.197	636
578.254	622
578.310	-160
578.367	755
578.424	806
578.481	-698
578.537	-158
578.594	133
578.651	-56
578.707	465
578.764	-140
578.821	537
578.877	551
578.934	-162
578.991	282
579.047	1544
579.104	246
579.160	11
579.217	66
579.273	953
579.330	538
579.387	22
579.443	-141
579.499	104
579.556	-326
579.612	665
579.669	101
579.725	798
579.782	-394
579.838	-69
579.894	-227
579.951	-299
580.007	60
580.063	419
580.120	85
580.176	218
580.232	-282
580.288	1257
580.345	857
580.401	281
580.457	-487
580.513	877
580.569	-532
580.619	-281
580.625	-250
580.682	353
580.692	389
580.738	551
580.765	-77
580.794	-759
580.838	-500
580.850	-430
580.906	13
580.911	74
580.962	677
580.984	410
581.018	-8
581.057	-317
581.074	-460
581.130	375
581.130	379
581.186	-28
581.203	85
581.242	310
581.276	502
581.298	669
581.349	415
581.354	379
581.410	291
581.422	335
581.466	468
581.494	812
581.522	1149
581.567	868
581.577	807
581.633	220
581.640	165
581.689	-231
581.713	-80
581.745	131
581.786	-674
581.801	-972
581.857	-441
581.859	-426
581.912	-252
581.932	-72
581.968	335
582.004	303
582.024	235
582.077	260
582.080	265
582.135	-169
582.150	-244
582.191	-572
582.223	-562
582.247	-490
582.296	-392
582.302	-393
582.358	272
582.368	343
582.414	724
582.441	505
582.469	136
582.514	-103
582.525	-116
582.581	383
582.587	411
582.636	506
582.659	322
582.692	84
582.732	372
582.747	471
582.803	81
582.805	114
582.858	813
582.877	372
582.914	-452
582.950	-10
582.969	222
583.023	-186
583.025	-204
583.080	384
583.095	251
583.135	26
583.168	-61
583.191	-220
583.240	109
583.246	146
583.302	-346
583.313	-296
583.357	18
583.385	194
583.412	219
583.458	-6
583.468	-24
583.523	115
583.531	126
583.578	185
583.603	448
583.634	694
583.676	310
583.689	233
583.744	274
583.748	311
583.799	578
583.820	426
583.854	180
583.893	459
583.910	557
583.965	698
583.965	693
584.020	195
584.038	309
584.075	555
584.110	466
584.130	423
584.183	654
584.185	656
584.240	516
584.255	451
584.296	490
584.328	729
584.351	796
584.400	241
584.406	181
584.461	1265
584.472	1242
584.516	1030
584.545	1142
584.571	1231
584.617	622
584.626	548
584.681	565
584.689	706
584.736	1268
584.762	901
584.791	590
584.834	1175
584.846	1274
584.900	1560
584.906	1559
584.955	1646
584.978	1552
585.010	1403
585.051	1399
585.065	1418
585.120	1988
585.123	2026
585.175	2697
585.195	2929
585.230	3272
585.267	4155
585.284	4615
585.339	5436
585.340	5447
585.394	7264
585.412	8220
585.449	10382
585.484	12924
585.503	14342
585.556	19938
585.558	20188
585.613	39328
585.628	42338
585.667	51923
585.700	32916
585.722	19976
585.772	13386
585.777	12223
585.831	5702
585.845	4171
585.886	2935
585.917	2218
585.941	1998
585.989	1990
585.995	2003
586.050	2413
586.061	2365
586.104	2161
586.133	2052
586.159	2004
586.205	2134
586.213	2121
586.268	2158
586.277	2116
586.322	2191
586.349	2611
586.377	3042
586.421	2577
586.431	2327
586.486	2215
586.493	2188
586.540	2502
586.565	2394
586.595	2415
586.637	2739
586.649	2861
586.703	3637
586.709	3657
586.758	2962
586.781	2446
586.812	1916
586.853	1916
586.866	2102
586.921	2971
586.925	3002
586.975	2824
586.996	2749
587.029	2739
587.068	2805
587.083	2934
587.138	3402
587.140	3432
587.192	3749
587.212	3622
587.246	3401
587.284	3530
587.300	3632
587.355	4064
587.356	4061
587.409	3846
587.427	4030
587.463	4383
587.499	4198
587.517	4184
587.571	4451
587.571	4455
587.625	5118
587.643	5285
587.679	5548
587.715	5770
587.733	5839
587.786	6041
587.787	6059
587.841	6984
587.858	7240
587.895	7760
587.930	8562
587.949	9304
588.001	10624
588.003	10671
588.057	11870
588.073	12359
588.111	14167
588.145	15981
588.165	17125
588.217	20067
588.219	20241
588.273	24208
588.288	25279
588.327	29138
588.360	33076
588.381	35678
588.431	43657
588.435	44192
588.489	54272
588.503	57833
588.542	68241
588.575	78748
588.596	85902
588.646	110018
588.650	111954
588.704	146436
588.718	157619
588.757	198427
588.789	243547
588.811	290540
588.861	468199
588.865	488741
588.919	664516
588.932	658331
588.972	573771
589.004	580927
589.026	483382
589.075	308632
589.080	298458
589.133	169957
589.147	138266
589.187	119301
589.218	107445
589.241	109799
589.290	117966
589.294	119367
589.348	141707
589.361	150310
589.401	189993
589.433	248780
589.455	315907
589.504	448306
589.508	464054
589.562	499230
589.576	529056
589.615	395172
589.647	311065
589.669	243062
589.718	90200
589.722	87521
589.776	49637
589.790	39856
589.829	32454
589.861	26373
589.883	24122
589.932	19084
589.936	18950
589.989	16250
590.004	15554
590.043	14702
590.075	13845
590.096	13329
590.146	12354
590.149	12319
590.203	11147
590.218	10783
590.256	10086
590.289	9425
590.309	9223
590.360	8690
590.362	8710
590.416	8866
590.431	8923
590.469	8378
590.503	7782
590.522	7668
590.574	7450
590.575	7463
590.629	7179
590.645	7145
590.682	7296
590.716	7399
590.735	7239
590.787	6634
590.788	6652
590.841	6881
590.859	6994
590.894	7211
590.930	7222
590.947	7086
591.000	6744
591.001	6723
591.053	6284
591.072	6154
591.106	6341
591.143	6516
591.159	6361
591.212	5690
591.214	5657
591.265	6790
591.285	7260
591.318	6979
591.356	6423
591.371	6453
591.424	6509
591.427	6505
591.477	6288
591.498	6117
591.530	6073
591.569	6044
591.583	6031
591.636	5942
591.640	5905
591.689	6032
591.711	6159
591.741	6038
591.782	5732
591.794	5823
591.847	6198
591.853	6228
591.900	6482
591.924	6560
591.953	6228
591.995	5724
592.005	5660
592.058	5235
592.066	5160
592.111	6032
592.137	6519
592.164	6440
592.208	6244
592.216	6282
592.269	6449
592.279	6461
592.322	6857
592.350	7099
592.374	6728
592.421	5980
592.427	6101
592.479	7039
592.491	7236
592.532	7142
592.562	7040
592.585	6716
592.633	5932
592.704	5720
592.775	6340
592.846	6669
592.916	6800
592.987	7178
593.058	6837
593.128	7002
593.199	6168
593.270	6440
593.341	6687
593.411	6561
593.482	6734
593.553	6692
593.623	6609
593.694	6903
593.764	7326
593.835	6973
593.906	8057
593.976	6920
594.047	7135
594.117	7824
594.188	7435
594.258	7737
594.329	8432
594.399	8068
594.470	8315
594.540	8335
594.611	8103
594.681	8177
594.751	8839
594.822	8548
594.892	9268
594.963	9208
595.033	8509
595.103	9414
595.174	9231
595.244	9430
595.314	9925
595.384	10155
595.455	9909
595.525	10907
595.595	9945
595.665	11546
595.736	10772
595.806	11179
595.876	10145
595.946	10982
596.016	11093
596.087	11284
596.157	12046
596.227	11023
596.297	11557
596.367	13040
596.437	14076
596.507	14148
596.577	14944
596.647	14363
596.717	14714
596.787	15246
596.857	14496
596.927	15317
596.997	14908
597.067	14121
597.137	15151
597.207	15850
597.277	14830
597.347	14517
597.417	14928
597.487	16137
597.557	14561
597.626	15686
597.696	15911
597.766	14727
597.836	14110
597.906	13037
597.975	14254
598.045	14256
598.115	13875
598.185	14704
598.254	17459
598.324	18077
598.394	18370
598.464	18592
598.533	18181
598.603	16914
598.672	16161
598.742	16515
598.812	16128
598.881	17397
598.951	16921
599.020	16278
599.090	17721
599.159	18107
599.229	17091
599.299	17337
599.368	17055
599.437	17209
599.507	16006
599.576	15607
599.646	14489
599.715	15313
599.785	14024
599.854	13957
599.924	14079
599.993	13476
600.062	13591
600.132	13935
600.201	15092
600.270	18153
600.340	18389
600.409	18265
600.478	18413
600.547	18391
600.617	16089
600.686	12559
600.755	11672
600.824	11081
600.894	10617
600.963	11201
601.032	10988
601.101	10371
601.170	9519
601.239	9472
601.308	9328
601.378	10557
601.447	10137
601.516	10197
601.585	9769
601.654	9591
601.723	9435
601.792	10025
601.861	10171
601.930	11304
601.999	10431
602.068	10393
602.137	11381
602.206	11067
602.275	10692
602.343	11627
602.412	11753
602.481	11350
602.550	11208
602.619	11881
602.688	12549
602.756	11979
602.825	12760
602.894	12465
602.963	12816
603.032	13106
603.100	12707
603.169	13613
603.238	13149
603.307	12995
603.375	13463
603.444	13056
603.513	13981
603.581	13649
603.650	14500
603.719	13615
603.787	13858
603.856	14327
603.924	13973
603.993	15121
604.061	15496
604.130	17033
604.198	17362
604.267	18160
604.335	18014
604.404	17637
604.472	18456
604.541	17809
604.609	18311
604.678	18878
604.746	19132
604.815	19685
604.883	19323
604.951	20324
605.020	19125
605.088	20303
605.156	20817
605.225	21309
605.293	20118
605.361	20600
605.429	20991
605.498	21726
605.566	21716
605.634	23263
605.702	24694
605.771	24693
605.839	25994
605.907	24866
605.975	24351
606.043	24190
606.111	23303
606.180	23629
606.248	23224
606.316	22781
606.384	22908
606.452	23157
606.520	22487
606.588	24089
606.656	23970
606.724	23507
606.792	22468
606.860	20028
606.928	17319
606.996	17251
607.064	16809
607.132	17445
607.200	18143
607.267	18628
607.335	19074
607.403	20095
607.471	18741
607.539	17377
607.607	18236
607.674	16083
607.742	15885
607.810	15543
607.878	15728
607.946	16088
608.013	16543
608.081	17584
608.149	17134
608.216	17567
608.284	17878
608.352	18161
608.419	17917
608.487	18360
608.555	17636
608.622	18345
608.690	19815
608.757	21546
608.825	21438
608.893	20691
608.960	19756
609.028	19012
609.095	19340
609.163	18299
609.230	16977
609.298	15966
609.365	16110
609.432	17934
609.500	19685
609.567	22777
609.635	27277
609.702	27773
609.769	26155
609.837	19520
609.904	16581
609.971	15815
610.039	17988
610.106	19405
610.173	26540
610.241	44063
610.308	31020
610.375	17883
610.442	16375
610.509	15723
610.577	16584
610.644	16252
610.711	17660
610.778	19011
610.845	18366
610.912	20728
610.980	20802
611.047	20494
611.114	20112
611.181	20125
611.248	19591
611.315	21976
611.382	21835
611.449	22615
611.516	22637
611.583	22359
611.650	22778
611.717	22518
611.784	22870
611.851	24590
611.918	25519
611.984	26930
612.051	34168
612.118	50054
612.185	90056
612.252	63642
612.319	27989
612.386	27539
612.452	26248
612.519	24865
612.586	24801
612.653	25860
612.719	26906
612.786	26107
612.853	22987
612.919	22883
612.986	24148
613.053	21529
613.120	20592
613.186	19242
613.253	20604
613.319	19783
613.386	19334
613.453	20385
613.519	20069
613.586	20318
613.652	20953
613.719	19605
613.785	20596
613.852	20558
613.918	19939
613.985	20787
614.051	20941
614.118	20991
614.184	20314
614.250	19855
614.317	20156
614.383	19598
614.449	19606
614.516	20047
614.582	19982
614.648	19849
614.715	18684
614.781	18968
614.847	19125
614.914	18494
614.980	18665
615.046	18973
615.112	19199
615.179	19341
615.245	19745
615.311	19596
615.377	20637
615.443	20210
615.509	19650
615.575	20499
615.642	20360
615.708	20393
615.774	20312
615.840	22651
615.906	23030
615.972	27230
616.038	35411
616.104	57364
616.170	104022
616.236	89491
616.302	28987
616.368	24105
616.434	21588
616.500	20663
616.565	20686
616.631	22585
616.697	21499
616.763	21744
616.829	24223
616.895	32306
616.961	29893
617.026	19895
617.092	18463
617.158	19376
617.224	18898
617.289	17426
617.355	15838
617.421	15127
617.487	16139
617.552	15929
617.618	14591
617.684	14707
617.749	17504
617.815	14204
617.880	14678
617.946	14363
618.012	15296
618.077	15256
618.143	14747
618.208	15325
618.274	15325
618.339	16722
618.405	12690
618.470	12437
618.536	11312
618.601	12124
618.667	10956
618.732	10810
618.798	10501
618.863	10726
618.928	9898
618.994	11166
619.059	11261
619.124	11195
619.190	11508
619.255	10048
619.320	9994
619.386	10240
619.451	9529
619.516	8939
619.581	9895
619.647	9168
619.712	10246
619.777	9578
619.842	9944
619.907	9933
619.972	9779
620.038	10835
620.103	9582
620.168	9183
620.233	9718
620.298	10171
620.363	9783
620.428	10076
620.493	10082
620.558	10514
620.623	10329
620.688	10780
620.753	10360
620.818	10821
620.883	11002
620.948	10384
621.013	10590
621.078	9830
621.143	9396
621.207	12434
621.272	10439
621.337	9996
621.402	9866
621.467	9916
621.532	9638
621.596	9831
621.661	9388
621.726	10122
621.791	9733
621.855	10117
621.920	9254
621.985	9924
622.049	10540
622.114	10261
622.179	10153
622.243	9793
622.308	10463
622.373	12355
622.437	10820
622.502	9603
622.566	10431
622.631	9455
622.695	10508
622.760	10173
622.824	10127
622.889	10240
622.953	10049
623.018	11134
623.082	11117
623.147	11185
623.211	10967
623.276	10980
623.340	9849
623.404	10674
623.469	10616
623.533	9174
623.597	9266
623.662	9318
623.726	9117
623.790	8413
623.854	7652
623.919	7923
623.983	8141
624.047	7556
624.111	8260
624.176	8815
624.240	8677
624.304	9225
624.368	8611
624.432	8436
624.496	8528
624.560	9889
624.625	9558
624.689	10334
624.753	10447
624.817	9484
624.881	8759
624.945	8278
625.009	7289
625.073	7991
625.137	8558
625.201	8922
625.265	8799
625.329	8665
625.393	8273
625.456	9531
625.520	8420
625.584	9551
625.648	9242
625.712	9368
625.776	10377
625.839	9188
625.903	7378
625.967	5617
626.031	8387
626.095	8949
626.158	7939
626.222	6283
626.286	5048
626.349	5702
626.413	4018
626.477	5711
626.540	5099
626.604	4828
626.668	5267
626.731	4252
626.795	4350
626.858	4341
626.922	4588
626.986	4035
627.049	4102
627.113	5473
627.176	4443
627.240	4455
627.303	4653
627.366	4107
627.430	4608
627.493	5082
627.557	4109
627.620	4869
627.684	4572
627.747	4428
627.810	3698
627.874	4202
627.937	2604
628.000	5169
628.064	4413
628.127	2952
628.190	4005
628.253	2661
628.317	3805
628.380	2890
628.443	2608
628.506	2510
628.569	2603
628.632	1470
628.696	2901
628.759	1885
628.822	2508
628.885	1814
628.948	2481
629.011	2568
629.074	2015
629.137	2002
629.200	1272
629.263	2979
629.326	1537
629.389	1248
629.452	2518
629.515	2055
629.578	1937
629.641	2299
629.704	2046
629.767	1718
629.830	2386
629.892	1952
629.955	2258
630.018	2109
630.081	1302
630.144	1831
630.207	1249
630.269	3134
630.332	2271
630.395	1373
630.458	2420
630.520	650
630.583	1863
630.646	1925
630.708	1480
630.771	1411
630.834	2128
630.896	1605
630.959	1852
631.021	1904
631.084	2284
631.146	1762
631.209	1444
631.272	1349
631.334	2059
631.397	2104
631.459	1551
631.522	1630
631.584	995
631.646	1137
631.709	2461
631.771	1063
631.834	1377
631.896	2160
631.958	1001
632.021	1760
632.083	1385
632.145	1751
632.208	1068
632.270	1870
632.332	1354
632.395	867
632.457	1956
632.519	683
632.581	2255
632.643	1290
632.706	1760
632.768	679
632.830	1007
632.892	1444
632.954	1314
633.016	1531
633.078	922
633.141	995
633.203	1481
633.265	1480
633.327	1523
633.389	1666
633.451	1218
633.513	815
633.575	1419
633.637	1074
633.698	1416
633.760	1214
633.822	1377
633.884	1806
633.946	1661
634.008	1181
634.070	1644
634.132	1867
634.193	1278
634.255	2127
634.317	1304
634.379	1791
634.441	1521
634.502	1122
634.564	1055
634.626	1897
634.687	877
634.749	1360
634.811	1213
634.873	949
634.934	1698
634.996	1405
635.057	1692
635.119	944
635.181	752
635.242	2007
635.304	476
635.365	2025
635.427	-193
635.488	755
635.550	628
635.611	1140
635.673	-376
635.734	1802
635.796	1855
635.857	1635
635.918	299
635.980	1673
636.041	836
636.102	1624
636.164	957
636.225	1635
636.286	481
636.348	1525
636.409	1130
636.470	577
636.531	1318
636.593	1028
636.654	1143
636.715	1476
636.776	1735
636.838	1150
636.899	822
636.960	776
637.021	1056
637.082	1121
637.143	976
637.204	116
637.265	406
637.326	1309
637.387	1590
637.448	140
637.509	1481
637.570	1010
637.631	522
637.692	-221
637.753	-206
637.814	529
637.875	1428
637.936	929
637.997	157
638.058	1317
638.119	990
638.179	720
638.240	467
638.301	842
638.362	197
638.423	810
638.483	983
638.544	259
638.605	1586
638.666	546
638.726	1555
638.787	1211
638.848	285
638.908	663
638.969	63
639.030	409
639.090	-339
639.151	316
639.211	752
639.272	940
639.332	841
639.393	374
639.453	634
639.514	600
639.574	1197
639.635	479
639.695	754
639.756	-30
639.816	-154
639.877	93
639.937	1495
639.997	990
640.058	461
640.118	42
640.178	1872
640.239	743
640.299	137
640.359	703
640.420	577
640.480	386
640.540	-112
640.600	1348
640.661	1528
640.721	-681
640.781	1635
640.841	-604
640.901	1074
640.961	430
641.021	1313
641.082	-312
641.142	276
641.202	832
641.262	-622
641.322	1251
641.382	-447
641.442	434
641.502	-111
641.562	1453
641.622	404
641.682	-158
641.742	689
641.802	246
641.861	1056
641.921	58
641.981	161
642.041	28
642.101	52
642.161	-561
642.221	-414
642.280	452
642.340	422
642.400	-575
642.460	427
642.519	578
642.579	-169
642.639	1052
642.698	-1668
642.758	1961
642.818	211
642.877	-693
642.937	333
642.997	160
643.056	1053
643.116	137
643.175	2025
643.235	-122
643.294	810
643.354	449
643.414	-59
643.473	751
643.532	997
643.592	933
643.651	1648
643.711	4424
643.770	9212
643.830	19043
643.889	40709
643.948	14580
644.008	1633
644.067	849
644.126	-70
644.186	342
644.245	937
644.304	-1526
644.363	913
644.423	-79
644.482	-12
644.541	636
644.600	-842
644.659	1029
644.719	590
644.778	414
644.837	1197
644.896	3821
644.955	7334
645.014	2536
645.073	778
645.132	-214
645.191	694
645.250	-669
645.309	741
645.368	-333
645.427	861
645.486	-12
645.545	1665
645.604	287
645.663	142
645.722	51
645.781	425
645.840	848
645.898	534
645.957	658
646.016	341
646.075	3755
646.134	7695
646.192	17920
646.251	27207
646.310	5676
646.369	1288
646.427	387
646.486	-67
646.545	-474
646.603	364
646.662	886
646.721	103
646.779	-534
646.838	-1373
646.896	1107
646.955	151
647.014	1169
647.072	1025
647.131	4347
647.189	2670
647.248	-6
647.306	536
647.365	536
647.423	-1618
647.481	506
647.540	-1361
647.598	2
647.657	-431
647.715	1361
647.773	-1292
647.832	-187
647.890	-1480
647.948	54
648.007	378
648.065	63
648.123	-404
648.181	285
648.240	-320
648.298	-643
648.356	-135
648.414	-513
648.472	-126
648.531	790
648.589	-28
648.647	-611
648.705	-17
648.763	-605
648.821	-468
648.879	-891
648.937	-372
648.995	-239
649.053	-797
649.111	123
649.169	678
649.227	2389
649.285	4002
649.343	12284
649.401	9787
649.459	1404
649.516	496
649.574	-1504
649.632	-1
649.690	-16
649.748	980
649.806	-588
649.863	1940
649.921	2728
649.979	1184
650.037	12
650.094	-1010
650.152	-297
650.210	-778
650.268	484
650.325	-369
650.383	-574
650.440	-1636
650.498	189
650.556	-344
650.613	-363
650.671	-143
650.728	195
650.786	-773
650.843	-768
650.901	-918
650.958	409
651.016	-57
651.073	-584
651.131	-1181
651.188	-1419
651.246	-71
651.303	-1147
651.360	39
651.418	-1016
651.475	-267
651.532	-1217
651.590	-119
651.647	-1063
651.704	-343
651.762	-167
651.819	-451
651.876	-464
651.933	-169
651.990	-10
652.048	-1131
652.105	-880
652.162	-416
652.219	-539
652.276	14
652.333	-487
652.390	-1631
652.448	-35
652.505	-276
652.562	-745
652.619	-623
652.676	-1318
652.733	-125
652.790	-885
652.847	-1596
652.904	129
652.961	-1491
653.017	-1465
653.074	-513
653.131	-180
653.188	-1725
653.245	-1144
653.302	-434
653.359	-666
653.415	-827
653.472	-1051
653.529	-381
653.586	-1698
653.642	-813
653.699	354
653.756	-856
653.813	-647
653.869	-61
653.926	-1261
653.983	-1743
654.039	-981
654.096	-655
654.152	753
654.209	-1955
654.266	-684
654.322	-1329
654.379	-324
654.435	-139
654.492	-1306
654.548	-799
654.605	-1192
654.661	-386
654.717	-966
654.774	-374
654.830	-546
654.887	-733
654.943	-800
655.000	-1103
655.056	-1015
655.112	-70
655.168	-1570
655.225	-505
655.281	-429
655.337	-1643
655.394	-719
655.450	-291
655.506	-942
655.562	-1411
655.618	-244
655.675	-1986
655.731	-700
655.787	-1076
655.843	-316
655.899	-1351
655.955	-128
656.011	-381
656.067	-1603
656.123	-734
656.179	-229
656.235	-324
656.291	-1529
656.347	-441
656.403	-498
656.459	-1131
656.515	-960
656.571	-1202
656.627	-291
656.683	-995
656.739	-492
656.795	-1085
656.850	-590
656.906	-71
656.962	-58
657.018	-1019
657.074	-1833
657.129	-1198
657.185	-197
657.241	120
657.297	-95
657.352	-1057
657.408	-1683
657.464	-278
657.519	-1186
657.575	-1767
657.630	-1139
657.686	-1111
657.742	-776
657.797	-1565
657.853	-705
657.908	-440
657.964	-1693
658.019	-1117
658.075	-214
658.130	-330
658.186	-1530
658.241	-520
658.297	-1911
658.352	-1257
658.407	-391
658.463	-1848
658.518	-612
658.573	-147
658.629	-1350
658.684	-954
658.739	-302
658.795	-1389
658.850	-440
658.905	-1600
658.960	-478
659.016	-1801
659.071	-647
659.126	-83
659.181	-1073
659.236	-321
659.291	-3
659.346	-554
659.401	-694
659.457	-351
659.512	-796
659.567	286
659.622	-1262
659.677	-1530
659.732	-1758
659.787	-835
659.842	-861
659.897	-1277
659.952	-784
660.007	-310
660.061	-841
660.116	-1697
660.171	-2118
660.226	-1354
660.281	-216
660.336	-966
660.391	-461
660.445	-1217
660.500	-543
660.555	-126
660.610	-1048
660.664	-521
660.719	-983
660.774	-1269
660.828	-938
660.883	-1087
660.938	-933
660.992	-1744
661.047	-482
661.101	-1540
661.156	-80
661.211	-1040
661.265	-1067
661.320	-240
661.374	-1255
661.429	-1042
661.483	78
661.538	-815
661.592	-820
661.647	-846
661.701	-1500
661.755	-796
661.810	-506
661.864	-1161
661.919	-1146
661.973	-352
662.027	-858
662.081	-1685
662.136	-1485
662.190	-1731
662.244	-586
662.299	-1588
662.353	-985
662.407	-883
662.461	-1370
662.515	-765
662.569	-1072
662.624	-1004
662.678	-1683
662.732	-1093
662.786	-1325
662.840	-977
662.894	-676
662.948	-1441
663.002	-1313
663.056	-554
663.110	-1177
663.164	-505
663.218	-1222
663.272	-1212
663.326	-1346
663.380	-1128
663.434	-928
663.488	-1624
663.542	-495
663.595	-550
663.649	-1717
663.703	-1175
663.757	-476
663.811	-1849
663.864	-2007
663.918	-706
663.972	-980
664.026	-957
664.079	-1196
664.133	-371
664.187	-359
664.240	-1287
664.294	-1529
664.348	-1257
664.401	-913
664.455	-428
664.508	-1350
664.562	-1233
664.615	-1485
664.669	-1101
664.722	-1034
664.776	-975
664.829	-988
664.883	-335
664.936	-977
664.990	-1417
665.043	-405
665.097	-1433
665.150	-690
665.203	-1995
665.257	-1835
665.310	-752
665.363	-1411
665.417	-568
665.470	-617
665.523	-1151
665.576	-1179
665.630	-1480
665.683	-1254
665.736	-1309
665.789	-572
665.842	-1554
665.895	-1376
665.949	-837
666.002	-866
666.055	-310
666.108	-287
666.161	-1022
666.214	-1361
666.267	-807
666.320	-766
666.373	-1223
666.426	-965
666.479	-1053
666.532	-927
666.585	-1586
666.638	-1588
666.691	-2343
666.744	16
666.796	-1392
666.849	-1034
666.902	-179
666.955	-1035
667.008	-1435
667.060	-644
667.113	-2094
667.166	-1305
667.219	-907
667.271	-923
667.324	-867
667.377	-1080
667.430	-1465
667.482	-1495
667.535	-1343
667.587	-959
667.640	-796
667.693	-1275
667.745	-874
667.798	-962
667.850	-1431
667.903	-1205
667.955	-1689
668.008	-1910
668.060	-1384
668.113	-1142
668.165	-1152
668.218	-1150
668.270	-1168
668.322	-1255
668.375	-1828
668.427	-1474
668.479	-995
668.532	-1386
668.584	-1281
668.636	-463
668.689	-1220
668.741	-1699
668.793	-1242
668.845	-917
668.898	-450
668.950	-691
669.002	-1089
669.054	-1470
669.106	-1718
669.158	-868
669.211	-912
669.263	-824
669.315	-1191
669.367	-1399
669.419	-1471
669.471	-768
669.523	-913
669.575	-209
669.627	-1779
669.679	-1089
669.731	-1028
669.783	-1259
669.835	-795
669.886	-945
669.938	-928
669.990	-996
670.042	-1180
670.094	-814
670.146	-1219
670.197	-1407
670.249	-1378
670.301	-520
670.353	-333
670.404	-373
670.456	-974
670.508	-414
670.560	984
670.611	2752
670.663	4501
670.715	11067
670.766	19692
670.818	10643
670.869	18
670.921	-541
670.972	-601
671.024	-1298
671.075	-1452
671.127	-1740
671.178	-1742
671.230	-963
671.281	-1192
671.333	-658
671.384	-1329
671.436	-1330
671.487	-497
671.538	-940
671.590	-1187
671.641	-540
671.692	-1042
671.744	791
671.795	1236
671.846	-1568
671.897	-1163
671.949	-1963
672.000	-1048
672.051	-1682
672.102	-1107
672.153	-1827
672.204	-1276
672.256	-988
672.307	-1139
672.358	-1340
672.409	-1687
672.460	-1293
672.511	-1189
672.562	-1689
672.613	-1264
672.664	-716
672.715	-1468
672.766	-972
672.817	-949
672.868	-1393
672.919	-1029
672.970	-1459
673.021	-1269
673.071	-1750
673.122	-465
673.173	-1220
673.224	-1871
673.275	-976
673.326	-1155
673.376	-1386
673.427	-1837
673.478	-1225
673.528	-1004
673.579	-1059
673.630	-1990
673.680	-737
673.731	-1350
673.782	-760
673.832	-1260
673.883	-617
673.934	-896
673.984	-1122
674.035	-942
674.085	-489
674.136	-1269
674.186	-966
674.237	-1133
674.287	-1132
674.338	-1074
674.388	-1072
674.438	-1906
674.489	-1118
674.539	-1766
674.589	-1921
674.640	-1507
674.690	-821
674.740	-1468
674.791	-1882
674.841	-2320
674.891	-1949
674.942	-1358
674.992	-1476
675.042	-1693
675.092	-1881
675.142	-1542
675.193	-1556
675.243	-1524
675.293	-1269
675.343	-1755
675.393	-1778
675.443	-439
675.493	-1612
675.543	-2031
675.593	-819
675.643	-1039
675.693	-1406
675.743	-1122
675.793	-976
675.843	-1442
675.893	-1618
675.943	-1162
675.993	-1168
676.043	-1839
676.093	-1525
676.142	-1783
676.192	-982
676.242	-1827
676.292	-786
676.341	-1758
676.391	-1512
676.441	-1268
676.491	-1055
676.540	-1763
676.590	-1936
676.640	-698
676.689	-1271
676.739	-1734
676.789	-1678
676.838	-1602
676.888	-1178
676.937	-1847
676.987	-1007
677.037	-1297
677.086	-1821
677.136	-1510
677.185	-1278
677.235	-1620
677.284	-1346
677.333	-1431
677.383	-2034
677.432	-865
677.482	-1092
677.531	-537
677.580	-1290
677.630	-1562
677.679	-1303
677.728	-1156
677.778	-1257
677.827	-1171
677.876	-1259
677.925	-1512
677.975	-1095
678.024	-1576
678.073	-1964
678.122	-1172
678.171	-1927
678.220	-1732
678.269	-1698
678.319	-220
678.368	-1493
678.417	-1892
678.466	-1525
678.515	-1552
678.564	-1646
678.613	-1220
678.662	-1382
678.711	-1531
678.760	-1545
678.809	-2067
678.857	-1206
678.906	-2081
678.955	-884
679.004	-1172
679.053	-1093
679.102	-1688
679.151	-1713
679.199	-1804
679.248	-1324
679.297	-1141
679.346	-2197
679.394	-1950
679.443	-1260
679.492	-1823
679.540	-2232
679.589	-1216
679.638	-1275
679.686	-1196
679.735	-1347
679.784	-2154
679.832	-954
679.881	-1706
679.929	-1588
679.978	-1945
680.026	-1044
680.075	-1363
680.123	-1589
680.172	-911
680.220	-1748
680.268	-1100
680.317	-1179
680.365	-1853
680.414	-2244
680.462	-509
680.510	-1664
680.559	-789
680.607	-1119
680.655	-1315
680.703	-1871
680.752	-1401
680.800	-1456
680.848	-1554
680.896	-1655
680.945	-1796
680.993	-1167
681.041	-1278
681.089	-1269
681.137	-782
681.185	-1973
681.233	-1428
681.281	-1722
681.308	-1394
681.329	-1137
681.377	-1354
681.425	-1511
681.430	-1449
681.473	-925
681.521	-1909
681.552	-1812
681.569	-1771
681.617	-1455
681.665	-1905
681.674	-1736
681.713	-994
681.761	-1543
681.796	-1240
681.809	-1145
681.857	-1380
681.904	-1058
681.918	-1053
681.952	-1043
682.000	-1016
682.039	-1601
682.048	-1731
682.096	-1774
682.143	-1391
682.161	-1401
682.191	-1444
682.239	-473
682.283	-1209
682.286	-1273
682.334	-1439
682.382	-1685
682.405	-1538
682.430	-1379
682.477	-1267
682.525	-1574
682.527	-1540
682.572	-915
682.620	-1150
682.648	-1127
682.667	-1117
682.715	-706
682.763	-104
682.770	-297
682.810	-1313
682.857	-1612
682.892	-1349
682.905	-1265
682.952	-1200
683.000	-1326
683.014	-1317
683.047	-1285
683.095	-476
683.135	-733
683.142	-775
683.190	-632
683.237	-962
683.257	-949
683.284	-984
683.332	-1033
683.379	-712
683.379	-710
683.426	-1123
683.473	-963
683.501	-835
683.521	-725
683.568	-425
683.615	-768
683.622	-732
683.662	-608
683.709	-581
683.744	-828
683.757	-913
683.804	-808
683.851	-1045
683.865	-902
683.898	-647
683.945	-658
683.987	-962
683.992	-996
684.039	-1028
684.086	-1252
684.109	-1167
684.133	-1069
684.180	-850
684.227	-746
684.230	-746
684.274	-755
684.321	-812
684.352	-991
684.368	-1085
684.415	-1446
684.462	87
684.473	-91
684.509	-698
684.556	-798
684.595	-569
684.603	-518
684.649	-676
684.696	-425
684.716	-512
684.743	-617
684.790	-699
684.837	-804
684.838	-795
684.883	-476
684.930	-1126
684.959	-584
684.977	-262
685.023	-612
685.070	-786
685.081	-706
685.117	-467
685.164	-741
685.202	-824
685.210	-836
685.257	-227
685.303	-0
685.324	-283
685.350	-659
685.396	-381
685.443	-133
685.445	-123
685.490	172
685.536	-407
685.566	-153
685.583	-34
685.629	-664
685.675	-659
685.688	-497
685.722	-17
685.768	-687
685.809	-756
685.815	-758
685.861	-155
685.908	-99
685.930	-1
685.954	75
686.000	-359
686.047	-628
686.052	-660
686.093	-789
686.139	55
686.173	68
686.185	54
686.232	-576
686.278	166
686.294	16
686.324	-253
686.370	-506
686.416	321
686.416	339
686.463	276
686.509	-219
686.537	-297
686.555	-335
686.601	-71
686.647	-129
686.658	-160
686.693	-210
686.739	-821
686.779	-465
686.785	-403
686.831	338
686.877	67
686.900	21
686.923	-28
686.969	270
687.015	40
687.022	77
687.061	344
687.107	-93
687.143	251
687.153	317
687.199	146
687.245	-262
687.264	-164
687.291	143
687.336	-416
687.382	-130
687.385	-92
687.428	419
687.474	219
687.506	299
687.520	358
687.565	10
687.611	-73
687.627	154
687.657	472
687.702	318
687.748	-198
687.748	-202
687.794	413
687.839	407
687.869	598
687.885	605
687.931	452
687.976	64
687.990	101
688.022	260
688.067	331
688.111	634
688.113	652
688.158	189
688.204	468
688.233	581
688.249	650
688.295	533
688.340	565
688.354	490
688.386	361
688.431	785
688.474	536
688.477	535
688.522	455
688.567	815
688.595	807
688.613	763
688.658	341
688.703	471
688.716	388
688.749	194
688.794	321
688.837	209
688.839	216
688.884	110
688.930	766
688.958	591
688.975	521
689.020	368
689.065	363
689.079	401
689.110	505
689.155	689
689.200	130
689.201	133
689.246	161
689.291	187
689.321	320
689.336	436
689.381	429
689.426	249
689.442	376
689.471	651
689.516	619
689.561	672
689.562	651
689.606	180
689.651	32
689.683	105
689.696	207
689.741	373
689.785	651
689.804	496
689.830	235
689.875	752
689.920	504
689.925	495
689.965	672
690.010	379
690.046	1075
690.054	1181
690.099	777
690.144	514
690.166	433
690.189	564
690.233	559
690.278	918
690.287	941
690.323	957
690.367	1131
690.408	1060
690.412	1069
690.457	672
690.501	1037
690.528	1105
690.546	1082
690.590	553
690.635	541
690.649	455
690.680	506
690.724	554
690.769	1117
690.770	1112
690.813	1057
690.857	389
690.890	438
690.902	532
690.946	61
690.991	645
691.011	687
691.035	727
691.080	996
691.124	922
691.132	931
691.168	1035
691.213	1221
691.252	1086
691.257	1081
691.301	1101
691.346	1065
691.373	889
691.390	789
691.434	1207
691.478	1022
691.493	994
691.522	1010
691.567	1241
691.611	1089
691.614	1063
691.655	1023
691.699	1158
691.734	1188
691.743	1189
691.787	1749
691.831	1344
691.855	1458
691.875	1474
691.919	1277
691.964	837
691.975	731
692.008	778
692.052	1229
692.096	1289
692.096	1275
692.139	1619
692.183	1219
692.216	1366
692.227	1410
692.271	1612
692.315	1299
692.337	1212
692.359	1134
692.403	1419
692.447	1110
692.457	1085
692.490	1206
692.534	1304
692.577	1224
692.578	1238
692.622	1321
692.666	1348
692.698	1236
692.709	1212
692.753	1091
692.797	1280
692.818	1407
692.840	1563
692.884	1214
692.928	1320
692.938	1207
692.971	1005
693.015	1627
693.059	1253
693.059	1236
693.102	1421
693.146	1236
693.179	1084
693.189	1072
693.233	958
693.276	891
693.299	923
693.320	1171
693.363	1378
693.407	1937
693.420	1938
693.450	1670
693.493	1376
693.537	1343
693.540	1311
693.580	1395
693.624	1725
693.660	1803
693.667	1821
693.710	1949
693.753	1677
693.780	1787
693.797	1995
693.840	2278
693.883	2468
693.901	2589
693.926	2422
693.970	2192
694.013	1736
694.021	1654
694.056	1484
694.099	1137
694.141	1247
694.142	1276
694.185	1069
694.229	1132
694.261	1278
694.272	1392
694.315	2019
694.358	2417
694.381	2418
694.401	2233
694.444	2062
694.487	1896
694.501	1852
694.530	1989
694.573	1977
694.616	1960
694.621	1962
694.659	2062
694.702	2024
694.741	1964
694.745	1979
694.787	2004
694.830	1704
694.862	1690
694.873	1687
694.916	1604
694.959	1329
694.982	1224
695.002	1360
695.044	1561
695.087	1824
695.102	1889
695.130	1881
695.172	1865
695.215	1745
695.222	1701
695.258	1757
695.301	1883
695.342	2027
695.343	2056
695.386	2113
695.428	2380
695.462	2364
695.471	2347
695.514	2443
695.556	2413
695.582	2300
695.599	2316
695.641	2413
695.684	2477
695.701	2462
695.726	2474
695.769	2604
695.811	2564
695.821	2555
695.854	2541
695.896	2456
695.938	2389
695.941	2352
695.981	2251
696.023	2225
696.061	2390
696.065	2455
696.108	2648
696.150	2726
696.181	2923
696.192	2985
696.235	2988
696.277	3106
696.301	3074
696.319	3072
696.361	3201
696.404	3087
696.421	3041
696.446	2933
696.488	2883
696.530	2463
696.541	2396
696.572	2512
696.614	2548
696.656	2679
696.660	2674
696.698	2769
696.740	2568
696.780	2422
696.783	2448
696.825	2592
696.867	2631
696.900	2722
696.909	2820
696.951	2929
696.992	3445
697.020	3548
697.034	3499
697.076	3283
697.118	3181
697.139	3134
697.160	3220
697.202	3178
697.244	3195
697.259	3207
697.286	3296
697.327	3292
697.369	3315
697.379	3272
697.411	3325
697.453	3506
697.494	3633
697.499	3617
697.536	3644
697.578	3606
697.618	3573
697.620	3601
697.661	3618
697.703	3559
697.738	3483
697.744	3518
697.786	3656
697.828	3702
697.858	3692
697.869	3667
697.911	3446
697.952	3337
697.977	3205
697.994	3206
698.035	3152
698.077	3096
698.097	3035
698.118	3052
698.160	3026
698.201	3023
698.216	3002
698.243	3090
698.284	3155
698.325	3194
698.336	3194
698.367	3431
698.408	3629
698.449	3887
698.455	3891
698.491	3806
698.532	3639
698.573	3515
698.575	3480
698.614	3769
698.656	4026
698.694	4256
698.697	4268
698.738	3953
698.779	3656
698.814	3372
698.820	3429
698.862	3623
698.903	3823
698.933	3948
698.944	4054
698.985	4358
699.026	4667
699.053	4839
699.067	4771
699.172	4006
699.292	3846
699.411	3461
699.530	3260
699.650	3162
699.769	3471
699.889	3801
700.008	3681
700.127	3426
700.246	3638
700.366	3948
700.485	4315
700.604	4062
700.723	3244
700.843	4015
700.962	3429
701.081	3384
701.200	3007
701.319	3348
701.438	3093
701.557	3363
701.676	4149
701.796	3155
701.915	3371
702.034	2498
702.153	3129
702.272	3776
702.391	3603
702.509	3551
702.628	4466
702.747	4425
702.866	3278
702.985	3753
703.104	3652
703.223	3750
703.342	2539
703.460	3164
703.579	2726
703.698	3074
703.817	3019
703.935	3481
704.054	2666
704.173	3844
704.292	3466
704.410	3080
704.529	2865
704.648	3277
704.766	2845
704.885	3283
705.003	2500
705.122	2248
705.240	3027
705.359	3146
705.477	3330
705.596	3093
705.714	2514
705.833	1558
705.951	2959
706.070	3444
706.188	3007
706.307	3047
706.425	3284
706.543	3055
706.662	2577
706.780	2417
706.898	2922
707.016	3268
707.135	3348
707.253	2933
707.371	2280
707.489	2836
707.608	1932
707.726	1825
707.844	2873
707.962	2922
708.080	1727
708.198	2694
708.316	3795
708.434	2704
708.552	2489
708.670	2388
708.788	2582
708.906	2828
709.024	2993
709.142	3068
709.260	3095
709.378	3123
709.496	1712
709.614	3231
709.732	2406
709.850	2421
709.968	1979
710.085	2022
710.203	1702
710.321	2439
710.439	2404
710.556	2448
710.674	2641
710.792	1677
710.910	2682
711.027	2973
711.145	1510
711.263	3311
711.380	2567
711.498	3059
711.615	2736
711.733	3056
711.851	2486
711.968	2588
712.086	1545
712.203	2196
712.321	940
712.438	2941
712.555	2605
712.673	3362
712.790	3022
712.908	2136
713.025	1813
713.142	3090
713.260	2399
713.377	2299
713.494	2367
713.612	2116
713.729	2728
713.846	2911
713.963	2223
714.081	2415
714.198	2608
714.315	3443
714.432	3904
714.549	7268
714.666	19312
714.783	95776
714.901	147159
715.018	9900
715.135	3252
715.252	2924
715.369	2678
715.486	1923
715.603	2512
715.720	2742
715.837	1874
715.953	2050
716.070	2252
716.187	2393
716.304	1966
716.421	2550
716.538	1998
716.655	2397
716.771	1970
716.888	1944
717.005	1844
717.122	1476
717.238	762
717.355	2536
717.472	2506
717.589	1416
717.705	1599
717.822	2043
717.938	1029
718.055	1465
718.172	1649
718.288	1994
718.405	1834
718.521	1932
718.638	2531
718.754	3345
718.871	2641
718.987	2142
719.104	1186
719.220	1645
719.336	1743
719.453	1190
719.569	1580
719.685	1574
719.802	2211
719.918	3056
720.034	5497
720.151	22034
720.267	70900
720.383	10733
720.499	1164
720.616	2018
720.732	2505
720.848	2773
720.964	3198
721.080	2763
721.196	1208
721.312	1509
721.428	1964
721.544	995
721.660	1396
721.776	1838
721.892	1426
722.008	1886
722.124	2282
722.240	1725
722.356	1784
722.472	2640
722.588	1606
722.704	1599
722.820	199
722.936	928
723.051	1119
723.167	1350
723.283	697
723.399	1567
723.515	1809
723.630	1620
723.746	1780
723.862	1857
723.977	398
724.093	1417
724.209	1244
724.324	986
724.440	1222
724.555	1044
724.671	1717
724.786	1107
724.902	1197
725.017	1002
725.133	1118
725.248	2095
725.364	982
725.479	686
725.595	1245
725.710	1179
725.826	1740
725.941	2412
726.056	552
726.172	879
726.287	1526
726.402	1884
726.517	721
726.633	1405
726.748	1618
726.863	2010
726.978	934
727.093	830
727.208	868
727.324	1643
727.439	1284
727.554	941
727.669	608
727.784	1738
727.899	285
728.014	1216
728.129	1151
728.244	1133
728.359	539
728.474	871
728.589	308
728.704	795
728.819	355
728.934	1836
729.049	1049
729.163	1087
729.278	341
729.393	1451
729.508	948
729.622	250
729.737	527
729.852	1065
729.967	901
730.081	1331
730.196	1416
730.311	1216
730.425	731
730.540	874
730.655	306
730.769	964
730.884	1042
730.998	1544
731.113	1078
731.227	1924
731.342	933
731.456	888
731.571	511
731.685	1574
731.800	1774
731.914	1962
732.028	2218
732.143	2201
732.257	1997
732.371	2987
732.486	7630
732.600	28910
732.714	27134
732.829	3169
732.943	2457
733.057	2710
733.171	2635
733.285	2769
733.399	2511
733.514	2784
733.628	2153
733.742	1900
733.856	2450
733.970	2098
734.084	2554
734.198	1277
734.312	1335
734.426	2947
734.540	2377
734.654	2615
734.768	1942
734.882	2119
734.996	2208
735.109	2601
735.223	2344
735.337	2477
735.451	2018
735.565	2464
735.679	2241
735.792	2236
735.906	1398
736.020	1739
736.134	1555
736.247	2183
736.361	1997
736.475	2367
736.588	2347
736.702	1495
736.815	1160
736.929	1669
737.043	2219
737.156	1848
737.270	1546
737.383	1948
737.497	1534
737.610	1537
737.723	1192
737.837	1651
737.950	1802
738.064	1770
738.177	2107
738.290	1624
738.404	2035
738.517	1754
738.630	2076
738.744	1195
738.857	1651
738.970	1924
739.083	1443
739.197	1708
739.310	756
739.423	2414
739.536	1371
739.649	730
739.762	1000
739.875	821
739.988	1273
740.102	1019
740.215	1023
740.328	1319
740.441	774
740.553	1484
740.667	1661
740.779	1064
740.892	1276
741.005	1371
741.118	859
741.231	1820
741.344	1996
741.457	970
741.569	273
741.682	1399
741.795	1071
741.908	1377
742.020	890
742.133	856
742.246	1079
742.358	1856
742.471	1256
742.584	1081
742.696	573
742.809	1590
742.922	948
743.034	355
743.147	1215
743.259	1208
743.372	879
743.484	1350
743.597	1116
743.709	904
743.822	966
743.934	573
744.046	764
744.159	1599
744.271	1170
744.383	308
744.496	1496
744.608	1675
744.720	1217
744.832	1058
744.945	669
745.057	302
745.169	882
745.281	1120
745.393	1262
745.506	894
745.618	196
745.730	1236
745.842	577
745.954	623
746.066	765
746.178	963
746.290	737
746.402	1337
746.514	963
746.626	1071
746.738	1104
746.850	1130
746.962	1448
747.074	1171
747.185	1094
747.297	1108
747.409	517
747.521	1069
747.633	507
747.744	1129
747.856	901
747.968	518
748.080	1401
748.191	562
748.303	896
748.414	913
748.526	896
748.638	654
748.749	799
748.861	818
748.972	641
749.084	122
749.195	1422
749.307	567
749.418	870
749.530	2143
749.641	451
749.753	598
749.864	1209
749.975	1449
750.087	554
750.198	528
750.310	779
750.421	493
750.532	305
750.643	1003
750.755	901
750.866	460
750.977	1213
751.088	936
751.199	1619
751.310	-150
751.422	766
751.533	879
751.644	53
751.755	1008
751.866	303
751.977	391
752.088	647
752.199	110
752.310	391
752.421	348
752.532	469
752.643	599
752.753	855
752.864	157
752.975	790
753.086	378
753.197	855
753.308	783
753.418	801
753.529	23
753.640	796
753.751	689
753.861	903
753.972	-52
754.083	950
754.193	386
754.304	859
754.415	-462
754.525	846
754.636	571
754.746	75
754.857	753
754.967	-324
755.078	628
755.188	114
755.299	302
755.409	-80
755.520	-237
755.630	863
755.740	-119
755.851	350
755.961	668
756.071	674
756.182	100
756.292	239
756.402	488
756.512	-82
756.623	77
756.733	234
756.843	102
756.953	225
757.063	-108
757.173	234
757.283	825
757.393	350
757.504	23
757.614	534
757.724	146
757.834	215
757.944	457
758.053	672
758.164	325
758.273	596
758.383	763
758.493	384
758.603	732
758.713	338
758.823	130
758.932	-443
759.042	62
759.152	1137
759.262	232
759.372	439
759.481	400
759.591	-29
759.701	-380
759.810	-483
759.920	627
760.029	-190
760.139	352
760.249	105
760.358	281
760.468	-181
760.577	-154
760.687	648
760.796	1059
760.906	-82
761.015	26
761.124	1114
761.234	602
761.343	74
761.453	114
761.562	-176
761.671	-105
761.781	194
761.890	135
761.999	-134
762.108	333
762.218	78
762.327	2
762.436	581
762.545	1053
762.654	393
762.763	421
762.872	-178
762.982	229
763.091	-420
763.200	864
763.309	-215
763.418	736
763.527	-208
763.635	682
763.744	-321
763.853	562
763.962	1027
764.071	517
764.180	229
764.289	239
764.398	368
764.506	99
764.615	90
764.724	332
764.833	-61
764.941	565
765.050	452
765.159	972
765.268	628
765.376	1190
765.485	1236
765.593	1374
765.702	955
765.810	2172
765.919	2629
766.028	4633
766.136	9990
766.245	25320
766.353	76964
766.461	308112
766.570	326096
766.678	37208
766.787	9054
766.895	5024
767.003	3940
767.112	3032
767.220	1725
767.328	1921
767.437	1353
767.545	715
767.653	860
767.761	1090
767.870	697
767.978	1064
768.086	562
768.194	186
768.302	474
768.410	502
768.518	145
768.626	727
768.734	618
768.842	1646
768.950	513
769.058	436
769.166	397
769.274	1382
769.382	2161
769.490	4430
769.598	9902
769.706	25507
769.813	101446
769.921	306852
770.029	87768
770.137	8129
770.245	3693
770.352	3658
770.460	2685
770.568	1931
770.675	1039
770.783	1054
770.891	1148
770.998	961
771.106	461
771.213	805
771.321	451
771.428	1300
771.536	1282
771.643	907
771.751	754
771.858	1123
771.966	701
772.073	2130
772.181	1009
772.288	1760
772.395	1616
772.503	1379
772.610	1270
772.717	1332
772.825	1255
772.932	1606
773.039	850
773.146	2013
773.253	1084
773.361	1062
773.468	1044
773.575	1325
773.682	861
773.789	809
773.896	722
774.003	1460
774.110	1227
774.217	1461
774.324	1313
774.431	1208
774.538	1035
774.645	907
774.752	1017
774.859	2112
774.966	2133
775.073	1230
775.179	999
775.286	156
775.393	783
775.500	986
775.607	825
775.713	932
775.820	432
775.927	1473
776.033	764
776.140	1177
776.247	1506
776.353	569
776.460	207
776.566	683
776.673	468
776.779	683
776.886	111
776.992	2124
777.099	974
777.205	2615
777.312	803
777.418	3039
777.524	2466
777.631	1493
777.737	582
777.843	961
777.950	608
778.056	555
778.162	509
778.268	878
778.375	689
778.481	-333
778.587	856
778.693	187
778.799	903
778.906	1017
779.012	308
779.118	620
779.224	85
779.330	746
779.436	288
779.542	-206
779.648	1362
779.754	-145
779.860	1116
779.966	2904
780.071	4026
780.177	889
780.283	12
780.389	-31
780.495	81
780.601	944
780.706	129
780.812	1130
780.918	363
781.024	-76
781.129	417
781.235	157
781.341	982
781.446	5
781.552	129
781.657	448
781.763	53
781.869	-407
781.974	725
782.080	453
782.185	75
782.291	344
782.396	-308
782.501	87
782.607	-683
782.712	-201
782.818	119
782.923	212
783.028	575
783.134	47
783.239	-206
783.344	401
783.449	554
783.555	-58
783.660	-93
783.765	620
783.870	-451
783.975	-464
784.080	295
784.185	-186
784.291	14
784.396	626
784.501	-293
784.606	469
784.711	328
784.816	-114
784.921	-458
785.026	203
785.130	-201
785.235	-53
785.340	-741
785.445	184
785.550	93
785.655	500
785.760	-402
785.864	750
785.969	47
786.074	232
786.178	-250
786.283	9
786.388	-472
786.492	-159
786.597	-409
786.702	-189
786.806	-816
786.911	177
787.015	-121
787.120	-657
787.224	-366
787.329	-383
787.433	-278
787.538	-95
787.642	23
787.747	-721
787.851	423
787.955	-1039
788.060	-105
788.164	-253
788.268	158
788.372	-930
788.477	-235
788.581	264
788.685	-963
788.789	-705
788.894	-1145
788.998	-431
789.102	532
789.206	-24
789.310	-663
789.414	45
789.518	12
789.622	-562
789.726	-896
789.830	-161
789.934	-801
790.038	129
790.142	-1069
790.246	70
790.350	-199
790.454	-472
790.557	-838
790.661	-367
790.765	251
790.869	-252
790.973	-1382
791.076	966
791.180	-284
791.284	-540
791.388	-176
791.491	-783
791.595	-149
791.698	-1229
791.802	515
791.906	135
792.009	-762
792.113	-71
792.216	258
792.320	-561
792.423	-431
792.527	-517
792.630	-453
792.733	-143
792.837	-1239
792.940	690
793.043	-1010
793.147	-674
793.250	-650
793.353	-447
793.457	-2515
793.560	-548
793.663	463
793.766	67
793.869	-576
793.973	87
794.076	-833
794.179	12
794.282	-158
794.385	-524
794.488	-1232
794.591	-623
794.694	1641
794.797	2093
794.900	-613
795.003	-398
795.106	-1085
795.209	193
795.312	-580
795.415	-99
795.517	-979
795.620	-1105
795.723	-804
795.826	-1066
795.929	-1601
796.031	458
796.134	87
796.237	-1774
796.339	-35
796.442	-646
796.545	-1324
796.647	-1289
796.750	-163
796.852	-993
796.955	-596
797.057	-13
797.160	-805
797.262	-1517
797.365	401
797.467	-730
797.570	-907
797.672	-696
797.775	-149
797.877	-525
797.979	-524
798.082	-1265
798.184	-943
798.286	-134
798.388	-1212
798.491	-701
798.593	-910
798.695	-1215
798.797	-223
798.899	-178
799.001	-252
799.104	-1093
799.206	-1398
799.308	64
799.410	-693
799.512	-189
799.614	-1251
799.716	-881
799.818	-425
799.920	-835
800.021	146
800.123	-1458
800.225	-891
800.327	-1122
800.429	-487
800.531	122
800.633	286
800.734	-892
800.836	-721
800.938	-985
801.039	-1217
801.141	-954
801.243	-436
801.344	-772
801.446	-731
801.548	-756
801.649	-1075
801.751	-1047
801.852	-1200
801.954	-732
802.055	-1545
802.157	-350
802.258	-904
802.360	-2271
802.461	-19
802.563	-1448
802.664	-1136
802.765	-619
802.867	-419
802.968	-1541
803.069	-344
803.170	-1345
803.272	-1406
803.373	-655
803.474	-1730
803.575	-923
803.676	-1260
803.777	-546
803.879	-1208
803.980	-686
804.081	-361
804.182	-359
804.283	-719
804.384	-1076
804.485	-1325
804.586	-696
804.687	38
804.788	-1488
804.888	-452
804.989	-1056
805.090	-716
805.191	-1151
805.292	114
805.393	-186
805.493	-1058
805.594	-1339
805.695	-2026
805.796	-883
805.896	-642
805.997	-326
806.098	-726
806.198	-1104
806.299	-470
806.399	-1043
806.500	-826
806.601	-895
806.701	-1217
806.802	-705
806.902	-1169
807.002	-1035
807.103	-1383
807.203	-480
807.304	-265
807.404	-713
807.504	-801
807.605	-1566
807.705	-292
807.805	-287
807.906	-1409
808.006	-767
808.106	-542
808.206	-558
808.306	-530
808.406	-478
808.507	-465
808.607	-837
808.707	-1249
808.807	-701
808.907	-965
809.007	-823
809.107	-757
809.207	-1594
809.307	-1039
809.407	-689
809.507	-949
809.607	-1374
809.706	-1412
809.806	-85
809.906	-136
810.006	-1100
810.106	-554
810.205	-183
810.305	-1820
810.405	-51
810.505	-254
810.604	-1532
810.704	-1714
810.804	-697
810.903	-726
811.003	-870
811.102	-843
811.202	-818
811.301	-611
811.401	-899
811.500	-785
811.600	-182
811.699	-860
811.799	-1227
811.898	-1086
811.997	-476
812.097	-113
812.196	-826
812.295	-1126
812.395	-883
812.494	-1713
812.593	-483
812.692	-964
812.792	-574
812.891	-206
812.990	-715
813.089	-935
813.188	-568
813.287	-1173
813.386	-1162
813.485	-532
813.584	-1086
813.683	-1050
813.782	-1677
813.881	-608
813.980	-1252
814.079	-1169
814.178	-842
814.277	-583
814.376	-934
814.475	-281
814.574	108
814.672	-1516
814.771	-357
814.870	-432
814.969	-1563
815.067	-824
815.166	-1415
815.265	-1170
815.363	384
815.462	-737
815.560	-161
815.659	-465
815.758	-479
815.856	63
815.955	-213
816.053	-951
816.152	98
816.250	-893
816.348	1184
816.447	-90
816.545	227
816.644	328
816.742	123
816.840	-845
816.938	-500
817.037	-57
817.135	-215
817.233	-458
817.331	45
817.430	-504
817.528	688
817.626	183
817.724	355
817.822	1080
817.920	1986
818.018	3717
818.116	10510
818.214	29511
818.312	86969
818.410	78665
818.508	10011
818.606	2297
818.704	1824
818.802	2159
818.900	2375
818.997	1085
819.095	4712
819.193	7965
819.291	23784
819.389	62903
819.486	173968
819.584	103820
819.682	12626
819.779	3321
819.877	2207
819.975	1409
820.072	809
820.170	741
820.267	282
820.365	-518
820.462	132
820.560	1080
820.657	620
820.755	-657
820.852	25
820.949	-271
821.047	312
821.144	-1052
821.241	101
821.339	-619
821.436	-157
821.533	810
821.631	1439
821.728	197
821.825	27
821.922	68
822.019	1347
822.116	58
822.214	-344
822.311	737
822.408	-43
822.505	-862
822.602	-163
822.699	-585
822.796	60
822.893	-918
822.990	-255
823.086	-2126
823.183	-895
823.280	-796
823.377	-576
823.474	-32
823.571	251
823.667	-434
823.764	-410
823.861	-307
823.958	-613
824.054	102
824.151	-10
824.248	-628
824.344	254
824.441	-981
824.537	-713
824.634	-467
824.731	-644
824.827	3
824.924	-1144
825.020	-184
825.116	-722
825.213	-789
825.309	-673
825.406	-1276
825.502	-632
825.598	-1218
825.695	-585
825.791	-421
825.887	-558
825.983	-1079
826.080	-441
826.176	-1263
826.272	-811
826.368	-452
826.464	-840
826.560	-1376
826.656	-665
826.753	-834
826.849	-575
826.945	-283
827.041	-1371
827.137	-1653
827.233	-191
827.328	-1344
827.424	-539
827.520	-349
827.616	-1301
827.712	-1598
827.808	57
827.904	-576
827.999	-66
828.095	-1137
828.191	-742
828.287	-618
828.382	-1086
828.478	-412
828.574	-1681
828.669	-1222
828.765	-1137
828.860	-1415
828.956	-637
829.051	-1269
829.147	-579
829.242	-1565
829.338	-1074
829.433	-420
829.529	-1418
829.624	-795
829.720	-693
829.815	-926
829.910	-824
830.005	-1044
830.101	-528
830.196	-861
830.291	-838
830.386	-1753
830.482	-165
830.577	-1355
830.672	-1143
830.767	-801
830.862	-1405
830.957	-953
831.052	-1351
831.147	-1297
831.242	-1082
831.337	-1077
831.432	-887
831.527	-1330
831.622	-163
831.717	-1416
831.812	-891
831.907	-1127
832.002	-295
832.097	-920
832.191	-1868
832.286	528
832.381	-858
832.476	-746
832.570	-356
832.665	-44
832.760	-320
832.854	-889
832.949	-1070
833.044	-1357
833.138	-1286
833.233	-825
833.327	-1275
833.422	-1097
833.516	-524
833.611	-1737
833.705	-774
833.799	-1226
833.894	-1955
833.988	-321
834.083	-729
834.177	-718
834.271	-1627
834.365	-1452
834.460	-1100
834.554	-1539
834.648	-946
834.742	-1165
834.836	-578
834.931	-1674
835.025	-760
835.119	-550
835.213	-1197
835.307	-1704
835.401	-858
835.495	-864
835.589	-1031
835.683	-1249
835.777	-1337
835.871	-1149
835.965	-1950
836.059	-816
836.152	-371
836.246	-1588
836.340	-1148
836.434	-948
836.528	-1542
836.621	-969
836.715	-1660
836.809	-1620
836.902	-697
836.996	-2197
837.090	-727
837.183	-1003
837.277	-739
837.370	-2261
837.464	-1882
837.557	-1342
837.651	-1537
837.744	-514
837.838	-979
837.931	-571
838.025	-1289
838.118	-574
838.211	-1110
838.305	-989
838.398	-608
838.491	-942
838.584	-870
838.678	-492
838.771	-156
838.864	-659
838.957	-2402
839.050	-1582
839.144	-1865
839.237	-575
839.330	-1318
839.423	-975
839.516	-1289
839.609	-1084
839.702	-1412
839.795	-2315
839.888	-1645
839.981	-1389
840.073	-1849
840.166	-2164
840.259	-2269
840.352	-1135
840.445	-1072
840.538	-2041
840.630	-255
840.723	-2601
840.816	-666
840.909	-1672
841.001	-1068
841.094	-1217
841.186	-504
841.279	-1368
841.372	-770
841.464	-2227
841.557	-1410
841.649	-2129
841.742	-629
841.834	-1483
841.927	-1325
842.019	-2316
842.111	-582
842.204	-1614
842.296	-1478
842.388	-887
842.481	-1254
842.573	-1271
842.665	-792
842.758	-1636
842.850	-1747
842.942	-2272
843.034	-1005
843.126	-1010
843.218	-640
843.310	-2215
843.402	-797
843.495	-604
843.587	-604
843.679	-1122
843.771	-1288
843.862	-1816
843.954	-710
844.046	-1712
844.138	-1027
844.230	-484
844.322	-1544
844.414	-1012
844.505	-452
844.597	4
844.689	341
844.781	-485
844.872	-870
844.964	-1249
845.056	-733
845.147	-982
845.239	-1382
845.331	-1295
845.422	-2059
845.514	-1287
845.605	-257
845.697	-1552
845.788	-786
845.880	-1589
845.971	-1870
846.063	-1645
846.154	-1233
846.245	-1313
846.337	-1124
846.428	-1108
846.519	-530
846.610	-1891
846.702	-483
846.793	-1440
846.884	-1608
846.975	-1901
847.066	-1282
847.158	-2009
847.249	-1895
847.340	-671
847.431	-1693
847.522	-668
847.613	-872
847.704	-1532
847.795	-1835
847.886	-2003
847.977	-380
848.068	-1180
848.158	-2126
848.249	-2382
848.340	-1031
848.431	-1912
848.522	-1295
848.612	-1258
848.703	-1519
848.794	-2007
848.885	-1097
848.975	-1719
849.066	-342
849.157	-1332
849.247	-822
849.338	-562
849.428	518
849.519	2578
849.609	6081
849.700	14530
849.790	27217
849.881	7672
849.971	-622
850.061	-990
850.152	-907
850.242	-779
850.332	-1371
850.423	-1431
850.513	-1623
850.603	-1922
850.693	-1575
850.784	-2221
850.874	-1559
850.964	-1479
851.054	-945
851.144	-1256
851.234	-1089
851.324	-2441
851.414	-1580
851.505	-1041
851.595	-1619
851.684	-1225
851.774	-553
851.864	-2070
851.954	-1710
852.044	-1002
852.134	-1687
852.224	-900
852.314	-1315
852.403	-1185
852.493	-1234
852.583	-1006
852.673	-1586
852.762	-1835
852.852	-1027
852.942	-1519
853.031	-1330
853.121	-1126
853.210	-736
853.300	-1023
853.389	-1166
853.479	-479
853.568	-256
853.658	1230
853.747	4922
853.837	9888
853.926	26587
854.015	50316
854.105	91835
854.194	163177
854.283	57719
854.373	5451
854.462	-498
854.551	374
854.640	-87
854.729	-1102
854.819	-399
854.908	-1232
854.997	-501
855.086	-1664
855.175	-751
855.264	-1074
855.353	-1186
855.442	-988
855.531	-1431
855.620	-1073
855.709	-1639
855.798	-777
855.887	-1219
855.975	-1683
856.064	-911
856.153	-1303
856.242	-1803
856.331	-1309
856.419	-1395
856.508	-1750
856.597	-1054
856.685	-1545
856.774	-1221
856.863	-1108
856.951	-821
857.040	-1704
857.128	-1903
857.217	-1748
857.305	-1304
857.394	-956
857.482	-797
857.571	-724
857.659	-1429
857.747	-381
857.836	-1430
857.924	-2069
858.012	-1958
858.101	-1701
858.189	-1538
858.277	-1657
858.365	-1232
858.454	-1586
858.542	-1507
858.630	-1845
858.718	-1087
858.806	-2399
858.894	-832
858.982	-1990
859.070	-1575
859.158	-802
859.246	-1974
859.334	-1128
859.422	-1221
859.510	-1521
859.598	-1305
859.686	-1651
859.773	-938
859.861	-1659
859.949	-1293
860.037	-1862
860.125	-1619
860.212	-1560
860.300	-1409
860.388	-1645
860.475	-998
860.563	-1754
860.651	-885
860.738	-1467
860.826	-1119
860.913	-1716
861.001	-1186
861.088	-1297
861.176	-1538
861.263	-1848
861.350	-1809
861.438	-1784
861.525	-1077
861.612	-1151
861.700	-743
861.787	-2099
861.874	-1838
861.962	-1173
862.049	-1636
862.136	-676
862.223	-1345
862.310	-1633
862.397	-990
862.484	-1372
862.572	-1922
862.659	-1242
862.746	-797
862.833	-714
862.920	-293
863.007	-1499
863.094	-1518
863.180	-1319
863.267	-1344
863.354	-2537
863.441	-279
863.528	-1207
863.615	-1287
863.701	-1945
863.788	-1177
863.875	-885
863.961	-2341
864.048	-1833
864.135	-2112
864.221	-1424
864.308	-1796
864.395	-1806
864.481	-1085
864.568	-1061
864.654	-1559
864.741	-1433
864.827	-729
864.914	-921
865.000	-696
865.086	-1133
865.173	-207
865.259	-288
865.345	64
865.432	224
865.518	336
865.604	911
865.690	2416
865.776	5547
865.863	13420
865.949	25979
866.035	39135
866.121	81476
866.207	94593
866.293	21705
866.379	2509
866.465	182
866.551	495
866.637	-843
866.723	-428
866.809	307
866.895	-173
866.981	-947
867.066	-698
867.152	-665
867.238	-883
867.324	-266
867.409	-428
867.495	-824
867.581	-38
867.667	-672
867.752	91
867.838	-178
867.923	960
868.009	1047
868.094	992
868.180	503
868.266	551
868.351	596
868.436	-92
868.522	-895
868.607	-64
868.693	1263
868.778	334
868.863	-60
868.949	-679
869.034	-1159
869.119	-312
869.204	-1825
869.290	-1577
869.375	-1166
869.460	-1350
869.545	-1069
869.630	-935
869.715	-1503
869.800	-436
869.885	-1473
869.970	-404
870.055	-1254
870.140	-1788
870.225	-915
870.310	-79
870.395	-1477
870.480	-1336
870.565	-1948
870.650	-689
870.734	-995
870.819	-160
870.904	-1024
870.989	-510
871.073	-575
871.158	-674
871.243	-1033
871.327	-1463
871.412	-1397
871.496	-1333
871.581	-442
871.665	-1155
871.750	-949
871.834	-873
871.919	-825
872.003	-767
872.088	-960
872.172	-369
872.257	-780
872.341	-969
872.425	-752
872.509	-1868
872.594	-1156
872.678	-1316
872.762	-1438
872.846	-1031
872.930	-1244
873.015	-250
873.099	-966
873.183	-1106
873.267	-1218
873.351	-1762
873.435	-1642
873.519	-1384
873.603	-1097
873.687	-1269
873.771	-1385
873.855	-948
873.938	-1638
874.022	-1108
874.106	-1814
874.190	-793
874.274	-1290
874.358	-460
874.383	-785
874.441	-1549
874.490	-1400
874.525	-1300
874.598	-1015
874.609	-973
874.692	-523
874.705	-596
874.776	-1021
874.813	-988
874.859	-945
874.920	-1485
874.943	-1684
875.027	-736
875.028	-738
875.110	-1011
875.135	-959
875.194	-834
875.243	-1077
875.277	-1249
875.350	-771
875.361	-709
875.444	-1190
875.457	-1099
875.527	-573
875.565	-808
875.611	-1147
875.672	-1038
875.694	-1009
875.778	-1477
875.780	-1444
875.861	-112
875.887	-471
875.944	-1195
875.994	-985
876.027	-916
876.101	-1256
876.111	-1297
876.194	-485
876.209	-456
876.277	-286
876.316	-382
876.360	-519
876.423	-757
876.443	-828
876.526	-310
876.530	-345
876.610	-1098
876.637	-994
876.693	-744
876.745	-681
876.776	-693
876.852	-388
876.859	-360
876.942	-831
876.959	-822
877.025	-723
877.066	-912
877.108	-1080
877.173	-436
877.190	-284
877.273	-65
877.280	-65
877.356	-109
877.387	-103
877.439	-36
877.494	177
877.522	213
877.601	-368
877.605	-395
877.688	-211
877.708	-315
877.770	-579
877.815	-497
877.853	-439
877.922	-750
877.936	-823
878.018	-402
878.029	-481
878.101	-898
878.136	-749
878.184	-602
878.242	-760
878.266	-783
878.349	17
878.349	20
878.431	131
878.456	-23
878.514	-129
878.563	-555
878.596	-1026
878.670	-810
878.679	-741
878.761	-564
878.776	-532
878.844	-659
878.883	-679
878.926	-519
878.990	-380
879.008	-384
879.091	-500
879.097	-507
879.173	-544
879.203	-472
879.255	-482
879.310	-355
879.338	-212
879.417	-794
879.420	-830
879.502	-890
879.523	-816
879.584	-232
879.630	-291
879.667	-472
879.736	-556
879.749	-592
879.831	-596
879.843	-621
879.913	-548
879.949	-392
879.995	-278
880.056	-271
880.077	-230
880.159	-392
880.162	-376
880.241	-20
880.269	46
880.323	163
880.375	197
880.405	416
880.482	1418
880.487	1470
880.569	2711
880.588	2878
880.651	4573
880.694	4396
880.733	4135
880.801	4759
880.815	4129
880.896	468
880.907	137
880.978	-49
881.013	-389
881.060	-436
881.120	-525
881.142	-510
881.224	-762
881.226	-755
881.305	-242
881.332	-294
881.387	-648
881.438	-439
881.469	-255
881.545	-682
881.550	-701
881.632	-402
881.651	-373
881.713	-399
881.757	-222
881.795	-268
881.863	-779
881.876	-755
881.958	-412
881.969	-343
882.039	-4
882.075	17
882.121	-178
882.181	-205
882.202	-128
882.284	-363
882.287	-356
882.365	-163
882.393	-136
882.446	181
882.499	500
882.528	330
882.605	-71
882.609	-61
882.690	-307
882.711	-300
882.771	-357
882.817	-498
882.853	-543
882.923	-210
882.934	-150
883.015	-5
883.029	-4
883.096	-127
883.135	-266
883.177	-393
883.241	-81
883.258	22
883.339	-163
883.347	-137
883.420	157
883.453	81
883.501	-187
883.558	-435
883.583	-430
883.663	-68
883.664	-71
883.744	-216
883.770	-223
883.825	274
883.876	509
883.906	247
883.981	-178
883.987	-165
884.068	-240
884.087	-239
884.149	-465
884.193	-516
884.230	-264
884.298	-211
884.310	-252
884.391	128
884.404	61
884.472	-80
884.510	266
884.552	290
884.615	-439
884.633	-398
884.714	323
884.721	355
884.794	-187
884.826	-215
884.875	214
884.932	220
884.956	180
885.036	176
885.037	174
885.117	142
885.143	8
885.197	64
885.248	-41
885.278	-215
885.354	-257
885.358	-224
885.439	189
885.459	266
885.519	638
885.565	671
885.599	374
885.670	424
885.680	429
885.760	-54
885.775	-148
885.840	-20
885.881	78
885.921	251
885.986	574
886.001	474
886.081	-14
886.091	-112
886.161	-84
886.196	-38
886.241	95
886.302	217
886.322	90
886.402	-216
886.407	-262
886.482	-69
886.512	98
886.562	109
886.617	117
886.642	207
886.722	125
886.722	118
886.802	573
886.828	639
886.882	626
886.933	684
886.962	553
887.038	-77
887.042	-60
887.122	450
887.143	534
887.202	761
887.248	937
887.281	719
887.353	176
887.361	175
887.441	94
887.458	95
887.521	379
887.563	534
887.601	463
887.668	322
887.680	352
887.760	459
887.773	478
887.840	577
887.878	562
887.919	363
887.983	254
887.999	429
888.079	971
888.088	1035
888.158	540
888.193	318
888.238	212
888.297	-37
888.317	96
888.397	730
888.402	757
888.476	57
888.507	-222
888.556	-171
888.612	-174
888.635	-77
888.715	383
888.717	386
888.794	365
888.821	330
888.873	109
888.926	-66
888.953	86
889.031	446
889.032	445
889.111	-39
889.135	-190
889.190	108
889.240	340
889.270	337
889.345	357
889.349	339
889.428	-102
889.449	-228
889.507	317
889.554	765
889.586	744
889.658	679
889.665	691
889.744	787
889.763	806
889.824	673
889.867	570
889.903	558
889.972	525
890.076	708
890.181	76
890.285	315
890.390	-548
890.494	353
890.599	624
890.703	798
890.807	-345
890.912	615
891.016	888
891.120	685
891.224	2637
891.329	1604
891.433	1155
891.537	737
891.641	255
891.745	801
891.849	822
891.953	252
892.058	687
892.162	54
892.266	201
892.370	912
892.474	462
892.578	388
892.682	862
892.786	2223
892.889	1873
892.993	220
893.097	1320
893.201	23
893.305	508
893.409	848
893.512	190
893.616	612
893.720	308
893.824	540
893.927	11
894.031	278
894.135	-169
894.238	457
894.342	62
894.445	746
894.549	465
894.652	763
894.756	722
894.859	67
894.963	114
895.066	285
895.170	371
895.273	302
895.377	367
895.480	568
895.583	1032
895.687	788
895.790	389
895.893	646
895.997	152
896.100	1116
896.203	199
896.306	338
896.409	923
896.513	302
896.616	314
896.719	383
896.822	772
896.925	-15
897.028	786
897.131	318
897.234	137
897.337	709
897.440	226
897.543	270
897.646	-26
897.749	459
897.852	28
897.954	295
898.057	193
898.160	590
898.263	20
898.366	477
898.468	1095
898.571	576
898.674	-603
898.776	23
898.879	750
898.982	36
899.084	222
899.187	-39
899.290	-317
899.392	-172
899.495	220
899.597	499
899.700	522
899.802	-617
899.904	-103
900.007	509
900.109	1628
900.212	1077
900.314	194
900.416	-264
900.519	921
900.621	234
900.723	297
900.826	812
900.928	-414
901.030	682
901.132	64
901.234	-821
901.336	547
901.439	1067
901.541	923
901.643	-104
901.745	1075
901.847	604
901.949	148
902.051	843
902.153	-66
902.255	743
902.357	261
902.459	0
902.560	827
902.662	798
902.764	1118
902.866	70
902.968	363
903.070	1001
903.171	618
903.273	807
903.375	222
903.477	-317
903.578	41
903.680	145
903.781	418
903.883	871
903.985	562
904.086	19
904.188	1020
904.289	-236
904.391	94
904.492	159
904.594	912
904.695	492
904.796	810
904.898	403
904.999	830
905.100	413
905.202	1265
905.303	281
905.404	876
905.506	-230
905.607	45
905.708	-85
905.809	618
905.910	741
906.012	977
906.113	754
906.214	149
906.315	213
906.416	-87
906.517	-92
906.618	53
906.719	131
906.820	248
906.921	270
907.022	7
907.123	619
907.224	376
907.325	45
907.425	302
907.526	-633
907.627	381
907.728	-435
907.828	342
907.929	-291
908.030	256
908.131	-246
908.231	398
908.332	296
908.433	398
908.533	-90
908.634	103
908.734	767
908.835	702
908.935	-236
909.036	442
909.136	-83
909.237	744
909.337	-239
909.438	416
909.538	292
909.638	-11
909.739	-21
909.839	306
909.939	-183
910.040	849
910.140	360
910.240	279
910.340	-326
910.440	-23
910.541	-284
910.641	288
910.741	-268
910.841	-139
910.941	219
911.041	1474
911.141	-51
911.241	-25
911.341	397
911.441	160
911.541	-1053
911.641	17
911.741	62
911.841	776
911.941	297
912.040	244
912.140	-774
912.240	250
912.340	202
912.440	612
912.539	143
912.639	-679
912.739	-281
912.838	-318
912.938	417
913.038	-589
913.137	-581
913.237	284
913.336	-38
913.436	200
913.535	-311
913.635	599
913.734	-688
913.834	920
913.933	366
914.033	425
914.132	4
914.231	56
914.331	-76
914.430	-5
914.529	152
914.629	68
914.728	-413
914.827	107
914.926	43
915.025	751
915.125	-468
915.224	526
915.323	-753
915.422	-311
915.521	-939
915.620	431
915.719	291
915.818	-723
915.917	-244
916.016	517
916.115	-813
916.214	131
916.313	-304
916.412	52
916.510	-47
916.609	467
916.708	-512
916.807	-710
916.906	428
917.004	227
917.103	413
917.202	-308
917.301	139
917.399	633
917.498	-254
917.596	-343
917.695	-645
917.794	-222
917.892	44
917.991	-220
918.089	21
918.188	24
918.286	-68
918.384	-513
918.483	-231
918.581	591
918.680	-1024
918.778	433
918.876	-6
918.975	385
919.073	3
919.171	117
919.269	-335
919.368	-168
919.466	434
919.564	302
919.662	-214
919.760	-132
919.858	-452
919.956	-294
920.054	291
920.153	967
920.251	-61
920.349	170
920.446	-412
920.544	-176
920.642	793
920.740	-15
920.838	-363
920.936	-268
921.034	-475
921.132	161
921.229	-494
921.327	635
921.425	-260
921.523	535
921.620	-41
921.718	-651
921.816	204
921.913	-574
922.011	268
922.109	344
922.206	85
922.304	465
922.401	-481
922.499	303
922.596	95
922.694	427
922.791	11
922.888	549
922.986	415
923.083	1523
923.181	126
923.278	316
923.375	1088
923.473	670
923.570	775
923.667	1711
923.764	1494
923.861	383
923.959	421
924.056	1079
924.153	919
924.250	488
924.347	1323
924.444	1123
924.541	1221
924.638	1418
924.735	456
924.832	388
924.929	912
925.026	962
925.123	464
925.220	1594
925.317	1021
925.414	953
925.510	451
925.607	548
925.704	1843
925.801	1081
925.897	1736
925.994	1862
926.091	1036
926.187	1513
926.284	944
926.381	1143
926.477	1792
926.574	1916
926.670	1941
926.767	1813
926.863	657
926.960	883
927.056	1212
927.153	450
927.249	244
927.346	-38
927.442	17
927.538	953
927.635	829
927.731	-429
927.827	-220
927.924	842
928.020	216
928.116	-23
928.212	103
928.308	799
928.404	426
928.501	455
928.597	581
928.693	474
928.789	312
928.885	269
928.981	1185
929.077	-216
929.173	547
929.269	899
929.365	383
929.461	776
929.557	-5
929.652	-63
929.748	-541
929.844	616
929.940	151
930.036	173
930.131	849
930.227	483
930.323	-221
930.419	703
930.514	907
930.610	-16
930.705	-122
930.801	304
930.897	141
930.992	92
931.088	-449
931.183	58
931.279	-154
931.374	634
931.470	-103
931.565	323
931.660	386
931.756	1060
931.851	-343
931.946	849
932.042	194
932.137	-204
932.232	543
932.327	480
932.423	614
932.518	618
932.613	-470
932.708	-635
932.803	221
932.898	365
932.994	715
933.089	354
933.184	203
933.279	-619
933.374	538
933.469	-7
933.563	783
933.658	143
933.753	-240
933.848	115
933.943	350
934.038	-95
934.133	130
934.227	-323
934.322	-736
934.417	664
934.512	600
934.606	179
934.701	-194
934.796	-65
934.890	-5
934.985	325
935.079	76
935.174	647
935.269	552
935.363	504
935.458	-94
935.552	736
935.646	-700
935.741	497
935.835	321
935.930	-116
936.024	779
936.118	91
936.213	-313
936.307	137
936.401	1
936.496	256
936.590	273
936.684	-31
936.778	-418
936.872	223
936.966	-46
937.060	-391
937.155	-15
937.249	242
937.343	-715
937.437	92
937.531	-385
937.625	1026
937.719	-494
937.813	47
937.906	-1043
938.000	-420
938.094	336
938.188	296
938.282	381
938.376	-92
938.469	-392
938.563	939
938.657	362
938.751	1928
938.844	1972
938.938	784
939.032	635
939.125	771
939.219	430
939.312	1304
939.406	2706
939.500	625
939.593	-231
939.686	125
939.780	330
939.873	690
939.967	205
940.060	528
940.154	651
940.247	-113
940.340	-517
940.434	616
940.527	226
940.620	1048
940.713	60
940.806	942
940.900	631
940.993	788
941.086	317
941.179	307
941.272	944
941.365	1195
941.458	2599
941.551	3153
941.644	433
941.737	-141
941.830	219
941.923	973
942.016	204
942.109	164
942.202	-285
942.295	782
942.388	-85
942.480	-367
942.573	-601
942.666	-415
942.759	-188
942.851	216
942.944	-915
943.037	188
943.129	-215
943.222	106
943.315	300
943.407	-1014
943.500	56
943.592	-459
943.685	-548
943.777	-314
943.870	-320
943.962	-356
944.055	-987
944.147	407
944.239	-584
944.332	170
944.424	13
944.516	-138
944.609	-77
944.701	-272
944.793	-207
944.885	-597
944.977	146
945.070	308
945.162	-1369
945.254	-723
945.346	-576
945.438	319
945.530	-144
945.622	147
945.714	-998
945.806	414
945.898	-431
945.990	960
946.082	143
946.174	725
946.266	112
946.358	-21
946.449	-948
946.541	-56
946.633	-707
946.725	583
946.816	-89
946.908	-44
947.000	-174
947.091	99
947.183	122
947.275	59
947.366	-992
947.458	-190
947.549	235
947.641	173
947.732	-649
947.824	108
947.915	-716
948.007	-498
948.098	41
948.190	-512
948.281	-476
948.372	-564
948.464	-763
948.555	-60
948.646	172
948.737	-125
948.829	-625
948.920	-737
949.011	-515
949.102	-836
949.193	-804
949.284	57
949.376	-953
949.467	-300
949.558	-1554
949.649	-9
949.740	-1411
949.831	-605
949.922	-187
950.013	-569
950.104	-905
950.194	-132
950.285	-988
950.376	21
950.467	-955
950.558	-860
950.649	-450
950.739	-68
950.830	-503
950.921	-445
951.011	-538
951.102	137
951.193	-1117
951.283	-802
951.374	201
951.464	-798
951.555	-1051
951.646	600
951.736	-677
951.826	-113
951.917	-816
952.007	-612
952.098	-312
952.188	-423
952.279	173
952.369	556
952.459	-387
952.549	528
952.640	-705
952.730	249
952.820	-829
952.910	-637
953.001	326
953.091	-1190
953.181	-358
953.271	-524
953.361	-570
953.451	-215
953.541	-659
953.631	-755
953.721	-1057
953.811	-170
953.901	-752
953.991	-179
954.081	-713
954.171	135
954.261	-375
954.350	208
954.440	-588
954.530	-145
954.620	-457
954.710	-168
954.799	-283
954.889	-692
954.979	565
955.068	457
955.158	-551
955.248	-216
955.337	-984
955.427	-555
955.516	-493
955.606	-257
955.695	-462
955.785	-495
955.874	-695
955.964	-402
956.053	-493
956.142	-233
956.232	-866
956.321	-495
956.410	-505
956.500	88
956.589	-797
956.678	-694
956.767	-928
956.856	-87
956.946	-925
957.035	-1118
957.124	-215
957.213	-435
957.302	-197
957.391	158
957.480	-635
957.569	-425
957.658	-999
957.747	72
957.836	-718
957.925	-1002
958.014	-242
958.103	-726
958.192	-430
958.280	-1266
958.369	-674
958.458	-664
958.547	-704
958.635	-1375
958.724	-422
958.813	-1066
958.901	-171
958.990	-78
959.079	-172
959.167	-236
959.256	-957
959.344	-773
959.433	-462
959.521	-80
959.610	-1183
959.698	-427
959.787	63
959.875	-757
959.964	-748
960.052	-780
960.140	-464
960.228	-1576
960.317	-748
960.405	-630
960.493	-1242
960.581	-791
960.670	-280
960.758	-810
960.846	-276
960.934	-500
961.022	-220
961.110	-645
961.198	-165
961.286	-613
961.374	-416
961.462	-901
961.550	-1742
961.638	-597
961.726	-947
961.814	-76
961.902	-791
961.990	-1217
962.078	-301
962.165	-732
962.253	-542
962.341	-22
962.429	-1062
962.516	-1049
962.604	-1018
962.692	-270
962.779	513
962.867	-898
962.955	-1124
963.042	-725
963.130	-1423
963.217	-697
963.305	-55
963.392	-790
963.480	-791
963.567	-1249
963.654	-706
963.742	-506
963.829	-228
963.917	48
964.004	-1215
964.091	-647
964.178	-1165
964.266	-1097
964.353	-1066
964.440	-419
964.527	-838
964.614	-802
964.701	204
964.789	376
964.876	-920
964.963	-974
965.050	-987
965.137	-905
965.224	-1080
965.311	-1081
965.398	-872
965.485	-516
965.571	-224
965.658	-907
965.745	-1097
965.832	-574
965.919	-757
966.006	-1021
966.092	-963
966.179	-658
966.266	239
966.352	-1080
966.439	-1087
966.526	-480
966.612	-785
966.699	-722
966.786	-1142
966.872	-768
966.959	-877
967.045	-1195
967.132	-732
967.218	-1694
967.304	-775
967.391	-388
967.477	-813
967.564	-1027
967.650	-127
967.736	-388
967.822	-654
967.909	-916
967.995	-1597
968.081	-431
968.167	-948
968.254	183
968.340	-1177
968.426	-1033
968.512	-37
968.598	-651
968.684	-1250
968.770	-1185
968.856	-1029
968.942	-639
969.028	-504
969.114	-1097
969.200	-1730
969.286	-802
969.372	-239
969.457	-1178
969.543	-1227
969.629	-311
969.715	-1041
969.801	-483
969.886	-1007
969.972	-729
970.058	-500
970.143	-138
970.229	324
970.315	-469
970.400	-478
970.486	-548
970.571	-1139
970.657	-1126
970.742	-1330
970.828	-775
970.913	-57
970.999	-1924
971.084	-161
971.169	-1276
971.255	-692
971.340	-438
971.425	-1079
971.511	-388
971.596	-835
971.681	-612
971.766	-524
971.852	-1098
971.937	-653
972.022	-875
972.107	-1471
972.192	-455
972.277	-648
972.362	-716
972.447	-1060
972.532	-336
972.617	-1140
972.702	-528
972.787	-775
972.872	-1124
972.957	-1216
973.042	-993
973.126	-1252
973.211	-511
973.296	-1425
973.381	-288
973.466	-1153
973.550	37
973.635	-1756
973.720	-671
973.804	-1215
973.889	-345
973.973	-1085
974.058	-142
974.143	-593
974.227	-1871
974.312	-423
974.396	-536
974.481	-1316
974.565	-352
974.649	-1223
974.734	-858
974.818	-914
974.902	-842
974.987	-796
975.071	-1309
975.155	-1334
975.240	-462
975.324	-1268
975.408	-468
975.492	-1102
975.576	-900
975.660	-952
975.744	-349
975.829	-1000
975.913	-69
975.997	-834
976.081	-1726
976.165	-583
976.249	-691
976.333	-841
976.416	-741
976.500	15
976.584	-1004
976.668	-1016
976.752	-629
976.836	-810
976.919	-461
977.003	-760
977.087	-698
977.171	-1801
977.254	-846
977.338	-854
977.422	-1170
977.505	-1710
977.589	-1207
977.672	-1210
977.756	-591
977.839	-985
977.923	-2230
978.006	-258
978.090	99
978.173	-1503
978.257	-860
978.340	-960
978.423	-659
978.507	-1183
978.590	-1660
978.673	-864
978.756	-345
978.840	-1375
978.923	-508
979.006	-1310
979.089	-1244
979.172	-636
979.255	-1381
979.338	-1124
979.422	-1103
979.505	-1676
979.588	-795
979.671	-1242
979.754	-1310
979.836	-1511
979.919	-540
980.002	-1255
980.085	-1270
980.168	-2143
980.251	-598
980.334	-1747
980.416	-628
980.499	-1597
980.582	-1034
980.665	-1315
980.747	-364
980.830	-949
980.912	-627
980.995	-1384
981.078	-345
981.160	-736
981.243	-1037
981.325	-1393
981.408	-693
981.490	-1403
981.573	-1116
981.655	-1356
981.738	-238
981.820	-1201
981.902	-797
981.984	-1379
982.067	-679
982.149	-767
982.231	-909
982.314	-1021
982.396	-791
982.478	-797
982.560	-1011
982.642	-385
982.724	-1752
982.807	-1244
982.888	-780
982.971	-1163
983.053	-1231
983.135	-536
983.216	-1651
983.298	-452
983.380	-1427
983.462	-863
983.544	-171
983.626	-1675
983.708	179
983.790	-2165
983.871	-366
983.953	-1422
984.035	-692
984.117	-1688
984.198	-554
984.280	-1232
984.362	-1750
984.443	-1552
984.525	-671
984.606	-1587
984.688	-1345
984.769	-1445
984.851	-757
984.932	-1412
985.014	-542
985.095	-1807
985.177	-1215
985.258	-1406
985.339	-1029
985.421	-176
985.502	-708
985.583	-1486
985.664	-341
985.746	-1289
985.827	-1833
985.908	-312
985.989	200
986.070	-1842
986.151	-1720
986.232	-1320
986.313	-409
986.395	-655
986.476	-1179
986.557	-1030
986.637	-818
986.718	-1021
986.799	-691
986.880	-582
986.961	-875
987.042	-1048
987.123	-732
987.204	-855
987.284	-1282
987.365	-1399
987.446	-1007
987.526	-425
987.607	-1939
987.688	-425
987.768	-431
987.849	-1237
987.930	-510
988.010	-1620
988.091	-1059
988.171	-943
988.252	-1331
988.332	-1201
988.413	-1017
988.493	-1262
988.573	-969
988.654	-956
988.734	-1000
988.814	-2003
988.895	232
988.975	-368
989.055	-312
989.135	-1261
989.216	-1626
989.296	-1121
989.376	-1328
989.456	-638
989.536	-718
989.616	-1144
989.696	-1317
989.776	-1405
989.856	-228
989.936	-1993
990.016	-1681
990.096	-500
990.176	-260
990.256	-753
990.336	-916
990.416	-1027
990.495	-110
990.575	-1136
990.655	-546
990.735	-1578
990.814	-425
990.894	-1639
990.974	-942
991.053	-943
991.133	-849
991.213	-716
991.292	-1031
991.372	-716
991.451	-1427
991.531	-789
991.610	-880
991.690	-636
991.769	-924
991.849	-1078
991.928	-553
992.007	-1816
992.087	-502
992.166	-1231
992.245	-575
992.324	-1618
992.404	-599
992.483	-1954
992.562	-757
992.641	-1101
992.720	-1560
992.799	-1260
992.879	-1340
992.958	-1350
993.037	-952
993.116	-819
993.195	-1151
993.274	-1898
993.353	-1566
993.432	-1135
993.510	-719
993.589	-1864
993.668	-1677
993.747	-1526
993.826	-1266
993.904	-1208
993.983	-705
994.062	-1748
994.141	-768
994.219	-2069
994.298	-1257
994.377	-1182
994.455	-942
994.534	-1495
994.612	-863
994.691	-2106
994.769	-1090
994.848	-1543
994.926	-943
995.005	-1018
995.083	-1127
995.161	-1398
995.240	-1323
995.318	-1632
995.397	-1012
995.475	-1831
995.553	-1522
995.631	-1563
995.710	-591
995.788	-2396
995.866	-1150
995.944	-914
996.022	-1367
996.100	-2008
996.178	-1285
996.256	-1498
996.334	-947
996.412	-2268
996.490	-911
996.568	-1522
996.646	-1195
996.724	72
996.802	-1152
996.880	-2793
996.958	-741
997.036	-1529
997.113	-800
997.191	-1736
997.269	-1116
997.346	-2101
997.424	-1146
997.502	-2338
997.579	-1593
997.657	-1975
997.735	-975
997.812	-1542
997.890	-1695
997.967	-2353
998.045	-515
998.122	-1787
998.200	-1177
998.277	-1209
998.354	-1453
998.432	-2379
998.509	-1334
998.586	-2520
998.664	-1471
998.741	-1337
998.818	-1119
998.896	-1415
998.973	-1029
999.050	-1907
999.127	-1210
999.204	-1562
999.281	-1418
999.358	-1703
999.435	-1291
999.512	-1335
999.589	-1572
999.666	-1780
999.743	-1013
999.820	-1644
999.897	-1482
999.974	-1514
1000.051	-1226
1000.128	-1814
1000.205	-1249
1000.281	-963
1000.358	-1988
1000.435	-1815
1000.512	-1127
1000.588	-1846
1000.665	-1536
1000.741	-1380
1000.818	-1169
1000.895	-1773
1000.971	-1703
1001.048	-1031
1001.124	-1885
1001.201	-1547
1001.277	-2421
1001.354	-1615
1001.430	-1840
1001.507	-2328
1001.583	-1554
1001.659	-1745
1001.736	-1590
1001.812	-650
1001.888	-1059
1001.964	-1319
1002.041	-1696
1002.117	-2034
1002.193	-542
1002.269	-2168
1002.345	-1131
1002.421	-1421
1002.497	-1795
1002.573	-873
1002.649	-1711
1002.725	-1888
1002.801	-1564
1002.877	-1390
1002.953	-1210
1003.029	-1724
1003.105	-1663
1003.181	-1319
1003.257	-747
1003.333	-1719
1003.408	-1716
1003.484	-1346
1003.560	-1762
1003.636	-1545
1003.711	-1636
1003.787	-1185
1003.862	-1201
1003.938	-2020
1004.014	-1269
1004.089	-2155
1004.165	-1433
1004.240	-1826
1004.316	-1696
1004.391	-2421
1004.467	-753
1004.542	-1693
1004.617	-1610
1004.693	-1890
1004.768	-1275
1004.844	-2499
1004.919	-1323
1004.994	-2306
1005.069	-1915
1005.145	-1199
1005.220	-1687
1005.295	-2355
1005.370	-842
1005.445	-1905
1005.520	-1266
1005.595	-2086
1005.670	-1798
1005.745	-1802
1005.820	-1513
1005.895	-1199
1005.970	-1447
1006.045	-1944
1006.120	-1269
1006.195	-2045
1006.270	-1027
1006.345	-1673
1006.419	-2154
1006.494	-2517
1006.569	-1265
1006.644	-1813
1006.718	-1402
1006.793	-2012
1006.868	-1661
1006.942	-832
1007.017	-1697
1007.092	-1750
1007.166	-1753
1007.241	-1940
1007.315	-1325
1007.390	-2104
1007.464	-1945
1007.539	-2463
1007.613	-1189
1007.687	-1521
1007.762	-1584
1007.836	-2262
1007.910	-1227
1007.984	-1272
1008.059	-1587
1008.133	-1634
1008.207	-2628
1008.281	-1443
1008.356	-1667
1008.430	-2083
1008.504	-2676
1008.578	-2180
1008.652	-1305
1008.726	-1585
1008.800	-1735
1008.874	-1203
1008.948	-759
1009.022	-1707
1009.096	-1519
1009.170	-2154
1009.244	-1977
1009.317	-1854
1009.391	-1859
1009.465	-1813
1009.539	-2314
1009.613	-2058
1009.686	-1937
1009.760	-2233
1009.834	-2292
1009.907	-1834
1009.981	-1897
1010.054	-1505
1010.128	-2797
1010.201	-2393
1010.275	-940
1010.349	-1817
1010.422	-1873
1010.495	-2554
1010.569	-2736
1010.642	-2280
1010.716	-1506
1010.789	-2453
1010.862	-2124
1010.936	-2401
1011.009	-1269
1011.082	-2164
1011.155	-1748
1011.229	-1905
1011.302	-1166
1011.375	-973
1011.448	-1490
1011.521	-1181
1011.594	-1928
1011.667	-1867
1011.740	-1853
1011.813	-2320
1011.886	-2827
1011.959	-2522
1012.032	-1338
1012.105	-1556
1012.178	-2413
1012.251	-1789
1012.324	-2172
1012.396	-1555
1012.469	-1858
1012.542	-2051
1012.614	-1400
1012.687	-2466
1012.760	-1447
1012.833	-1608
1012.905	-1834
1012.978	-1399
1013.050	-1701
1013.123	-2125
1013.195	-2077
1013.268	-1637
1013.340	-1488
1013.413	-2278
1013.485	-1488
1013.558	-1335
1013.630	-1436
1013.702	-2377
1013.775	-1827
1013.847	-1585
1013.919	-2124
1013.992	-2266
1014.064	-969
1014.136	-2251
1014.208	-1331
1014.280	-1764
1014.353	-2036
1014.425	-2054
1014.497	-1950
1014.569	-2234
1014.641	-2021
1014.713	-1699
1014.785	-1580
1014.857	-1960
1014.929	-2225
1015.001	-2303
1015.072	-1581
1015.144	-2539
1015.216	-940
1015.288	-2137
1015.360	-1262
1015.431	-2677
1015.503	-851
1015.575	-2155
1015.647	-2198
1015.718	-2081
1015.790	-1943
1015.861	-2103
1015.933	-1687
1016.005	-1441
1016.076	-2250
1016.148	-2232
1016.219	-1649
1016.291	-1867
1016.362	-1398
1016.433	-2911
1016.505	-1798
1016.576	-1321
1016.647	-2209
1016.719	-1522
1016.790	-2189
1016.861	-1700
1016.932	-1873
1017.004	-2461
1017.075	-2618
1017.146	-1935
1017.217	-2441
1017.288	-2232
1017.359	-1922
1017.430	-1619
1017.502	-2312
1017.573	-1902
1017.644	-699
1017.714	-2321
1017.785	-2272
1017.856	-2097
1017.927	-2152
1017.998	-2134
1018.069	-2233
1018.140	-2363
1018.210	-1190
1018.281	-1956
1018.352	-2132
1018.423	-1661
1018.493	-1693
1018.564	-1954
1018.635	-1684
1018.705	-2546
1018.776	-2120
1018.846	-1752
1018.917	-1383
1018.987	-1906
1019.058	-1192
1019.128	-1274
1019.199	-1526
1019.269	-2021
1019.340	-1768
1019.410	-1980
1019.480	-2325
1019.551	-2614
1019.621	-2002
1019.691	-1751
1019.761	-2084
1019.832	-2135
1019.902	-1307
1019.972	-2145
1020.042	-1533
1020.112	-1916
1020.182	-1791
1020.252	-2095
1020.322	-2120
1020.392	-2414
1020.462	-2235
1020.532	-2660
1020.602	-1242
1020.672	-1489
1020.742	-2040
1020.812	-1717
1020.882	-1772
1020.952	-2310
1021.021	-1496
1021.091	-2106
1021.161	-1770
1021.230	-2424
1021.300	-2524
1021.370	-1989
1021.440	-2580
1021.509	-1375
1021.579	-1904
1021.648	-1615
1021.718	-1854
1021.787	-1724
1021.857	-1562
1021.926	-2203
1021.996	-1874
1022.065	-1282
1022.134	-1512
1022.204	-2138
1022.273	-1804
1022.342	-2285
1022.412	-2175
1022.481	-2686
1022.550	-1949
1022.619	-1826
1022.689	-1062
1022.758	-2240
1022.827	-1816
1022.896	-2759
1022.965	-2148
1023.034	-1973
1023.103	-1919
1023.172	-2391
1023.241	-1707
1023.310	-2012
1023.379	-1533
1023.448	-2117
1023.517	-1840
1023.586	-1894
1023.654	-1757
1023.723	-2014
1023.792	-2364
1023.861	-1623
1023.929	-1391
1023.998	-2196
1024.067	-1520
1024.135	-1079
1024.204	-1784
1024.273	-2437
1024.341	-1252
1024.410	-2049
1024.478	-1806
1024.547	-2607
1024.615	-1376
1024.684	-2125
1024.752	-1418
1024.820	-1837
1024.889	-1496
1024.957	-1756
1025.026	-2276
1025.094	-1595
1025.162	-2052
1025.230	-1574
1025.299	-2138
1025.367	-1646
1025.435	-2085
1025.503	-1718
1025.571	-2181
1025.639	-1676
1025.707	-2578
1025.776	-1985
1025.844	-2139
1025.912	-2719
1025.979	-2467
1026.047	-2081
1026.115	-1655
1026.183	-2833
1026.251	-1961
1026.319	-1871
1026.387	-1515
1026.454	-1978
1026.522	-1479
1026.590	-605
1026.658	-1474
1026.725	-2136
1026.793	-2071
1026.861	-2424
1026.928	-2263
1026.996	-1718
1027.064	-2293
1027.131	-2967
1027.199	-2628
1027.266	-2274
1027.334	-1149
1027.401	-3435
1027.468	-1316
1027.536	-1534
1027.603	-1532
1027.671	-2056
1027.738	-2348
1027.805	-2194
1027.872	-1504
1027.940	-1287
1028.007	-1676
1028.074	-1664
1028.141	-1498
1028.208	-2481
1028.275	-1514
1028.342	-1996
1028.409	-1519
1028.477	-1997
1028.544	-1979
1028.610	-2702
1028.678	-2342
1028.744	-2095
1028.811	-1640
1028.878	-1507
1028.945	-2228
1029.012	-2019
1029.079	-1507
1029.146	-1564
1029.212	-1542
1029.279	-1320
1029.346	-2498
1029.412	-2247
1029.479	-1970
1029.546	-2530
1029.612	-2515
1029.679	-2027
1029.745	-2522
1029.812	-2258
1029.878	-1558
1029.945	-2655
1030.011	-1233
1030.078	-2073
1030.144	-1341
1030.210	-2334
1030.277	-2166
1030.343	-1859
1030.409	-1949
1030.476	-1793
1030.542	-1740
1030.608	-2142
1030.674	-2049
1030.740	-1201
1030.807	-1518
1030.873	-1803
1030.939	-2054
1031.005	-1450
1031.071	-1996
1031.137	-2059
1031.203	-2200
1031.269	-2297
1031.335	-2387
1031.401	-1941
1031.467	-1707
1031.533	-2885
1031.598	-1772
1031.664	-1861
1031.730	-2061
1031.796	-2546
1031.861	-2411
1031.927	-1847
1031.993	-1539
1032.058	-1697
1032.124	-1576
1032.190	-2113
1032.255	-1722
1032.321	-2288
1032.386	-2099
1032.452	-1924
1032.518	-1973
1032.583	-2335
1032.648	-822
1032.714	-2091
1032.779	-1454
1032.844	-2195
1032.910	-2428
1032.975	-1910
1033.040	-2655
1033.106	-2374
1033.171	-2226
1033.236	-2006
1033.301	-1752
1033.366	-2186
1033.432	-2377
1033.496	-1554
1033.562	-1651
1033.627	-2170
1033.692	-2007
1033.757	-2944
1033.822	-2202
1033.887	-1458
1033.952	-2149
1034.016	-1932
1034.081	-1554
1034.146	-2194
1034.211	-1799
1034.276	-1859
1034.340	-1285
1034.405	-1668
1034.470	-1078
1034.535	-700
1034.599	-1098
1034.664	-1283
1034.729	-1876
1034.793	-1832
1034.858	-1817
1034.922	-2086
1034.987	-1617
1035.051	-1579
1035.116	-1783
1035.180	-2987
1035.245	-2192
1035.309	-2031
1035.373	-2037
1035.437	-2302
1035.502	-1640
1035.566	-1863
1035.630	-857
1035.695	-2325
1035.759	-1817
1035.823	-2605
1035.887	-1707
1035.951	-2191
1036.015	-2060
1036.079	-2705
1036.143	-2854
1036.208	-2584
1036.271	-1238
1036.336	-1562
1036.399	-1635
1036.463	-2502
1036.527	-1815
1036.591	-2408
1036.655	-2229
1036.719	-1442
1036.783	-1056
1036.846	-1370
1036.910	-363
1036.974	-2280
1037.037	-2299
1037.101	-2229
1037.165	-2078
1037.228	-1762
1037.292	-2174
1037.355	-2844
1037.419	-2249
1037.483	-1738
1037.546	-2119
1037.609	-1754
1037.673	-2337
1037.736	-1158
1037.800	-2013
1037.863	-2446
1037.926	-1411
1037.990	-2561
1038.053	-2355
1038.116	-3011
1038.179	-1042
1038.243	-2209
1038.306	-2125
1038.369	-1416
1038.432	-1653
1038.495	-2818
1038.558	-2302
1038.621	-1691
1038.684	-1489
1038.747	-1942
1038.810	-1951
1038.873	-2326
1038.936	-2527
1038.999	-2793
1039.062	-1837
1039.125	-1829
1039.188	-2065
1039.250	-2065
1039.313	-2083
1039.376	-2206
1039.438	-1835
1039.501	-2488
1039.564	-1709
1039.627	-2244
1039.689	-1560
1039.752	-1712
1039.814	-1692
1039.877	-2505
1039.939	-1530
1040.002	-2302
1040.064	-1119
1040.127	-1940
1040.189	-2276
1040.251	-2395
1040.314	-1575
1040.376	-3036
1040.438	-2723
1040.501	-2228
1040.563	-2436
1040.625	-2576
1040.687	-2446
1040.750	-2369
1040.812	-2538
1040.874	-1841
1040.936	-1335
1040.998	-2575
1041.060	-2378
1041.122	-2953
1041.184	-2224
1041.246	-2173
1041.308	-2318
1041.370	-2310
1041.432	-1588
1041.494	-2888
1041.555	-1724
1041.617	-1682
1041.679	-1547
1041.741	-2208
1041.802	-2174
1041.864	-2491
1041.926	-2706
1041.987	-3189
1042.049	-2368
1042.111	-2379
1042.172	-2044
1042.234	-2579
1042.295	-2148
1042.357	-2231
1042.418	-2253
1042.480	-1920
1042.541	-1599
1042.603	-1225
1042.664	-1951
1042.725	-2178
1042.786	-1169
1042.848	-2912
1042.909	-2360
1042.970	-2314
1043.031	-2573
1043.093	-2296
1043.154	-2294
1043.215	-1930
1043.276	-1546
1043.337	-2229
1043.398	-2387
1043.459	-1817
1043.520	-2241
1043.581	-2413
1043.642	-2701
1043.703	-2541
1043.764	-2124
1043.825	-1728
1043.886	-2520
1043.947	-1970
1044.007	-2231
1044.068	-2145
1044.129	-1548
1044.189	-1997
1044.250	-1862
1044.311	-2903
1044.371	-1377
1044.432	-2672
1044.493	-2788
1044.553	-2133
1044.614	-2142
1044.674	-1971
1044.735	-2653
1044.795	-2081
1044.856	-1582
1044.916	-2092
1044.976	-2470
1045.037	-1770
1045.097	-1087
1045.157	-1849
1045.218	-2161
1045.278	-2304
1045.338	-1837
1045.398	-2107
1045.458	-2126
1045.519	-2478
1045.579	-1349
1045.639	-1283
1045.699	-2050
1045.759	-1432
1045.819	-1387
1045.879	-1964
1045.939	-2180
1045.999	-2287
1046.059	-2308
1046.119	-1447
1046.179	-1953
1046.238	-2107
1046.298	-1727
1046.358	-1270
1046.418	-1671
1046.477	-1521
1046.537	-1067
1046.597	-551
1046.656	-1266
1046.716	-1582
1046.776	-918
1046.835	-2153
1046.895	-1284
1046.954	-1761
1047.014	-624
1047.073	-521
1047.133	0
