'Start Wavelength	183.833
'End Wavelength	1047.133
'Gate Delay	5.000
'Gate Width (ms)	1.050
'Laser Output Level	0.000
'X Position	0.000
'Y Position	0.000
'Z Position	0.000
'Grid Point Number	1.000
'Shot Number	100.000
183.833	107.000
183.903	-620.000
183.973	419
184.042	-39
184.112	491
184.182	-7
184.252	535
184.321	-979
184.391	76
184.461	-166
184.531	261
184.600	-421
184.670	-562
184.740	545
184.809	78
184.879	508
184.949	-216
185.018	-29
185.088	-112
185.158	78
185.228	256
185.297	335
185.367	-402
185.436	-466
185.506	15
185.576	183
185.645	-389
185.715	213
185.785	-434
185.854	-371
185.924	-511
185.993	-74
186.063	384
186.133	150
186.202	-10
186.272	-347
186.341	-229
186.411	-1141
186.481	-53
186.550	-76
186.620	48
186.689	41
186.759	-167
186.828	-660
186.898	418
186.967	-573
187.037	792
187.106	-6
187.176	-221
187.246	-407
187.315	-275
187.385	-503
187.454	272
187.524	-521
187.593	-249
187.662	-184
187.732	-200
187.801	144
187.871	185
187.940	502
188.010	-530
188.079	-398
188.149	133
188.218	-533
188.288	-39
188.357	433
188.426	-351
188.496	-363
188.565	-150
188.635	-163
188.704	-184
188.773	-156
188.843	489
188.912	-195
188.981	-21
189.051	405
189.120	-386
189.190	3
189.259	145
189.328	-86
189.398	-37
189.467	215
189.536	220
189.606	-14
189.675	-717
189.744	250
189.813	-55
189.883	119
189.952	-512
190.021	-225
190.091	753
190.160	221
190.229	-141
190.298	-399
190.368	-162
190.437	-52
190.506	45
190.575	-1277
190.645	-45
190.714	-501
190.783	170
190.852	-85
190.922	32
190.991	-257
191.060	-36
191.129	-478
191.198	-94
191.268	-663
191.337	-119
191.406	-161
191.475	-490
191.544	-227
191.613	-106
191.683	-466
191.752	-412
191.821	-209
191.890	-63
191.959	42
192.028	-322
192.097	166
192.166	-99
192.236	-261
192.305	237
192.374	267
192.443	-849
192.512	-40
192.581	-135
192.650	-509
192.719	51
192.788	-250
192.857	-87
192.926	-202
192.995	-237
193.064	-155
193.133	-347
193.202	-249
193.271	-195
193.340	-108
193.409	1
193.478	-899
193.547	255
193.616	-384
193.685	-205
193.754	-600
193.823	-221
193.892	83
193.961	-658
194.030	378
194.099	72
194.168	-325
194.237	-225
194.306	-1146
194.375	-1066
194.444	-844
194.513	-379
194.582	-451
194.651	-203
194.720	-269
194.788	-302
194.857	252
194.926	276
194.995	27
195.064	251
195.133	-444
195.202	-288
195.270	-814
195.339	207
195.408	-247
195.477	332
195.546	-418
195.615	101
195.683	-320
195.752	-105
195.821	-483
195.890	451
195.959	-536
196.027	531
196.096	552
196.165	439
196.234	-101
196.303	-659
196.371	-284
196.440	-423
196.509	-100
196.578	-219
196.646	-681
196.715	-63
196.784	8
196.853	-261
196.921	-782
196.990	-52
197.059	-610
197.127	86
197.196	-413
197.265	119
197.333	-279
197.402	-69
197.471	-914
197.539	-460
197.608	-58
197.677	649
197.745	-551
197.814	133
197.883	-130
197.951	312
198.020	20
198.088	-541
198.157	-1177
198.226	-251
198.294	-154
198.363	352
198.431	-264
198.500	266
198.569	150
198.637	316
198.706	-354
198.774	-899
198.843	564
198.911	-224
198.980	-452
199.048	343
199.117	-232
199.185	423
199.254	92
199.322	-123
199.391	-562
199.459	-75
199.528	-462
199.596	-169
199.665	-784
199.733	49
199.802	-190
199.870	-93
199.939	492
200.007	212
200.076	-235
200.144	-648
200.213	445
200.281	-1
200.349	-765
200.418	-28
200.486	-130
200.555	-129
200.623	-319
200.691	-571
200.760	-376
200.828	-1063
200.897	-556
200.965	-77
201.033	-304
201.102	569
201.170	-196
201.238	-365
201.307	-106
201.375	57
201.443	-1020
201.512	-524
201.580	-187
201.648	246
201.716	-102
201.785	-1004
201.853	112
201.921	-221
201.990	-612
202.058	-556
202.126	-516
202.194	869
202.263	-216
202.331	-292
202.399	-746
202.467	-163
202.536	368
202.604	15
202.672	-470
202.740	-321
202.808	-330
202.877	-275
202.945	-192
203.013	-254
203.081	-715
203.149	-324
203.218	-729
203.286	-273
203.354	-985
203.422	-275
203.490	-445
203.558	-356
203.626	-166
203.695	-213
203.763	-441
203.831	112
203.899	-1392
203.967	-203
204.035	-789
204.103	-139
204.171	-350
204.239	443
204.307	-996
204.375	103
204.443	-704
204.512	-954
204.580	-363
204.648	-560
204.716	-194
204.784	-246
204.852	-222
204.920	-450
204.988	-63
205.056	417
205.124	-760
205.192	-366
205.260	-1056
205.328	-574
205.396	-272
205.464	-268
205.532	-452
205.600	29
205.667	-182
205.735	-68
205.803	-326
205.871	-123
205.939	-386
206.007	58
206.075	-849
206.143	-456
206.211	-1433
206.279	-637
206.347	-697
206.414	-582
206.482	-692
206.550	-161
206.618	-333
206.686	-497
206.754	-376
206.822	-186
206.889	-945
206.957	142
207.025	-255
207.093	-85
207.161	-519
207.229	-908
207.296	-188
207.364	-209
207.432	-767
207.500	-576
207.567	589
207.635	-1002
207.703	-630
207.771	-500
207.839	-786
207.906	-571
207.974	-674
208.042	-1038
208.109	-890
208.177	-511
208.245	-344
208.313	-479
208.380	29
208.448	158
208.516	-644
208.583	-244
208.651	112
208.719	-283
208.786	-662
208.854	-1110
208.922	-1036
208.989	-124
209.057	-981
209.125	-693
209.192	-13
209.260	-879
209.327	-937
209.395	691
209.463	-239
209.530	-232
209.598	-334
209.665	-947
209.733	-793
209.801	-113
209.868	-1189
209.936	-362
210.003	-946
210.071	-591
210.138	-739
210.206	-181
210.273	-469
210.341	-326
210.408	-204
210.476	-436
210.543	-1374
210.611	377
210.678	-1002
210.746	-738
210.813	-541
210.881	-286
210.948	-1309
211.016	871
211.083	-650
211.151	-412
211.218	-1152
211.285	-359
211.353	-787
211.420	-223
211.488	-978
211.555	-1032
211.622	-326
211.690	-671
211.757	-769
211.825	-349
211.892	-1012
211.959	-367
212.027	-775
212.094	-477
212.161	339
212.229	170
212.296	337
212.363	2842
212.431	528
212.498	-334
212.565	-541
212.633	-853
212.700	-160
212.767	-647
212.835	-132
212.902	327
212.969	-1194
213.036	-57
213.104	-1372
213.171	75
213.238	-746
213.305	-103
213.373	-478
213.440	-390
213.507	-179
213.574	-293
213.641	-1195
213.709	-827
213.776	-41
213.843	581
213.910	-355
213.977	-793
214.045	202
214.112	-45
214.179	-681
214.246	112
214.313	-30
214.380	131
214.447	-266
214.515	-249
214.582	-416
214.649	153
214.716	-748
214.783	-913
214.850	-238
214.917	-436
214.984	-379
215.051	123
215.118	-758
215.185	-110
215.253	-327
215.320	-884
215.387	-409
215.454	-184
215.521	-60
215.588	-436
215.655	-827
215.722	224
215.789	-528
215.856	-60
215.923	-543
215.990	-607
216.057	-88
216.124	403
216.191	-1004
216.258	-735
216.325	-1162
216.391	-322
216.458	-1017
216.525	-335
216.592	289
216.659	581
216.726	-713
216.793	-426
216.860	-634
216.927	-131
216.994	-293
217.061	-461
217.127	-920
217.194	-14
217.261	309
217.328	123
217.395	-76
217.462	-507
217.529	-257
217.595	-978
217.662	-264
217.729	455
217.796	-384
217.863	-172
217.929	-629
217.996	-209
218.063	-992
218.130	-734
218.196	-77
218.263	-917
218.330	-666
218.397	198
218.463	-878
218.530	-719
218.597	-372
218.664	-41
218.730	-1033
218.797	-231
218.864	-665
218.930	-560
218.997	-281
219.064	-202
219.131	550
219.197	-14
219.264	-513
219.331	-538
219.397	-731
219.464	-841
219.530	-255
219.597	-321
219.664	-1389
219.730	-127
219.797	-641
219.864	-505
219.930	-30
219.997	131
220.063	-379
220.130	-547
220.196	-641
220.263	-137
220.330	-839
220.396	425
220.463	-517
220.529	107
220.596	-371
220.662	-333
220.729	816
220.795	422
220.862	-112
220.928	1772
220.995	1790
221.061	2582
221.128	839
221.194	124
221.261	-61
221.327	218
221.394	-440
221.460	636
221.526	-651
221.593	1429
221.659	631
221.726	898
221.792	33
221.859	304
221.925	-225
221.991	-524
222.058	-1467
222.124	-196
222.190	-1042
222.257	-367
222.323	-1256
222.390	-356
222.456	-355
222.522	-270
222.589	-1054
222.655	-1188
222.721	-194
222.788	-561
222.854	-1017
222.920	-869
222.986	-294
223.053	-1569
223.119	-800
223.185	-877
223.251	-1077
223.318	-683
223.384	-806
223.450	-1035
223.516	-774
223.583	-1231
223.649	-755
223.715	-1434
223.781	-699
223.848	-666
223.914	-729
223.980	-642
224.046	-999
224.112	-715
224.178	-745
224.245	-795
224.311	-214
224.377	-587
224.443	-284
224.509	-668
224.575	-1276
224.641	-401
224.708	-695
224.774	-429
224.840	-600
224.906	-1226
224.972	-1882
225.038	-949
225.104	-625
225.170	-376
225.236	-701
225.302	-497
225.368	-570
225.434	-179
225.500	-884
225.566	-1066
225.632	-938
225.699	224
225.765	-318
225.831	-584
225.897	-576
225.963	-256
226.028	-178
226.094	-107
226.160	-774
226.226	801
226.292	2496
226.358	-253
226.424	314
226.490	517
226.556	-836
226.622	-108
226.688	123
226.754	1116
226.820	3347
226.886	3742
226.951	486
227.017	466
227.083	-806
227.149	52
227.215	-147
227.281	306
227.347	-745
227.412	-676
227.478	-427
227.544	467
227.610	201
227.676	-1133
227.742	-866
227.807	-655
227.873	-212
227.939	769
228.005	-848
228.070	-676
228.136	-1043
228.202	-804
228.268	-982
228.333	-595
228.399	-493
228.465	-569
228.531	-371
228.596	-196
228.662	-448
228.728	-30
228.793	-1018
228.859	-611
228.925	306
228.990	-884
229.056	-868
229.122	-676
229.187	-254
229.253	-638
229.319	-494
229.384	-165
229.450	-950
229.516	-958
229.581	-109
229.647	-94
229.712	267
229.778	766
229.844	-658
229.909	-521
229.975	-259
230.040	-335
230.106	-414
230.171	51
230.237	-483
230.302	-417
230.368	-641
230.433	-320
230.499	-570
230.564	-670
230.630	-315
230.695	-142
230.761	-629
230.826	311
230.892	-763
230.957	-322
231.023	-437
231.088	-358
231.154	-680
231.219	-805
231.285	-545
231.350	-870
231.415	-254
231.481	-491
231.546	-716
231.612	-498
231.677	-1259
231.742	-299
231.808	-925
231.873	-1125
231.938	106
232.004	519
232.069	-310
232.135	-472
232.200	-218
232.265	-1252
232.330	-492
232.396	-1099
232.461	-1167
232.526	-1527
232.592	-3
232.657	210
232.722	-514
232.788	-64
232.853	-638
232.918	-918
232.983	-633
233.048	-714
233.114	-229
233.179	535
233.244	858
233.309	-658
233.375	-84
233.440	-58
233.505	-390
233.570	-734
233.635	-722
233.700	524
233.766	559
233.831	-201
233.896	-588
233.961	661
234.026	73
234.091	-329
234.156	-370
234.222	-171
234.287	2749
234.352	3038
234.417	1420
234.482	-72
234.547	-100
234.612	-348
234.677	373
234.742	3323
234.807	884
234.872	562
234.937	-227
235.002	90
235.067	-377
235.132	118
235.197	-828
235.262	-497
235.327	245
235.392	684
235.457	191
235.522	513
235.587	-230
235.652	-718
235.717	-449
235.782	-404
235.847	1178
235.912	1125
235.977	1679
236.042	592
236.107	-216
236.172	187
236.236	279
236.301	375
236.366	1017
236.431	1262
236.496	40
236.561	1625
236.626	6207
236.691	3704
236.755	848
236.820	788
236.885	631
236.950	202
237.015	465
237.079	833
237.144	1263
237.209	5310
237.274	11395
237.339	4396
237.403	1204
237.468	932
237.533	538
237.598	412
237.662	-546
237.727	-207
237.792	351
237.856	1597
237.921	148
237.986	1362
238.050	726
238.115	3500
238.180	4276
238.245	871
238.309	1550
238.374	-42
238.438	1490
238.503	-270
238.568	938
238.632	653
238.697	433
238.762	1351
238.826	1437
238.891	371
238.955	-411
239.020	-100
239.085	459
239.149	-123
239.214	590
239.278	291
239.343	-42
239.407	269
239.472	3890
239.536	2750
239.601	1253
239.665	775
239.730	-285
239.794	1100
239.859	2176
239.923	924
239.988	99
240.052	393
240.117	-58
240.181	759
240.246	-13
240.310	96
240.374	2197
240.439	3077
240.503	677
240.568	1600
240.632	1819
240.696	452
240.761	50
240.825	211
240.890	360
240.954	2386
241.018	3877
241.083	1215
241.147	-76
241.211	719
241.276	2054
241.340	1325
241.404	64
241.469	361
241.533	251
241.597	144
241.661	-161
241.726	442
241.790	-159
241.854	706
241.919	10
241.983	99
242.047	-989
242.111	165
242.175	-1017
242.240	708
242.304	-633
242.368	240
242.432	39
242.496	-67
242.561	-713
242.625	568
242.689	-240
242.753	-391
242.817	-34
242.881	347
242.946	-689
243.010	152
243.074	-93
243.138	295
243.202	160
243.266	-139
243.330	-329
243.394	2310
243.458	7618
243.522	2215
243.586	653
243.651	351
243.715	-47
243.779	751
243.843	828
243.907	1270
243.971	324
244.035	1093
244.099	308
244.163	332
244.227	389
244.291	687
244.355	-153
244.419	440
244.483	475
244.546	-610
244.610	327
244.674	426
244.738	-71
244.802	510
244.866	-60
244.930	-148
244.994	-582
245.058	967
245.122	1067
245.186	1202
245.249	208
245.313	-295
245.377	806
245.441	347
245.505	661
245.569	450
245.632	173
245.696	1199
245.760	816
245.824	301
245.888	687
245.951	559
246.015	50
246.079	1073
246.143	2332
246.207	3961
246.270	1789
246.334	413
246.398	1055
246.461	977
246.525	1794
246.589	2134
246.653	580
246.716	1136
246.780	715
246.844	1321
246.907	-205
246.971	1634
247.035	741
247.098	1868
247.162	2821
247.226	6882
247.289	3799
247.353	1779
247.416	2456
247.480	1870
247.544	338
247.607	1749
247.671	1885
247.734	1247
247.798	1171
247.861	2554
247.925	5616
247.989	2303
248.052	976
248.116	2228
248.179	2546
248.243	10325
248.306	9042
248.370	6231
248.433	1169
248.497	3037
248.560	2350
248.624	2579
248.687	4006
248.751	10516
248.814	5993
248.877	5177
248.941	8134
249.004	12637
249.068	9814
249.131	4017
249.194	2151
249.258	3165
249.321	1696
249.385	2562
249.448	2159
249.511	2022
249.575	2722
249.638	2591
249.701	1573
249.765	2407
249.828	1987
249.891	2123
249.955	1632
250.018	4378
250.081	5440
250.145	2642
250.208	1525
250.271	2713
250.334	2317
250.398	1242
250.461	1634
250.524	3391
250.587	10781
250.651	18483
250.714	4992
250.777	5101
250.840	1993
250.903	2936
250.967	3353
251.030	7926
251.093	3584
251.156	3803
251.219	3867
251.282	3856
251.345	16194
251.409	13813
251.472	8248
251.535	28466
251.598	16794
251.661	6573
251.724	7894
251.787	8471
251.850	18460
251.913	9988
251.976	5228
252.039	4121
252.103	3036
252.166	6800
252.229	12351
252.292	11914
252.355	25407
252.418	10013
252.481	5677
252.544	4674
252.607	4612
252.670	9612
252.733	10506
252.796	24340
252.858	15455
252.921	8274
252.984	5368
253.047	4793
253.110	2989
253.173	5097
253.236	3984
253.299	3956
253.362	3602
253.425	4487
253.488	6993
253.550	5052
253.613	4305
253.676	5034
253.739	2390
253.802	4064
253.865	2668
253.928	3273
253.990	4972
254.053	6535
254.116	5393
254.179	3452
254.242	2724
254.304	3024
254.367	4519
254.430	3496
254.493	4900
254.555	8265
254.618	4112
254.681	2475
254.743	1776
254.806	2487
254.869	5186
254.932	5698
254.994	2885
255.057	2009
255.120	903
255.182	1195
255.245	1341
255.308	1603
255.370	1319
255.433	903
255.496	753
255.558	1082
255.621	860
255.683	1093
255.746	1260
255.809	1258
255.871	835
255.934	618
255.996	797
256.059	751
256.121	1264
256.184	3681
256.246	2266
256.309	2244
256.371	2219
256.434	1299
256.496	-140
256.559	1160
256.621	625
256.684	3930
256.746	9041
256.809	2848
256.871	1965
256.934	1735
256.996	616
257.059	1026
257.121	907
257.183	830
257.246	99
257.308	340
257.371	2178
257.433	11612
257.495	10009
257.558	5656
257.620	3012
257.683	1180
257.745	2035
257.807	921
257.870	1137
257.932	1077
257.994	831
258.056	810
258.119	1492
258.181	2271
258.243	1310
258.306	1452
258.368	2119
258.430	3905
258.492	5011
258.555	6870
258.617	550
258.679	2087
258.741	2115
258.803	1453
258.866	764
258.928	1416
258.990	883
259.052	1609
259.114	1422
259.177	1539
259.239	1040
259.301	3502
259.363	1941
259.425	1665
259.487	758
259.549	522
259.611	473
259.674	1284
259.736	4919
259.798	8509
259.860	12372
259.922	10787
259.984	3268
260.046	1970
260.108	1934
260.170	1211
260.232	262
260.294	1707
260.356	493
260.418	1641
260.480	3903
260.542	3346
260.604	6520
260.666	9358
260.728	2795
260.790	2087
260.852	581
260.914	1721
260.976	2081
261.038	2122
261.100	8878
261.161	8458
261.223	2375
261.285	4486
261.347	6430
261.409	1888
261.471	1746
261.533	645
261.595	1389
261.656	3041
261.718	5783
261.780	2425
261.842	2421
261.904	1397
261.966	1248
262.027	1455
262.089	2848
262.151	2393
262.213	1446
262.274	1858
262.336	2517
262.398	1259
262.460	3014
262.521	6417
262.583	1950
262.645	704
262.706	2181
262.768	5899
262.830	3041
262.892	1671
262.953	1120
263.015	8169
263.077	19467
263.138	6152
263.200	2817
263.261	1226
263.323	1094
263.385	700
263.446	464
263.508	2391
263.569	1204
263.631	1324
263.693	179
263.754	915
263.816	809
263.877	534
263.939	132
264.000	232
264.062	2545
264.123	1745
264.185	52
264.246	348
264.308	1166
264.369	2964
264.431	825
264.492	136
264.554	1057
264.615	2497
264.677	1165
264.738	405
264.800	-121
264.861	361
264.922	-61
264.984	146
265.045	-377
265.107	309
265.168	3514
265.229	2871
265.291	492
265.352	321
265.413	598
265.475	-287
265.536	-459
265.597	-377
265.659	400
265.720	368
265.781	18
265.843	-122
265.904	44
265.965	6246
266.026	4280
266.088	1906
266.149	387
266.210	406
266.271	-539
266.333	179
266.394	125
266.455	-50
266.516	-653
266.577	948
266.639	1682
266.700	-479
266.761	-370
266.822	-817
266.883	-189
266.944	-255
267.005	704
267.067	-297
267.128	-896
267.189	-706
267.250	-21
267.311	-416
267.372	-325
267.433	-548
267.494	-878
267.555	-118
267.616	-894
267.677	712
267.738	-1640
267.799	1483
267.860	2895
267.921	867
267.982	513
268.043	84
268.104	229
268.165	47
268.226	7
268.287	-381
268.348	-432
268.409	282
268.470	-650
268.531	-530
268.592	-779
268.653	-456
268.714	-248
268.775	559
268.836	1565
268.896	2409
268.957	577
269.018	-1006
269.079	771
269.140	-133
269.201	156
269.262	-123
269.322	-207
269.383	157
269.444	551
269.505	1052
269.565	1416
269.626	718
269.687	520
269.748	205
269.809	316
269.869	988
269.930	-66
269.991	-152
270.051	665
270.112	690
270.173	28
270.234	-541
270.294	271
270.355	511
270.416	-273
270.476	946
270.537	1269
270.598	4490
270.658	1299
270.719	211
270.779	1361
270.840	473
270.901	1116
270.961	1487
271.022	905
271.082	1791
271.143	2219
271.203	878
271.264	346
271.325	732
271.385	5588
271.446	2906
271.506	1631
271.567	1572
271.627	1110
271.688	1615
271.748	3087
271.809	14583
271.869	22345
271.930	5225
271.990	8266
272.050	18730
272.111	4598
272.171	2946
272.232	2644
272.292	12136
272.352	7487
272.413	4449
272.473	4795
272.534	4243
272.594	3536
272.654	4733
272.715	9027
272.775	4022
272.835	3444
272.896	1748
272.956	2019
273.016	4632
273.077	4146
273.137	2597
273.197	1979
273.257	7628
273.318	18452
273.378	7095
273.438	6084
273.498	14232
273.559	7081
273.619	9826
273.679	21166
273.739	8637
273.799	4692
273.860	10108
273.920	24034
273.980	6904
274.040	3107
274.100	4376
274.160	22218
274.221	23959
274.281	19198
274.341	16534
274.401	11967
274.461	5050
274.521	4710
274.581	19216
274.641	27458
274.701	11664
274.761	5053
274.821	9516
274.882	38601
274.942	28582
275.002	17167
275.062	6350
275.122	5273
275.182	3086
275.242	4028
275.302	6946
275.362	5752
275.421	4184
275.481	11689
275.541	32072
275.601	16617
275.661	8480
275.721	7949
275.781	5028
275.841	2331
275.901	3251
275.961	2489
276.021	2380
276.081	3442
276.140	13632
276.200	6400
276.260	4379
276.320	2778
276.380	3817
276.440	2938
276.499	1975
276.559	1185
276.619	3019
276.679	8329
276.738	7760
276.798	3448
276.858	3604
276.918	3170
276.978	2093
277.037	2762
277.097	1911
277.157	10698
277.216	5776
277.276	3478
277.336	2005
277.395	2244
277.455	2529
277.515	3123
277.574	5499
277.634	11455
277.694	3829
277.753	14202
277.813	13827
277.873	9137
277.932	28361
277.992	10819
278.051	8451
278.111	11328
278.171	5049
278.230	11107
278.290	10293
278.349	4417
278.409	3587
278.468	1904
278.528	2898
278.587	1652
278.647	2641
278.706	7331
278.766	27725
278.825	8599
278.885	4245
278.944	3861
279.004	5954
279.063	5160
279.122	3706
279.182	3949
279.241	3161
279.301	3439
279.360	7612
279.419	30838
279.479	100006
279.538	89987
279.598	21795
279.657	12333
279.716	17212
279.776	33054
279.835	14431
279.894	6592
279.953	6471
280.013	9470
280.072	21179
280.131	12707
280.191	70760
280.250	86835
280.309	20051
280.368	13378
280.428	15007
280.487	8134
280.546	6323
280.605	7404
280.664	13507
280.724	4542
280.783	3311
280.842	2134
280.901	3515
280.960	3436
281.019	2657
281.079	2704
281.138	2024
281.197	2305
281.256	16979
281.315	16358
281.374	3535
281.433	2547
281.492	1960
281.551	1169
281.611	1982
281.670	1949
281.729	3360
281.788	2234
281.847	1323
281.906	1940
281.965	1361
282.024	1654
282.083	2025
282.142	1992
282.201	1317
282.260	7748
282.319	6965
282.378	3250
282.436	3170
282.495	13173
282.554	9443
282.613	2627
282.672	2144
282.731	4509
282.790	5328
282.849	3603
282.908	1345
282.967	1016
283.025	2663
283.084	3081
283.143	10522
283.202	22653
283.261	7261
283.319	3028
283.378	3215
283.437	1980
283.496	4387
283.555	4074
283.613	2783
283.672	1680
283.731	5844
283.790	7337
283.848	1983
283.907	2828
283.966	2639
284.024	4371
284.083	3209
284.142	10646
284.201	5536
284.259	4161
284.318	19938
284.376	19697
284.435	5568
284.494	6181
284.552	6030
284.611	3277
284.670	3640
284.728	3980
284.787	5177
284.845	5356
284.904	5585
284.962	5804
285.021	11608
285.079	37065
285.138	157055
285.197	158409
285.255	53628
285.314	24401
285.372	15925
285.431	11116
285.489	8069
285.547	6917
285.606	5648
285.664	4150
285.723	3511
285.781	4074
285.840	4273
285.898	2768
285.957	2607
286.015	1861
286.073	1812
286.132	3527
286.190	6497
286.248	3316
286.307	5734
286.365	4709
286.423	2709
286.482	1224
286.540	1673
286.598	2179
286.657	2772
286.715	1893
286.773	3770
286.832	6725
286.890	9494
286.948	4454
287.006	2964
287.064	2069
287.123	2655
287.181	4082
287.239	3211
287.297	3211
287.356	8972
287.414	6347
287.472	3850
287.530	3461
287.588	3125
287.646	5265
287.704	14307
287.763	5031
287.821	3284
287.879	2765
287.937	3992
287.995	9681
288.053	52543
288.111	184456
288.169	82917
288.227	23331
288.285	13559
288.343	17344
288.401	15855
288.459	6969
288.517	4582
288.575	4223
288.633	2958
288.691	3267
288.749	2785
288.807	3676
288.865	5000
288.923	2412
288.981	2574
289.039	4311
289.097	4885
289.155	4257
289.213	4829
289.271	4304
289.329	4090
289.386	5403
289.444	6712
289.502	2987
289.560	1707
289.618	1318
289.676	2280
289.734	1597
289.791	1454
289.849	2559
289.907	4183
289.965	1684
290.022	728
290.080	1721
290.138	2817
290.196	2694
290.253	1128
290.311	1452
290.369	1061
290.427	726
290.484	1454
290.542	1650
290.600	3071
290.657	2113
290.715	3540
290.773	2014
290.830	5030
290.888	4849
290.946	4463
291.003	3539
291.061	3636
291.118	11320
291.176	30078
291.234	11587
291.291	3649
291.349	2309
291.406	2845
291.464	2711
291.521	2019
291.579	1530
291.636	1225
291.694	2701
291.751	8394
291.809	5536
291.866	2135
291.924	2500
291.981	3742
292.039	3444
292.096	2281
292.154	2690
292.211	3675
292.268	9046
292.326	14489
292.383	12454
292.441	6697
292.498	5656
292.555	6751
292.613	8448
292.670	5242
292.727	6171
292.785	18400
292.842	29672
292.899	20452
292.957	6793
293.014	5766
293.071	4210
293.129	3210
293.186	3485
293.243	8028
293.300	10392
293.358	6209
293.415	2071
293.472	2731
293.529	4388
293.586	17311
293.644	49140
293.701	31311
293.758	12674
293.815	8717
293.872	14322
293.929	10382
293.987	6869
294.044	12828
294.101	27755
294.158	38467
294.215	18570
294.272	6978
294.329	5829
294.386	8159
294.443	7896
294.500	6510
294.558	3489
294.615	4054
294.672	14158
294.729	58945
294.786	68224
294.843	36172
294.900	22010
294.957	13865
295.014	10434
295.070	8147
295.127	6372
295.184	5418
295.241	5355
295.298	21444
295.355	45140
295.412	23982
295.469	10825
295.526	23819
295.583	43097
295.640	34689
295.696	41015
295.753	20849
295.810	9269
295.867	9086
295.924	13977
295.981	13910
296.037	7571
296.094	5968
296.151	3946
296.208	3707
296.265	2667
296.321	3391
296.378	4966
296.435	17394
296.492	33287
296.548	25330
296.605	44437
296.662	69863
296.718	31900
296.775	13503
296.832	11546
296.888	24300
296.945	45899
297.002	40040
297.058	16109
297.115	8533
297.172	10759
297.228	46807
297.285	88160
297.341	40563
297.398	14343
297.454	8376
297.511	6508
297.568	8069
297.624	6554
297.681	4823
297.737	3465
297.794	3034
297.850	3502
297.907	3824
297.963	3633
298.020	7336
298.076	24268
298.133	26824
298.189	12733
298.245	21396
298.302	59452
298.358	42010
298.415	24108
298.471	19630
298.527	13858
298.584	9418
298.640	14651
298.697	27248
298.753	20452
298.809	9608
298.866	5097
298.922	4343
298.978	7475
299.035	7354
299.091	5368
299.147	5599
299.203	3166
299.260	4634
299.316	11313
299.372	48121
299.428	53576
299.485	22134
299.541	8907
299.597	7635
299.653	6477
299.710	5946
299.766	5149
299.822	9376
299.878	36034
299.934	46076
299.990	43431
300.046	72083
300.103	44562
300.159	19625
300.215	20384
300.271	21485
300.327	13612
300.383	7896
300.439	5103
300.495	5822
300.551	5035
300.607	11289
300.663	28411
300.719	39593
300.775	52597
300.831	34831
300.887	36500
300.943	33517
300.999	15999
301.055	10067
301.111	10203
301.167	9007
301.223	6520
301.279	5201
301.335	3339
301.391	4544
301.447	3948
301.503	6157
301.559	11870
301.614	14542
301.670	23021
301.726	30578
301.782	21398
301.838	27588
301.894	29168
301.949	53692
302.005	150491
302.061	160898
302.117	80114
302.173	31130
302.228	16023
302.284	17341
302.340	28849
302.396	27652
302.451	23444
302.507	54838
302.563	66105
302.618	41032
302.674	17644
302.730	9544
302.785	6765
302.841	8192
302.897	12687
302.952	21698
303.008	20789
303.064	23401
303.119	24923
303.175	15856
303.230	7930
303.286	5830
303.341	5125
303.397	5159
303.453	4412
303.508	5513
303.564	5664
303.619	14413
303.675	48624
303.730	45781
303.786	22042
303.841	10270
303.897	6507
303.952	11243
304.008	16622
304.063	17020
304.118	27836
304.174	30827
304.229	25118
304.285	14990
304.340	9106
304.372	9061
304.395	9062
304.451	8941
304.463	8698
304.506	7986
304.554	8147
304.562	8212
304.617	15652
304.644	27788
304.672	40473
304.728	60014
304.735	56796
304.783	36795
304.825	21217
304.838	16617
304.894	9047
304.916	8058
304.949	6763
305.004	7488
305.006	7395
305.059	5836
305.097	4934
305.115	4574
305.170	3312
305.188	3842
305.225	4946
305.278	7291
305.280	7420
305.336	6554
305.369	6801
305.391	6984
305.446	8250
305.459	8428
305.501	9119
305.550	9256
305.556	9305
305.612	18730
305.640	33067
305.667	46561
305.722	60755
305.731	58405
305.777	47098
305.821	50493
305.832	51597
305.887	52051
305.912	43555
305.942	32994
305.997	17829
306.002	17215
306.053	11141
306.092	8762
306.108	7950
306.163	6080
306.183	5741
306.218	5274
306.273	6108
306.273	6088
306.328	5742
306.364	5461
306.383	5383
306.438	6257
306.454	8325
306.493	13163
306.545	39951
306.548	41818
306.603	63752
306.635	62857
306.658	62387
306.713	44383
306.725	39521
306.768	23418
306.816	13113
306.823	11666
306.878	8023
306.906	7251
306.933	6650
306.988	5951
306.997	6421
307.043	8872
307.087	13278
307.098	14395
307.152	29621
307.177	35086
307.207	41707
307.262	46064
307.268	44300
307.317	29323
307.358	20783
307.372	17940
307.427	29624
307.448	39951
307.482	56373
307.536	53546
307.538	52597
307.591	29933
307.629	18931
307.646	14154
307.701	10726
307.719	14486
307.756	22167
307.809	45248
307.810	45773
307.865	38627
307.900	28237
307.920	22058
307.975	10689
307.990	10466
308.029	10279
308.080	22506
308.084	23627
308.139	69724
308.170	79832
308.194	86418
308.248	57083
308.261	52172
308.303	34075
308.351	23377
308.358	22100
308.412	13456
308.441	10868
308.467	8609
308.522	6425
308.531	6274
308.576	5765
308.621	6615
308.631	6780
308.686	16439
308.712	26286
308.740	37316
308.795	36901
308.802	35366
308.849	23603
308.892	16025
308.904	14138
308.959	10330
308.982	9942
309.013	9574
309.068	13916
309.072	14940
309.122	25943
309.162	52084
309.177	62442
309.231	110394
309.253	103893
309.286	88083
309.340	47758
309.343	46661
309.395	21671
309.433	13611
309.449	11126
309.504	8352
309.523	8325
309.558	8224
309.613	10943
309.613	10983
309.667	14061
309.703	12667
309.722	11485
309.776	7716
309.793	6742
309.830	5680
309.883	9195
309.885	9266
309.939	19727
309.973	23263
309.994	24957
310.048	20798
310.063	18473
310.102	11711
310.153	7121
310.157	6838
310.211	5361
310.243	4879
310.265	4528
310.320	5254
310.333	5208
310.374	4934
310.423	4464
310.428	4379
310.483	4144
310.513	4490
310.537	5060
310.591	6253
310.603	6149
310.646	4597
310.693	2767
310.700	2533
310.754	1242
310.783	960
310.808	900
310.862	960
310.873	1090
310.917	1197
310.963	1409
310.971	1488
311.025	2370
311.053	2414
311.079	2139
311.133	1518
311.143	1443
311.188	1130
311.233	861
311.242	784
311.296	605
311.323	583
311.350	431
311.404	163
311.413	126
311.458	230
311.503	370
311.512	357
311.567	487
311.593	649
311.621	807
311.675	1174
311.683	1265
311.729	1109
311.772	918
311.783	878
311.837	831
311.862	1007
311.891	1125
311.945	1346
311.952	1430
311.999	712
312.042	226
312.053	181
312.107	285
312.132	383
312.222	180
312.311	-297
312.401	-12
312.491	-26
312.581	992
312.671	439
312.760	323
312.850	175
312.940	525
313.030	-230
313.119	382
313.209	-814
313.299	-10
313.389	575
313.478	-239
313.568	-33
313.658	-235
313.747	179
313.837	-845
313.927	-258
314.016	-205
314.106	85
314.195	-378
314.285	-456
314.375	728
314.464	146
314.554	-254
314.643	45
314.733	-608
314.823	-11
314.912	167
315.002	183
315.091	-268
315.181	-743
315.270	-355
315.360	721
315.449	26
315.539	121
315.628	85
315.718	-762
315.807	-59
315.896	481
315.986	-207
316.075	360
316.165	735
316.254	477
316.344	146
316.433	-640
316.522	-427
316.612	615
316.701	-357
316.790	187
316.880	685
316.969	-23
317.058	62
317.148	-878
317.237	-289
317.326	-723
317.415	-1174
317.505	-370
317.594	11
317.683	178
317.772	877
317.862	694
317.951	708
318.040	775
318.129	423
318.219	-450
318.308	321
318.397	281
318.486	67
318.575	499
318.664	1058
318.754	-150
318.843	-643
318.932	-408
319.021	704
319.110	745
319.199	1231
319.288	525
319.377	507
319.466	-601
319.555	313
319.644	586
319.733	412
319.822	-383
319.911	789
320.000	1948
320.089	108
320.178	324
320.267	239
320.356	18
320.445	-82
320.534	-186
320.623	-732
320.712	221
320.801	-343
320.890	186
320.979	-145
321.068	80
321.157	400
321.245	-267
321.334	103
321.423	362
321.512	313
321.601	307
321.690	1014
321.779	1174
321.867	-154
321.956	388
322.045	30
322.134	561
322.222	1914
322.311	164
322.400	261
322.489	415
322.577	1471
322.666	75
322.755	564
322.843	174
322.932	1323
323.021	1
323.110	447
323.198	-36
323.287	406
323.375	1216
323.464	3167
323.553	248
323.641	2641
323.730	269
323.819	464
323.907	2600
323.996	675
324.084	877
324.173	1795
324.261	222
324.350	271
324.438	-115
324.527	128
324.615	-46
324.704	2762
324.792	2895
324.881	497
324.969	-43
325.058	144
325.146	-263
325.235	1922
325.323	483
325.412	592
325.500	-114
325.588	212
325.677	-500
325.765	-413
325.853	321
325.942	-119
326.030	525
326.118	278
326.207	435
326.295	-45
326.383	246
326.472	-453
326.560	-405
326.648	-288
326.737	-437
326.825	-138
326.913	-323
327.001	534
327.090	340
327.178	570
327.266	-349
327.354	2324
327.442	1528
327.531	-272
327.619	-1090
327.707	264
327.795	443
327.883	350
327.971	-442
328.060	52
328.148	-162
328.236	389
328.324	-138
328.412	-303
328.500	-140
328.588	41
328.676	-4
328.764	-226
328.852	-205
328.940	-506
329.028	-160
329.116	8
329.204	547
329.292	-487
329.380	120
329.468	-182
329.556	-378
329.644	-451
329.732	-285
329.820	-715
329.908	544
329.996	-278
330.084	-702
330.172	96
330.259	692
330.347	368
330.435	-919
330.523	-100
330.611	641
330.699	-451
330.787	-280
330.874	513
330.962	258
331.050	122
331.138	-231
331.226	-98
331.313	-470
331.401	260
331.489	99
331.577	-824
331.664	-63
331.752	224
331.840	-569
331.927	-810
332.015	-747
332.103	-295
332.190	60
332.278	771
332.366	687
332.453	-21
332.541	-75
332.629	-443
332.716	-398
332.804	355
332.891	163
332.979	1291
333.066	-54
333.154	-219
333.242	-862
333.329	-564
333.417	-379
333.504	657
333.592	-299
333.679	102
333.767	-599
333.854	-782
333.942	-51
334.029	417
334.117	1540
334.204	2623
334.291	-118
334.379	122
334.466	-244
334.554	-7
334.641	-615
334.728	-5
334.816	1278
334.903	5208
334.990	1813
335.078	-235
335.165	-879
335.252	-1
335.340	-350
335.427	1238
335.514	543
335.602	82
335.689	-748
335.776	-350
335.863	-273
335.951	-229
336.038	2206
336.125	3407
336.212	99
336.299	-99
336.387	-83
336.474	52
336.561	-255
336.648	278
336.735	-885
336.822	-156
336.910	96
336.997	602
337.084	1517
337.171	1927
337.258	3199
337.345	616
337.432	-68
337.519	-251
337.606	78
337.693	674
337.780	1143
337.867	300
337.954	792
338.041	-223
338.128	-690
338.215	318
338.302	1458
338.389	1778
338.476	248
338.563	350
338.650	413
338.737	620
338.824	-62
338.911	-8
338.998	-893
339.085	78
339.171	-289
339.258	340
339.345	355
339.432	381
339.519	-114
339.606	-13
339.692	-404
339.779	-337
339.866	104
339.953	153
340.040	-124
340.126	467
340.213	-113
340.300	-589
340.387	-404
340.473	-319
340.560	-459
340.647	197
340.733	1126
340.820	178
340.907	-493
340.993	161
341.080	139
341.167	-270
341.253	-249
341.340	-345
341.426	-802
341.513	-461
341.600	-671
341.686	-282
341.773	-207
341.859	-402
341.946	-905
342.032	-294
342.119	-174
342.205	-158
342.292	-565
342.378	-421
342.465	-324
342.551	-406
342.638	463
342.724	894
342.811	-128
342.897	-592
342.984	-557
343.070	-284
343.156	-1188
343.243	-255
343.329	-624
343.416	427
343.502	-588
343.588	171
343.675	-898
343.761	-138
343.847	-391
343.934	302
344.020	4782
344.106	4580
344.193	-135
344.279	132
344.365	1586
344.451	120
344.538	-260
344.624	457
344.710	-666
344.796	-322
344.882	-571
344.969	-137
345.055	16
345.141	-1309
345.227	24
345.313	-370
345.399	-727
345.486	-340
345.572	-1083
345.658	-601
345.744	-654
345.830	-675
345.916	-434
346.002	-332
346.088	603
346.174	-343
346.260	600
346.346	-486
346.432	-832
346.518	876
346.604	1128
346.690	-467
346.776	-678
346.862	-546
346.948	-1478
347.034	351
347.120	-507
347.206	-359
347.292	-124
347.378	-277
347.464	991
347.549	1699
347.635	1244
347.721	193
347.807	-487
347.893	-203
347.979	-388
348.065	-980
348.150	-340
348.236	-362
348.322	-1167
348.408	341
348.493	-218
348.579	186
348.665	-960
348.751	-737
348.836	-1787
348.922	726
349.008	1853
349.094	1162
349.179	-829
349.265	-157
349.351	-586
349.436	-418
349.522	-719
349.608	-713
349.693	298
349.779	584
349.864	-387
349.950	-1132
350.036	-581
350.121	-91
350.207	-1167
350.292	-654
350.378	-560
350.463	-624
350.549	-73
350.634	-1044
350.720	-897
350.805	-469
350.891	-674
350.976	346
351.062	-635
351.147	209
351.233	-824
351.318	190
351.404	88
351.489	-1032
351.574	-686
351.660	-98
351.745	-412
351.830	-27
351.916	-287
352.001	13
352.086	323
352.172	26
352.257	-377
352.342	-652
352.428	177
352.513	-349
352.598	739
352.684	-717
352.769	-414
352.854	-16
352.939	-884
353.024	-884
353.110	28
353.195	-158
353.280	7
353.365	-407
353.450	-70
353.536	-367
353.621	-20
353.706	-928
353.791	27
353.876	-552
353.961	70
354.046	-908
354.131	586
354.216	-4
354.302	-737
354.387	-201
354.472	183
354.557	-847
354.642	-451
354.727	-384
354.812	-931
354.897	-317
354.982	-902
355.067	-599
355.152	-813
355.237	194
355.321	-410
355.406	349
355.491	-733
355.576	-369
355.661	458
355.746	15
355.831	708
355.916	-166
356.001	-258
356.085	-463
356.170	-567
356.255	-754
356.340	-485
356.425	333
356.509	3368
356.594	272
356.679	-582
356.764	167
356.849	-742
356.933	3921
357.018	5146
357.103	207
357.187	-777
357.272	-753
357.357	-313
357.441	258
357.526	-771
357.611	-1135
357.695	-415
357.780	13
357.865	-987
357.949	170
358.034	3607
358.118	6443
358.203	416
358.288	-563
358.372	-252
358.457	1200
358.541	1575
358.626	1098
358.710	1312
358.795	-680
358.879	-555
358.964	-510
359.048	-924
359.133	-142
359.217	-208
359.302	-392
359.386	-800
359.470	-449
359.555	-137
359.639	-355
359.724	-846
359.808	-424
359.892	-848
359.977	-563
360.061	396
360.145	-429
360.230	-873
360.314	-57
360.398	-454
360.483	-457
360.567	354
360.651	86
360.735	-205
360.820	2865
360.904	2336
360.988	326
361.072	-1114
361.157	-141
361.241	-514
361.325	-1210
361.409	-447
361.493	-472
361.577	-673
361.662	-740
361.746	-339
361.830	3338
361.914	1106
361.998	-250
362.082	-454
362.166	16
362.250	-479
362.334	-231
362.418	607
362.502	-369
362.586	-372
362.671	-506
362.754	-682
362.839	-496
362.922	-919
363.006	606
363.090	4322
363.174	1495
363.258	-608
363.342	-371
363.426	23
363.510	1364
363.594	109
363.678	-570
363.762	-1054
363.846	0
363.929	-772
364.013	9
364.097	-377
364.181	-394
364.265	2789
364.349	-1103
364.432	1463
364.516	-488
364.600	713
364.684	1085
364.767	3239
364.851	499
364.935	-246
365.019	-113
365.102	-342
365.186	-544
365.270	732
365.353	1805
365.437	-202
365.521	-1160
365.604	-1376
365.688	396
365.771	-1136
365.855	6
365.939	-613
366.022	305
366.106	-520
366.189	-1141
366.273	-697
366.357	-422
366.440	-850
366.524	-1493
366.607	-835
366.691	-557
366.774	-1379
366.858	157
366.941	-589
367.024	-247
367.108	-683
367.191	-720
367.275	-1024
367.358	-763
367.442	-311
367.525	-1369
367.608	-250
367.692	-1443
367.775	-497
367.858	-64
367.942	820
368.025	403
368.108	-464
368.192	-547
368.275	-571
368.358	-305
368.442	859
368.525	1264
368.608	-360
368.691	-41
368.775	-86
368.858	-147
368.941	-604
369.024	-76
369.107	-645
369.190	-699
369.274	-1151
369.357	170
369.440	-1
369.523	-637
369.606	-1148
369.689	-1
369.772	-915
369.855	-277
369.939	-220
370.022	-848
370.105	-1210
370.188	406
370.271	-536
370.354	134
370.437	-25
370.520	791
370.603	-16
370.686	-734
370.769	665
370.852	1529
370.935	202
371.018	-122
371.100	-815
371.183	312
371.266	-742
371.349	-1203
371.432	-872
371.515	-847
371.598	-970
371.681	-146
371.763	-309
371.846	-32
371.929	4969
372.012	2493
372.095	906
372.177	265
372.260	1409
372.343	66
372.426	-712
372.508	382
372.591	-938
372.674	764
372.757	724
372.839	-1030
372.922	14
373.005	61
373.087	-798
373.170	-95
373.253	114
373.335	702
373.418	6417
373.500	4069
373.583	398
373.666	5263
373.748	1063
373.831	-531
373.913	-126
373.996	-711
374.078	1178
374.161	-151
374.243	145
374.326	552
374.408	470
374.491	3339
374.573	3654
374.656	-381
374.738	930
374.821	2766
374.903	6942
374.985	1462
375.068	-747
375.150	-679
375.233	928
375.315	-48
375.397	-928
375.480	-285
375.562	-582
375.644	-310
375.727	1691
375.809	2947
375.891	2393
375.973	-1102
376.056	196
376.138	963
376.220	-209
376.302	2449
376.385	1350
376.467	-306
376.549	145
376.631	553
376.713	1737
376.795	-25
376.878	-783
376.960	-1032
377.042	-988
377.124	106
377.206	-721
377.288	-906
377.370	-892
377.452	-687
377.534	-1254
377.616	-956
377.699	-343
377.781	-958
377.863	-929
377.945	-261
378.027	-321
378.109	-962
378.190	-341
378.272	244
378.354	-1570
378.436	-346
378.518	-947
378.600	105
378.682	-410
378.764	162
378.846	-435
378.928	-478
379.010	-1051
379.091	-235
379.173	-748
379.255	-855
379.337	-676
379.419	27
379.501	1024
379.582	-437
379.664	-827
379.746	-473
379.828	491
379.909	890
379.991	-672
380.073	-562
380.155	-526
380.236	-508
380.318	-465
380.400	-606
380.481	-450
380.563	-1076
380.645	-324
380.726	-131
380.808	-433
380.889	-1087
380.971	-1042
381.053	-395
381.134	-211
381.216	-144
381.297	455
381.379	-538
381.460	334
381.542	2622
381.623	954
381.705	202
381.786	-633
381.868	-492
381.949	2618
382.031	3527
382.112	1417
382.193	-669
382.275	80
382.356	946
382.438	548
382.519	4138
382.600	2055
382.682	1408
382.763	2281
382.844	897
382.926	1480
383.007	-27
383.088	-412
383.170	3870
383.251	2224
383.332	2466
383.413	2388
383.495	113
383.576	-345
383.657	165
383.738	3540
383.820	5145
383.901	-269
383.982	1904
384.063	3093
384.144	-208
384.225	-435
384.306	-489
384.388	-885
384.469	-479
384.550	491
384.631	-1099
384.712	-748
384.793	-1233
384.874	-523
384.955	745
385.036	-275
385.117	-493
385.198	396
385.279	118
385.360	-439
385.441	-510
385.522	495
385.603	1975
385.684	50
385.765	-839
385.846	-1108
385.927	4098
386.008	2057
386.089	-961
386.169	-897
386.250	-449
386.331	-162
386.412	-1365
386.493	475
386.574	-69
386.654	-1198
386.735	-784
386.816	674
386.897	-1397
386.977	-471
387.058	-1244
387.139	-986
387.220	201
387.300	-537
387.381	-283
387.462	-1164
387.542	-663
387.623	-913
387.704	525
387.784	1784
387.865	64
387.946	157
388.026	-209
388.107	-2135
388.187	517
388.268	-40
388.349	-1372
388.429	665
388.510	-90
388.590	2385
388.671	376
388.751	743
388.832	355
388.912	-619
388.993	-1513
389.073	101
389.154	-404
389.234	-1523
389.314	621
389.395	-1998
389.475	702
389.556	-479
389.636	264
389.716	-702
389.797	-542
389.877	343
389.957	557
390.038	-779
390.118	-1406
390.198	556
390.279	541
390.359	-1051
390.439	374
390.519	313
390.600	-923
390.680	-1913
390.760	93
390.840	-178
390.920	-886
391.001	-1284
391.081	-59
391.161	-422
391.241	-1540
391.321	-600
391.401	-155
391.481	-398
391.562	-1794
391.642	-479
391.722	-60
391.802	-153
391.882	-540
391.962	319
392.042	-1219
392.122	-505
392.202	-427
392.282	586
392.362	-71
392.442	-1063
392.522	-1437
392.602	-435
392.682	250
392.762	759
392.842	-394
392.921	1048
393.001	1107
393.081	-645
393.161	-400
393.241	4398
393.321	20115
393.401	4812
393.480	873
393.560	-537
393.640	-612
393.720	-1145
393.800	-683
393.879	113
393.959	-1039
394.039	-563
394.119	-773
394.198	-550
394.278	2856
394.358	12468
394.437	3016
394.517	-674
394.597	-74
394.676	-532
394.756	521
394.836	-3
394.915	-899
394.995	-993
395.075	107
395.154	-354
395.234	-612
395.313	-242
395.393	-1465
395.472	378
395.552	-1519
395.631	739
395.711	-243
395.790	454
395.870	-807
395.949	-77
396.029	3764
396.108	16455
396.188	4325
396.267	126
396.346	-873
396.426	-1540
396.505	-192
396.585	-1119
396.664	16
396.743	6192
396.823	13753
396.902	2085
396.981	-658
397.061	-25
397.140	-1858
397.219	-460
397.298	-994
397.378	-992
397.457	142
397.536	-297
397.615	-2365
397.694	298
397.774	-1483
397.853	-1416
397.932	-565
398.011	-796
398.090	-489
398.169	183
398.249	-663
398.328	-382
398.407	-949
398.486	-1236
398.565	-187
398.644	-1605
398.723	-425
398.802	-886
398.881	146
398.960	954
399.039	-948
399.118	-1504
399.197	-717
399.276	-805
399.355	-562
399.434	-676
399.513	-303
399.592	-1885
399.671	-1314
399.750	-993
399.829	1364
399.908	-140
399.986	-958
400.065	-1251
400.144	-1705
400.223	759
400.302	-1432
400.380	-1234
400.459	88
400.538	-467
400.617	-870
400.696	-7
400.774	-1111
400.853	-858
400.932	-986
401.011	501
401.089	-409
401.168	-871
401.247	-705
401.325	-1149
401.404	-199
401.483	-1332
401.561	-504
401.640	-954
401.718	168
401.797	-1121
401.876	-848
401.954	-583
402.033	-710
402.111	-341
402.190	-1342
402.268	-759
402.347	-985
402.425	-243
402.504	-1507
402.582	-902
402.661	-924
402.739	-1180
402.818	-268
402.896	-905
402.974	139
403.053	-176
403.131	-307
403.210	-37
403.288	-822
403.366	-487
403.445	-607
403.523	-1131
403.601	-745
403.680	-1713
403.758	-126
403.836	-1233
403.915	-716
403.993	-1761
404.071	-121
404.149	-1193
404.228	-1681
404.306	-1163
404.384	-1164
404.462	-741
404.540	2927
404.618	-221
404.697	-942
404.775	-310
404.853	-1171
404.931	-680
405.009	-1175
405.087	-1538
405.165	-799
405.243	-2099
405.321	-177
405.399	-2070
405.478	-34
405.556	-644
405.634	-1244
405.712	-1439
405.790	-185
405.868	-691
405.945	-179
406.023	-1090
406.101	-2004
406.179	204
406.257	-759
406.335	1927
406.413	100
406.491	-1173
406.569	-1401
406.647	-426
406.724	-450
406.802	-1379
406.880	-656
406.958	-258
407.036	-1648
407.113	1129
407.191	-530
407.269	-879
407.347	-1995
407.424	-1881
407.502	-580
407.580	-599
407.658	-221
407.735	37
407.813	-626
407.891	-495
407.968	-1190
408.046	-881
408.124	-689
408.201	596
408.279	-723
408.356	-1372
408.434	-530
408.512	-790
408.589	-1433
408.667	-1146
408.744	-946
408.822	-1033
408.899	-1221
408.977	-745
409.054	-1801
409.132	-1421
409.209	110
409.287	-1272
409.364	-893
409.441	-1789
409.519	-1218
409.596	-870
409.674	-640
409.751	-1731
409.828	-1237
409.906	-422
409.983	-1861
410.060	-901
410.138	-77
410.215	-479
410.292	-842
410.370	-780
410.447	-1233
410.524	-1616
410.601	-80
410.678	-1113
410.756	-1511
410.833	-1770
410.910	-462
410.987	-793
411.064	-1469
411.142	-1841
411.219	-1029
411.296	-835
411.373	-1358
411.450	-1021
411.527	-652
411.604	-2674
411.681	-1251
411.758	-1344
411.835	-784
411.913	-1118
411.990	-1578
412.067	-575
412.144	-103
412.221	-1508
412.298	-1077
412.374	-1028
412.451	-636
412.528	-1124
412.605	-1042
412.682	-1460
412.759	-1320
412.836	-1303
412.913	-997
412.990	-510
413.067	-486
413.143	-1006
413.220	-804
413.297	-2466
413.374	-461
413.451	-1564
413.527	-895
413.604	-533
413.681	-1725
413.758	-573
413.834	-1222
413.911	-1458
413.988	-1735
414.065	-1151
414.141	-637
414.218	-975
414.295	-825
414.371	168
414.448	-1667
414.524	-915
414.601	-726
414.678	-508
414.754	-1498
414.831	-1809
414.907	-347
414.984	-1256
415.060	-1184
415.137	-1626
415.213	-726
415.290	-1038
415.366	-976
415.443	-1812
415.519	-1212
415.596	-2003
415.672	-233
415.749	-1151
415.825	-1154
415.902	-688
415.978	-1307
416.054	-207
416.131	-1703
416.207	-1782
416.283	-555
416.360	-1583
416.436	-844
416.512	-1143
416.589	-930
416.665	-1204
416.741	-1362
416.817	-2051
416.894	-1139
416.970	-1364
417.046	-841
417.122	-1420
417.198	-2021
417.275	-1341
417.351	-1962
417.427	-677
417.503	-1184
417.579	-1147
417.655	-711
417.731	-1217
417.808	-1284
417.884	-677
417.960	-1001
418.036	-2154
418.112	-1051
418.188	-564
418.264	-948
418.340	-852
418.416	-1966
418.492	-1135
418.568	-1258
418.644	-1728
418.720	-1223
418.796	-943
418.872	-1370
418.947	-1670
419.023	-1061
419.099	-400
419.175	-1234
419.251	-941
419.327	-1617
419.403	-935
419.478	-1968
419.554	-1316
419.630	-1273
419.706	-898
419.782	-1487
419.857	-1677
419.933	-1023
420.009	-1413
420.085	-1043
420.160	-731
420.236	-1041
420.312	-1600
420.387	-1699
420.463	-1001
420.539	-403
420.614	-1555
420.690	-815
420.766	-1626
420.841	-285
420.917	-1816
420.992	-494
421.068	-1141
421.143	-856
421.219	-1241
421.294	-1233
421.370	-1416
421.445	-580
421.521	-2332
421.596	-836
421.672	-1268
421.747	-875
421.823	-2368
421.898	-1263
421.974	-1277
422.049	-1423
422.124	-1248
422.200	-1218
422.275	-902
422.350	-1083
422.426	-1621
422.501	749
422.576	5221
422.652	7443
422.727	728
422.802	-557
422.878	-449
422.953	-1415
423.028	-1442
423.103	-1074
423.178	-1853
423.254	-1029
423.329	-1072
423.404	-1954
423.479	-1100
423.554	-1180
423.630	-1326
423.705	-1036
423.780	-2029
423.855	-1316
423.930	-707
424.005	-1856
424.080	-845
424.155	-1990
424.230	-1372
424.305	-1917
424.380	-1631
424.455	-1509
424.530	-1208
424.605	-1260
424.680	-1203
424.755	-500
424.830	-1380
424.905	-1574
424.980	-740
425.055	-1184
425.130	-1245
425.204	-281
425.279	-1712
425.354	-595
425.429	-2383
425.504	-1377
425.579	-2415
425.653	-1976
425.728	-1359
425.803	-1468
425.878	-844
425.952	-1365
426.027	-787
426.102	-762
426.177	-2223
426.251	48
426.326	-1502
426.401	-1721
426.475	-942
426.550	-1634
426.625	-740
426.699	-1561
426.774	-1831
426.848	-1238
426.923	-1468
426.998	-1191
427.072	-514
427.147	26
427.221	-1628
427.296	-1298
427.370	-1124
427.445	-1026
427.519	-1964
427.594	-763
427.668	-791
427.743	-1935
427.817	-1074
427.892	-1598
427.966	-1772
428.040	-1211
428.115	-960
428.189	-633
428.263	-387
428.338	-1434
428.412	-1637
428.486	-1133
428.561	-1953
428.635	-927
428.709	-1210
428.784	-553
428.858	-603
428.932	-933
429.006	-1724
429.080	-763
429.155	-1322
429.229	-840
429.303	-851
429.377	-804
429.451	-489
429.526	-1230
429.600	-1513
429.674	-1542
429.748	-1498
429.822	-250
429.896	-164
429.970	-655
430.044	-764
430.118	-761
430.192	221
430.266	-221
430.340	-2315
430.414	-427
430.488	-1340
430.562	-1352
430.636	-129
430.710	771
430.784	-143
430.858	-1589
430.932	-1362
431.006	-1271
431.080	-1511
431.153	-1424
431.227	-1711
431.301	-1850
431.375	-830
431.449	-1392
431.523	-1820
431.596	-2350
431.670	-1640
431.744	-1194
431.818	-526
431.891	-1762
431.965	-1100
432.039	-607
432.112	-1905
432.186	-1626
432.260	-1396
432.333	-1426
432.407	-2123
432.481	-143
432.554	-51
432.628	-1017
432.702	-1994
432.775	-1283
432.849	-1220
432.922	-1358
432.996	-1394
433.069	-1642
433.143	-1682
433.216	-1167
433.290	-1368
433.363	-1365
433.437	-1478
433.510	-2351
433.584	-1138
433.657	-1832
433.730	-1133
433.804	-2183
433.877	-1701
433.951	-1064
434.024	-1775
434.097	-1558
434.171	-1941
434.244	-1917
434.317	-2373
434.391	-1491
434.464	-1715
434.537	-1971
434.610	-1665
434.684	-1413
434.757	-1536
434.830	-1688
434.903	-1326
434.977	-1374
435.050	-1273
435.123	-1918
435.196	-993
435.269	-1861
435.342	-1226
435.415	-1430
435.489	-1151
435.562	-1562
435.635	-1352
435.708	-1462
435.781	-463
435.854	-989
435.927	-1513
436.000	-1391
436.073	-696
436.146	-1699
436.219	-1058
436.292	-1869
436.365	-1055
436.438	-1240
436.511	-1773
436.584	-1537
436.657	-1723
436.729	-1143
436.802	-1425
436.875	-851
436.948	-1054
437.021	-1310
437.094	-1388
437.166	-2261
437.239	-1282
437.312	-1198
437.385	-1999
437.457	-1718
437.530	-1081
437.603	-1803
437.676	-1641
437.748	-1365
437.821	-1755
437.894	-1234
437.966	-1856
438.039	-2011
438.112	-1528
438.184	-979
438.257	-15
438.330	393
438.402	-672
438.475	-1427
438.547	-1649
438.620	-1628
438.692	-2123
438.765	-1982
438.837	-1714
438.910	-1331
438.982	-1536
439.055	-2027
439.127	-1213
439.200	-1597
439.272	-1987
439.345	-1483
439.417	-566
439.489	-1512
439.562	-1707
439.634	-1225
439.707	-1858
439.779	-1564
439.851	-1562
439.923	-1316
439.996	-2289
440.068	-1043
440.140	-1902
440.213	-1967
440.285	-1368
440.357	-790
440.429	-248
440.502	-1781
440.574	-1858
440.646	-1062
440.718	-1256
440.790	-1018
440.862	-1452
440.935	-2139
441.007	-1505
441.079	-722
441.151	-2080
441.223	-1444
441.295	-1574
441.367	-1058
441.439	-533
441.511	-1413
441.583	-1391
441.655	-798
441.727	-1078
441.799	-2115
441.871	-1649
441.943	-991
442.015	-2097
442.087	-1266
442.159	-1138
442.231	-1713
442.303	-1813
442.374	-1201
442.446	-1960
442.518	-716
442.590	-1143
442.662	-1697
442.734	-1629
442.805	-1302
442.877	-1620
442.949	-1987
443.021	-1253
443.092	-1416
443.164	-1901
443.236	-1428
443.308	-1695
443.379	-811
443.451	-595
443.523	-708
443.594	-1100
443.666	-1420
443.737	-1657
443.809	-1551
443.881	-1309
443.952	-1264
444.024	-1397
444.095	-946
444.167	-1514
444.238	-1046
444.310	-1855
444.381	-1488
444.453	-1819
444.524	-1551
444.596	-1655
444.667	-1329
444.739	-1870
444.810	-1086
444.882	-1495
444.953	-1385
445.024	-2341
445.096	-1702
445.167	-2251
445.238	-1836
445.310	-1217
445.381	-86
445.452	-153
445.524	-992
445.595	-926
445.666	-1394
445.737	-726
445.809	-1738
445.880	-1823
445.951	-1987
446.022	-1855
446.094	-1907
446.165	-2005
446.236	-1639
446.307	-783
446.378	-1496
446.449	-1972
446.520	-1508
446.591	-2243
446.663	-2194
446.734	-1292
446.805	-1728
446.876	-1119
446.947	-1960
447.018	-1521
447.089	-1260
447.160	-1410
447.231	-2848
447.302	-1676
447.373	-2063
447.444	-2103
447.514	-1108
447.585	-1923
447.656	-1703
447.727	-1752
447.798	-1413
447.869	-1966
447.940	-1108
448.010	-1091
448.081	-1866
448.152	-1863
448.223	-1785
448.294	-1394
448.364	-546
448.435	-1885
448.506	-471
448.577	-1419
448.647	-1764
448.718	-2118
448.789	-1976
448.859	-2048
448.930	-2154
449.001	-1831
449.071	-1203
449.142	-1672
449.213	-1803
449.283	-1918
449.354	-1649
449.424	-2275
449.495	-1457
449.565	-1098
449.636	-759
449.706	-1801
449.777	-1701
449.847	-2116
449.918	-2074
449.988	-1840
450.059	-1662
450.129	-1987
450.200	-1958
450.270	-2103
450.340	-1258
450.411	-1754
450.481	-2089
450.551	-1201
450.622	-1878
450.692	-1852
450.762	-1209
450.833	-1163
450.903	-1124
450.973	-1650
451.043	-2258
451.114	-1859
451.184	-1731
451.254	-2184
451.324	-1134
451.395	-1279
451.465	-1526
451.535	-2057
451.605	-1995
451.675	-1351
451.745	-1057
451.815	-1349
451.885	-1970
451.956	-1596
452.026	-1741
452.096	-1689
452.166	-1243
452.236	-1577
452.306	-1315
452.376	-1849
452.446	-1723
452.516	-1117
452.586	-1534
452.656	-1415
452.725	-1146
452.795	-1946
452.865	-1124
452.935	-1120
453.005	-1391
453.075	-2139
453.145	-2365
453.215	-1515
453.284	-1291
453.354	-1076
453.424	-372
453.494	-1131
453.564	-1107
453.633	-2497
453.703	-1326
453.773	-2048
453.843	-1305
453.895	-1619
453.912	-1772
453.976	-981
453.982	-958
454.052	-1726
454.057	-1685
454.121	-1648
454.139	-1434
454.191	-694
454.220	32
454.261	434
454.301	1305
454.330	673
454.382	-693
454.400	-1022
454.463	-859
454.469	-821
454.539	219
454.544	364
454.608	2409
454.625	3688
454.678	7290
454.707	9554
454.748	7991
454.788	8376
454.817	6389
454.869	2240
454.887	1889
454.950	2465
454.956	2814
455.026	8195
455.031	8892
455.095	8489
455.112	9294
455.165	6616
455.193	4999
455.234	5411
455.274	6890
455.303	8070
455.355	10789
455.373	9936
455.436	7567
455.442	6877
455.512	1596
455.517	1182
455.581	201
455.598	192
455.650	397
455.679	309
455.720	34
455.760	578
455.789	1157
455.841	1308
455.858	1054
455.922	602
455.928	563
455.997	62
456.003	133
456.066	2569
456.084	3296
456.136	6657
456.165	8942
456.205	9834
456.245	9988
456.274	6487
456.326	1620
456.343	1598
456.407	628
456.412	540
456.482	1057
456.488	1001
456.551	149
456.569	317
456.620	950
456.650	868
456.689	818
456.730	716
456.758	686
456.811	1541
456.827	2560
456.892	5989
456.897	6565
456.966	16850
456.973	18110
457.035	29018
457.054	32684
457.104	15571
457.134	5311
457.173	3726
457.215	1294
457.242	1234
457.296	1891
457.311	1982
457.377	2178
457.380	2173
457.449	2561
457.457	2631
457.518	3414
457.538	3681
457.587	4568
457.619	5358
457.656	7308
457.699	9257
457.725	8220
457.780	6822
457.794	7003
457.861	7362
457.863	7450
457.932	11629
457.941	12347
458.001	14181
458.022	14482
458.070	8397
458.103	4603
458.138	4416
458.183	4139
458.207	4718
458.264	6107
458.276	6949
458.344	11579
458.345	11631
458.414	23113
458.425	25079
458.483	18399
458.506	15730
458.551	10238
458.586	5650
458.620	4755
458.667	3590
458.689	3738
458.747	4776
458.758	5216
458.826	7533
458.828	7578
458.895	5111
458.908	4945
458.964	6210
458.989	6201
459.033	7044
459.069	8165
459.101	8145
459.150	8293
459.170	8390
459.230	8348
459.239	8181
459.307	6764
459.311	6712
459.376	6296
459.391	6024
459.444	5470
459.471	5373
459.513	5227
459.552	5146
459.582	5838
459.632	6963
459.650	7374
459.713	8420
459.719	8432
459.787	9414
459.793	9448
459.856	6507
459.873	5572
459.924	5982
459.954	6279
459.993	7617
460.034	9269
460.061	11682
460.114	16287
460.130	15205
460.195	10383
460.198	10216
460.267	6445
460.275	5973
460.335	7034
460.355	7369
460.404	9157
460.436	10683
460.472	16690
460.516	23140
460.540	25812
460.596	33108
460.609	29425
460.676	7516
460.677	7529
460.745	8408
460.757	8384
460.814	7641
460.837	7392
460.882	9452
460.917	11127
460.950	11852
460.997	12681
461.019	11294
461.077	7309
461.087	7489
461.155	8940
461.158	8949
461.224	8664
461.238	8604
461.292	9026
461.318	9152
461.360	13761
461.398	18199
461.428	31311
461.478	52601
461.496	68759
461.558	123569
461.565	117481
461.633	47617
461.638	41715
461.701	19084
461.719	12558
461.769	13977
461.799	14811
461.837	12377
461.879	9549
461.905	10018
461.959	10851
461.973	13471
462.039	25135
462.042	26603
462.110	61362
462.119	65866
462.178	54491
462.199	49958
462.246	26925
462.279	10602
462.314	11524
462.359	12632
462.382	11612
462.439	8817
462.450	8862
462.518	8953
462.519	8915
462.586	9646
462.599	9826
462.654	15819
462.679	18314
462.722	29454
462.759	39078
462.790	32599
462.839	21471
462.858	18727
462.919	9870
462.926	9735
462.993	8088
462.999	7921
463.061	10538
463.078	11216
463.129	11740
463.158	11807
463.197	12897
463.238	14118
463.265	14676
463.318	15450
463.333	15506
463.398	15583
463.401	15694
463.468	16813
463.478	16837
463.536	24649
463.558	27438
463.604	37857
463.637	45290
463.672	56838
463.717	71428
463.739	91647
463.797	143303
463.807	133261
463.875	61546
463.877	59330
463.943	20842
463.957	12476
464.010	11659
464.036	11219
464.078	12108
464.116	12781
464.146	14294
464.196	16727
464.213	17631
464.275	20527
464.281	21477
464.349	32072
464.355	32957
464.416	22012
464.435	18461
464.484	18717
464.515	18774
464.551	21126
464.594	23648
464.619	21480
464.674	16218
464.686	16583
464.754	17888
464.754	18039
464.821	26999
464.833	28359
464.889	20969
464.913	17748
464.956	15739
464.992	13774
465.024	13519
465.072	12999
465.091	13755
465.152	15855
465.159	16725
465.226	23948
465.231	24350
465.294	36532
465.311	39600
465.361	50999
465.390	57279
465.429	88968
465.470	122256
465.496	101091
465.549	55942
465.563	48736
465.629	13251
465.631	13316
465.698	12868
465.708	12726
465.765	12756
465.788	12640
465.833	12266
465.867	11913
465.900	12776
465.947	13767
465.967	13907
466.026	13994
466.035	14044
466.102	13874
466.106	13782
466.169	14978
466.185	15177
466.236	16005
466.265	16270
466.304	18123
466.344	19962
466.371	24120
466.423	31943
466.438	39907
466.503	74597
466.505	78226
466.572	175700
466.582	189227
466.639	125050
466.662	98994
466.707	57999
466.741	25853
466.774	23771
466.820	20449
466.841	20216
466.900	19102
466.908	19159
466.975	18744
466.979	18614
467.042	22191
467.058	22955
467.109	24077
467.138	24498
467.176	24993
467.217	25233
467.243	26689
467.296	29174
467.310	30106
467.375	33496
467.377	33399
467.455	20552
467.534	21839
467.613	26660
467.692	39015
467.772	39586
467.851	36002
467.930	78808
468.009	208838
468.088	113316
468.167	19187
468.246	21765
468.326	22176
468.405	18461
468.484	20817
468.563	25488
468.642	28425
468.721	23274
468.800	23565
468.879	40055
468.958	80375
469.037	41062
469.116	20322
469.195	19624
469.274	18958
469.353	17112
469.432	18200
469.511	22785
469.590	30723
469.669	52249
469.748	63867
469.827	21994
469.905	20908
469.984	22227
470.063	29979
470.142	49942
470.221	43743
470.300	29260
470.378	23865
470.457	23959
470.536	35462
470.615	35446
470.694	27824
470.772	41931
470.851	70364
470.930	29321
471.008	16415
471.087	14824
471.166	13875
471.245	16469
471.323	18854
471.402	18249
471.480	14273
471.559	15621
471.638	15586
471.716	14546
471.795	15420
471.873	14852
471.952	18675
472.031	28459
472.109	42276
472.188	27262
472.266	14159
472.345	13289
472.423	14572
472.502	16889
472.580	26109
472.659	22765
472.737	21953
472.815	16882
472.894	23373
472.972	30224
473.051	18091
473.129	22662
473.207	28889
473.286	22977
473.364	22714
473.443	34897
473.521	57626
473.599	24238
473.677	16132
473.756	20279
473.834	19637
473.912	19533
473.991	32523
474.069	62259
474.147	73185
474.225	15816
474.303	16397
474.382	20095
474.460	19913
474.538	18821
474.616	23229
474.694	17397
474.772	15210
474.851	14501
474.929	15540
475.007	16570
475.085	17513
475.163	25228
475.241	46844
475.319	24126
475.397	19182
475.475	25077
475.553	54220
475.631	147455
475.709	155549
475.787	160850
475.865	27261
475.943	23557
476.021	36445
476.099	42526
476.177	22038
476.255	20958
476.333	23659
476.410	36272
476.488	43322
476.566	20296
476.644	20476
476.722	20720
476.800	21861
476.877	19168
476.955	20141
477.033	20911
477.111	21697
477.189	18115
477.266	16407
477.344	15865
477.422	17909
477.499	18112
477.577	21357
477.655	35550
477.732	23938
477.810	23289
477.888	20024
477.965	19383
478.043	25180
478.121	34404
478.198	57109
478.276	19831
478.353	16269
478.431	16906
478.508	26466
478.586	18936
478.664	18286
478.741	25590
478.819	31558
478.896	17106
478.974	20577
479.051	33056
479.128	34287
479.206	14613
479.283	15297
479.361	15821
479.438	25883
479.516	24698
479.593	22079
479.670	27355
479.748	31462
479.825	59610
479.902	25941
479.980	17979
480.057	17350
480.134	19011
480.211	22020
480.289	38955
480.366	81225
480.443	40750
480.520	18963
480.598	24480
480.675	29614
480.752	23676
480.829	21886
480.906	26606
480.984	27332
481.061	27016
481.138	18871
481.215	15757
481.292	17177
481.369	17994
481.446	18175
481.523	16219
481.600	17511
481.677	21107
481.754	28953
481.831	59542
481.908	86206
481.985	22089
482.062	22353
482.139	43286
482.216	66681
482.293	21629
482.370	21927
482.447	19505
482.524	18645
482.601	22134
482.678	15713
482.755	14908
482.832	15368
482.908	15517
482.985	19356
483.062	23329
483.139	17703
483.216	16150
483.293	17554
483.369	18426
483.446	30277
483.523	19097
483.600	18534
483.676	22152
483.753	29048
483.830	61362
483.906	184109
483.983	115638
484.060	28574
484.136	30768
484.213	27987
484.290	24617
484.366	19931
484.443	21035
484.519	25191
484.596	28166
484.673	40359
484.749	30451
484.826	20673
484.902	22378
484.979	27752
485.055	23677
485.132	21474
485.208	24189
485.285	33325
485.361	66791
485.437	168120
485.514	61752
485.590	26010
485.667	27280
485.743	45293
485.819	95779
485.896	36522
485.972	21311
486.049	20572
486.125	23762
486.201	31063
486.277	38677
486.354	30303
486.430	26270
486.506	31084
486.583	48181
486.659	112946
486.735	72108
486.811	111593
486.887	179755
486.964	226833
487.040	201335
487.116	81542
487.192	24333
487.268	28286
487.344	35542
487.420	38916
487.497	30941
487.573	54743
487.649	140530
487.725	90286
487.801	28028
487.877	29785
487.953	45519
488.029	45576
488.105	32189
488.181	32568
488.257	68830
488.333	220581
488.409	130208
488.485	32853
488.561	28205
488.637	29854
488.712	45808
488.788	59846
488.864	138684
488.940	358202
489.016	374422
489.092	53896
489.168	31141
489.243	23862
489.319	18656
489.395	17282
489.471	19157
489.547	20464
489.622	22807
489.698	34117
489.774	96004
489.849	203658
489.925	39592
490.001	20589
490.076	28410
490.152	59540
490.228	48360
490.303	18837
490.379	16219
490.455	15022
490.530	17370
490.606	19641
490.681	23864
490.757	28389
490.833	37149
490.908	37977
490.984	33684
491.059	29566
491.135	67171
491.210	170705
491.286	44549
491.361	31147
491.436	25748
491.512	28540
491.587	44721
491.663	90264
491.738	257856
491.814	268341
491.889	574531
491.964	224254
492.040	81309
492.115	24037
492.190	23159
492.266	29833
492.341	30996
492.416	30310
492.491	22370
492.567	27106
492.642	59169
492.717	57974
492.792	17646
492.868	17990
492.943	14547
493.018	15169
493.093	20123
493.168	40098
493.243	79910
493.318	34451
493.394	16314
493.469	16783
493.544	22501
493.619	45957
493.694	79626
493.769	55399
493.844	26417
493.919	18275
493.994	20939
494.069	17352
494.144	14435
494.219	13063
494.294	15129
494.369	16085
494.444	21364
494.519	26218
494.594	16499
494.669	21122
494.744	16097
494.818	18372
494.893	17259
494.968	15865
495.043	16534
495.118	19952
495.193	21168
495.267	29982
495.342	43815
495.417	64129
495.492	159860
495.566	648174
495.641	713208
495.716	60324
495.791	26548
495.865	22815
495.940	20477
496.015	20437
496.089	21447
496.164	20312
496.239	22052
496.313	33931
496.388	34193
496.462	53100
496.537	28003
496.612	30649
496.686	38938
496.761	29958
496.835	25291
496.910	25013
496.984	19743
497.059	24512
497.133	43320
497.208	37612
497.282	29465
497.357	58197
497.431	48054
497.505	30580
497.580	45283
497.654	85390
497.729	73550
497.803	73216
497.877	129801
497.952	446293
498.026	1375209
498.100	286339
498.175	94540
498.249	75429
498.323	52526
498.397	69346
498.472	38488
498.546	33072
498.620	41327
498.694	69494
498.768	137355
498.843	183112
498.917	730619
498.991	836712
499.065	51546
499.139	25958
499.213	32822
499.287	39349
499.362	32388
499.436	32146
499.510	51653
499.584	80804
499.658	96577
499.732	317695
499.806	954531
499.880	170803
499.954	113913
500.028	99823
500.102	56053
500.176	34085
500.250	38119
500.324	58833
500.397	131059
500.471	271650
500.545	622865
500.619	421106
500.693	38626
500.767	38054
500.841	47890
500.914	34536
500.988	51530
501.062	102497
501.136	143840
501.210	354941
501.283	799851
501.357	172903
501.431	154975
501.505	156073
501.578	31342
501.652	41639
501.726	56048
501.799	139961
501.873	270416
501.947	47683
502.020	63794
502.094	194662
502.167	244718
502.241	67874
502.315	197800
502.388	198734
502.462	79136
502.535	34379
502.609	34586
502.682	28120
502.756	16662
502.829	18320
502.903	17154
502.976	20396
503.050	19988
503.123	22263
503.196	28477
503.270	42171
503.343	93177
503.417	357742
503.490	481879
503.563	126332
503.637	125495
503.710	255177
503.783	121797
503.857	279231
503.930	89282
504.003	86107
504.076	51102
504.150	25660
504.223	34942
504.296	22877
504.369	19177
504.443	18021
504.516	14222
504.589	14657
504.662	23096
504.735	24742
504.808	53171
504.881	45070
504.954	21380
505.028	42444
505.101	33146
505.174	36048
505.247	17387
505.320	15723
505.393	12583
505.466	11129
505.539	12289
505.612	12637
505.685	13031
505.758	14661
505.831	12171
505.904	17028
505.977	18159
506.049	37128
506.122	31173
506.195	45631
506.268	170253
506.341	305027
506.414	47854
506.487	29657
506.559	19234
506.632	20838
506.705	40666
506.778	39271
506.851	17355
506.923	18462
506.996	37661
507.069	28255
507.141	18632
507.214	18017
507.287	34990
507.360	34283
507.432	15350
507.505	16432
507.577	12770
507.650	15188
507.723	29295
507.795	40983
507.868	18147
507.940	11601
508.013	12073
508.086	11847
508.158	21601
508.231	19427
508.303	12829
508.376	15584
508.448	13841
508.520	25315
508.593	30726
508.665	11351
508.738	11964
508.810	10257
508.883	15077
508.955	18836
509.027	10047
509.100	9437
509.172	9575
509.244	9427
509.317	8623
509.389	11940
509.461	13731
509.534	22295
509.606	19876
509.678	24431
509.750	31234
509.822	12827
509.895	11114
509.967	9964
510.039	12022
510.111	14379
510.183	14638
510.255	13831
510.328	18895
510.400	44124
510.472	21620
510.544	19587
510.616	36300
510.688	15575
510.760	17241
510.832	24237
510.904	29950
510.976	15342
511.048	11764
511.120	17695
511.192	44566
511.264	18669
511.336	9369
511.408	10376
511.480	9637
511.552	9157
511.624	11081
511.695	11624
511.767	14820
511.839	32190
511.911	72784
511.983	18167
512.055	16497
512.126	13947
512.198	20772
512.270	23466
512.342	27612
512.414	28070
512.485	17361
512.557	19666
512.629	19959
512.700	13414
512.772	21518
512.844	13206
512.915	11930
512.987	18049
513.059	18340
513.130	30815
513.202	61147
513.273	37946
513.345	15479
513.416	13734
513.488	16250
513.560	27316
513.631	32191
513.703	37638
513.774	118007
513.845	86510
513.917	15349
513.988	15771
514.060	23755
514.131	31929
514.203	18161
514.274	15540
514.345	32746
514.417	61950
514.488	18456
514.560	30670
514.631	47242
514.702	23066
514.773	16984
514.845	13293
514.916	18376
514.987	22766
515.059	46162
515.130	30124
515.201	25613
515.272	17563
515.343	11265
515.414	11424
515.486	10881
515.557	11475
515.628	10143
515.699	12443
515.770	16404
515.841	14874
515.912	15925
515.983	19466
516.055	35498
516.126	47341
516.197	27516
516.268	25853
516.339	35938
516.410	57236
516.481	104838
516.552	358931
516.622	625679
516.693	70567
516.764	57551
516.835	51726
516.906	73303
516.977	145164
517.048	321050
517.119	1031685
517.190	506837
517.260	210317
517.331	29275
517.402	23160
517.473	21358
517.544	20035
517.614	22882
517.685	22981
517.756	27272
517.827	33228
517.897	44735
517.968	69173
518.039	104895
518.109	233274
518.180	902189
518.250	1317676
518.321	115244
518.392	35264
518.462	37714
518.533	31796
518.603	31412
518.674	49897
518.745	86969
518.815	43678
518.886	35886
518.956	64796
519.027	123077
519.097	197279
519.168	285764
519.238	51376
519.309	42335
519.379	55553
519.449	28122
519.520	17522
519.590	13865
519.660	14834
519.731	21134
519.801	15754
519.871	14210
519.942	20628
520.012	22160
520.082	31901
520.153	19092
520.223	12590
520.293	16629
520.363	13955
520.434	24515
520.504	24070
520.574	19493
520.644	31064
520.714	46766
520.784	51892
520.855	162700
520.925	255384
520.995	24880
521.065	17186
521.135	16076
521.205	13779
521.275	14194
521.345	24604
521.415	31422
521.485	37487
521.555	25130
521.625	36760
521.695	35612
521.765	18201
521.835	27548
521.905	16092
521.975	13645
522.045	16848
522.115	29342
522.185	39302
522.254	70718
522.324	108214
522.394	56398
522.464	55205
522.534	170184
522.603	202697
522.673	23834
522.743	19334
522.813	25934
522.883	29691
522.952	21449
523.022	31036
523.092	69744
523.161	217443
523.231	49307
523.301	13380
523.370	14050
523.440	12577
523.509	10546
523.579	9911
523.649	11398
523.718	19974
523.788	11328
523.857	9981
523.927	11224
523.996	11122
524.066	14106
524.135	20996
524.205	11779
524.274	9481
524.344	11329
524.413	11922
524.483	15009
524.552	20005
524.621	15683
524.691	11607
524.760	9333
524.830	11603
524.899	17455
524.968	18057
525.038	18080
525.107	16214
525.176	11215
525.245	13045
525.315	11065
525.384	13276
525.453	17962
525.522	11169
525.591	10719
525.661	11543
525.730	11361
525.799	14982
525.868	25197
525.937	25296
526.006	52852
526.076	85479
526.145	48123
526.214	55201
526.283	69054
526.352	68781
526.421	153530
526.490	124221
526.559	90169
526.628	47912
526.697	81970
526.766	246038
526.835	556231
526.904	335454
526.973	52185
527.042	18023
527.110	16457
527.179	25950
527.248	14498
527.317	11722
527.386	9668
527.455	10330
527.523	8648
527.592	9177
527.661	8607
527.730	10952
527.799	10825
527.867	10227
527.936	14517
528.005	29502
528.074	41184
528.142	27307
528.211	69061
528.280	36804
528.348	13251
528.417	7713
528.485	7437
528.554	8183
528.623	6973
528.691	9712
528.760	10735
528.828	8976
528.897	6580
528.965	6651
529.034	6770
529.102	6676
529.171	8117
529.239	8125
529.308	8054
529.376	8927
529.445	17789
529.513	11194
529.581	22079
529.650	16933
529.718	17741
529.786	8823
529.855	8334
529.923	8507
529.992	9875
530.060	20423
530.128	24304
530.196	8828
530.265	7254
530.333	5272
530.401	7438
530.469	5239
530.537	6878
530.606	10253
530.674	6732
530.742	7136
530.810	7650
530.878	6301
530.946	7790
531.014	7221
531.083	7786
531.151	7883
531.219	7281
531.287	6811
531.355	5357
531.423	7903
531.491	9320
531.559	8450
531.627	6537
531.695	7338
531.763	7191
531.831	8013
531.898	8330
531.966	10842
532.034	11976
532.102	15218
532.170	23733
532.238	62545
532.306	108227
532.374	23718
532.441	23300
532.509	32160
532.577	67253
532.645	249190
532.712	220820
532.780	25294
532.848	11300
532.916	10029
532.983	9277
533.051	8774
533.119	9910
533.186	10799
533.254	7233
533.322	7313
533.389	7016
533.457	8564
533.524	11149
533.592	10857
533.659	9433
533.727	10416
533.794	17879
533.862	39278
533.930	33395
533.997	36338
534.064	8563
534.132	8255
534.199	7778
534.267	7952
534.334	7570
534.402	6936
534.469	5827
534.536	7637
534.604	8171
534.671	10561
534.738	17903
534.806	49972
534.873	22917
534.940	11768
535.008	12082
535.075	7244
535.142	8329
535.209	9718
535.276	7024
535.344	6306
535.411	5531
535.478	6000
535.545	6875
535.612	7351
535.679	7374
535.747	7592
535.814	7413
535.881	7071
535.948	8293
536.015	9128
536.082	8379
536.149	10739
536.216	12968
536.283	22104
536.350	35432
536.417	23742
536.484	20174
536.551	30698
536.618	44083
536.685	24227
536.752	26892
536.818	52158
536.885	68731
536.952	71533
537.019	200819
537.086	41187
537.153	8832
537.219	11978
537.286	7708
537.353	7232
537.420	6225
537.487	8414
537.553	8246
537.620	10449
537.687	7856
537.753	7954
537.820	10921
537.887	11403
537.953	11434
538.020	14771
538.087	20815
538.153	46910
538.220	67498
538.286	16490
538.353	9102
538.419	7460
538.486	7599
538.553	8981
538.619	6893
538.685	8706
538.752	12783
538.818	17353
538.885	14465
538.951	11499
539.018	12816
539.084	13417
539.150	20818
539.217	27469
539.283	11126
539.350	12512
539.416	16314
539.482	26391
539.549	77164
539.615	80103
539.681	12603
539.747	10972
539.814	11216
539.880	16521
539.946	18311
540.012	14944
540.078	14645
540.145	21582
540.211	41446
540.277	82027
540.343	48405
540.409	81885
540.475	96569
540.541	11751
540.607	9845
540.673	9398
540.740	13803
540.806	20745
540.872	22779
540.937	33736
541.004	22748
541.069	11132
541.135	12740
541.201	14763
541.267	20203
541.333	39357
541.399	54461
541.465	17295
541.531	9434
541.597	8308
541.663	7932
541.728	7921
541.794	9147
541.860	8498
541.926	9936
541.992	10461
542.057	12098
542.123	20022
542.189	33096
542.255	69579
542.320	42249
542.386	12816
542.452	11401
542.517	11020
542.583	10798
542.648	14900
542.714	23361
542.780	53108
542.845	121386
542.911	24417
542.976	7929
543.042	9278
543.107	10521
543.173	14656
543.238	20799
543.304	55597
543.369	34455
543.435	8221
543.500	8368
543.566	8747
543.631	5447
543.697	8318
543.762	6247
543.827	6123
543.893	6722
543.958	7538
544.023	6310
544.089	7944
544.154	8373
544.219	10481
544.284	15720
544.350	26429
544.415	26763
544.480	33197
544.545	97368
544.610	52916
544.676	9747
544.741	10997
544.806	10485
544.871	9029
544.936	9055
545.001	9869
545.066	11282
545.132	12247
545.197	14620
545.262	21403
545.327	29724
545.392	64134
545.457	72557
545.522	12919
545.587	10215
545.652	7862
545.717	8792
545.781	8545
545.846	9122
545.911	12220
545.976	11815
546.041	11076
546.106	16538
546.171	25270
546.236	19319
546.300	11083
546.365	8060
546.430	10783
546.495	12779
546.559	12257
546.624	8709
546.689	9156
546.754	8887
546.818	9277
546.883	9414
546.948	12560
547.012	12901
547.077	12522
547.142	15263
547.206	16171
547.271	21380
547.335	17805
547.400	12224
547.464	17523
547.529	25102
547.594	21014
547.658	22707
547.722	12516
547.787	10236
547.852	11199
547.916	14428
547.980	21398
548.045	24258
548.109	13430
548.174	9910
548.238	9977
548.302	9192
548.367	9178
548.431	10348
548.495	11229
548.560	12921
548.624	15049
548.688	21666
548.752	16209
548.817	13101
548.881	25826
548.945	15049
549.009	10633
549.073	9510
549.138	9223
549.202	12176
549.266	10423
549.330	10076
549.394	9817
549.458	11143
549.522	12237
549.586	16730
549.650	20522
549.715	12618
549.779	9957
549.843	11593
549.907	12442
549.971	13635
550.034	17160
550.098	12727
550.162	13041
550.226	18534
550.290	21653
550.354	11970
550.418	14235
550.482	14358
550.546	24063
550.609	16185
550.673	12618
550.737	14361
550.801	15064
550.865	15438
550.928	19830
550.992	23993
551.056	38284
551.120	73525
551.183	45882
551.247	37965
551.311	87797
551.374	41072
551.438	12768
551.502	12119
551.565	10163
551.629	10484
551.692	11809
551.756	10487
551.819	10628
551.883	10039
551.946	10032
552.010	9932
552.073	10429
552.137	10470
552.200	11304
552.264	10596
552.327	10454
552.391	11967
552.454	12465
552.517	12609
552.581	14130
552.644	18715
552.708	32115
552.771	29666
552.834	14544
552.897	14072
552.961	13680
553.024	10160
553.087	10011
553.151	11514
553.214	10709
553.277	10866
553.340	12208
553.403	15956
553.466	13131
553.530	10806
553.593	10145
553.656	10631
553.719	9955
553.782	10269
553.845	9474
553.908	8491
553.971	9658
554.034	9918
554.097	10293
554.160	12060
554.223	13044
554.286	10393
554.349	11297
554.412	9528
554.475	10138
554.538	11710
554.601	10916
554.664	8909
554.727	8829
554.789	8057
554.852	8648
554.915	7786
554.978	9236
555.041	8812
555.104	8984
555.166	9784
555.229	10030
555.292	10134
555.354	13436
555.417	9060
555.480	8505
555.542	7378
555.605	10031
555.668	9100
555.730	8418
555.793	7706
555.856	8728
555.918	9043
555.981	8401
556.043	9163
556.106	10494
556.168	11817
556.231	13132
556.293	11145
556.356	14674
556.418	25376
556.481	15387
556.543	10550
556.606	9559
556.668	12112
556.730	13627
556.793	19022
556.855	29572
556.918	11892
556.980	12078
557.042	13943
557.104	25667
557.167	45965
557.229	17513
557.291	8933
557.354	10678
557.416	10355
557.478	17864
557.540	12148
557.602	6110
557.664	7029
557.727	9522
557.789	9090
557.851	9453
557.913	10428
557.975	15566
558.037	26983
558.099	33132
558.161	11791
558.223	11077
558.285	13081
558.347	16587
558.409	23177
558.471	32760
558.533	71507
558.595	71065
558.657	59720
558.719	147230
558.781	165580
558.843	34658
558.905	35986
558.966	14436
559.028	12891
559.090	15707
559.152	21296
559.214	31717
559.275	68474
559.337	118153
559.399	24690
559.461	13549
559.522	16693
559.584	22015
559.646	36137
559.707	83595
559.769	54978
559.831	15814
559.892	17148
559.954	26207
560.015	42386
560.077	22696
560.139	36843
560.200	32343
560.262	9976
560.323	8905
560.385	8177
560.446	7616
560.508	6780
560.569	7269
560.631	7871
560.692	8038
560.753	7611
560.815	7816
560.876	6992
560.937	8512
560.999	8826
561.060	9365
561.122	9683
561.183	11128
561.244	15481
561.305	22178
561.367	33514
561.428	82635
561.489	52556
561.550	10286
561.612	8728
561.673	8817
561.734	9016
561.795	7527
561.856	7467
561.917	8273
561.978	7017
562.039	7243
562.101	9406
562.162	8916
562.223	10270
562.284	13216
562.345	20398
562.406	10792
562.467	7511
562.528	6967
562.589	7704
562.649	9704
562.710	7236
562.771	7809
562.832	9638
562.893	8643
562.954	8819
563.015	8574
563.076	6198
563.136	8488
563.197	7956
563.258	9156
563.319	8908
563.380	8117
563.440	10485
563.501	8424
563.562	8685
563.622	9169
563.683	9494
563.744	10207
563.804	7307
563.865	7902
563.926	8966
563.986	8918
564.047	8797
564.107	10350
564.168	11984
564.229	16862
564.289	31324
564.350	16041
564.410	6751
564.471	7286
564.531	7494
564.591	7965
564.652	9082
564.712	12540
564.773	11531
564.833	8321
564.893	7848
564.954	8057
565.014	6742
565.074	6711
565.135	7810
565.195	6501
565.255	8181
565.316	8070
565.376	9509
565.436	9977
565.496	7776
565.557	8180
565.617	9596
565.677	9140
565.737	18065
565.797	14085
565.857	8633
565.917	10557
565.978	13434
566.038	17285
566.098	29292
566.158	21922
566.218	10858
566.278	7419
566.338	7323
566.398	7200
566.458	7757
566.518	6942
566.578	7844
566.638	8853
566.698	8750
566.757	7603
566.817	7558
566.877	8216
566.937	7719
566.997	8995
567.057	8277
567.116	8876
567.176	9513
567.236	11361
567.296	9985
567.355	12057
567.415	17403
567.475	12925
567.535	7485
567.594	8356
567.654	8127
567.714	9163
567.773	10156
567.833	9962
567.892	10598
567.952	11197
568.012	11528
568.071	13180
568.131	17229
568.190	19013
568.250	16230
568.309	15014
568.369	14017
568.428	13108
568.488	14124
568.547	17595
568.607	18443
568.666	23299
568.725	31292
568.785	27827
568.844	24718
568.903	15190
568.963	11696
569.022	11231
569.081	8840
569.141	8244
569.200	7533
569.259	8534
569.318	6958
569.378	7675
569.437	6442
569.496	7502
569.555	6978
569.614	7760
569.673	7740
569.732	10041
569.792	6738
569.851	6427
569.910	8417
569.969	7596
570.028	9047
570.087	8915
570.146	10155
570.205	9529
570.264	9839
570.323	7466
570.382	8262
570.441	8749
570.500	8716
570.559	8601
570.618	7914
570.676	9553
570.735	10116
570.794	10819
570.853	10435
570.912	6877
570.971	7196
571.029	8540
571.088	9400
571.147	6348
571.206	7758
571.264	8503
571.323	7552
571.382	12243
571.440	9279
571.499	7349
571.558	7474
571.616	6188
571.675	6745
571.733	5675
571.792	6052
571.851	5796
571.909	6641
571.968	6144
572.026	5335
572.085	4558
572.143	5078
572.202	5212
572.260	4713
572.319	6094
572.377	4651
572.435	6407
572.494	5886
572.552	8632
572.611	8446
572.669	6082
572.727	5090
572.786	4754
572.844	4033
572.902	5140
572.960	4562
573.019	6902
573.077	5710
573.135	4856
573.193	3578
573.251	4619
573.310	5141
573.368	4228
573.426	5350
573.484	5414
573.542	5439
573.600	5353
573.658	5441
573.716	7137
573.774	8212
573.832	9754
573.891	8469
573.948	5709
574.006	5640
574.064	5585
574.122	4379
574.180	4235
574.238	4742
574.296	3892
574.354	4252
574.412	3927
574.470	3492
574.528	4752
574.585	3663
574.643	4973
574.701	4167
574.759	4256
574.817	4515
574.874	4076
574.932	3483
574.990	4423
575.047	5567
575.105	5630
575.163	5738
575.221	7198
575.278	3838
575.336	4223
575.393	4492
575.451	3992
575.509	3675
575.566	5444
575.624	4755
575.681	4186
575.739	4212
575.796	5745
575.854	4364
575.911	5218
575.969	6393
576.026	7686
576.083	8430
576.141	10900
576.198	11609
576.256	6491
576.313	5491
576.370	5190
576.428	7777
576.485	7066
576.542	7086
576.599	3968
576.657	4468
576.714	4885
576.771	4652
576.828	4643
576.886	4289
576.943	4844
577.000	5412
577.057	4989
577.114	5564
577.171	6243
577.228	7436
577.286	8501
577.343	6904
577.400	5212
577.457	4725
577.514	5020
577.571	4387
577.628	4178
577.685	3662
577.742	4878
577.799	4456
577.855	5162
577.912	5134
577.969	6846
578.026	6928
578.083	7984
578.140	6156
578.197	5095
578.254	5235
578.310	6503
578.367	6942
578.424	8804
578.481	7447
578.537	5722
578.594	4075
578.651	3909
578.707	3886
578.764	3905
578.821	3457
578.877	5258
578.934	4170
578.991	4036
579.047	4972
579.104	3967
579.160	4144
579.217	4041
579.273	4034
579.330	3625
579.387	3258
579.443	3764
579.499	4173
579.556	4160
579.612	4755
579.669	4896
579.725	5316
579.782	3041
579.838	3565
579.894	3445
579.951	4118
580.007	3965
580.063	5194
580.120	4729
580.176	4965
580.232	5880
580.288	7320
580.345	9316
580.401	5972
580.457	6324
580.513	5685
580.569	4632
580.619	4826
580.625	4872
580.682	4226
580.692	4345
580.738	4957
580.765	4818
580.794	4705
580.838	4471
580.850	4429
580.906	5189
580.911	5077
580.962	4093
580.984	3977
581.018	3877
581.057	3873
581.074	3871
581.130	4545
581.130	4567
581.186	4011
581.203	3945
581.242	3800
581.276	4087
581.298	4312
581.349	4048
581.354	4034
581.410	4735
581.422	4692
581.466	4626
581.494	4917
581.522	5243
581.567	5377
581.577	5424
581.633	3620
581.640	3593
581.689	3554
581.713	3446
581.745	3336
581.786	2078
581.801	1627
581.857	3400
581.859	3365
581.912	2858
581.932	3101
581.968	3505
582.004	3885
582.024	4151
582.077	3518
582.080	3508
582.135	4138
582.150	3997
582.191	3476
582.223	3572
582.247	3723
582.296	3652
582.302	3649
582.358	3316
582.368	3365
582.414	3743
582.441	3638
582.469	3430
582.514	2662
582.525	2511
582.581	3595
582.587	3523
582.636	3086
582.659	3330
582.692	3593
582.732	3521
582.747	3575
582.803	3780
582.805	3774
582.858	3742
582.877	3483
582.914	3030
582.950	2942
582.969	2921
583.023	3187
583.025	3208
583.080	4231
583.095	3910
583.135	3128
583.168	2870
583.191	2622
583.240	2610
583.246	2648
583.302	2795
583.313	2928
583.357	3456
583.385	3431
583.412	3266
583.458	2702
583.468	2629
583.523	2906
583.531	2979
583.578	3597
583.603	3589
583.634	3491
583.676	4100
583.689	4309
583.744	2834
583.748	2794
583.799	2324
583.820	2313
583.854	2432
583.893	3091
583.910	3376
583.965	2462
583.965	2471
584.020	3535
584.038	3263
584.075	3009
584.110	2926
584.130	2775
584.183	2532
584.185	2539
584.240	3315
584.255	3223
584.296	2745
584.328	2523
584.351	2474
584.400	2750
584.406	2772
584.461	2935
584.472	2826
584.516	2513
584.545	2652
584.571	2743
584.617	2870
584.626	2948
584.681	3243
584.689	3229
584.736	3008
584.762	2882
584.791	2709
584.834	2508
584.846	2464
584.900	3130
584.906	3152
584.955	3464
584.978	3524
585.010	3588
585.051	3005
585.065	2862
585.120	3184
585.123	3258
585.175	4258
585.195	4289
585.230	4499
585.267	4385
585.284	4333
585.339	4363
585.340	4365
585.394	5451
585.412	6123
585.449	7577
585.484	8500
585.503	9116
585.556	11665
585.558	11763
585.613	19666
585.628	20865
585.667	24336
585.700	14796
585.722	8554
585.772	5476
585.777	5144
585.831	4315
585.845	4171
585.886	3865
585.917	3400
585.941	3297
585.989	3925
585.995	3987
586.050	3879
586.061	3971
586.104	4231
586.133	4151
586.159	4254
586.205	4084
586.213	3984
586.268	4075
586.277	4127
586.322	4857
586.349	5149
586.377	5251
586.421	5730
586.431	5869
586.486	7633
586.493	8434
586.540	13811
586.565	10821
586.595	7171
586.637	4461
586.649	3738
586.703	4241
586.709	4201
586.758	3204
586.781	2916
586.812	2600
586.853	2588
586.866	2699
586.921	2416
586.925	2447
586.975	2918
586.996	2927
587.029	2631
587.068	2476
587.083	2561
587.138	2724
587.140	2763
587.192	3464
587.212	3306
587.246	3072
587.284	3383
587.300	3421
587.355	3606
587.356	3594
587.409	3056
587.427	3086
587.463	3104
587.499	3388
587.517	3581
587.571	3539
587.571	3536
587.625	3293
587.643	3282
587.679	3373
587.715	3421
587.733	3455
587.786	3812
587.787	3814
587.841	4010
587.858	4244
587.895	4838
587.930	5148
587.949	5229
588.001	4760
588.003	4730
588.057	4830
588.073	5032
588.111	5701
588.145	6438
588.165	6921
588.217	7622
588.219	7625
588.273	9170
588.288	9619
588.327	11078
588.360	12640
588.381	13432
588.431	17059
588.435	17229
588.489	21694
588.503	23471
588.542	28467
588.575	34809
588.596	38723
588.646	52325
588.650	53098
588.704	70233
588.718	76523
588.757	93499
588.789	115022
588.811	129707
588.861	192307
588.865	197023
588.919	207864
588.932	186026
588.972	122584
589.004	102015
589.026	73982
589.075	46012
589.080	44296
589.133	32001
589.147	30059
589.187	30124
589.218	33076
589.241	35423
589.290	43531
589.294	44001
589.348	55128
589.361	60078
589.401	74027
589.433	99843
589.455	118165
589.504	145270
589.508	147405
589.562	89354
589.576	84344
589.615	48791
589.647	38196
589.669	29307
589.718	13070
589.722	12592
589.776	8552
589.790	7969
589.829	8098
589.861	6880
589.883	5958
589.932	4755
589.936	4618
589.989	3587
590.004	3381
590.043	3334
590.075	3392
590.096	3420
590.146	3568
590.149	3543
590.203	3351
590.218	3316
590.256	3363
590.289	3466
590.309	3064
590.360	1864
590.362	1854
590.416	2509
590.431	2648
590.469	2333
590.503	2214
590.522	2312
590.574	2118
590.575	2085
590.629	2035
590.645	1899
590.682	1676
590.716	1793
590.735	1746
590.787	1384
590.788	1370
590.841	1652
590.859	1741
590.894	1990
590.930	2303
590.947	2249
591.000	2102
591.001	2114
591.053	2033
591.072	2006
591.106	1756
591.143	1515
591.159	1545
591.212	1747
591.214	1773
591.265	1905
591.285	2029
591.318	2148
591.356	2149
591.371	2115
591.424	1984
591.427	2005
591.477	1555
591.498	1355
591.530	1170
591.569	1000
591.583	1035
591.636	1316
591.640	1353
591.689	1438
591.711	1560
591.741	1637
591.782	1654
591.794	1555
591.847	1239
591.853	1232
591.900	1120
591.924	1061
591.953	1070
591.995	1170
592.005	1168
592.058	1269
592.066	1330
592.111	1772
592.137	1992
592.164	1967
592.208	1979
592.216	1914
592.269	1673
592.279	1651
592.322	1352
592.350	1189
592.374	1172
592.421	1202
592.427	1239
592.479	1744
592.491	1881
592.532	1685
592.562	1553
592.585	1403
592.633	1098
592.704	449
592.775	1050
592.846	957
592.916	824
592.987	381
593.058	1316
593.128	392
593.199	1214
593.270	1338
593.341	629
593.411	1094
593.482	1278
593.553	1201
593.623	721
593.694	1149
593.764	1199
593.835	863
593.906	1286
593.976	447
594.047	366
594.117	1227
594.188	944
594.258	1240
594.329	855
594.399	1400
594.470	399
594.540	288
594.611	1609
594.681	117
594.751	1149
594.822	1301
594.892	1053
594.963	1527
595.033	1000
595.103	1285
595.174	1321
595.244	1228
595.314	2848
595.384	927
595.455	661
595.525	1793
595.595	1303
595.665	1302
595.736	423
595.806	1663
595.876	1370
595.946	1757
596.016	1091
596.087	1414
596.157	501
596.227	1343
596.297	741
596.367	987
596.437	1530
596.507	1969
596.577	1895
596.647	1529
596.717	1078
596.787	779
596.857	1375
596.927	913
596.997	607
597.067	814
597.137	1242
597.207	1306
597.277	742
597.347	999
597.417	1234
597.487	1459
597.557	1780
597.626	1819
597.696	1280
597.766	1913
597.836	1897
597.906	1173
597.975	939
598.045	1037
598.115	770
598.185	1254
598.254	1853
598.324	1403
598.394	672
598.464	1094
598.533	930
598.603	1968
598.672	677
598.742	1402
598.812	1372
598.881	1370
598.951	788
599.020	1462
599.090	1209
599.159	944
599.229	1157
599.299	384
599.368	1020
599.437	1048
599.507	932
599.576	1399
599.646	1287
599.715	1390
599.785	1220
599.854	1188
599.924	1176
599.993	566
600.062	363
600.132	1993
600.201	611
600.270	1789
600.340	1584
600.409	628
600.478	1214
600.547	1421
600.617	1373
600.686	1165
600.755	495
600.824	-70
600.894	464
600.963	1406
601.032	750
601.101	1756
601.170	709
601.239	655
601.308	1103
601.378	788
601.447	636
601.516	513
601.585	901
601.654	508
601.723	1253
601.792	829
601.861	985
601.930	1504
601.999	699
602.068	1004
602.137	863
602.206	190
602.275	726
602.343	1006
602.412	1321
602.481	396
602.550	276
602.619	797
602.688	407
602.756	546
602.825	1097
602.894	1074
602.963	367
603.032	1183
603.100	709
603.169	821
603.238	844
603.307	1301
603.375	1115
603.444	910
603.513	1274
603.581	682
603.650	877
603.719	1210
603.787	74
603.856	266
603.924	393
603.993	1095
604.061	-122
604.130	613
604.198	1007
604.267	745
604.335	284
604.404	648
604.472	367
604.541	275
604.609	807
604.678	1165
604.746	289
604.815	837
604.883	948
604.951	1425
605.020	1167
605.088	624
605.156	385
605.225	-3
605.293	592
605.361	608
605.429	-1
605.498	1042
605.566	1064
605.634	1361
605.702	1392
605.771	886
605.839	889
605.907	1486
605.975	348
606.043	1314
606.111	1005
606.180	1093
606.248	192
606.316	1199
606.384	-61
606.452	1057
606.520	1224
606.588	851
606.656	1092
606.724	1133
606.792	1498
606.860	912
606.928	-86
606.996	1227
607.064	652
607.132	1507
607.200	428
607.267	797
607.335	402
607.403	1035
607.471	686
607.539	528
607.607	589
607.674	110
607.742	176
607.810	933
607.878	578
607.946	710
608.013	613
608.081	889
608.149	1043
608.216	1048
608.284	913
608.352	561
608.419	399
608.487	1266
608.555	504
608.622	644
608.690	343
608.757	678
608.825	555
608.893	-10
608.960	723
609.028	1441
609.095	1544
609.163	637
609.230	224
609.298	379
609.365	920
609.432	343
609.500	316
609.567	1264
609.635	1207
609.702	1142
609.769	332
609.837	397
609.904	221
609.971	280
610.039	743
610.106	874
610.173	1297
610.241	3015
610.308	2383
610.375	1272
610.442	489
610.509	51
610.577	856
610.644	781
610.711	-69
610.778	642
610.845	995
610.912	1088
610.980	85
611.047	887
611.114	788
611.181	655
611.248	292
611.315	775
611.382	801
611.449	355
611.516	696
611.583	526
611.650	-65
611.717	1151
611.784	621
611.851	984
611.918	1722
611.984	1207
612.051	2396
612.118	3405
612.185	6994
612.252	5439
612.319	744
612.386	1100
612.452	761
612.519	819
612.586	1286
612.653	919
612.719	741
612.786	274
612.853	30
612.919	272
612.986	817
613.053	780
613.120	424
613.186	330
613.253	631
613.319	928
613.386	239
613.453	605
613.519	224
613.586	1308
613.652	631
613.719	1524
613.785	739
613.852	975
613.918	184
613.985	942
614.051	278
614.118	-103
614.184	338
614.250	1077
614.317	-515
614.383	-366
614.449	289
614.516	355
614.582	994
614.648	0
614.715	-253
614.781	449
614.847	579
614.914	-297
614.980	340
615.046	1070
615.112	76
615.179	701
615.245	-67
615.311	299
615.377	352
615.443	586
615.509	119
615.575	846
615.642	-130
615.708	304
615.774	842
615.840	1309
615.906	200
615.972	1155
616.038	2376
616.104	4508
616.170	8362
616.236	7592
616.302	2743
616.368	947
616.434	719
616.500	1192
616.565	677
616.631	586
616.697	779
616.763	1074
616.829	1145
616.895	2486
616.961	2284
617.026	985
617.092	628
617.158	894
617.224	-124
617.289	688
617.355	596
617.421	354
617.487	551
617.552	1433
617.618	315
617.684	-461
617.749	1511
617.815	-602
617.880	-165
617.946	530
618.012	54
618.077	386
618.143	695
618.208	608
618.274	51
618.339	948
618.405	342
618.470	519
618.536	-14
618.601	513
618.667	271
618.732	317
618.798	228
618.863	545
618.928	175
618.994	12
619.059	703
619.124	419
619.190	-144
619.255	-200
619.320	328
619.386	40
619.451	-654
619.516	330
619.581	-1091
619.647	-27
619.712	365
619.777	302
619.842	-548
619.907	179
619.972	418
620.038	252
620.103	250
620.168	-446
620.233	857
620.298	87
620.363	-526
620.428	437
620.493	-230
620.558	-45
620.623	176
620.688	24
620.753	567
620.818	63
620.883	-166
620.948	131
621.013	121
621.078	-434
621.143	-1551
621.207	964
621.272	175
621.337	207
621.402	572
621.467	345
621.532	883
621.596	1155
621.661	1105
621.726	606
621.791	288
621.855	339
621.920	593
621.985	214
622.049	699
622.114	771
622.179	-58
622.243	354
622.308	396
622.373	1567
622.437	718
622.502	127
622.566	-574
622.631	-256
622.695	639
622.760	469
622.824	580
622.889	57
622.953	184
623.018	686
623.082	720
623.147	470
623.211	-153
623.276	695
623.340	151
623.404	103
623.469	156
623.533	29
623.597	72
623.662	-290
623.726	105
623.790	284
623.854	-768
623.919	300
623.983	-253
624.047	263
624.111	-494
624.176	376
624.240	86
624.304	575
624.368	-355
624.432	323
624.496	175
624.560	617
624.625	-301
624.689	328
624.753	-583
624.817	47
624.881	-753
624.945	135
625.009	195
625.073	783
625.137	-832
625.201	763
625.265	564
625.329	202
625.393	5
625.456	366
625.520	126
625.584	268
625.648	665
625.712	600
625.776	2227
625.839	3568
625.903	1366
625.967	-23
626.031	1582
626.095	1600
626.158	188
626.222	-23
626.286	-561
626.349	-437
626.413	-850
626.477	353
626.540	241
626.604	-391
626.668	-613
626.731	-721
626.795	-994
626.858	-421
626.922	-954
626.986	-138
627.049	-361
627.113	159
627.176	-355
627.240	-370
627.303	114
627.366	-199
627.430	-1498
627.493	-595
627.557	-1027
627.620	208
627.684	-261
627.747	-648
627.810	-1081
627.874	-355
627.937	-1100
628.000	1048
628.064	178
628.127	-675
628.190	-325
628.253	-39
628.317	-535
628.380	-231
628.443	-382
628.506	-676
628.569	-69
628.632	-944
628.696	-613
628.759	-619
628.822	-1042
628.885	-404
628.948	-118
629.011	-273
629.074	-260
629.137	-960
629.200	-1389
629.263	825
629.326	-1032
629.389	-974
629.452	-549
629.515	56
629.578	-1035
629.641	-284
629.704	-1250
629.767	-659
629.830	-1103
629.892	-884
629.955	-1330
630.018	87
630.081	-1763
630.144	-909
630.207	-1330
630.269	558
630.332	-1
630.395	-800
630.458	122
630.520	-1255
630.583	-282
630.646	-594
630.708	-786
630.771	-854
630.834	-692
630.896	-609
630.959	-831
631.021	-496
631.084	-854
631.146	-449
631.209	255
631.272	-69
631.334	-237
631.397	35
631.459	-851
631.522	-1152
631.584	-581
631.646	-100
631.709	-1030
631.771	-465
631.834	-406
631.896	-905
631.958	-1350
632.021	97
632.083	-1067
632.145	-651
632.208	-1010
632.270	-416
632.332	-1193
632.395	-1025
632.457	-445
632.519	-685
632.581	-49
632.643	-1686
632.706	-642
632.768	-1129
632.830	-974
632.892	168
632.954	-630
633.016	-510
633.078	-928
633.141	-335
633.203	-1138
633.265	-496
633.327	-707
633.389	-494
633.451	-720
633.513	-962
633.575	-559
633.637	-1282
633.698	-1194
633.760	-506
633.822	-447
633.884	-327
633.946	-808
634.008	-1182
634.070	-569
634.132	-419
634.193	-1312
634.255	-635
634.317	-901
634.379	-627
634.441	-1620
634.502	-1216
634.564	-1166
634.626	-1241
634.687	-500
634.749	-321
634.811	-606
634.873	-852
634.934	-731
634.996	-711
635.057	-1372
635.119	-890
635.181	-861
635.242	-184
635.304	-1484
635.365	1036
635.427	-1430
635.488	-214
635.550	-1144
635.611	-893
635.673	-1606
635.734	-284
635.796	-989
635.857	-6
635.918	-1653
635.980	-518
636.041	-1080
636.102	-526
636.164	-1391
636.225	-351
636.286	-1838
636.348	-220
636.409	-1494
636.470	-650
636.531	-706
636.593	-1503
636.654	-526
636.715	-578
636.776	-1350
636.838	-1915
636.899	-854
636.960	-1046
637.021	-1468
637.082	-1279
637.143	-1616
637.204	-1257
637.265	-1315
637.326	-146
637.387	-264
637.448	-1258
637.509	-1001
637.570	-294
637.631	-294
637.692	-1668
637.753	-1535
637.814	-1201
637.875	-768
637.936	-732
637.997	-1272
638.058	-893
638.119	-779
638.179	-1288
638.240	-1742
638.301	-1107
638.362	-1893
638.423	-800
638.483	-734
638.544	-1760
638.605	-1338
638.666	-857
638.726	-857
638.787	-954
638.848	-1611
638.908	-429
638.969	-1358
639.030	-430
639.090	-1551
639.151	-1910
639.211	-1334
639.272	-1018
639.332	-1253
639.393	-550
639.453	-1745
639.514	-881
639.574	-1043
639.635	-1153
639.695	-441
639.756	-1037
639.816	-971
639.877	-1038
639.937	124
639.997	-864
640.058	-1385
640.118	-1351
640.178	-154
640.239	-751
640.299	-962
640.359	-1416
640.420	-1158
640.480	-929
640.540	-1716
640.600	-1056
640.661	-741
640.721	-2545
640.781	-379
640.841	-2129
640.901	-767
640.961	-1029
641.021	-1092
641.082	-1179
641.142	-1136
641.202	-126
641.262	-2233
641.322	-680
641.382	-2125
641.442	-458
641.502	-924
641.562	-343
641.622	-2221
641.682	-1019
641.742	-1037
641.802	-1352
641.861	-1488
641.921	-1355
641.981	-572
642.041	-1372
642.101	-1565
642.161	-1939
642.221	-1854
642.280	-867
642.340	-299
642.400	-1123
642.460	-823
642.519	-1207
642.579	-996
642.639	-393
642.698	-2739
642.758	-514
642.818	-1302
642.877	-1175
642.937	-1531
642.997	-1336
643.056	-1568
643.116	-1462
643.175	-365
643.235	-869
643.294	-722
643.354	-977
643.414	-1092
643.473	-1416
643.532	-732
643.592	-1681
643.651	-1654
643.711	106
643.770	-430
643.830	973
643.889	1921
643.948	369
644.008	-1118
644.067	-1381
644.126	-2135
644.186	-1317
644.245	-707
644.304	-2045
644.363	-651
644.423	-1478
644.482	-1343
644.541	-1306
644.600	-2656
644.659	-1167
644.719	-2551
644.778	-1253
644.837	-1129
644.896	-578
644.955	-232
645.014	-1597
645.073	-1311
645.132	-1178
645.191	-431
645.250	-1960
645.309	-881
645.368	-1385
645.427	-1504
645.486	-2036
645.545	-574
645.604	-2385
645.663	-740
645.722	-1942
645.781	-958
645.840	-1278
645.898	-1460
645.957	-579
646.016	-1639
646.075	256
646.134	-120
646.192	832
646.251	1343
646.310	-441
646.369	-883
646.427	-1173
646.486	-1918
646.545	-1260
646.603	-1015
646.662	-891
646.721	-1554
646.779	-1716
646.838	-2349
646.896	-1418
646.955	-482
647.014	-1105
647.072	-1349
647.131	-633
647.189	-478
647.248	-1400
647.306	-435
647.365	-717
647.423	-2641
647.481	-308
647.540	-2601
647.598	-490
647.657	-1731
647.715	-875
647.773	-2159
647.832	-452
647.890	-2282
647.948	-1860
648.007	-1202
648.065	-1562
648.123	-1810
648.181	-485
648.240	-1662
648.298	-2145
648.356	-1853
648.414	-1004
648.472	-989
648.531	-942
648.589	-1564
648.647	-1332
648.705	-1493
648.763	-732
648.821	-1712
648.879	-1398
648.937	-1337
648.995	-1727
649.053	-2117
649.111	-958
649.169	-1671
649.227	-1086
649.285	-1700
649.343	15
649.401	-474
649.459	-978
649.516	-382
649.574	-2738
649.632	-1046
649.690	-993
649.748	-898
649.806	-2026
649.863	-558
649.921	-656
649.979	-1439
650.037	-917
650.094	-2208
650.152	-1542
650.210	-1721
650.268	-1224
650.325	-673
650.383	-1276
650.440	-2828
650.498	-1022
650.556	-1192
650.613	-1613
650.671	-1266
650.728	-1063
650.786	-1045
650.843	-919
650.901	-2240
650.958	-994
651.016	-954
651.073	-1351
651.131	-2273
651.188	-2031
651.246	-2053
651.303	-1730
651.360	-950
651.418	-1478
651.475	-566
651.532	-2255
651.590	-829
651.647	-2330
651.704	-834
651.762	-1250
651.819	-1030
651.876	-2504
651.933	-2284
651.990	-306
652.048	-2164
652.105	-1506
652.162	-875
652.219	-1850
652.276	-695
652.333	-1520
652.390	-1953
652.448	-1344
652.505	-1516
652.562	-1286
652.619	-1819
652.676	-1414
652.733	-868
652.790	-1358
652.847	-2313
652.904	-669
652.961	-2623
653.017	-1654
653.074	-590
653.131	-1611
653.188	-2576
653.245	-1693
653.302	-1402
653.359	-1289
653.415	-785
653.472	-747
653.529	-2259
653.586	-2012
653.642	-2215
653.699	-1530
653.756	-2190
653.813	-1390
653.869	-1689
653.926	-1587
653.983	-1960
654.039	-1172
654.096	-1657
654.152	-152
654.209	-1961
654.266	-954
654.322	-2209
654.379	-801
654.435	-1664
654.492	-1386
654.548	-1737
654.605	-1536
654.661	-766
654.717	-1548
654.774	-726
654.830	-974
654.887	-1234
654.943	-1738
655.000	-1244
655.056	-1206
655.112	-831
655.168	-1838
655.225	-1812
655.281	-1334
655.337	-2204
655.394	-1239
655.450	-1067
655.506	-1002
655.562	-1875
655.618	-23
655.675	-2018
655.731	-1492
655.787	-1636
655.843	-1589
655.899	-2134
655.955	-1078
656.011	-1560
656.067	-2085
656.123	-1064
656.179	-1519
656.235	-1084
656.291	-2235
656.347	-1289
656.403	-1831
656.459	-1854
656.515	-1494
656.571	-1650
656.627	-240
656.683	-2053
656.739	-809
656.795	-1372
656.850	-853
656.906	-1820
656.962	-894
657.018	-1841
657.074	-1462
657.129	-1860
657.185	-1571
657.241	-1637
657.297	-2512
657.352	-1074
657.408	-1508
657.464	-1069
657.519	-1358
657.575	-1594
657.630	-2316
657.686	-2039
657.742	-2246
657.797	-1715
657.853	-1323
657.908	-1131
657.964	-1820
658.019	-1628
658.075	-1583
658.130	-1221
658.186	-1213
658.241	-1606
658.297	-2157
658.352	-1972
658.407	-977
658.463	-2129
658.518	-1927
658.573	-1923
658.629	-2384
658.684	-1773
658.739	-1083
658.795	-2986
658.850	-1366
658.905	-2677
658.960	-967
659.016	-1985
659.071	-1149
659.126	-1023
659.181	-2018
659.236	-827
659.291	-869
659.346	-2359
659.401	-2140
659.457	-1629
659.512	-1831
659.567	-1431
659.622	-1330
659.677	-1562
659.732	-2066
659.787	-1774
659.842	-1068
659.897	-2190
659.952	-1659
660.007	-1302
660.061	-1424
660.116	-2722
660.171	-2010
660.226	-1347
660.281	-993
660.336	-2120
660.391	-1358
660.445	-1910
660.500	-1477
660.555	-1815
660.610	-2298
660.664	-540
660.719	-2269
660.774	-1869
660.828	-1522
660.883	-1885
660.938	-1442
660.992	-2344
661.047	-1263
661.101	-1938
661.156	-1864
661.211	-2418
661.265	-1771
661.320	-1633
661.374	-1707
661.429	-1703
661.483	-700
661.538	-2526
661.592	-1568
661.647	-1681
661.701	-1724
661.755	-1139
661.810	-995
661.864	-2317
661.919	-2071
661.973	-865
662.027	-1617
662.081	-2226
662.136	-1990
662.190	-1546
662.244	-1519
662.299	-1964
662.353	-883
662.407	-2041
662.461	-1514
662.515	-1193
662.569	-1980
662.624	-784
662.678	-1540
662.732	-2109
662.786	-1980
662.840	-2057
662.894	-1205
662.948	-1241
663.002	-889
663.056	-1249
663.110	-1917
663.164	-2026
663.218	-1679
663.272	-1515
663.326	-2502
663.380	-1561
663.434	-1716
663.488	-2740
663.542	-1200
663.595	-2146
663.649	-2367
663.703	-1256
663.757	-1848
663.811	-2680
663.864	-2196
663.918	-1083
663.972	-1611
664.026	-2089
664.079	-1623
664.133	-1511
664.187	-1599
664.240	-1536
664.294	-1861
664.348	-1683
664.401	-2381
664.455	-1032
664.508	-1917
664.562	-1878
664.615	-1436
664.669	-2074
664.722	-982
664.776	-1832
664.829	-1756
664.883	-2072
664.936	-2871
664.990	-1705
665.043	-1745
665.097	-2111
665.150	-1352
665.203	-1815
665.257	-2253
665.310	-1890
665.363	-1673
665.417	-1593
665.470	-2295
665.523	-1492
665.576	-2264
665.630	-1659
665.683	-1893
665.736	-1741
665.789	-1981
665.842	-2035
665.895	-1813
665.949	-1554
666.002	-1229
666.055	-1632
666.108	-1138
666.161	-1671
666.214	-1302
666.267	-1842
666.320	-1686
666.373	-1654
666.426	-1961
666.479	-1714
666.532	-953
666.585	-1920
666.638	-1118
666.691	-2213
666.744	-1240
666.796	-1884
666.849	-2056
666.902	-1861
666.955	-2245
667.008	-2344
667.060	-1563
667.113	-2085
667.166	-1917
667.219	-1555
667.271	-1139
667.324	-2016
667.377	-1891
667.430	-1962
667.482	-1582
667.535	-1490
667.587	-2084
667.640	-1106
667.693	-1386
667.745	-2337
667.798	-905
667.850	-2356
667.903	-1591
667.955	-1742
668.008	-1022
668.060	-2145
668.113	-1942
668.165	-1404
668.218	-1019
668.270	-1932
668.322	-1148
668.375	-2404
668.427	-1359
668.479	-2549
668.532	-2127
668.584	-1911
668.636	-1101
668.689	-1773
668.741	-2553
668.793	-1646
668.845	-2055
668.898	-1455
668.950	-1560
669.002	-1658
669.054	-2125
669.106	-1871
669.158	-839
669.211	-2286
669.263	-2365
669.315	-2180
669.367	-2689
669.419	-2560
669.471	-997
669.523	-1743
669.575	-1192
669.627	-1615
669.679	-2160
669.731	-2048
669.783	-1329
669.835	-1232
669.886	-1869
669.938	-2089
669.990	-1695
670.042	-2048
670.094	-1313
670.146	-1595
670.197	-1539
670.249	-1987
670.301	-1086
670.353	-1767
670.404	-1793
670.456	-2165
670.508	-1980
670.560	-2135
670.611	-1634
670.663	-1554
670.715	-89
670.766	-1294
670.818	-500
670.869	-2000
670.921	-2249
670.972	-1676
671.024	-1908
671.075	-1440
671.127	-1616
671.178	-2179
671.230	-2253
671.281	-2054
671.333	-1122
671.384	-1298
671.436	-2388
671.487	-1360
671.538	-2025
671.590	-1647
671.641	-1420
671.692	-2012
671.744	-1864
671.795	-1224
671.846	-2201
671.897	-2682
671.949	-1443
672.000	-1505
672.051	-1736
672.102	-1706
672.153	-2423
672.204	-1481
672.256	-1605
672.307	-2169
672.358	-1514
672.409	-1616
672.460	-1346
672.511	-2165
672.562	-2309
672.613	-1960
672.664	-2384
672.715	-1349
672.766	-1465
672.817	-2169
672.868	-2198
672.919	-1720
672.970	-1722
673.021	-1870
673.071	-1782
673.122	-1630
673.173	-1861
673.224	-2031
673.275	-2121
673.326	-2965
673.376	-1704
673.427	-2108
673.478	-1516
673.528	-1189
673.579	-1398
673.630	-1717
673.680	-1364
673.731	-2326
673.782	-1880
673.832	-1430
673.883	-1712
673.934	-2363
673.984	-1888
674.035	-2489
674.085	-1498
674.136	-1914
674.186	-1751
674.237	-2212
674.287	-2212
674.338	-1259
674.388	-1934
674.438	-3158
674.489	-1094
674.539	-2291
674.589	-2464
674.640	-2413
674.690	-1941
674.740	-2963
674.791	-2092
674.841	-1480
674.891	-1552
674.942	-1512
674.992	-1619
675.042	-2387
675.092	-2195
675.142	-2563
675.193	-2320
675.243	-2030
675.293	-1883
675.343	-2120
675.393	-1795
675.443	-1914
675.493	-1763
675.543	-2756
675.593	-2114
675.643	-1887
675.693	-1787
675.743	-2033
675.793	-1379
675.843	-2055
675.893	-1998
675.943	-1945
675.993	-2250
676.043	-2298
676.093	-2248
676.142	-1397
676.192	-1948
676.242	-1924
676.292	-1782
676.341	-2067
676.391	-1219
676.441	-3020
676.491	-1810
676.540	-2447
676.590	-1214
676.640	-2011
676.689	-1467
676.739	-1838
676.789	-1926
676.838	-1857
676.888	-1293
676.937	-2424
676.987	-1774
677.037	-2194
677.086	-2320
677.136	-2486
677.185	-2146
677.235	-2151
677.284	-2139
677.333	-2240
677.383	-2100
677.432	-2365
677.482	-1604
677.531	-1394
677.580	-2396
677.630	-1810
677.679	-1885
677.728	-1391
677.778	-1155
677.827	-1808
677.876	-1656
677.925	-2320
677.975	-2164
678.024	-2024
678.073	-2602
678.122	-1761
678.171	-1837
678.220	-1584
678.269	-1691
678.319	-1871
678.368	-2074
678.417	-1952
678.466	-2090
678.515	-2320
678.564	-1769
678.613	-2276
678.662	-2226
678.711	-1932
678.760	-2024
678.809	-1979
678.857	-1908
678.906	-1999
678.955	-2664
679.004	-1741
679.053	-2741
679.102	-2248
679.151	-2271
679.199	-1767
679.248	-1968
679.297	-1392
679.346	-1921
679.394	-2102
679.443	-1823
679.492	-2335
679.540	-1562
679.589	-2000
679.638	-1414
679.686	-2164
679.735	-1895
679.784	-2075
679.832	-2429
679.881	-2387
679.929	-1867
679.978	-2119
680.026	-2610
680.075	-1971
680.123	-2163
680.172	-1976
680.220	-1939
680.268	-2640
680.317	-2373
680.365	-2147
680.414	-1957
680.462	-2676
680.510	-1916
680.559	-1660
680.607	-2221
680.655	-1971
680.703	-2058
680.752	-2588
680.800	-1542
680.848	-2233
680.896	-2362
680.945	-2064
680.993	-1771
681.041	-2172
681.089	-2486
681.137	-1234
681.185	-1443
681.233	-2808
681.281	-1597
681.308	-1967
681.329	-2276
681.377	-2397
681.425	-1920
681.430	-1871
681.473	-1533
681.521	-2586
681.552	-1816
681.569	-1400
681.617	-2062
681.665	-1949
681.674	-1904
681.713	-1773
681.761	-1695
681.796	-1550
681.809	-1511
681.857	-1503
681.904	-1905
681.918	-1914
681.952	-1993
682.000	-1912
682.039	-1358
682.048	-1250
682.096	-2376
682.143	-1442
682.161	-1463
682.191	-1541
682.239	-855
682.283	-1693
682.286	-1767
682.334	-1746
682.382	-1471
682.405	-1368
682.430	-1276
682.477	-1319
682.525	-1018
682.527	-1034
682.572	-1563
682.620	-1216
682.648	-816
682.667	-564
682.715	-1235
682.763	-1066
682.770	-1216
682.810	-2043
682.857	-1489
682.892	-1072
682.905	-923
682.952	-1340
683.000	-1389
683.014	-1282
683.047	-1056
683.095	-254
683.135	-1268
683.142	-1443
683.190	-1001
683.237	-1298
683.257	-1459
683.284	-1653
683.332	-1207
683.379	-500
683.379	-496
683.426	-1062
683.473	-1543
683.501	-1064
683.521	-705
683.568	-502
683.615	-577
683.622	-591
683.662	-669
683.709	-980
683.744	-1113
683.757	-1166
683.804	-531
683.851	-708
683.865	-451
683.898	48
683.945	-273
683.987	-589
683.992	-625
684.039	-162
684.086	-1076
684.109	-782
684.133	-483
684.180	-1024
684.227	-366
684.230	-351
684.274	-80
684.321	-51
684.352	-359
684.368	-553
684.415	-485
684.462	-754
684.473	-852
684.509	-1203
684.556	-486
684.595	-532
684.603	-521
684.649	-83
684.696	-443
684.716	-797
684.743	-1287
684.790	14
684.837	-49
684.838	-53
684.883	-231
684.930	-314
684.959	-11
684.977	188
685.023	-262
685.070	-482
685.081	-375
685.117	-88
685.164	-317
685.202	-178
685.210	-127
685.257	356
685.303	192
685.324	231
685.350	206
685.396	225
685.443	-384
685.445	-364
685.490	249
685.536	490
685.566	263
685.583	118
685.629	373
685.675	-19
685.688	109
685.722	438
685.768	128
685.809	-17
685.815	-31
685.861	-11
685.908	355
685.930	246
685.954	204
686.000	405
686.047	471
686.052	458
686.093	386
686.139	346
686.173	612
686.185	712
686.232	149
686.278	901
686.294	1042
686.324	1137
686.370	865
686.416	264
686.416	262
686.463	588
686.509	278
686.537	479
686.555	634
686.601	-212
686.647	-5
686.658	129
686.693	595
686.739	17
686.779	146
686.785	174
686.831	289
686.877	447
686.900	722
686.923	1029
686.969	578
687.015	1216
687.022	1120
687.061	464
687.107	631
687.143	697
687.153	747
687.199	618
687.245	646
687.264	709
687.291	781
687.336	786
687.382	942
687.385	882
687.428	218
687.474	963
687.506	658
687.520	525
687.565	1137
687.611	1071
687.627	897
687.657	629
687.702	718
687.748	659
687.748	650
687.794	1138
687.839	1082
687.869	1156
687.885	1130
687.931	999
687.976	626
687.990	741
688.022	1165
688.067	844
688.111	669
688.113	673
688.158	923
688.204	1251
688.233	1133
688.249	1134
688.295	850
688.340	1138
688.354	1218
688.386	1442
688.431	1555
688.474	1169
688.477	1155
688.522	1340
688.567	1300
688.595	1120
688.613	1111
688.658	1208
688.703	1426
688.716	1333
688.749	1087
688.794	1350
688.837	1085
688.839	1088
688.884	1086
688.930	1299
688.958	1000
688.975	883
689.020	1113
689.065	1302
689.079	1252
689.110	1227
689.155	1463
689.200	1977
689.201	1995
689.246	1716
689.291	1540
689.321	1442
689.336	1448
689.381	1526
689.426	1561
689.442	1481
689.471	1415
689.516	1373
689.561	1312
689.562	1297
689.606	1141
689.651	1274
689.683	976
689.696	960
689.741	1688
689.785	1434
689.804	1455
689.830	1475
689.875	1332
689.920	2036
689.925	1996
689.965	1644
690.010	1480
690.046	1551
690.054	1602
690.099	1170
690.144	1454
690.166	1418
690.189	1480
690.233	1237
690.278	1635
690.287	1610
690.323	1541
690.367	1753
690.408	1777
690.412	1799
690.457	1822
690.501	1753
690.528	1872
690.546	1963
690.590	1834
690.635	1633
690.649	1571
690.680	1478
690.724	1423
690.769	1278
690.770	1270
690.813	1619
690.857	1115
690.890	1244
690.902	1371
690.946	1427
690.991	1922
691.011	1856
691.035	1689
691.080	1584
691.124	1260
691.132	1235
691.168	1403
691.213	1625
691.252	1778
691.257	1820
691.301	1677
691.346	2528
691.373	2124
691.390	1792
691.434	2025
691.478	1433
691.493	1546
691.522	1979
691.567	1848
691.611	2340
691.614	2306
691.655	1922
691.699	1748
691.734	1712
691.743	1767
691.787	1758
691.831	1472
691.855	1706
691.875	1977
691.919	2249
691.964	2210
691.975	2273
692.008	2561
692.052	2700
692.096	2692
692.096	2668
692.139	2829
692.183	2409
692.216	2017
692.227	2007
692.271	2198
692.315	2710
692.337	2710
692.359	2691
692.403	3036
692.447	2537
692.457	2603
692.490	2856
692.534	2454
692.577	2599
692.578	2628
692.622	2569
692.666	3012
692.698	2978
692.709	2901
692.753	2565
692.797	2540
692.818	2413
692.840	2426
692.884	2373
692.928	2483
692.938	2477
692.971	2507
693.015	2543
693.059	2093
693.059	2070
693.102	2796
693.146	2663
693.179	2666
693.189	2642
693.233	2546
693.276	2658
693.299	2481
693.320	2460
693.363	2532
693.407	2585
693.420	2534
693.450	2449
693.493	2573
693.537	2649
693.540	2626
693.580	2532
693.624	2364
693.660	1986
693.667	1997
693.710	2309
693.753	2513
693.780	2578
693.797	2574
693.840	2585
693.883	2402
693.901	2433
693.926	2694
693.970	2900
694.013	2911
694.021	2966
694.056	2850
694.099	2164
694.141	1735
694.142	1765
694.185	2083
694.229	2362
694.261	2285
694.272	2296
694.315	2665
694.358	2416
694.381	2594
694.401	2839
694.444	3138
694.487	3167
694.501	3300
694.530	3268
694.573	2871
694.616	2603
694.621	2538
694.659	2575
694.702	2524
694.741	2586
694.745	2625
694.787	2449
694.830	2854
694.862	2704
694.873	2625
694.916	2623
694.959	2410
694.982	2368
695.002	2521
695.044	2372
695.087	2779
695.102	2772
695.130	2693
695.172	2792
695.215	2569
695.222	2532
695.258	2709
695.301	2831
695.342	3131
695.343	3169
695.386	3282
695.428	3295
695.462	3426
695.471	3391
695.514	2964
695.556	2543
695.582	2270
695.599	2379
695.641	2559
695.684	2784
695.701	2930
695.726	3075
695.769	2968
695.811	2877
695.821	2866
695.854	2823
695.896	2635
695.938	2594
695.941	2554
695.981	2518
696.023	2481
696.061	2488
696.065	2536
696.108	2684
696.150	2813
696.181	2946
696.192	2993
696.235	2943
696.277	2950
696.301	2959
696.319	2969
696.361	2906
696.404	2763
696.421	2723
696.446	2796
696.488	2748
696.530	2650
696.541	2657
696.572	2999
696.614	3196
696.656	3470
696.660	3474
696.698	3544
696.740	3447
696.780	3301
696.783	3315
696.825	3053
696.867	2685
696.900	2418
696.909	2545
696.951	3137
696.992	3586
697.020	3907
697.034	3822
697.076	3358
697.118	2995
697.139	2781
697.160	2833
697.202	2894
697.244	2918
697.259	2914
697.286	2849
697.327	2642
697.369	2462
697.379	2380
697.411	2403
697.453	2493
697.494	2520
697.499	2501
697.536	2845
697.578	3159
697.618	3413
697.620	3443
697.661	3340
697.703	3300
697.738	3211
697.744	3249
697.786	3313
697.828	3299
697.858	3284
697.869	3285
697.911	3161
697.952	3125
697.977	3031
697.994	2970
698.035	2771
698.077	2544
698.097	2418
698.118	2429
698.160	2417
698.201	2357
698.216	2322
698.243	2412
698.284	2535
698.325	2606
698.336	2608
698.367	2718
698.408	2788
698.449	2893
698.455	2882
698.491	2851
698.532	2745
698.573	2651
698.575	2621
698.614	2933
698.656	3204
698.694	3469
698.697	3491
698.738	3386
698.779	3280
698.814	3173
698.820	3204
698.862	3221
698.903	3256
698.933	3248
698.944	3326
698.985	3537
699.026	3745
699.053	3859
699.067	3775
699.172	2939
699.292	2638
699.411	2910
699.530	2742
699.650	3438
699.769	3177
699.889	2951
700.008	3728
700.127	3253
700.246	3683
700.366	2665
700.485	3527
700.604	3241
700.723	2920
700.843	3364
700.962	2683
701.081	2994
701.200	3442
701.319	2499
701.438	2498
701.557	2445
701.676	2354
701.796	2956
701.915	2837
702.034	2902
702.153	2732
702.272	3197
702.391	2830
702.509	2070
702.628	2331
702.747	1909
702.866	2383
702.985	2110
703.104	2671
703.223	2419
703.342	2056
703.460	1958
703.579	1977
703.698	3101
703.817	3251
703.935	4329
704.054	2365
704.173	1290
704.292	1932
704.410	1809
704.529	2069
704.648	2713
704.766	2483
704.885	1987
705.003	1707
705.122	2179
705.240	2189
705.359	2780
705.477	5252
705.596	4814
705.714	3775
705.833	3769
705.951	3473
706.070	4434
706.188	3277
706.307	4188
706.425	4244
706.543	3507
706.662	3957
706.780	3906
706.898	4238
707.016	3779
707.135	3212
707.253	4050
707.371	4035
707.489	3305
707.608	2879
707.726	2997
707.844	3489
707.962	2982
708.080	3082
708.198	3314
708.316	2754
708.434	3458
708.552	3300
708.670	2728
708.788	5099
708.906	7050
709.024	5241
709.142	4699
709.260	5212
709.378	3923
709.496	4518
709.614	5009
709.732	5051
709.850	5073
709.968	4313
710.085	4792
710.203	4632
710.321	4871
710.439	3877
710.556	4428
710.674	4508
710.792	4248
710.910	5243
711.027	5071
711.145	4727
711.263	4027
711.380	4002
711.498	3547
711.615	4440
711.733	3987
711.851	4421
711.968	4725
712.086	3124
712.203	3710
712.321	4147
712.438	4462
712.555	7061
712.673	8114
712.790	5640
712.908	5601
713.025	5454
713.142	5621
713.260	6382
713.377	6450
713.494	5222
713.612	5018
713.729	5336
713.846	5889
713.963	5874
714.081	5597
714.198	4694
714.315	5216
714.432	5665
714.549	5916
714.666	6624
714.783	21164
714.901	40941
715.018	6901
715.135	4140
715.252	4568
715.369	5229
715.486	3983
715.603	4287
715.720	4628
715.837	4352
715.953	4817
716.070	4642
716.187	4347
716.304	4679
716.421	4528
716.538	4309
716.655	4842
716.771	4236
716.888	4531
717.005	4239
717.122	3715
717.238	3991
717.355	3360
717.472	4142
717.589	3708
717.705	4353
717.822	4404
717.938	3411
718.055	3542
718.172	3740
718.288	3694
718.405	3746
718.521	3761
718.638	3497
718.754	5162
718.871	5203
718.987	4691
719.104	3973
719.220	2910
719.336	3345
719.453	3467
719.569	3356
719.685	2948
719.802	4747
719.918	3634
720.034	3780
720.151	6160
720.267	17626
720.383	5619
720.499	3242
720.616	3518
720.732	4599
720.848	6134
720.964	13781
721.080	9086
721.196	3820
721.312	3143
721.428	3449
721.544	4181
721.660	5520
721.776	3126
721.892	2531
722.008	2439
722.124	2413
722.240	2546
722.356	2621
722.472	3017
722.588	3223
722.704	2898
722.820	2057
722.936	2656
723.051	2327
723.167	2829
723.283	2205
723.399	1933
723.515	2684
723.630	2610
723.746	2307
723.862	2905
723.977	2350
724.093	2096
724.209	2174
724.324	1826
724.440	4323
724.555	9222
724.671	2396
724.786	1570
724.902	1501
725.017	2197
725.133	3536
725.248	8380
725.364	2967
725.479	2578
725.595	1620
725.710	2521
725.826	2350
725.941	1441
726.056	1868
726.172	2310
726.287	1453
726.402	2084
726.517	1259
726.633	1700
726.748	1964
726.863	2013
726.978	1862
727.093	859
727.208	2119
727.324	1298
727.439	1746
727.554	1672
727.669	1389
727.784	1420
727.899	853
728.014	1753
728.129	2425
728.244	2171
728.359	1529
728.474	1872
728.589	1580
728.704	969
728.819	1803
728.934	1327
729.049	1462
729.163	1008
729.278	1221
729.393	649
729.508	799
729.622	976
729.737	1195
729.852	107
729.967	2184
730.081	1174
730.196	1490
730.311	997
730.425	1600
730.540	303
730.655	928
730.769	969
730.884	555
730.998	746
731.113	1338
731.227	1125
731.342	1738
731.456	556
731.571	1308
731.685	1302
731.800	1443
731.914	1892
732.028	1146
732.143	838
732.257	685
732.371	1173
732.486	1815
732.600	5106
732.714	7768
732.829	1392
732.943	1377
733.057	328
733.171	1380
733.285	790
733.399	661
733.514	741
733.628	586
733.742	1013
733.856	93
733.970	665
734.084	928
734.198	895
734.312	824
734.426	2119
734.540	4637
734.654	512
734.768	362
734.882	660
734.996	986
735.109	424
735.223	654
735.337	1046
735.451	516
735.565	1135
735.679	1485
735.792	2490
735.906	1598
736.020	802
736.134	1101
736.247	889
736.361	1075
736.475	3014
736.588	308
736.702	183
736.815	934
736.929	958
737.043	1161
737.156	905
737.270	-302
737.383	118
737.497	1095
737.610	769
737.723	-241
737.837	251
737.950	131
738.064	356
738.177	-432
738.290	59
738.404	1424
738.517	634
738.630	1472
738.744	354
738.857	572
738.970	772
739.083	920
739.197	369
739.310	131
739.423	367
739.536	275
739.649	572
739.762	689
739.875	428
739.988	625
740.102	896
740.215	292
740.328	551
740.441	315
740.553	326
740.667	354
740.779	145
740.892	477
741.005	713
741.118	392
741.231	531
741.344	113
741.457	335
741.569	-7
741.682	242
741.795	-308
741.908	-122
742.020	-115
742.133	240
742.246	611
742.358	354
742.471	370
742.584	-4
742.696	399
742.809	533
742.922	-108
743.034	205
743.147	-256
743.259	453
743.372	644
743.484	-110
743.597	-780
743.709	-69
743.822	129
743.934	1048
744.046	543
744.159	490
744.271	280
744.383	-386
744.496	-212
744.608	969
744.720	298
744.832	474
744.945	-685
745.057	-44
745.169	160
745.281	-582
745.393	53
745.506	165
745.618	-54
745.730	670
745.842	404
745.954	297
746.066	476
746.178	308
746.290	2
746.402	27
746.514	-933
746.626	-82
746.738	-575
746.850	382
746.962	-55
747.074	124
747.185	329
747.297	-119
747.409	-19
747.521	-273
747.633	425
747.744	-50
747.856	-154
747.968	-498
748.080	255
748.191	-32
748.303	-432
748.414	-652
748.526	-91
748.638	-237
748.749	-792
748.861	-314
748.972	-30
749.084	167
749.195	-13
749.307	700
749.418	-60
749.530	496
749.641	744
749.753	-23
749.864	446
749.975	-995
750.087	-377
750.198	386
750.310	168
750.421	-120
750.532	-240
750.643	-415
750.755	-829
750.866	-12
750.977	344
751.088	796
751.199	899
751.310	254
751.422	104
751.533	330
751.644	-332
751.755	-475
751.866	-454
751.977	-124
752.088	-53
752.199	202
752.310	205
752.421	-516
752.532	-307
752.643	-63
752.753	-10
752.864	-316
752.975	-719
753.086	-258
753.197	692
753.308	-1335
753.418	24
753.529	-140
753.640	364
753.751	-275
753.861	-1015
753.972	-360
754.083	551
754.193	-442
754.304	553
754.415	-187
754.525	-565
754.636	425
754.746	-142
754.857	-584
754.967	-438
755.078	-75
755.188	-233
755.299	-260
755.409	-361
755.520	59
755.630	-429
755.740	-63
755.851	301
755.961	551
756.071	-220
756.182	-192
756.292	-1082
756.402	315
756.512	-789
756.623	-386
756.733	-504
756.843	-407
756.953	-434
757.063	-525
757.173	10
757.283	-1138
757.393	-584
757.504	-626
757.614	-1122
757.724	-491
757.834	-49
757.944	-235
758.053	-818
758.164	-933
758.273	-753
758.383	-269
758.493	42
758.603	-398
758.713	-294
758.823	-598
758.932	-290
759.042	-317
759.152	-242
759.262	-575
759.372	-271
759.481	-624
759.591	-386
759.701	-311
759.810	-144
759.920	677
760.029	-991
760.139	-398
760.249	406
760.358	-132
760.468	-50
760.577	-305
760.687	73
760.796	-622
760.906	30
761.015	80
761.124	-254
761.234	-183
761.343	281
761.453	-194
761.562	-37
761.671	-270
761.781	265
761.890	-85
761.999	-354
762.108	-269
762.218	-313
762.327	-432
762.436	199
762.545	-255
762.654	-634
762.763	-502
762.872	1
762.982	-160
763.091	110
763.200	-139
763.309	-120
763.418	-708
763.527	-199
763.635	-48
763.744	-52
763.853	-621
763.962	-129
764.071	30
764.180	-258
764.289	345
764.398	505
764.506	-33
764.615	-211
764.724	561
764.833	105
764.941	-483
765.050	253
765.159	246
765.268	-289
765.376	17
765.485	345
765.593	13
765.702	-675
765.810	-137
765.919	-113
766.028	1049
766.136	1983
766.245	2185
766.353	8540
766.461	37807
766.570	79360
766.678	9575
766.787	2116
766.895	754
767.003	313
767.112	919
767.220	717
767.328	-59
767.437	-297
767.545	-362
767.653	339
767.761	153
767.870	-70
767.978	901
768.086	-183
768.194	-181
768.302	201
768.410	-529
768.518	-153
768.626	155
768.734	722
768.842	-311
768.950	-414
769.058	284
769.166	-890
769.274	-199
769.382	181
769.490	932
769.598	400
769.706	2751
769.813	11271
769.921	50508
770.029	26201
770.137	1349
770.245	989
770.352	-205
770.460	861
770.568	-304
770.675	1193
770.783	167
770.891	-77
770.998	-275
771.106	-504
771.213	-209
771.321	-210
771.428	395
771.536	120
771.643	362
771.751	374
771.858	141
771.966	-568
772.073	-951
772.181	46
772.288	127
772.395	299
772.503	1
772.610	-688
772.717	187
772.825	609
772.932	294
773.039	-339
773.146	27
773.253	-766
773.361	-235
773.468	-6
773.575	611
773.682	-40
773.789	-356
773.896	-488
774.003	119
774.110	600
774.217	-218
774.324	79
774.431	-736
774.538	114
774.645	-322
774.752	-507
774.859	388
774.966	296
775.073	297
775.179	-211
775.286	-505
775.393	-119
775.500	145
775.607	631
775.713	-493
775.820	46
775.927	508
776.033	-372
776.140	215
776.247	-346
776.353	-652
776.460	-903
776.566	25
776.673	759
776.779	203
776.886	-429
776.992	226
777.099	-4
777.205	-223
777.312	-161
777.418	581
777.524	462
777.631	-114
777.737	5
777.843	139
777.950	-307
778.056	-203
778.162	-148
778.268	-404
778.375	-8
778.481	170
778.587	413
778.693	-79
778.799	-97
778.906	-666
779.012	-92
779.118	229
779.224	7
779.330	-356
779.436	-142
779.542	-1267
779.648	1138
779.754	-1042
779.860	210
779.966	-268
780.071	1333
780.177	92
780.283	-622
780.389	-313
780.495	-24
780.601	-1284
780.706	-386
780.812	-489
780.918	66
781.024	262
781.129	-908
781.235	108
781.341	160
781.446	-795
781.552	-588
781.657	-109
781.763	-1000
781.869	-535
781.974	-167
782.080	-205
782.185	476
782.291	-271
782.396	-84
782.501	-423
782.607	-583
782.712	-451
782.818	-355
782.923	-619
783.028	624
783.134	402
783.239	-73
783.344	-125
783.449	-346
783.555	331
783.660	-377
783.765	-714
783.870	-247
783.975	-88
784.080	152
784.185	-382
784.291	-681
784.396	-142
784.501	84
784.606	-545
784.711	-418
784.816	-1324
784.921	-639
785.026	72
785.130	-431
785.235	-387
785.340	-400
785.445	-438
785.550	-181
785.655	-414
785.760	-1073
785.864	-821
785.969	-819
786.074	-569
786.178	-627
786.283	-134
786.388	-459
786.492	-384
786.597	-60
786.702	179
786.806	-1361
786.911	543
787.015	47
787.120	-1123
787.224	-1299
787.329	-341
787.433	-524
787.538	-655
787.642	-537
787.747	-860
787.851	-269
787.955	-827
788.060	-906
788.164	-405
788.268	-508
788.372	-1003
788.477	-273
788.581	-274
788.685	185
788.789	-1276
788.894	-1135
788.998	-521
789.102	-892
789.206	-428
789.310	-349
789.414	277
789.518	-613
789.622	-799
789.726	-850
789.830	-465
789.934	-553
790.038	-473
790.142	-823
790.246	-291
790.350	-393
790.454	-375
790.557	-782
790.661	-94
790.765	-237
790.869	-149
790.973	-229
791.076	242
791.180	-686
791.284	-1575
791.388	-489
791.491	-658
791.595	-1251
791.698	-1618
791.802	568
791.906	-533
792.009	-712
792.113	-519
792.216	-325
792.320	-830
792.423	-493
792.527	-839
792.630	-1049
792.733	-733
792.837	-1332
792.940	254
793.043	-637
793.147	-1186
793.250	212
793.353	190
793.457	-766
793.560	-327
793.663	-276
793.766	-467
793.869	-797
793.973	-576
794.076	-1813
794.179	65
794.282	-375
794.385	-20
794.488	-93
794.591	-583
794.694	-241
794.797	-69
794.900	14
795.003	-1239
795.106	-1460
795.209	-230
795.312	-1113
795.415	-735
795.517	-1291
795.620	-830
795.723	-1235
795.826	-308
795.929	-1953
796.031	44
796.134	-351
796.237	-1609
796.339	-399
796.442	-1423
796.545	-1604
796.647	-356
796.750	37
796.852	-973
796.955	-618
797.057	-531
797.160	-812
797.262	-1491
797.365	126
797.467	-667
797.570	-1225
797.672	-1368
797.775	-162
797.877	-804
797.979	-161
798.082	-694
798.184	-1036
798.286	-1194
798.388	-880
798.491	-595
798.593	-974
798.695	-947
798.797	-754
798.899	-866
799.001	-1413
799.104	-1076
799.206	-1225
799.308	-61
799.410	-250
799.512	-672
799.614	-1148
799.716	-928
799.818	431
799.920	-423
800.021	-680
800.123	-958
800.225	-374
800.327	-1501
800.429	-895
800.531	-1010
800.633	-607
800.734	-926
800.836	-1117
800.938	-600
801.039	-1206
801.141	-1125
801.243	-1047
801.344	-637
801.446	-1328
801.548	-369
801.649	-795
801.751	-816
801.852	-1282
801.954	-1437
802.055	-940
802.157	-1718
802.258	-491
802.360	-1752
802.461	-156
802.563	-1028
802.664	-648
802.765	-777
802.867	-715
802.968	-1916
803.069	610
803.170	-1238
803.272	-623
803.373	-1217
803.474	-530
803.575	-1552
803.676	-1448
803.777	-1143
803.879	-765
803.980	-789
804.081	-204
804.182	-1325
804.283	-1555
804.384	-1103
804.485	-1151
804.586	-1473
804.687	-349
804.788	-1384
804.888	-341
804.989	-1228
805.090	-1430
805.191	-2185
805.292	-1550
805.393	-1014
805.493	-1484
805.594	-910
805.695	-2001
805.796	-858
805.896	-1324
805.997	-972
806.098	-1760
806.198	-1244
806.299	-1596
806.399	-1207
806.500	-1161
806.601	-384
806.701	-953
806.802	-1165
806.902	-583
807.002	-574
807.103	-1393
807.203	-914
807.304	-1261
807.404	-1463
807.504	-829
807.605	-2291
807.705	-1140
807.805	-975
807.906	-820
808.006	-1455
808.106	-851
808.206	-1144
808.306	-685
808.406	-709
808.507	-805
808.607	-1844
808.707	-862
808.807	-1095
808.907	-1653
809.007	-1301
809.107	-1012
809.207	-1400
809.307	-1235
809.407	-478
809.507	-1534
809.607	-1217
809.706	-968
809.806	-617
809.906	-840
810.006	-801
810.106	-1078
810.205	-1032
810.305	-1953
810.405	-479
810.505	-811
810.604	-975
810.704	-1414
810.804	-1360
810.903	-1116
811.003	-1529
811.102	-1354
811.202	-1226
811.301	-814
811.401	-1458
811.500	-1307
811.600	-1213
811.699	-913
811.799	-1763
811.898	-397
811.997	-622
812.097	-2550
812.196	-1534
812.295	-1884
812.395	-455
812.494	-997
812.593	-1458
812.692	-980
812.792	-1305
812.891	-1670
812.990	-1708
813.089	-1734
813.188	-994
813.287	-1529
813.386	-1043
813.485	-1618
813.584	-1333
813.683	-1154
813.782	-1514
813.881	-1692
813.980	-933
814.079	-1503
814.178	-1534
814.277	-670
814.376	-1216
814.475	-1673
814.574	-946
814.672	-1506
814.771	-1585
814.870	-166
814.969	-893
815.067	-765
815.166	-1117
815.265	-1084
815.363	-1747
815.462	-2158
815.560	-766
815.659	-857
815.758	-1127
815.856	-1522
815.955	-1029
816.053	-2304
816.152	54
816.250	-1090
816.348	-1295
816.447	-720
816.545	-1438
816.644	-98
816.742	-1561
816.840	-721
816.938	-1733
817.037	-1345
817.135	-1146
817.233	-1405
817.331	-1858
817.430	-778
817.528	-1131
817.626	-1482
817.724	-1567
817.822	-1293
817.920	-538
818.018	-45
818.116	833
818.214	3686
818.312	11835
818.410	14196
818.508	1202
818.606	-1159
818.704	-1605
818.802	-1226
818.900	-1016
818.997	-1032
819.095	-444
819.193	223
819.291	3442
819.389	9199
819.486	30382
819.584	22147
819.682	1767
819.779	-613
819.877	-594
819.975	-593
820.072	-925
820.170	-1433
820.267	115
820.365	-1017
820.462	-1411
820.560	-634
820.657	-2105
820.755	-619
820.852	-1036
820.949	-615
821.047	-636
821.144	-1812
821.241	-339
821.339	-1566
821.436	-897
821.533	-1168
821.631	-1246
821.728	-1766
821.825	-1151
821.922	-1410
822.019	2
822.116	-887
822.214	-875
822.311	-1588
822.408	-1157
822.505	-1751
822.602	-1407
822.699	-1830
822.796	-845
822.893	-1739
822.990	-1093
823.086	-1259
823.183	-840
823.280	-1683
823.377	-1373
823.474	-589
823.571	-1602
823.667	-816
823.764	-1121
823.861	-1234
823.958	-1442
824.054	-755
824.151	-1455
824.248	-1585
824.344	-690
824.441	-1431
824.537	-1355
824.634	-1423
824.731	-1792
824.827	-1308
824.924	-2111
825.020	-1265
825.116	-1506
825.213	-895
825.309	-666
825.406	-979
825.502	-1081
825.598	-2238
825.695	-1172
825.791	-1338
825.887	-1413
825.983	-1093
826.080	-1361
826.176	-1439
826.272	-990
826.368	-530
826.464	-1330
826.560	-1391
826.656	-1837
826.753	-1424
826.849	-1202
826.945	132
827.041	-1603
827.137	-762
827.233	-495
827.328	-2201
827.424	-1704
827.520	-824
827.616	-1767
827.712	-2001
827.808	-892
827.904	-1394
827.999	246
828.095	-1888
828.191	-924
828.287	-653
828.382	-1448
828.478	-596
828.574	-2356
828.669	-1230
828.765	-828
828.860	-2075
828.956	-930
829.051	-1964
829.147	-648
829.242	-1785
829.338	-1760
829.433	-387
829.529	-1321
829.624	-848
829.720	-1431
829.815	-1528
829.910	-1833
830.005	-1546
830.101	-1508
830.196	-1309
830.291	-1721
830.386	-1286
830.482	-1439
830.577	-1237
830.672	-2874
830.767	31
830.862	-1409
830.957	-1634
831.052	-1229
831.147	-1063
831.242	-1502
831.337	-1336
831.432	-1069
831.527	-1532
831.622	-923
831.717	-1521
831.812	-1627
831.907	-870
832.002	-1008
832.097	-1502
832.191	-2529
832.286	-795
832.381	-1288
832.476	-1093
832.570	-1525
832.665	-555
832.760	-1139
832.854	-1021
832.949	-1507
833.044	-1315
833.138	-1235
833.233	-769
833.327	-1305
833.422	-1852
833.516	-1431
833.611	-2361
833.705	-1828
833.799	-1609
833.894	-1972
833.988	-1014
834.083	-1790
834.177	-610
834.271	-1472
834.365	-1464
834.460	-819
834.554	-1379
834.648	-1873
834.742	-2064
834.836	-841
834.931	-2239
835.025	-2159
835.119	-1047
835.213	-1829
835.307	-1759
835.401	-1917
835.495	-1420
835.589	-967
835.683	-1887
835.777	-1597
835.871	-1443
835.965	-2486
836.059	-1487
836.152	-104
836.246	-1107
836.340	-1377
836.434	113
836.528	-2006
836.621	-1158
836.715	-2078
836.809	-2204
836.902	-1003
836.996	-1759
837.090	-1696
837.183	-1449
837.277	-1461
837.370	-1515
837.464	-1033
837.557	-1674
837.651	-1425
837.744	-475
837.838	-830
837.931	-1043
838.025	-462
838.118	-1001
838.211	-1160
838.305	22
838.398	-285
838.491	-1602
838.584	-1562
838.678	-1232
838.771	6
838.864	-675
838.957	-1902
839.050	-1946
839.144	-1227
839.237	-1497
839.330	-897
839.423	-1044
839.516	-1675
839.609	-244
839.702	-847
839.795	-1539
839.888	-1331
839.981	-1433
840.073	-2000
840.166	-1610
840.259	-960
840.352	-677
840.445	-1855
840.538	-1585
840.630	-351
840.723	-1704
840.816	-1001
840.909	-1734
841.001	-1127
841.094	-883
841.186	-675
841.279	-544
841.372	-126
841.464	-1636
841.557	-2731
841.649	-1648
841.742	-1036
841.834	-1577
841.927	-1034
842.019	-1485
842.111	-1674
842.204	-1568
842.296	-1442
842.388	-750
842.481	-1348
842.573	140
842.665	705
842.758	-804
842.850	-1513
842.942	-2300
843.034	-1178
843.126	-1711
843.218	-1138
843.310	-552
843.402	1476
843.495	4582
843.587	4240
843.679	-567
843.771	-1543
843.862	-853
843.954	-1147
844.046	-1464
844.138	-2110
844.230	-1451
844.322	-1478
844.414	-1433
844.505	-1827
844.597	-1273
844.689	-724
844.781	-1439
844.872	-1576
844.964	-1964
845.056	-1683
845.147	-1473
845.239	-1717
845.331	-1563
845.422	-1826
845.514	-1319
845.605	-1667
845.697	-1854
845.788	-748
845.880	-1240
845.971	-1711
846.063	-1342
846.154	-1328
846.245	-1067
846.337	-1201
846.428	-1018
846.519	-1891
846.610	-1426
846.702	-1294
846.793	-1429
846.884	-898
846.975	-2301
847.066	-1139
847.158	-1776
847.249	-1790
847.340	-399
847.431	-2576
847.522	-1423
847.613	-1499
847.704	-1619
847.795	-1806
847.886	-1254
847.977	-1048
848.068	-941
848.158	-1065
848.249	-1895
848.340	-1890
848.431	-1631
848.522	-1433
848.612	-2072
848.703	-1303
848.794	-1921
848.885	-755
848.975	-1874
849.066	-1427
849.157	-2251
849.247	-2042
849.338	-1791
849.428	-1675
849.519	-402
849.609	465
849.700	2716
849.790	5146
849.881	1880
849.971	-1214
850.061	-1914
850.152	-1734
850.242	-1512
850.332	-1986
850.423	-2097
850.513	-2645
850.603	-2179
850.693	-1873
850.784	-1381
850.874	-1638
850.964	-1636
851.054	-1895
851.144	-2069
851.234	-1871
851.324	-1815
851.414	-881
851.505	-957
851.595	-2095
851.684	-402
851.774	-1259
851.864	-530
851.954	-2015
852.044	-1513
852.134	-2023
852.224	-1925
852.314	-2157
852.403	-1024
852.493	-2332
852.583	-622
852.673	-1663
852.762	-973
852.852	-1622
852.942	-1650
853.031	-1135
853.121	-1660
853.210	-1860
853.300	-1349
853.389	-1359
853.479	-1293
853.568	-419
853.658	-1948
853.747	827
853.837	888
853.926	5994
854.015	12153
854.105	20964
854.194	46411
854.283	22905
854.373	802
854.462	-1216
854.551	-1252
854.640	-1492
854.729	-724
854.819	-1727
854.908	-1026
854.997	-739
855.086	-1227
855.175	-2451
855.264	-1867
855.353	-1858
855.442	-1768
855.531	-1181
855.620	-1212
855.709	-1547
855.798	-1734
855.887	-2073
855.975	-2143
856.064	-1703
856.153	-1902
856.242	-1077
856.331	-1385
856.419	-1266
856.508	-1614
856.597	-1539
856.685	-2025
856.774	-1998
856.863	-1261
856.951	-2246
857.040	-1455
857.128	-1858
857.217	-1545
857.305	-1678
857.394	-1226
857.482	-1267
857.571	-1391
857.659	-1790
857.747	-1326
857.836	-2132
857.924	-1465
858.012	-2572
858.101	-1118
858.189	-1695
858.277	-1579
858.365	-2211
858.454	-1022
858.542	-2207
858.630	-1232
858.718	-927
858.806	-1435
858.894	-1612
858.982	-2126
859.070	-600
859.158	-1198
859.246	-2174
859.334	-1123
859.422	-1147
859.510	-2046
859.598	-1809
859.686	-1458
859.773	-1424
859.861	-1792
859.949	-1267
860.037	-2169
860.125	-947
860.212	-1350
860.300	-1078
860.388	-1334
860.475	-1885
860.563	-1638
860.651	-154
860.738	-1625
860.826	-1865
860.913	-1544
861.001	-1706
861.088	-1681
861.176	-813
861.263	-1858
861.350	-1652
861.438	-1577
861.525	-1427
861.612	-1262
861.700	-1495
861.787	-2564
861.874	-2038
861.962	-1968
862.049	-2178
862.136	-868
862.223	-1628
862.310	-1454
862.397	-1616
862.484	-2041
862.572	-2131
862.659	-1773
862.746	-1452
862.833	-1539
862.920	-1102
863.007	-1903
863.094	-1280
863.180	-1511
863.267	-1880
863.354	-2387
863.441	-918
863.528	-1721
863.615	-1439
863.701	-1034
863.788	-1491
863.875	-1454
863.961	-1603
864.048	-2305
864.135	-1945
864.221	-1821
864.308	-1679
864.395	-1932
864.481	-1204
864.568	-1674
864.654	-1772
864.741	-1773
864.827	-1746
864.914	-1792
865.000	-736
865.086	-1772
865.173	-1434
865.259	-1130
865.345	-1816
865.432	-1346
865.518	-1525
865.604	-733
865.690	-1045
865.776	-678
865.863	1124
865.949	4613
866.035	8022
866.121	17759
866.207	26845
866.293	7010
866.379	-412
866.465	-1678
866.551	-1615
866.637	-1342
866.723	-1657
866.809	-1317
866.895	-988
866.981	-1583
867.066	-1907
867.152	-1047
867.238	-1713
867.324	-1355
867.409	-1564
867.495	-704
867.581	-1514
867.667	-1278
867.752	-2126
867.838	-1617
867.923	-1825
868.009	-1170
868.094	-1127
868.180	-1531
868.266	-1146
868.351	-1784
868.436	-1410
868.522	-1119
868.607	-176
868.693	-1441
868.778	-635
868.863	431
868.949	-1087
869.034	-1196
869.119	-1179
869.204	-1675
869.290	-2120
869.375	-1946
869.460	-2296
869.545	-2463
869.630	-1711
869.715	-1796
869.800	-1684
869.885	-1469
869.970	-2613
870.055	-1397
870.140	-1837
870.225	-1350
870.310	-1318
870.395	-2094
870.480	-1655
870.565	-1262
870.650	-2025
870.734	-2026
870.819	-1547
870.904	-1730
870.989	-1861
871.073	-841
871.158	-1699
871.243	-1746
871.327	-1708
871.412	-1230
871.496	-1764
871.581	-1697
871.665	-1524
871.750	-1263
871.834	-1772
871.919	-1656
872.003	-1955
872.088	-1238
872.172	-1728
872.257	-1764
872.341	-2390
872.425	-1689
872.509	-1760
872.594	-1650
872.678	-1774
872.762	-1940
872.846	-1840
872.930	-1721
873.015	-1574
873.099	-2196
873.183	-1638
873.267	-1736
873.351	-1389
873.435	-1772
873.519	-1667
873.603	-1572
873.687	-1774
873.771	-1869
873.855	-995
873.938	-2099
874.022	-2031
874.106	-1080
874.190	-2155
874.274	-2250
874.358	-1851
874.383	-1901
874.441	-2022
874.490	-2171
874.525	-2278
874.598	-1998
874.609	-1963
874.692	-1557
874.705	-1529
874.776	-1374
874.813	-1530
874.859	-1741
874.920	-1694
874.943	-1683
875.027	-1932
875.028	-1928
875.110	-1838
875.135	-1911
875.194	-2052
875.243	-1880
875.277	-1772
875.350	-1340
875.361	-1282
875.444	-2169
875.457	-2140
875.527	-2086
875.565	-1582
875.611	-919
875.672	-2109
875.694	-2517
875.778	-2105
875.780	-2096
875.861	-2053
875.887	-1946
875.944	-1605
875.994	-1085
876.027	-779
876.101	-1212
876.111	-1262
876.194	-1652
876.209	-1523
876.277	-1023
876.316	-992
876.360	-886
876.423	-1796
876.443	-2109
876.526	-1597
876.530	-1600
876.610	-1698
876.637	-1598
876.693	-1406
876.745	-1642
876.776	-1784
876.852	-1412
876.859	-1372
876.942	-1286
876.959	-1240
877.025	-1171
877.066	-1109
877.108	-1048
877.173	-1505
877.190	-1577
877.273	-853
877.280	-849
877.356	-1198
877.387	-1276
877.439	-1262
877.494	-1337
877.522	-1357
877.601	-955
877.605	-942
877.688	-1308
877.708	-1247
877.770	-1019
877.815	-1527
877.853	-1982
877.922	-1478
877.936	-1366
878.018	-1302
878.029	-1289
878.101	-1166
878.136	-1092
878.184	-1090
878.242	-1683
878.266	-1880
878.349	-1006
878.349	-1005
878.431	-828
878.456	-926
878.514	-1238
878.563	-1428
878.596	-1492
878.670	-1160
878.679	-1119
878.761	-957
878.776	-898
878.844	-826
878.883	-978
878.926	-992
878.990	-971
879.008	-1004
879.091	-1849
879.097	-1791
879.173	-938
879.203	-1015
879.255	-1139
879.310	-1214
879.338	-1238
879.417	-1002
879.420	-1000
879.502	-1375
879.523	-1345
879.584	-1033
879.630	-1092
879.667	-1224
879.736	-1129
879.749	-1127
879.831	-1411
879.843	-1410
879.913	-1099
879.949	-964
879.995	-862
880.056	-830
880.077	-850
880.159	-1345
880.162	-1336
880.241	-1054
880.269	-1040
880.323	-918
880.375	-677
880.405	-511
880.482	-354
880.487	-378
880.569	-804
880.588	-710
880.651	393
880.694	397
880.733	277
880.801	206
880.815	53
880.896	-769
880.907	-824
880.978	-1115
881.013	-1215
881.060	-1066
881.120	-923
881.142	-881
881.224	-1010
881.226	-1010
881.305	-974
881.332	-936
881.387	-793
881.438	-590
881.469	-515
881.545	-832
881.550	-842
881.632	-559
881.651	-596
881.713	-866
881.757	-743
881.795	-583
881.863	-773
881.876	-826
881.958	-1023
881.969	-1038
882.039	-852
882.075	-667
882.121	-396
882.181	-363
882.202	-507
882.284	-819
882.287	-833
882.365	-615
882.393	-709
882.446	-633
882.499	-110
882.528	-103
882.605	-431
882.609	-427
882.690	-587
882.711	-548
882.771	-585
882.817	-953
882.853	-1160
882.923	-901
882.934	-859
883.015	-1088
883.029	-1067
883.096	-583
883.135	-306
883.177	-484
883.241	-946
883.258	-910
883.339	-1044
883.347	-1001
883.420	-920
883.453	-1084
883.501	-1059
883.558	-816
883.583	-810
883.663	-992
883.664	-997
883.744	-1150
883.770	-1036
883.825	-458
883.876	-457
883.906	-611
883.981	-633
883.987	-619
884.068	-731
884.087	-595
884.149	-242
884.193	-428
884.230	-690
884.298	-1203
884.310	-1209
884.391	-669
884.404	-651
884.472	-619
884.510	-480
884.552	-416
884.615	-516
884.633	-538
884.714	-757
884.721	-751
884.794	-510
884.826	-610
884.875	-811
884.932	-658
884.956	-452
885.036	-78
885.037	-80
885.117	-399
885.143	-457
885.197	-417
885.248	-539
885.278	-515
885.354	-419
885.358	-419
885.439	-567
885.459	-593
885.519	-274
885.565	-24
885.599	-143
885.670	-345
885.680	-350
885.760	-499
885.775	-570
885.840	-696
885.881	-595
885.921	-351
885.986	-145
886.001	-218
886.081	-608
886.091	-662
886.161	-214
886.196	-79
886.241	-365
886.302	-645
886.322	-508
886.402	264
886.407	290
886.482	-182
886.512	-366
886.562	-449
886.617	-506
886.642	-468
886.722	-477
886.722	-481
886.802	-232
886.828	-227
886.882	-92
886.933	205
886.962	280
887.038	296
887.042	273
887.122	-335
887.143	-487
887.202	-297
887.248	-134
887.281	-114
887.353	-208
887.361	-166
887.441	123
887.458	240
887.521	-127
887.563	-460
887.601	-439
887.668	-539
887.680	-494
887.760	-90
887.773	-34
887.840	161
887.878	244
887.919	-18
887.983	-315
887.999	-284
888.079	-347
888.088	-351
888.158	-257
888.193	-244
888.238	24
888.297	444
888.317	347
888.397	-72
888.402	-113
888.476	212
888.507	374
888.556	523
888.612	611
888.635	290
888.715	-758
888.717	-789
888.794	-255
888.821	-73
888.873	-386
888.926	-728
888.953	-573
889.031	-67
889.032	-62
889.111	64
889.135	114
889.190	-127
889.240	-367
889.270	-278
889.345	-39
889.349	-43
889.428	-195
889.449	-227
889.507	311
889.554	731
889.586	387
889.658	-422
889.665	-391
889.744	-50
889.763	24
889.824	167
889.867	270
889.903	346
889.972	490
890.076	-151
890.181	155
890.285	512
890.390	-239
890.494	311
890.599	-759
890.703	63
890.807	771
890.912	204
891.016	485
891.120	89
891.224	541
891.329	-260
891.433	-163
891.537	-210
891.641	392
891.745	133
891.849	-328
891.953	411
892.058	-358
892.162	80
892.266	-952
892.370	827
892.474	-36
892.578	579
892.682	114
892.786	443
892.889	525
892.993	427
893.097	668
893.201	16
893.305	-230
893.409	39
893.512	513
893.616	466
893.720	330
893.824	-300
893.927	56
894.031	-339
894.135	-452
894.238	496
894.342	-91
894.445	1519
894.549	391
894.652	56
894.756	-64
894.859	686
894.963	451
895.066	-578
895.170	624
895.273	504
895.377	299
895.480	-172
895.583	-189
895.687	138
895.790	415
895.893	417
895.997	-125
896.100	470
896.203	0
896.306	-262
896.409	162
896.513	853
896.616	238
896.719	-400
896.822	-495
896.925	-102
897.028	-275
897.131	476
897.234	-49
897.337	207
897.440	-290
897.543	324
897.646	-309
897.749	-581
897.852	595
897.954	-598
898.057	159
898.160	141
898.263	395
898.366	214
898.468	-181
898.571	4
898.674	42
898.776	-140
898.879	748
898.982	511
899.084	-336
899.187	-507
899.290	-617
899.392	-532
899.495	355
899.597	251
899.700	204
899.802	-214
899.904	-6
900.007	-394
900.109	1107
900.212	194
900.314	340
900.416	-401
900.519	-123
900.621	142
900.723	-244
900.826	180
900.928	-86
901.030	424
901.132	-48
901.234	40
901.336	146
901.439	-778
901.541	184
901.643	-703
901.745	-488
901.847	645
901.949	342
902.051	-558
902.153	-221
902.255	-239
902.357	-985
902.459	443
902.560	-48
902.662	-499
902.764	-229
902.866	111
902.968	775
903.070	-44
903.171	4
903.273	-715
903.375	-206
903.477	-345
903.578	-588
903.680	-489
903.781	702
903.883	-130
903.985	-780
904.086	-174
904.188	325
904.289	269
904.391	-418
904.492	156
904.594	-443
904.695	417
904.796	-21
904.898	77
904.999	714
905.100	90
905.202	268
905.303	988
905.404	403
905.506	-443
905.607	-294
905.708	-238
905.809	891
905.910	276
906.012	333
906.113	-145
906.214	747
906.315	-259
906.416	-533
906.517	156
906.618	286
906.719	-928
906.820	146
906.921	-732
907.022	-577
907.123	-149
907.224	-449
907.325	-818
907.425	-777
907.526	-607
907.627	-69
907.728	500
907.828	360
907.929	-132
908.030	388
908.131	467
908.231	-959
908.332	-789
908.433	-13
908.533	-1041
908.634	-6
908.734	-166
908.835	-695
908.935	682
909.036	-96
909.136	581
909.237	95
909.337	-604
909.438	-261
909.538	-188
909.638	402
909.739	-365
909.839	-643
909.939	-182
910.040	-501
910.140	-282
910.240	-172
910.340	-112
910.440	-343
910.541	-98
910.641	-474
910.741	-429
910.841	-317
910.941	190
911.041	-384
911.141	-87
911.241	-1252
911.341	-355
911.441	-1013
911.541	-405
911.641	168
911.741	-736
911.841	-956
911.941	-37
912.040	-643
912.140	-889
912.240	-48
912.340	-8
912.440	274
912.539	-776
912.639	-929
912.739	-617
912.838	-426
912.938	-71
913.038	-451
913.137	33
913.237	-615
913.336	-647
913.436	-1062
913.535	-460
913.635	-288
913.734	-926
913.834	-109
913.933	-88
914.033	-57
914.132	-330
914.231	-363
914.331	-656
914.430	-419
914.529	238
914.629	-283
914.728	-1025
914.827	-1029
914.926	-488
915.025	-658
915.125	-73
915.224	-778
915.323	464
915.422	-528
915.521	-279
915.620	-105
915.719	-282
915.818	-657
915.917	-1009
916.016	-193
916.115	5
916.214	-449
916.313	-1364
916.412	-373
916.510	-202
916.609	-239
916.708	276
916.807	-139
916.906	-877
917.004	-1365
917.103	-386
917.202	-307
917.301	-1221
917.399	-134
917.498	-415
917.596	-819
917.695	-76
917.794	-105
917.892	-1461
917.991	-858
918.089	-487
918.188	-855
918.286	-241
918.384	-828
918.483	50
918.581	-882
918.680	-704
918.778	-65
918.876	-306
918.975	-235
919.073	-133
919.171	-917
919.269	-1262
919.368	-1368
919.466	-979
919.564	-570
919.662	-957
919.760	-590
919.858	-515
919.956	-1262
920.054	-107
920.153	240
920.251	-731
920.349	-226
920.446	-660
920.544	-493
920.642	552
920.740	-945
920.838	-1249
920.936	-1035
921.034	-479
921.132	-203
921.229	-1547
921.327	185
921.425	-354
921.523	-425
921.620	-619
921.718	-250
921.816	-300
921.913	-399
922.011	-1324
922.109	-547
922.206	-402
922.304	-73
922.401	-102
922.499	41
922.596	-193
922.694	-540
922.791	-781
922.888	-129
922.986	119
923.083	-385
923.181	-943
923.278	-80
923.375	-433
923.473	8
923.570	-798
923.667	-714
923.764	-1087
923.861	-156
923.959	-678
924.056	-98
924.153	-189
924.250	-137
924.347	-244
924.444	-549
924.541	-1392
924.638	-55
924.735	-567
924.832	-626
924.929	-217
925.026	-520
925.123	152
925.220	-450
925.317	-925
925.414	-251
925.510	-255
925.607	-217
925.704	145
925.801	-421
925.897	88
925.994	26
926.091	-619
926.187	331
926.284	-280
926.381	-123
926.477	-247
926.574	-306
926.670	586
926.767	-225
926.863	31
926.960	90
927.056	-367
927.153	-511
927.249	-485
927.346	-731
927.442	-518
927.538	-735
927.635	-836
927.731	-204
927.827	-621
927.924	-350
928.020	-474
928.116	-835
928.212	-343
928.308	57
928.404	-299
928.501	-1014
928.597	-475
928.693	-556
928.789	-950
928.885	-406
928.981	-190
929.077	-522
929.173	-461
929.269	-630
929.365	-1318
929.461	-288
929.557	-650
929.652	-712
929.748	-440
929.844	-678
929.940	-881
930.036	-700
930.131	-1371
930.227	-536
930.323	-892
930.419	-699
930.514	-1145
930.610	-549
930.705	-495
930.801	-879
930.897	-981
930.992	-1315
931.088	-981
931.183	-152
931.279	-784
931.374	-914
931.470	-709
931.565	-873
931.660	75
931.756	-820
931.851	-903
931.946	-822
932.042	-886
932.137	-1514
932.232	-594
932.327	81
932.423	-213
932.518	-34
932.613	-130
932.708	-941
932.803	-39
932.898	-662
932.994	-1649
933.089	456
933.184	-889
933.279	-1065
933.374	-986
933.469	-719
933.563	-1014
933.658	-191
933.753	-846
933.848	7
933.943	-109
934.038	-851
934.133	-379
934.227	-703
934.322	-717
934.417	-493
934.512	-1322
934.606	-1060
934.701	-578
934.796	-832
934.890	-1200
934.985	-684
935.079	-587
935.174	-153
935.269	-318
935.363	-804
935.458	371
935.552	-594
935.646	286
935.741	-613
935.835	-754
935.930	-829
936.024	-439
936.118	-751
936.213	-793
936.307	-254
936.401	-479
936.496	-744
936.590	-806
936.684	-1089
936.778	-770
936.872	-728
936.966	-1293
937.060	-70
937.155	-792
937.249	-481
937.343	-939
937.437	-867
937.531	-635
937.625	-200
937.719	-291
937.813	-586
937.906	-33
938.000	-1039
938.094	-357
938.188	-953
938.282	-43
938.376	-363
938.469	-471
938.563	-1125
938.657	-295
938.751	-994
938.844	-481
938.938	-600
939.032	-813
939.125	-600
939.219	403
939.312	2
939.406	518
939.500	-249
939.593	-443
939.686	-739
939.780	-1019
939.873	-303
939.967	-828
940.060	-374
940.154	-754
940.247	-632
940.340	-779
940.434	-820
940.527	-333
940.620	-64
940.713	-387
940.806	-603
940.900	-253
940.993	-665
941.086	-1482
941.179	-1019
941.272	-162
941.365	-703
941.458	-263
941.551	630
941.644	-702
941.737	-329
941.830	121
941.923	-812
942.016	-1386
942.109	-713
942.202	-464
942.295	-984
942.388	-328
942.480	-426
942.573	-182
942.666	-1093
942.759	-1728
942.851	-458
942.944	-792
943.037	328
943.129	-1728
943.222	-614
943.315	-1012
943.407	-845
943.500	-943
943.592	-1812
943.685	-988
943.777	-416
943.870	-1020
943.962	-548
944.055	-944
944.147	-142
944.239	-501
944.332	-450
944.424	-364
944.516	-114
944.609	-627
944.701	-543
944.793	-713
944.885	-792
944.977	-210
945.070	-118
945.162	-973
945.254	-340
945.346	121
945.438	-845
945.530	-648
945.622	-738
945.714	-480
945.806	-131
945.898	-387
945.990	-330
946.082	-159
946.174	-168
946.266	-378
946.358	-286
946.449	-145
946.541	-423
946.633	-288
946.725	-495
946.816	-810
946.908	281
947.000	-178
947.091	-1131
947.183	-874
947.275	-268
947.366	-118
947.458	-342
947.549	-811
947.641	-807
947.732	-1484
947.824	-777
947.915	-722
948.007	-1376
948.098	-47
948.190	-677
948.281	-603
948.372	-973
948.464	-896
948.555	-1041
948.646	-1073
948.737	-640
948.829	-30
948.920	-723
949.011	-598
949.102	-1193
949.193	-724
949.284	-1228
949.376	-952
949.467	-956
949.558	-1310
949.649	-309
949.740	-717
949.831	-702
949.922	-1028
950.013	-586
950.104	-585
950.194	-2019
950.285	-244
950.376	-910
950.467	-910
950.558	-298
950.649	-569
950.739	-640
950.830	-976
950.921	-266
951.011	-883
951.102	-363
951.193	-1136
951.283	-404
951.374	-278
951.464	-548
951.555	-1251
951.646	-49
951.736	-420
951.826	-666
951.917	118
952.007	-741
952.098	-1452
952.188	-801
952.279	-765
952.369	-255
952.459	-1470
952.549	-422
952.640	-278
952.730	-1128
952.820	-615
952.910	-989
953.001	-914
953.091	-379
953.181	-1143
953.271	-1385
953.361	-8
953.451	168
953.541	-882
953.631	-437
953.721	-1141
953.811	-1089
953.901	-858
953.991	-53
954.081	-271
954.171	-1021
954.261	-415
954.350	171
954.440	-1112
954.530	-27
954.620	-784
954.710	-574
954.799	-394
954.889	-1295
954.979	63
955.068	-1128
955.158	-1343
955.248	-1017
955.337	-836
955.427	-1105
955.516	-68
955.606	649
955.695	-1190
955.785	-731
955.874	-1254
955.964	-1198
956.053	-1371
956.142	-1037
956.232	-91
956.321	-838
956.410	-160
956.500	-676
956.589	-1152
956.678	-798
956.767	-760
956.856	-921
956.946	-832
957.035	-1362
957.124	-1245
957.213	-910
957.302	-487
957.391	-640
957.480	-678
957.569	-777
957.658	-438
957.747	-71
957.836	-542
957.925	-336
958.014	-1059
958.103	-969
958.192	-102
958.280	-393
958.369	-234
958.458	-551
958.547	-435
958.635	-1784
958.724	-409
958.813	-307
958.901	-651
958.990	-1594
959.079	-581
959.167	-800
959.256	-560
959.344	-877
959.433	-491
959.521	-1016
959.610	-701
959.698	-143
959.787	-598
959.875	-424
959.964	-1161
960.052	25
960.140	-1739
960.228	-424
960.317	-768
960.405	-623
960.493	-363
960.581	-666
960.670	25
960.758	-652
960.846	-848
960.934	-671
961.022	23
961.110	-347
961.198	-237
961.286	-420
961.374	-460
961.462	-834
961.550	-283
961.638	-600
961.726	-465
961.814	-1233
961.902	-779
961.990	-481
962.078	-772
962.165	-431
962.253	-234
962.341	-260
962.429	-1016
962.516	-760
962.604	-1037
962.692	-1187
962.779	-453
962.867	-580
962.955	-436
963.042	-625
963.130	-379
963.217	-1173
963.305	-596
963.392	-901
963.480	-1478
963.567	128
963.654	-442
963.742	50
963.829	-500
963.917	2218
964.004	270
964.091	-932
964.178	-624
964.266	-662
964.353	-270
964.440	-1062
964.527	-702
964.614	-999
964.701	-1310
964.789	-1001
964.876	-348
964.963	-434
965.050	-938
965.137	-71
965.224	-1382
965.311	-746
965.398	166
965.485	-758
965.571	-980
965.658	-1036
965.745	-921
965.832	-512
965.919	-543
966.006	2
966.092	-969
966.179	-1586
966.266	-415
966.352	-948
966.439	-469
966.526	-835
966.612	-797
966.699	-1243
966.786	-1188
966.872	-1292
966.959	-672
967.045	-533
967.132	-741
967.218	-826
967.304	-304
967.391	-1082
967.477	-791
967.564	-242
967.650	1154
967.736	-1032
967.822	-852
967.909	-1631
967.995	-978
968.081	-1091
968.167	-698
968.254	-707
968.340	-464
968.426	-422
968.512	-382
968.598	-708
968.684	-712
968.770	-265
968.856	-680
968.942	69
969.028	-144
969.114	-448
969.200	-998
969.286	-713
969.372	-448
969.457	-812
969.543	-777
969.629	-787
969.715	-793
969.801	-935
969.886	-1173
969.972	-471
970.058	-326
970.143	-895
970.229	-846
970.315	-636
970.400	-464
970.486	-188
970.571	-1455
970.657	803
970.742	-779
970.828	-17
970.913	-984
970.999	-816
971.084	-302
971.169	-823
971.255	-1503
971.340	-186
971.425	-835
971.511	-1887
971.596	-2002
971.681	-786
971.766	-1065
971.852	-244
971.937	-982
972.022	-676
972.107	-930
972.192	-654
972.277	-926
972.362	-912
972.447	-1254
972.532	-483
972.617	-834
972.702	-598
972.787	-470
972.872	-287
972.957	-358
973.042	-573
973.126	-114
973.211	-778
973.296	-895
973.381	-374
973.466	-1709
973.550	-21
973.635	-1719
973.720	-668
973.804	-163
973.889	-1127
973.973	-91
974.058	-788
974.143	-685
974.227	-1068
974.312	149
974.396	-373
974.481	-275
974.565	-1384
974.649	-440
974.734	-885
974.818	-215
974.902	-1463
974.987	-824
975.071	-1692
975.155	-145
975.240	-724
975.324	-338
975.408	-678
975.492	-1190
975.576	-1363
975.660	-763
975.744	-1368
975.829	-1618
975.913	-1049
975.997	-407
976.081	-1679
976.165	92
976.249	-996
976.333	-1284
976.416	-751
976.500	-428
976.584	-1232
976.668	-1028
976.752	-815
976.836	-1486
976.919	-393
977.003	-899
977.087	-520
977.171	-763
977.254	-1015
977.338	-1543
977.422	-279
977.505	-396
977.589	-1462
977.672	-772
977.756	-972
977.839	-978
977.923	-1229
978.006	-878
978.090	33
978.173	-1074
978.257	-447
978.340	-1327
978.423	-434
978.507	-742
978.590	-1363
978.673	-1049
978.756	-25
978.840	-683
978.923	-902
979.006	-335
979.089	-1314
979.172	-38
979.255	-194
979.338	-1630
979.422	-663
979.505	-1458
979.588	-224
979.671	-1215
979.754	-1307
979.836	-561
979.919	-821
980.002	-780
980.085	-1317
980.168	-873
980.251	-628
980.334	-628
980.416	-1104
980.499	-1188
980.582	-625
980.665	-629
980.747	-1169
980.830	-1441
980.912	-97
980.995	-1263
981.078	-259
981.160	-1411
981.243	-1475
981.325	-931
981.408	-998
981.490	-1307
981.573	-1073
981.655	-1410
981.738	12
981.820	-972
981.902	-470
981.984	-2005
982.067	-586
982.149	-1078
982.231	-1521
982.314	-1041
982.396	-911
982.478	-2066
982.560	-1209
982.642	-371
982.724	-1728
982.807	-887
982.888	-1678
982.971	-945
983.053	-2020
983.135	-927
983.216	-1907
983.298	-329
983.380	-886
983.462	-749
983.544	-867
983.626	-1662
983.708	-1386
983.790	-990
983.871	-98
983.953	-719
984.035	-458
984.117	-2082
984.198	-1097
984.280	-712
984.362	-1466
984.443	-1615
984.525	-620
984.606	-2027
984.688	-589
984.769	-1296
984.851	-757
984.932	-952
985.014	-518
985.095	-1388
985.177	-917
985.258	-977
985.339	-1174
985.421	-295
985.502	-935
985.583	-1382
985.664	-930
985.746	-856
985.827	-2162
985.908	-703
985.989	-394
986.070	-2033
986.151	-782
986.232	-1487
986.313	-792
986.395	-1742
986.476	-1570
986.557	-1413
986.637	-1052
986.718	-810
986.799	-814
986.880	-468
986.961	-441
987.042	-1100
987.123	-1254
987.204	-1027
987.284	-736
987.365	-831
987.446	-1087
987.526	-1358
987.607	-1258
987.688	-1274
987.768	-1046
987.849	-1370
987.930	-1017
988.010	-802
988.091	-935
988.171	-1911
988.252	-801
988.332	-384
988.413	-832
988.493	-1363
988.573	-1265
988.654	-1355
988.734	-479
988.814	-2065
988.895	-4
988.975	-1693
989.055	-932
989.135	-1090
989.216	-922
989.296	-1223
989.376	-1055
989.456	-386
989.536	-798
989.616	-699
989.696	-1415
989.776	-911
989.856	-409
989.936	-1851
990.016	-1685
990.096	-1088
990.176	-1187
990.256	-1121
990.336	-1351
990.416	-252
990.495	-1808
990.575	-761
990.655	-579
990.735	-1875
990.814	-417
990.894	-1067
990.974	-663
991.053	-1160
991.133	-1593
991.213	-839
991.292	-1883
991.372	-909
991.451	-1123
991.531	-1650
991.610	-1094
991.690	-1695
991.769	-1218
991.849	-1078
991.928	-1686
992.007	-755
992.087	-1827
992.166	-1738
992.245	-657
992.324	-1155
992.404	-1021
992.483	-1832
992.562	-1572
992.641	-1391
992.720	-1848
992.799	110
992.879	-1150
992.958	-1131
993.037	-439
993.116	-1157
993.195	-1372
993.274	-916
993.353	-2055
993.432	-1477
993.510	-402
993.589	-1019
993.668	-2203
993.747	-1254
993.826	-1099
993.904	-765
993.983	-580
994.062	-2005
994.141	-1113
994.219	-1200
994.298	-1737
994.377	-2373
994.455	-1310
994.534	-1573
994.612	-983
994.691	-2476
994.769	-2231
994.848	-1182
994.926	-1317
995.005	-1728
995.083	-1380
995.161	-1232
995.240	-1368
995.318	-1101
995.397	-1180
995.475	-1313
995.553	-970
995.631	-1793
995.710	-1268
995.788	-1927
995.866	-1082
995.944	-1005
996.022	-2042
996.100	-1487
996.178	-1162
996.256	-2147
996.334	-332
996.412	-13
996.490	-1382
996.568	-2542
996.646	-1611
996.724	-896
996.802	-1794
996.880	-1526
996.958	-1140
997.036	-1968
997.113	-966
997.191	-1222
997.269	-1323
997.346	-2166
997.424	-1473
997.502	-1976
997.579	-1117
997.657	-1832
997.735	-363
997.812	-1204
997.890	-2237
997.967	-2290
998.045	-211
998.122	-1656
998.200	-1157
998.277	-173
998.354	-1010
998.432	-1965
998.509	-856
998.586	-2098
998.664	-1358
998.741	-1015
998.818	-1124
998.896	-1849
998.973	-1057
999.050	-1563
999.127	-1079
999.204	-1234
999.281	-2077
999.358	-1650
999.435	-1455
999.512	-1532
999.589	-1423
999.666	-932
999.743	-1235
999.820	-1894
999.897	-543
999.974	-1077
1000.051	-2482
1000.128	-1737
1000.205	-1939
1000.281	-989
1000.358	-1573
1000.435	-1978
1000.512	-1660
1000.588	-2402
1000.665	-1908
1000.741	-1624
1000.818	-1058
1000.895	-1538
1000.971	-1796
1001.048	-1270
1001.124	-1599
1001.201	-1478
1001.277	-2581
1001.354	-1304
1001.430	-1683
1001.507	-1050
1001.583	-1097
1001.659	-1871
1001.736	-1508
1001.812	-1139
1001.888	-2262
1001.964	-1566
1002.041	-2130
1002.117	-1428
1002.193	-1629
1002.269	-2580
1002.345	-1010
1002.421	-1499
1002.497	-1864
1002.573	-909
1002.649	-2326
1002.725	-1413
1002.801	-2065
1002.877	-741
1002.953	-385
1003.029	-2236
1003.105	-1765
1003.181	-1996
1003.257	-1913
1003.333	-303
1003.408	-2192
1003.484	-1553
1003.560	-1411
1003.636	-1933
1003.711	-1121
1003.787	-1355
1003.862	-1515
1003.938	-1415
1004.014	-1566
1004.089	-2283
1004.165	-1556
1004.240	-960
1004.316	-1597
1004.391	-1578
1004.467	-1556
1004.542	-1360
1004.617	-1600
1004.693	-1720
1004.768	-1024
1004.844	-2044
1004.919	-1707
1004.994	-1637
1005.069	-1990
1005.145	-2121
1005.220	-594
1005.295	-1204
1005.370	-1350
1005.445	-1605
1005.520	-1722
1005.595	-1895
1005.670	-1459
1005.745	-1929
1005.820	-1393
1005.895	-1369
1005.970	-2056
1006.045	-837
1006.120	-1818
1006.195	-1282
1006.270	-1552
1006.345	-1685
1006.419	-1294
1006.494	-1805
1006.569	-2041
1006.644	-1162
1006.718	-2260
1006.793	-1567
1006.868	-2131
1006.942	-1343
1007.017	-1661
1007.092	-950
1007.166	-1386
1007.241	-1258
1007.315	-1842
1007.390	-1672
1007.464	-1448
1007.539	-2441
1007.613	-859
1007.687	-1677
1007.762	-1627
1007.836	-2349
1007.910	-2081
1007.984	-1876
1008.059	-2364
1008.133	-2402
1008.207	-1900
1008.281	-963
1008.356	-1499
1008.430	-1847
1008.504	-2007
1008.578	-1562
1008.652	-1142
1008.726	-1940
1008.800	-1081
1008.874	-2202
1008.948	-1226
1009.022	-1535
1009.096	-1830
1009.170	-1804
1009.244	-1575
1009.317	-998
1009.391	-1770
1009.465	-937
1009.539	-1842
1009.613	-1862
1009.686	-1589
1009.760	-1648
1009.834	-1434
1009.907	-1832
1009.981	-1793
1010.054	-610
1010.128	-2012
1010.201	-1316
1010.275	-557
1010.349	-2114
1010.422	-2075
1010.495	-1805
1010.569	-1212
1010.642	-1751
1010.716	-1092
1010.789	-1749
1010.862	-2146
1010.936	-2441
1011.009	-672
1011.082	-1543
1011.155	-2036
1011.229	-1719
1011.302	-1260
1011.375	-775
1011.448	-1674
1011.521	-1550
1011.594	-1281
1011.667	-1733
1011.740	-1586
1011.813	-1534
1011.886	-2107
1011.959	-1261
1012.032	-1897
1012.105	-801
1012.178	-2026
1012.251	-1923
1012.324	-2145
1012.396	-1004
1012.469	-1877
1012.542	-2528
1012.614	-1171
1012.687	-2190
1012.760	-1981
1012.833	-908
1012.905	-2011
1012.978	-1294
1013.050	-1723
1013.123	-1219
1013.195	-1904
1013.268	-1602
1013.340	-1166
1013.413	-1604
1013.485	-1706
1013.558	-2226
1013.630	-1561
1013.702	-1737
1013.775	-2327
1013.847	-1335
1013.919	-1694
1013.992	-2139
1014.064	-1212
1014.136	-1950
1014.208	-1523
1014.280	-1460
1014.353	-1819
1014.425	-1630
1014.497	-967
1014.569	-1392
1014.641	-943
1014.713	-1883
1014.785	-1302
1014.857	-1412
1014.929	-1067
1015.001	-1443
1015.072	-1242
1015.144	-1539
1015.216	-869
1015.288	-1526
1015.360	-1423
1015.431	-1999
1015.503	-1633
1015.575	-1503
1015.647	-1883
1015.718	-1983
1015.790	-2184
1015.861	-1139
1015.933	-1577
1016.005	-1558
1016.076	-1447
1016.148	-1284
1016.219	-1567
1016.291	-1769
1016.362	-1194
1016.433	-1988
1016.505	-1880
1016.576	-594
1016.647	-1294
1016.719	-2067
1016.790	-1384
1016.861	-1651
1016.932	-1246
1017.004	-1697
1017.075	-2307
1017.146	-861
1017.217	-1778
1017.288	-1617
1017.359	-1863
1017.430	-1661
1017.502	-1120
1017.573	-1593
1017.644	-664
1017.714	-2034
1017.785	-2157
1017.856	-1513
1017.927	-1898
1017.998	-1648
1018.069	-2647
1018.140	-1445
1018.210	-1714
1018.281	-1522
1018.352	-1232
1018.423	-1660
1018.493	-2129
1018.564	-1726
1018.635	-2106
1018.705	-2466
1018.776	-1101
1018.846	-1587
1018.917	-1396
1018.987	-1952
1019.058	-1217
1019.128	-1213
1019.199	-1447
1019.269	-2051
1019.340	-1422
1019.410	-1700
1019.480	-990
1019.551	-1876
1019.621	-1164
1019.691	-472
1019.761	-1438
1019.832	-660
1019.902	-991
1019.972	-1259
1020.042	-2003
1020.112	-1331
1020.182	-2126
1020.252	-1458
1020.322	-1557
1020.392	-858
1020.462	-2296
1020.532	-1716
1020.602	-2014
1020.672	-1100
1020.742	-2133
1020.812	-1559
1020.882	-1327
1020.952	-1652
1021.021	-1061
1021.091	-811
1021.161	-340
1021.230	-1793
1021.300	-1220
1021.370	-1213
1021.440	-1835
1021.509	-1082
1021.579	-1421
1021.648	-1309
1021.718	-883
1021.787	-2072
1021.857	-1196
1021.926	-1993
1021.996	-1544
1022.065	-1848
1022.134	-1952
1022.204	-1405
1022.273	-1347
1022.342	-1438
1022.412	-1365
1022.481	-1694
1022.550	-1800
1022.619	-1121
1022.689	-1950
1022.758	-1803
1022.827	-1677
1022.896	-1200
1022.965	-1890
1023.034	-567
1023.103	-1248
1023.172	-1251
1023.241	-1221
1023.310	-1748
1023.379	-1759
1023.448	-1925
1023.517	-1108
1023.586	-1333
1023.654	-1743
1023.723	-1488
1023.792	-2291
1023.861	-1771
1023.929	-1302
1023.998	-1976
1024.067	-1396
1024.135	-1759
1024.204	-1034
1024.273	-730
1024.341	-1326
1024.410	-2201
1024.478	-2131
1024.547	-1169
1024.615	-1436
1024.684	-1458
1024.752	-1068
1024.820	-1207
1024.889	-1238
1024.957	-1495
1025.026	-1178
1025.094	-459
1025.162	-1084
1025.230	-1565
1025.299	-1542
1025.367	-1219
1025.435	-1508
1025.503	-1284
1025.571	-1033
1025.639	-1396
1025.707	-1418
1025.776	-1043
1025.844	-1639
1025.912	-2388
1025.979	-1805
1026.047	-1502
1026.115	-601
1026.183	-1150
1026.251	-1017
1026.319	-1902
1026.387	-1246
1026.454	-1676
1026.522	-699
1026.590	-538
1026.658	-1529
1026.725	-1300
1026.793	-1583
1026.861	-1392
1026.928	-703
1026.996	-1547
1027.064	-1472
1027.131	-1655
1027.199	-1754
1027.266	-1687
1027.334	-1409
1027.401	-1771
1027.468	-1518
1027.536	-978
1027.603	-1651
1027.671	-1714
1027.738	-1835
1027.805	-2292
1027.872	-1446
1027.940	-1072
1028.007	-1281
1028.074	-1391
1028.141	-857
1028.208	-1496
1028.275	-577
1028.342	-1990
1028.409	-649
1028.477	-1425
1028.544	-2096
1028.610	-2177
1028.678	-1775
1028.744	-1484
1028.811	-1810
1028.878	-1140
1028.945	-1929
1029.012	-1306
1029.079	-1518
1029.146	-1589
1029.212	-1761
1029.279	-1696
1029.346	-1946
1029.412	-2210
1029.479	-1103
1029.546	-1162
1029.612	-1695
1029.679	-2218
1029.745	-1330
1029.812	-1528
1029.878	-1615
1029.945	-1173
1030.011	-942
1030.078	-831
1030.144	-452
1030.210	-1599
1030.277	-903
1030.343	-1670
1030.409	-1573
1030.476	-1211
1030.542	-994
1030.608	-1615
1030.674	-1877
1030.740	-1897
1030.807	-1151
1030.873	-1732
1030.939	-1905
1031.005	-949
1031.071	-739
1031.137	-1284
1031.203	-1390
1031.269	-1122
1031.335	-1643
1031.401	-1154
1031.467	-1924
1031.533	-1727
1031.598	-1753
1031.664	-1598
1031.730	-1956
1031.796	-1271
1031.861	-1878
1031.927	-1047
1031.993	-1660
1032.058	-1553
1032.124	-1844
1032.190	-992
1032.255	-2036
1032.321	-1306
1032.386	-2064
1032.452	-1765
1032.518	-1395
1032.583	-2074
1032.648	-1555
1032.714	-1982
1032.779	-1875
1032.844	-1727
1032.910	-1280
1032.975	-1709
1033.040	-1229
1033.106	-1569
1033.171	-1625
1033.236	-1939
1033.301	-1506
1033.366	-1258
1033.432	-1715
1033.496	-1384
1033.562	-2299
1033.627	-1393
1033.692	-1487
1033.757	-1507
1033.822	-2086
1033.887	-1984
1033.952	-2585
1034.016	-2059
1034.081	-1284
1034.146	-1588
1034.211	-2341
1034.276	-1783
1034.340	-912
1034.405	-1281
1034.470	-882
1034.535	-1780
1034.599	-1904
1034.664	-1407
1034.729	-1471
1034.793	-1534
1034.858	-1878
1034.922	-2455
1034.987	-1775
1035.051	-1439
1035.116	-1551
1035.180	-2573
1035.245	-1173
1035.309	-996
1035.373	-692
1035.437	-1968
1035.502	-1846
1035.566	-1646
1035.630	-2034
1035.695	-1724
1035.759	-1168
1035.823	-1233
1035.887	-1819
1035.951	-1617
1036.015	-1413
1036.079	-2102
1036.143	-1999
1036.208	-1669
1036.271	-2305
1036.336	-1153
1036.399	-1695
1036.463	-1994
1036.527	-1558
1036.591	-1583
1036.655	-1866
1036.719	-1882
1036.783	-1571
1036.846	-1002
1036.910	-808
1036.974	-2063
1037.037	-1312
1037.101	-1821
1037.165	-1124
1037.228	-1936
1037.292	-1991
1037.355	-948
1037.419	-1742
1037.483	-2194
1037.546	-1364
1037.609	-2127
1037.673	-1405
1037.736	-1481
1037.800	-1386
1037.863	-1778
1037.926	-1347
1037.990	-825
1038.053	-1724
1038.116	-1585
1038.179	-1484
1038.243	-2295
1038.306	-2006
1038.369	-1233
1038.432	-1928
1038.495	-1798
1038.558	-1477
1038.621	-1699
1038.684	-1490
1038.747	-1283
1038.810	-1958
1038.873	-2100
1038.936	-1722
1038.999	-2118
1039.062	-2081
1039.125	-1544
1039.188	-1509
1039.250	-1908
1039.313	-2066
1039.376	-1594
1039.438	-1944
1039.501	-1711
1039.564	-1311
1039.627	-1170
1039.689	-1637
1039.752	-2476
1039.814	-1855
1039.877	-2093
1039.939	-1518
1040.002	-1448
1040.064	-1900
1040.127	-2449
1040.189	-1457
1040.251	-2175
1040.314	-1601
1040.376	-2119
1040.438	-1447
1040.501	-2561
1040.563	-2007
1040.625	-1620
1040.687	-1552
1040.750	-2158
1040.812	-1788
1040.874	-2578
1040.936	-997
1040.998	-1775
1041.060	-1868
1041.122	-2136
1041.184	-1731
1041.246	-1917
1041.308	-1742
1041.370	-2046
1041.432	-2221
1041.494	-2454
1041.555	-1169
1041.617	-2068
1041.679	-2028
1041.741	-1957
1041.802	-1650
1041.864	-1389
1041.926	-1578
1041.987	-2498
1042.049	-2045
1042.111	-2246
1042.172	-1616
1042.234	-1807
1042.295	-2039
1042.357	-1920
1042.418	-1620
1042.480	-702
1042.541	-2386
1042.603	-1550
1042.664	-1708
1042.725	-1688
1042.786	-1286
1042.848	-1845
1042.909	-1121
1042.970	-2024
1043.031	-1934
1043.093	-1543
1043.154	-1596
1043.215	-1760
1043.276	-1689
1043.337	-1595
1043.398	-1072
1043.459	-1337
1043.520	-2092
1043.581	-1723
1043.642	-1487
1043.703	-917
1043.764	-1527
1043.825	-1824
1043.886	-1942
1043.947	-1487
1044.007	-1432
1044.068	-2021
1044.129	-1576
1044.189	-788
1044.250	-1987
1044.311	-1931
1044.371	-1761
1044.432	-2237
1044.493	-2074
1044.553	-1695
1044.614	-2688
1044.674	-1562
1044.735	-1822
1044.795	-1911
1044.856	-1625
1044.916	-1202
1044.976	-1830
1045.037	-2320
1045.097	-1484
1045.157	-1692
1045.218	-1055
1045.278	-1475
1045.338	-1166
1045.398	-2352
1045.458	-1389
1045.519	-1947
1045.579	-840
1045.639	-1890
1045.699	-1573
1045.759	-1327
1045.819	-1701
1045.879	-2239
1045.939	-1685
1045.999	-1181
1046.059	-1959
1046.119	-2196
1046.179	-1477
1046.238	-2057
1046.298	-1587
1046.358	-870
1046.418	-1714
1046.477	-1715
1046.537	-1323
1046.597	-1178
1046.656	-986
1046.716	-1930
1046.776	-518
1046.835	-986
1046.895	-1466
1046.954	-384
1047.014	234
1047.073	54
1047.133	0
