'Start Wavelength	183.833
'End Wavelength	1047.133
'Gate Delay	5.000
'Gate Width (ms)	1.050
'Laser Output Level	0.000
'X Position	0.000
'Y Position	0.000
'Z Position	0.000
'Grid Point Number	1.000
'Shot Number	100.000
183.833	283.000
183.903	399.000
183.973	402
184.042	1000
184.112	261
184.182	231
184.252	945
184.321	612
184.391	547
184.461	546
184.531	32
184.600	592
184.670	151
184.740	597
184.809	-75
184.879	369
184.949	228
185.018	-84
185.088	64
185.158	608
185.228	104
185.297	743
185.367	975
185.436	381
185.506	382
185.576	175
185.645	241
185.715	931
185.785	84
185.854	515
185.924	301
185.993	-13
186.063	-161
186.133	885
186.202	514
186.272	349
186.341	458
186.411	-126
186.481	354
186.550	1385
186.620	-132
186.689	404
186.759	585
186.828	121
186.898	236
186.967	1101
187.037	440
187.106	644
187.176	79
187.246	843
187.315	-90
187.385	1234
187.454	77
187.524	817
187.593	407
187.662	446
187.732	862
187.801	218
187.871	448
187.940	528
188.010	-374
188.079	493
188.149	545
188.218	1802
188.288	-47
188.357	953
188.426	7
188.496	6
188.565	-312
188.635	466
188.704	-235
188.773	1119
188.843	239
188.912	301
188.981	1
189.051	863
189.120	302
189.190	197
189.259	-42
189.328	505
189.398	179
189.467	832
189.536	-97
189.606	-177
189.675	534
189.744	304
189.813	97
189.883	514
189.952	238
190.021	1693
190.091	1828
190.160	545
190.229	218
190.298	899
190.368	928
190.437	444
190.506	187
190.575	174
190.645	510
190.714	492
190.783	1402
190.852	313
190.922	801
190.991	362
191.060	1097
191.129	412
191.198	-35
191.268	239
191.337	1377
191.406	-174
191.475	-175
191.544	452
191.613	415
191.683	649
191.752	560
191.821	717
191.890	382
191.959	532
192.028	163
192.097	512
192.166	197
192.236	-53
192.305	31
192.374	267
192.443	-62
192.512	18
192.581	63
192.650	231
192.719	266
192.788	652
192.857	138
192.926	77
192.995	157
193.064	1225
193.133	364
193.202	1010
193.271	-5
193.340	1506
193.409	1318
193.478	422
193.547	925
193.616	1312
193.685	1222
193.754	828
193.823	18
193.892	874
193.961	812
194.030	1001
194.099	151
194.168	821
194.237	183
194.306	83
194.375	-592
194.444	961
194.513	244
194.582	771
194.651	526
194.720	289
194.788	399
194.857	1008
194.926	-161
194.995	941
195.064	1088
195.133	1282
195.202	1031
195.270	945
195.339	363
195.408	38
195.477	961
195.546	1363
195.615	302
195.683	2279
195.752	1321
195.821	1120
195.890	1460
195.959	1364
196.027	362
196.096	1661
196.165	746
196.234	809
196.303	473
196.371	854
196.440	517
196.509	566
196.578	471
196.646	405
196.715	59
196.784	405
196.853	450
196.921	233
196.990	579
197.059	474
197.127	771
197.196	688
197.265	221
197.333	898
197.402	576
197.471	865
197.539	329
197.608	1675
197.677	1945
197.745	751
197.814	1981
197.883	1662
197.951	1733
198.020	861
198.088	250
198.157	1394
198.226	2350
198.294	720
198.363	556
198.431	158
198.500	1169
198.569	2790
198.637	1623
198.706	1187
198.774	2736
198.843	2785
198.911	1095
198.980	466
199.048	796
199.117	623
199.185	799
199.254	140
199.322	83
199.391	711
199.459	835
199.528	530
199.596	-241
199.665	319
199.733	390
199.802	1022
199.870	415
199.939	1206
200.007	458
200.076	1018
200.144	374
200.213	200
200.281	287
200.349	984
200.418	811
200.486	244
200.555	714
200.623	660
200.691	246
200.760	424
200.828	945
200.897	1038
200.965	314
201.033	1107
201.102	713
201.170	938
201.238	351
201.307	855
201.375	583
201.443	806
201.512	605
201.580	-119
201.648	-381
201.716	818
201.785	220
201.853	740
201.921	780
201.990	403
202.058	803
202.126	453
202.194	335
202.263	494
202.331	302
202.399	350
202.467	353
202.536	3270
202.604	1614
202.672	1224
202.740	319
202.808	1090
202.877	406
202.945	661
203.013	-1
203.081	852
203.149	636
203.218	427
203.286	716
203.354	115
203.422	-73
203.490	635
203.558	240
203.626	907
203.695	453
203.763	-29
203.831	-254
203.899	329
203.967	302
204.035	322
204.103	97
204.171	469
204.239	646
204.307	1264
204.375	201
204.443	94
204.512	-46
204.580	-286
204.648	606
204.716	704
204.784	317
204.852	335
204.920	409
204.988	643
205.056	-106
205.124	1224
205.192	277
205.260	641
205.328	2
205.396	392
205.464	1570
205.532	-86
205.600	233
205.667	213
205.735	2843
205.803	3379
205.871	-407
205.939	808
206.007	375
206.075	1017
206.143	293
206.211	1090
206.279	162
206.347	413
206.414	956
206.482	154
206.550	-338
206.618	-85
206.686	-135
206.754	1021
206.822	1153
206.889	-189
206.957	678
207.025	408
207.093	-350
207.161	483
207.229	202
207.296	836
207.364	951
207.432	285
207.500	323
207.567	1048
207.635	350
207.703	655
207.771	80
207.839	482
207.906	781
207.974	392
208.042	854
208.109	683
208.177	494
208.245	743
208.313	1163
208.380	2834
208.448	986
208.516	335
208.583	706
208.651	1145
208.719	1305
208.786	886
208.854	93
208.922	335
208.989	602
209.057	703
209.125	-204
209.192	486
209.260	761
209.327	1550
209.395	1087
209.463	616
209.530	405
209.598	482
209.665	315
209.733	777
209.801	241
209.868	1392
209.936	766
210.003	1116
210.071	1613
210.138	1361
210.206	1823
210.273	998
210.341	401
210.408	-60
210.476	337
210.543	1152
210.611	1774
210.678	888
210.746	411
210.813	1578
210.881	1254
210.948	1103
211.016	1530
211.083	861
211.151	1300
211.218	1362
211.285	1014
211.353	797
211.420	812
211.488	785
211.555	560
211.622	1211
211.690	662
211.757	543
211.825	483
211.892	353
211.959	768
212.027	1277
212.094	691
212.161	691
212.229	978
212.296	5010
212.363	13743
212.431	4880
212.498	1607
212.565	1541
212.633	162
212.700	1012
212.767	782
212.835	1091
212.902	53
212.969	575
213.036	986
213.104	1511
213.171	1304
213.238	1035
213.305	461
213.373	735
213.440	778
213.507	1396
213.574	2083
213.641	577
213.709	688
213.776	2323
213.843	2077
213.910	1428
213.977	584
214.045	794
214.112	1105
214.179	979
214.246	882
214.313	1005
214.380	976
214.447	1667
214.515	570
214.582	580
214.649	1064
214.716	1457
214.783	1061
214.850	1105
214.917	1414
214.984	1457
215.051	1479
215.118	1675
215.185	1075
215.253	896
215.320	957
215.387	962
215.454	758
215.521	1055
215.588	648
215.655	1287
215.722	2055
215.789	1496
215.856	2022
215.923	1841
215.990	892
216.057	330
216.124	1128
216.191	1973
216.258	438
216.325	769
216.391	2042
216.458	1186
216.525	1493
216.592	5387
216.659	4155
216.726	1919
216.793	2337
216.860	911
216.927	1229
216.994	1510
217.061	1905
217.127	873
217.194	1889
217.261	2380
217.328	2806
217.395	1852
217.462	1319
217.529	1900
217.595	594
217.662	1589
217.729	3723
217.796	4077
217.863	560
217.929	1430
217.996	1077
218.063	805
218.130	844
218.196	-90
218.263	207
218.330	274
218.397	289
218.463	843
218.530	1167
218.597	5202
218.664	5036
218.730	1685
218.797	374
218.864	787
218.930	970
218.997	796
219.064	1575
219.131	4806
219.197	1684
219.264	643
219.331	342
219.397	397
219.464	593
219.530	3453
219.597	1127
219.664	439
219.730	1033
219.797	354
219.864	774
219.930	2350
219.997	5774
220.063	2785
220.130	1018
220.196	372
220.263	1453
220.330	1773
220.396	3620
220.463	2492
220.529	1507
220.596	916
220.662	1147
220.729	7746
220.795	3603
220.862	3935
220.928	8081
220.995	9143
221.061	9925
221.128	8494
221.194	2257
221.261	1871
221.327	1074
221.394	839
221.460	439
221.526	1817
221.593	10483
221.659	5986
221.726	6487
221.792	4523
221.859	1487
221.925	1889
221.991	1855
222.058	1654
222.124	1776
222.190	1133
222.257	1408
222.323	1208
222.390	874
222.456	336
222.522	291
222.589	801
222.655	1281
222.721	1360
222.788	819
222.854	1376
222.920	877
222.986	955
223.053	375
223.119	495
223.185	219
223.251	8
223.318	1080
223.384	1012
223.450	-575
223.516	557
223.583	162
223.649	174
223.715	-261
223.781	954
223.848	-308
223.914	728
223.980	552
224.046	383
224.112	596
224.178	251
224.245	85
224.311	375
224.377	810
224.443	250
224.509	478
224.575	1156
224.641	1221
224.708	85
224.774	704
224.840	1699
224.906	420
224.972	555
225.038	1489
225.104	239
225.170	1309
225.236	1350
225.302	945
225.368	983
225.434	395
225.500	1089
225.566	671
225.632	583
225.699	417
225.765	607
225.831	534
225.897	3681
225.963	2546
226.028	1494
226.094	1958
226.160	1703
226.226	5167
226.292	10880
226.358	4662
226.424	3011
226.490	1985
226.556	2141
226.622	2345
226.688	4605
226.754	3417
226.820	15272
226.886	12026
226.951	2576
227.017	2819
227.083	2060
227.149	3333
227.215	2294
227.281	1396
227.347	2040
227.412	1870
227.478	3186
227.544	5118
227.610	2651
227.676	1906
227.742	1800
227.807	758
227.873	1830
227.939	4242
228.005	1035
228.070	247
228.136	892
228.202	725
228.268	1051
228.333	2826
228.399	2873
228.465	1120
228.531	774
228.596	700
228.662	5325
228.728	2683
228.793	1489
228.859	449
228.925	2294
228.990	1597
229.056	2055
229.122	761
229.187	2136
229.253	1106
229.319	1526
229.384	2193
229.450	873
229.516	-710
229.581	1360
229.647	1453
229.712	8288
229.778	7273
229.844	4140
229.909	4208
229.975	3350
230.040	2458
230.106	2695
230.171	1232
230.237	4073
230.302	4693
230.368	1955
230.433	1671
230.499	2192
230.564	986
230.630	663
230.695	800
230.761	519
230.826	4118
230.892	2105
230.957	919
231.023	1217
231.088	855
231.154	1280
231.219	2942
231.285	3241
231.350	635
231.415	693
231.481	797
231.546	671
231.612	725
231.677	849
231.742	1067
231.808	847
231.873	-149
231.938	3591
232.004	3994
232.069	1350
232.135	1125
232.200	895
232.265	856
232.330	507
232.396	615
232.461	1113
232.526	487
232.592	1269
232.657	5016
232.722	3194
232.788	1764
232.853	1981
232.918	801
232.983	1482
233.048	4291
233.114	3532
233.179	7209
233.244	8586
233.309	2131
233.375	1978
233.440	1250
233.505	1077
233.570	927
233.635	1125
233.700	5559
233.766	7232
233.831	2459
233.896	2945
233.961	2745
234.026	2344
234.091	1352
234.156	2031
234.222	4512
234.287	17507
234.352	15414
234.417	7538
234.482	4047
234.547	2895
234.612	2130
234.677	4723
234.742	18760
234.807	10467
234.872	2661
234.937	2424
235.002	1776
235.067	1869
235.132	2117
235.197	1717
235.262	1059
235.327	2054
235.392	2908
235.457	3193
235.522	1872
235.587	2406
235.652	1411
235.717	1093
235.782	2666
235.847	9804
235.912	10907
235.977	12029
236.042	4041
236.107	3522
236.172	3660
236.236	1691
236.301	2369
236.366	5218
236.431	10846
236.496	4726
236.561	5658
236.626	22917
236.691	13627
236.755	6859
236.820	7850
236.885	4406
236.950	4253
237.015	4290
237.079	4799
237.144	6953
237.209	22233
237.274	42867
237.339	19245
237.403	8259
237.468	7358
237.533	4391
237.598	3454
237.662	2734
237.727	3008
237.792	5868
237.856	6944
237.921	4091
237.986	8017
238.050	7889
238.115	21676
238.180	18291
238.245	10698
238.309	6213
238.374	5575
238.438	4692
238.503	2260
238.568	3128
238.632	1534
238.697	3004
238.762	10233
238.826	13518
238.891	5288
238.955	5388
239.020	2854
239.085	3770
239.149	2032
239.214	1930
239.278	2135
239.343	1995
239.407	3488
239.472	22661
239.536	16124
239.601	4472
239.665	2518
239.730	2117
239.794	7585
239.859	17548
239.923	6290
239.988	3463
240.052	3403
240.117	2778
240.181	2816
240.246	2380
240.310	2831
240.374	14167
240.439	22145
240.503	6070
240.568	11547
240.632	13522
240.696	4096
240.761	2753
240.825	2111
240.890	1956
240.954	12748
241.018	23876
241.083	11014
241.147	3391
241.211	6202
241.276	12702
241.340	4840
241.404	3000
241.469	3156
241.533	2220
241.597	1574
241.661	2517
241.726	3370
241.790	2583
241.854	2350
241.919	2223
241.983	2069
242.047	1851
242.111	1605
242.175	1850
242.240	2572
242.304	2602
242.368	3764
242.432	2137
242.496	1181
242.561	2223
242.625	1755
242.689	1562
242.753	2400
242.817	2618
242.881	2539
242.946	3232
243.010	3099
243.074	3109
243.138	2155
243.202	2583
243.266	2228
243.330	2703
243.394	13997
243.458	38005
243.522	11679
243.586	5435
243.651	2738
243.715	4349
243.779	5229
243.843	6121
243.907	12474
243.971	8199
244.035	4397
244.099	3461
244.163	6414
244.227	7471
244.291	6416
244.355	5028
244.419	3966
244.483	4216
244.546	2736
244.610	3042
244.674	4638
244.738	4942
244.802	2741
244.866	2083
244.930	2051
244.994	2958
245.058	3264
245.122	5226
245.186	3761
245.249	5045
245.313	3902
245.377	3748
245.441	2005
245.505	3383
245.569	3960
245.632	3264
245.696	13508
245.760	6224
245.824	3990
245.888	2958
245.951	3595
246.015	4108
246.079	5517
246.143	17824
246.207	27722
246.270	10763
246.334	6364
246.398	7467
246.461	12372
246.525	6915
246.589	5758
246.653	5419
246.716	7413
246.780	7879
246.844	9973
246.907	4021
246.971	4681
247.035	5011
247.098	4318
247.162	16414
247.226	39133
247.289	16048
247.353	6824
247.416	14056
247.480	7392
247.544	6027
247.607	8889
247.671	5344
247.734	4127
247.798	4993
247.861	16552
247.925	33551
247.989	11304
248.052	5723
248.116	6809
248.179	12011
248.243	59151
248.306	55438
248.370	35203
248.433	12704
248.497	10352
248.560	15257
248.624	17999
248.687	23270
248.751	59631
248.814	28451
248.877	29789
248.941	43591
249.004	72298
249.068	55598
249.131	19261
249.194	12580
249.258	16247
249.321	11096
249.385	7380
249.448	6121
249.511	8389
249.575	15161
249.638	10243
249.701	6491
249.765	6085
249.828	8801
249.891	6729
249.955	5638
250.018	22954
250.081	28338
250.145	11749
250.208	8342
250.271	8646
250.334	7720
250.398	6922
250.461	9013
250.524	11843
250.587	47616
250.651	71522
250.714	24697
250.777	14539
250.840	8870
250.903	8450
250.967	15087
251.030	35181
251.093	16072
251.156	15025
251.219	12098
251.282	14285
251.345	66235
251.409	54362
251.472	29603
251.535	118078
251.598	70098
251.661	26863
251.724	40241
251.787	37515
251.850	78167
251.913	38448
251.976	15440
252.039	12740
252.103	12024
252.166	28850
252.229	66908
252.292	55176
252.355	111160
252.418	43240
252.481	24980
252.544	17621
252.607	17659
252.670	48956
252.733	48870
252.796	101685
252.858	66734
252.921	40442
252.984	23072
253.047	17517
253.110	11811
253.173	14368
253.236	12988
253.299	17370
253.362	14589
253.425	15588
253.488	35294
253.550	20509
253.613	25184
253.676	24813
253.739	10882
253.802	16483
253.865	14584
253.928	10022
253.990	22139
254.053	34183
254.116	27125
254.179	21923
254.242	10744
254.304	21253
254.367	23159
254.430	18696
254.493	23607
254.555	39083
254.618	21565
254.681	12522
254.743	10963
254.806	10111
254.869	25510
254.932	25363
254.994	10406
255.057	9886
255.120	5627
255.182	5320
255.245	6393
255.308	4403
255.370	3628
255.433	3710
255.496	4113
255.558	3811
255.621	4719
255.683	3405
255.746	4150
255.809	2965
255.871	3510
255.934	2669
255.996	3435
256.059	3044
256.121	6744
256.184	21879
256.246	15182
256.309	12997
256.371	6073
256.434	4389
256.496	3744
256.559	3437
256.621	7845
256.684	12169
256.746	29970
256.809	10166
256.871	6024
256.934	5902
256.996	7645
257.059	5753
257.121	3907
257.183	3595
257.246	2509
257.308	2782
257.371	8532
257.433	40261
257.495	37759
257.558	26475
257.620	17192
257.683	8478
257.745	9366
257.807	4648
257.870	5127
257.932	3385
257.994	4006
258.056	3586
258.119	5345
258.181	15862
258.243	7469
258.306	5093
258.368	18805
258.430	16114
258.492	26749
258.555	32383
258.617	7058
258.679	6930
258.741	12967
258.803	5869
258.866	3839
258.928	3898
258.990	3985
259.052	6300
259.114	9765
259.177	4793
259.239	5841
259.301	17122
259.363	10380
259.425	4278
259.487	4732
259.549	4457
259.611	5107
259.674	4923
259.736	23053
259.798	43222
259.860	64244
259.922	49955
259.984	14488
260.046	6198
260.108	5636
260.170	4066
260.232	3609
260.294	4084
260.356	4116
260.418	9432
260.480	16059
260.542	12703
260.604	36093
260.666	47816
260.728	10551
260.790	8946
260.852	7138
260.914	6388
260.976	6069
261.038	13358
261.100	45224
261.161	34898
261.223	10101
261.285	21801
261.347	31026
261.409	8859
261.471	6271
261.533	4043
261.595	4811
261.656	13999
261.718	33988
261.780	12272
261.842	7759
261.904	5492
261.966	7477
262.027	6176
262.089	15280
262.151	9852
262.213	5570
262.274	16690
262.336	11755
262.398	5519
262.460	14552
262.521	32904
262.583	8867
262.645	5180
262.706	9230
262.768	32285
262.830	12006
262.892	6520
262.953	7656
263.015	44305
263.077	97479
263.138	29350
263.200	16860
263.261	7383
263.323	5417
263.385	3258
263.446	4452
263.508	14836
263.569	8946
263.631	3705
263.693	2647
263.754	2800
263.816	2206
263.877	1646
263.939	2358
264.000	5915
264.062	13674
264.123	6155
264.185	2454
264.246	2475
264.308	11027
264.369	22058
264.431	6701
264.492	3343
264.554	7575
264.615	17093
264.677	6215
264.738	3355
264.800	2451
264.861	2696
264.922	2416
264.984	1798
265.045	2195
265.107	3125
265.168	12863
265.229	9778
265.291	2860
265.352	2696
265.413	1952
265.475	1086
265.536	2779
265.597	2124
265.659	2334
265.720	993
265.781	1776
265.843	439
265.904	3747
265.965	24423
266.026	14918
266.088	5717
266.149	6262
266.210	2700
266.271	1893
266.333	2744
266.394	3897
266.455	1712
266.516	1909
266.577	8364
266.639	14433
266.700	3662
266.761	2554
266.822	1587
266.883	4325
266.944	1845
267.005	1952
267.067	1517
267.128	2094
267.189	-16
267.250	2794
267.311	2022
267.372	217
267.433	1585
267.494	1725
267.555	1585
267.616	1012
267.677	1991
267.738	1851
267.799	8052
267.860	19399
267.921	7808
267.982	5517
268.043	2428
268.104	3498
268.165	2019
268.226	2055
268.287	1608
268.348	2617
268.409	3459
268.470	1261
268.531	669
268.592	2363
268.653	1815
268.714	1407
268.775	2104
268.836	11947
268.896	14385
268.957	5979
269.018	2045
269.079	2386
269.140	1407
269.201	2936
269.262	1444
269.322	2083
269.383	3084
269.444	4594
269.505	6473
269.565	8921
269.626	4913
269.687	2724
269.748	2721
269.809	4877
269.869	9047
269.930	2788
269.991	2379
270.051	1426
270.112	1612
270.173	2654
270.234	579
270.294	2989
270.355	3319
270.416	1389
270.476	2297
270.537	8783
270.598	19457
270.658	8012
270.719	3715
270.779	6526
270.840	4113
270.901	3987
270.961	3682
271.022	3987
271.082	8733
271.143	9170
271.203	3040
271.264	3343
271.325	5307
271.385	19403
271.446	8653
271.506	4057
271.567	4962
271.627	3937
271.688	4350
271.748	13344
271.809	55939
271.869	74662
271.930	18437
271.990	33997
272.050	63431
272.111	14757
272.171	8554
272.232	10302
272.292	46441
272.352	22234
272.413	15501
272.473	13900
272.534	14692
272.594	10532
272.654	12424
272.715	25101
272.775	9977
272.835	7964
272.896	4498
272.956	5592
273.016	10864
273.077	8266
273.137	5079
273.197	5254
273.257	26960
273.318	57486
273.378	19128
273.438	20128
273.498	47344
273.559	16915
273.619	29265
273.679	65130
273.739	20580
273.799	11043
273.860	33119
273.920	61961
273.980	13897
274.040	8735
274.100	13184
274.160	75886
274.221	64374
274.281	50667
274.341	52887
274.401	34372
274.461	12632
274.521	12338
274.581	55301
274.641	72229
274.701	24253
274.761	10756
274.821	31001
274.882	101653
274.942	77464
275.002	41818
275.062	16142
275.122	8910
275.182	7732
275.242	10343
275.302	18495
275.362	16868
275.421	11090
275.481	41043
275.541	86942
275.601	45705
275.661	23916
275.721	15858
275.781	8702
275.841	6113
275.901	7372
275.961	6227
276.021	4898
276.081	12441
276.140	37125
276.200	14788
276.260	10109
276.320	6371
276.380	8436
276.440	5884
276.499	3735
276.559	3493
276.619	7230
276.679	23904
276.738	16388
276.798	7078
276.858	9513
276.918	6027
276.978	3538
277.037	4738
277.097	8308
277.157	32045
277.216	11655
277.276	6275
277.336	4504
277.395	5681
277.455	5393
277.515	4762
277.574	12123
277.634	19502
277.694	7497
277.753	33769
277.813	23017
277.873	19651
277.932	54077
277.992	17739
278.051	15574
278.111	20052
278.171	9488
278.230	21005
278.290	14009
278.349	7071
278.409	4440
278.468	4393
278.528	3456
278.587	3505
278.647	5524
278.706	22948
278.766	64695
278.825	16398
278.885	8695
278.944	8107
279.004	10374
279.063	10174
279.122	7594
279.182	6474
279.241	6301
279.301	7952
279.360	13964
279.419	66811
279.479	206222
279.538	164689
279.598	36598
279.657	21249
279.716	37168
279.776	60340
279.835	20040
279.894	11309
279.953	8840
280.013	19658
280.072	33765
280.131	23608
280.191	147078
280.250	154274
280.309	33487
280.368	27865
280.428	25718
280.487	12134
280.546	9582
280.605	17228
280.664	25797
280.724	8568
280.783	5385
280.842	5093
280.901	4232
280.960	5313
281.019	3526
281.079	3810
281.138	3036
281.197	6473
281.256	42671
281.315	29286
281.374	6763
281.433	4724
281.492	4245
281.551	3239
281.611	2852
281.670	4335
281.729	4157
281.788	2847
281.847	2910
281.906	3590
281.965	1954
282.024	2440
282.083	2828
282.142	2762
282.201	3603
282.260	20332
282.319	11932
282.378	4324
282.436	5764
282.495	30497
282.554	14678
282.613	4160
282.672	4037
282.731	6079
282.790	6032
282.849	4754
282.908	2579
282.967	1758
283.025	2547
283.084	4951
283.143	17402
283.202	38107
283.261	9806
283.319	4912
283.378	4711
283.437	5150
283.496	8782
283.555	6228
283.613	4215
283.672	3255
283.731	11397
283.790	12719
283.848	3965
283.907	3932
283.966	6767
284.024	7245
284.083	3351
284.142	7141
284.201	3977
284.259	8468
284.318	41720
284.376	33088
284.435	9585
284.494	11556
284.552	7760
284.611	5732
284.670	5115
284.728	5690
284.787	7575
284.845	7723
284.904	7428
284.962	8377
285.021	17520
285.079	66448
285.138	307409
285.197	264137
285.255	75317
285.314	36712
285.372	22330
285.431	15450
285.489	12785
285.547	9201
285.606	6940
285.664	4961
285.723	5636
285.781	6180
285.840	5839
285.898	3823
285.957	1918
286.015	3192
286.073	2408
286.132	3100
286.190	4895
286.248	4530
286.307	9490
286.365	6892
286.423	2987
286.482	3361
286.540	2284
286.598	4579
286.657	3586
286.715	4163
286.773	5268
286.832	9051
286.890	15257
286.948	5664
287.006	3440
287.064	3012
287.123	3631
287.181	6903
287.239	4581
287.297	5997
287.356	16968
287.414	10022
287.472	6180
287.530	4316
287.588	3789
287.646	7535
287.704	9908
287.763	5121
287.821	4999
287.879	5796
287.937	8292
287.995	22813
288.053	132354
288.111	429501
288.169	175915
288.227	49682
288.285	27344
288.343	24277
288.401	17624
288.459	12079
288.517	9280
288.575	6864
288.633	4648
288.691	4361
288.749	4288
288.807	4230
288.865	4014
288.923	3349
288.981	3053
289.039	3078
289.097	3809
289.155	4012
289.213	3600
289.271	2884
289.329	3969
289.386	9365
289.444	9485
289.502	3698
289.560	1560
289.618	2172
289.676	2043
289.734	2869
289.791	2260
289.849	4408
289.907	4930
289.965	2193
290.022	2597
290.080	3822
290.138	4734
290.196	3015
290.253	2030
290.311	1692
290.369	1775
290.427	1083
290.484	2095
290.542	2385
290.600	2162
290.657	2297
290.715	3872
290.773	2677
290.830	2876
290.888	3237
290.946	2248
291.003	1799
291.061	3511
291.118	15869
291.176	33730
291.234	9769
291.291	3584
291.349	3152
291.406	3358
291.464	1814
291.521	1999
291.579	1758
291.636	999
291.694	3505
291.751	9534
291.809	6916
291.866	2886
291.924	3108
291.981	4190
292.039	4227
292.096	2832
292.154	2873
292.211	4726
292.268	10791
292.326	11043
292.383	5799
292.441	4382
292.498	6258
292.555	5488
292.613	8366
292.670	5078
292.727	5504
292.785	16790
292.842	42082
292.899	21128
292.957	6520
293.014	4237
293.071	3857
293.129	4024
293.186	3004
293.243	4963
293.300	7459
293.358	3097
293.415	2801
293.472	2150
293.529	6067
293.586	30099
293.644	82275
293.701	35098
293.758	14253
293.815	8336
293.872	11182
293.929	7141
293.987	7038
294.044	16613
294.101	32846
294.158	31197
294.215	11268
294.272	6070
294.329	5773
294.386	8533
294.443	7319
294.500	4411
294.558	4299
294.615	5166
294.672	21674
294.729	90180
294.786	71436
294.843	26927
294.900	17483
294.957	13582
295.014	10492
295.070	6208
295.127	5330
295.184	4213
295.241	7972
295.298	34896
295.355	67155
295.412	24376
295.469	11739
295.526	25411
295.583	38052
295.640	33678
295.696	53945
295.753	20169
295.810	9070
295.867	8782
295.924	14957
295.981	12686
296.037	6230
296.094	5008
296.151	2675
296.208	3287
296.265	3995
296.321	3848
296.378	6284
296.435	25724
296.492	44070
296.548	26083
296.605	71962
296.662	99717
296.718	33683
296.775	14417
296.832	16878
296.888	34828
296.945	68414
297.002	47610
297.058	17038
297.115	10646
297.172	17896
297.228	80641
297.285	138004
297.341	46970
297.398	17059
297.454	10320
297.511	9257
297.568	9058
297.624	7233
297.681	5232
297.737	3620
297.794	3226
297.850	3098
297.907	3898
297.963	4560
298.020	10304
298.076	38529
298.133	33046
298.189	15381
298.245	31409
298.302	91728
298.358	51625
298.415	27226
298.471	21546
298.527	15302
298.584	11769
298.640	20486
298.697	41781
298.753	30925
298.809	12460
298.866	7047
298.922	6210
298.978	8962
299.035	7264
299.091	6212
299.147	5129
299.203	4414
299.260	6173
299.316	18483
299.372	81473
299.428	74103
299.485	24213
299.541	12164
299.597	8667
299.653	8113
299.710	8081
299.766	6345
299.822	13730
299.878	54108
299.934	57450
299.990	55800
300.046	101357
300.103	47410
300.159	20424
300.215	23628
300.271	24562
300.327	12706
300.383	7886
300.439	7184
300.495	5732
300.551	6192
300.607	15768
300.663	39528
300.719	54247
300.775	75557
300.831	41217
300.887	49690
300.943	38382
300.999	16420
301.055	10604
301.111	10721
301.167	8242
301.223	6130
301.279	4974
301.335	3950
301.391	3527
301.447	4045
301.503	6217
301.559	13168
301.614	12671
301.670	22542
301.726	33669
301.782	22360
301.838	34793
301.894	35460
301.949	81236
302.005	234567
302.061	219162
302.117	91563
302.173	35346
302.228	21201
302.284	21997
302.340	40731
302.396	31951
302.451	28410
302.507	76200
302.563	82916
302.618	42214
302.674	17357
302.730	10224
302.785	7775
302.841	7585
302.897	10663
302.952	18310
303.008	17455
303.064	22972
303.119	25557
303.175	11989
303.230	7092
303.286	5697
303.341	4839
303.397	4824
303.453	4231
303.508	5085
303.564	6719
303.619	23019
303.675	74921
303.730	59354
303.786	22865
303.841	9739
303.897	8331
303.952	13825
304.008	18573
304.063	17181
304.118	31597
304.174	31004
304.229	24154
304.285	11654
304.340	7343
304.372	6732
304.395	6317
304.451	6176
304.463	6075
304.506	5824
304.554	6247
304.562	6342
304.617	14437
304.644	33955
304.672	54305
304.728	80999
304.735	75406
304.783	39582
304.825	21033
304.838	15513
304.894	8706
304.916	7847
304.949	6772
305.004	6647
305.006	6554
305.059	4937
305.097	4506
305.115	4313
305.170	3234
305.188	3609
305.225	4511
305.278	5085
305.280	5118
305.336	5081
305.369	5002
305.391	5005
305.446	7833
305.459	7886
305.501	8109
305.550	7684
305.556	7666
305.612	17107
305.640	37115
305.667	56107
305.722	64977
305.731	61317
305.777	42151
305.821	58536
305.832	62970
305.887	64117
305.912	49346
305.942	30288
305.997	14525
306.002	13972
306.053	9032
306.092	6950
306.108	6282
306.163	5730
306.183	5377
306.218	4758
306.273	3887
306.273	3881
306.328	4247
306.364	4212
306.383	4174
306.438	4665
306.454	5329
306.493	7134
306.545	18638
306.548	19471
306.603	32586
306.635	42969
306.658	50438
306.713	40768
306.725	36417
306.768	20257
306.816	10953
306.823	9769
306.878	6539
306.906	5719
306.933	5137
306.988	5012
306.997	4981
307.043	4828
307.087	6632
307.098	7172
307.152	13006
307.177	15505
307.207	18604
307.262	20747
307.268	19985
307.317	12614
307.358	10049
307.372	9350
307.427	19695
307.448	27578
307.482	40862
307.536	41934
307.538	41215
307.591	21411
307.629	14393
307.646	11256
307.701	8628
307.719	10513
307.756	15846
307.809	30870
307.810	31190
307.865	22883
307.900	16670
307.920	12681
307.975	8774
307.990	9245
308.029	11280
308.080	28444
308.084	30199
308.139	94931
308.170	107098
308.194	114042
308.248	68666
308.261	63471
308.303	41920
308.351	27354
308.358	25694
308.412	14167
308.441	11188
308.467	9012
308.522	7518
308.531	7184
308.576	5925
308.621	6234
308.631	6419
308.686	13181
308.712	20685
308.740	29526
308.795	26319
308.802	25285
308.849	15006
308.892	9920
308.904	8842
308.959	7134
308.982	7771
309.013	8932
309.068	15609
309.072	16959
309.122	33464
309.162	71554
309.177	87849
309.231	158919
309.253	147105
309.286	114463
309.340	57755
309.343	56428
309.395	26490
309.433	15169
309.449	12738
309.504	9969
309.523	9541
309.558	9458
309.613	11641
309.613	11669
309.667	13063
309.703	11811
309.722	10567
309.776	7477
309.793	7119
309.830	6772
309.883	10801
309.885	11021
309.939	27111
309.973	31868
309.994	33340
310.048	26742
310.063	24669
310.102	14780
310.153	6531
310.157	6232
310.211	4220
310.243	3223
310.265	3122
310.320	3269
310.333	3345
310.374	2879
310.423	1943
310.428	1923
310.483	2333
310.513	2633
310.537	2515
310.591	2554
310.603	2354
310.646	2229
310.693	2394
310.700	2276
310.754	1275
310.783	885
310.808	1028
310.862	1490
310.873	1576
310.917	1378
310.963	1350
310.971	1438
311.025	2071
311.053	2207
311.079	1853
311.133	1381
311.143	1281
311.188	1237
311.233	1243
311.242	1191
311.296	887
311.323	841
311.350	1080
311.404	1421
311.413	1483
311.458	1307
311.503	1135
311.512	1198
311.567	1757
311.593	2033
311.621	1930
311.675	1624
311.683	1595
311.729	1817
311.772	2038
311.783	1930
311.837	1432
311.862	1277
311.891	1850
311.945	2912
311.952	3067
311.999	1890
312.042	865
312.053	909
312.107	1252
312.132	1430
312.222	1081
312.311	991
312.401	1499
312.491	1355
312.581	2399
312.671	1390
312.760	517
312.850	1130
312.940	911
313.030	1298
313.119	1482
313.209	1190
313.299	849
313.389	1464
313.478	1200
313.568	537
313.658	245
313.747	997
313.837	326
313.927	1045
314.016	1475
314.106	954
314.195	1549
314.285	1570
314.375	1835
314.464	319
314.554	540
314.643	886
314.733	446
314.823	1082
314.912	1067
315.002	1700
315.091	1562
315.181	1038
315.270	1131
315.360	1405
315.449	1116
315.539	865
315.628	1783
315.718	1954
315.807	2695
315.896	3461
315.986	990
316.075	3011
316.165	5034
316.254	4588
316.344	1315
316.433	1377
316.522	644
316.612	1494
316.701	1197
316.790	3065
316.880	3799
316.969	1157
317.058	582
317.148	864
317.237	363
317.326	1120
317.415	-176
317.505	1383
317.594	496
317.683	359
317.772	978
317.862	2691
317.951	6494
318.040	3123
318.129	1521
318.219	1353
318.308	1462
318.397	3256
318.486	2714
318.575	7124
318.664	9858
318.754	1840
318.843	1141
318.932	1431
319.021	1339
319.110	6892
319.199	15434
319.288	6827
319.377	2726
319.466	1043
319.555	1304
319.644	2952
319.733	3413
319.822	1486
319.911	6705
320.000	17222
320.089	3576
320.178	1246
320.267	2577
320.356	1790
320.445	1663
320.534	2503
320.623	578
320.712	1429
320.801	-385
320.890	1392
320.979	1503
321.068	2922
321.157	4091
321.245	3461
321.334	4342
321.423	8196
321.512	2469
321.601	3399
321.690	4926
321.779	2599
321.867	2791
321.956	4414
322.045	1332
322.134	4100
322.222	8791
322.311	5675
322.400	2389
322.489	3635
322.577	10056
322.666	4391
322.755	3544
322.843	5111
322.932	5536
323.021	2360
323.110	1787
323.198	1923
323.287	1966
323.375	8032
323.464	16350
323.553	5626
323.641	13978
323.730	4245
323.819	3520
323.907	12909
323.996	3675
324.084	1908
324.173	7563
324.261	4812
324.350	1541
324.438	2013
324.527	1393
324.615	1801
324.704	8445
324.792	9266
324.881	2999
324.969	813
325.058	1092
325.146	3216
325.235	5950
325.323	4642
325.412	4167
325.500	1171
325.588	202
325.677	268
325.765	312
325.853	1100
325.942	716
326.030	797
326.118	1898
326.207	1866
326.295	285
326.383	249
326.472	503
326.560	2335
326.648	-48
326.737	-16
326.825	790
326.913	701
327.001	578
327.090	2642
327.178	1417
327.266	1139
327.354	6201
327.442	4536
327.531	300
327.619	296
327.707	-45
327.795	1547
327.883	1430
327.971	1422
328.060	38
328.148	895
328.236	876
328.324	-120
328.412	729
328.500	739
328.588	1613
328.676	4556
328.764	2493
328.852	754
328.940	-52
329.028	961
329.116	442
329.204	3092
329.292	995
329.380	68
329.468	117
329.556	614
329.644	431
329.732	140
329.820	-324
329.908	1086
329.996	355
330.084	516
330.172	4432
330.259	9983
330.347	2566
330.435	750
330.523	1621
330.611	6238
330.699	2026
330.787	1330
330.874	2454
330.962	2435
331.050	112
331.138	-445
331.226	568
331.313	497
331.401	3121
331.489	2520
331.577	803
331.664	68
331.752	1224
331.840	490
331.927	61
332.015	-277
332.103	446
332.190	2127
332.278	6876
332.366	2539
332.453	516
332.541	111
332.629	-12
332.716	448
332.804	692
332.891	3552
332.979	3440
333.066	826
333.154	699
333.242	1298
333.329	284
333.417	799
333.504	3468
333.592	1226
333.679	890
333.767	284
333.854	371
333.942	1232
334.029	3926
334.117	8657
334.204	15447
334.291	2538
334.379	1119
334.466	-52
334.554	165
334.641	1279
334.728	977
334.816	5997
334.903	25430
334.990	11755
335.078	1463
335.165	311
335.252	714
335.340	2189
335.427	12482
335.514	7779
335.602	433
335.689	601
335.776	985
335.863	973
335.951	1104
336.038	6821
336.125	20357
336.212	4275
336.299	368
336.387	430
336.474	175
336.561	-17
336.648	707
336.735	703
336.822	91
336.910	703
336.997	6842
337.084	14306
337.171	15573
337.258	15199
337.345	4325
337.432	614
337.519	486
337.606	1334
337.693	6198
337.780	9697
337.867	1893
337.954	3163
338.041	3244
338.128	498
338.215	1453
338.302	5650
338.389	11056
338.476	2320
338.563	8595
338.650	4343
338.737	3476
338.824	2691
338.911	-215
338.998	-288
339.085	-18
339.171	1722
339.258	2529
339.345	1456
339.432	2943
339.519	1322
339.606	-278
339.692	610
339.779	395
339.866	1062
339.953	1377
340.040	-346
340.126	660
340.213	1023
340.300	306
340.387	644
340.473	633
340.560	-558
340.647	1794
340.733	6159
340.820	686
340.907	175
340.993	133
341.080	-46
341.167	-13
341.253	1827
341.340	1313
341.426	-102
341.513	-64
341.600	918
341.686	-75
341.773	2169
341.859	983
341.946	-734
342.032	-586
342.119	89
342.205	524
342.292	907
342.378	400
342.465	1115
342.551	426
342.638	3505
342.724	4520
342.811	1150
342.897	-514
342.984	59
343.070	-898
343.156	-703
343.243	-589
343.329	450
343.416	-263
343.502	-146
343.588	-463
343.675	412
343.761	209
343.847	838
343.934	3007
344.020	24613
344.106	26534
344.193	2948
344.279	2305
344.365	11654
344.451	5913
344.538	1518
344.624	-125
344.710	601
344.796	-273
344.882	-138
344.969	260
345.055	1112
345.141	176
345.227	943
345.313	-520
345.399	220
345.486	-45
345.572	96
345.658	-821
345.744	44
345.830	-617
345.916	-97
346.002	-582
346.088	658
346.174	692
346.260	833
346.346	-775
346.432	42
346.518	7097
346.604	10169
346.690	389
346.776	38
346.862	411
346.948	-184
347.034	-230
347.120	140
347.206	-568
347.292	275
347.378	562
347.464	6049
347.549	14147
347.635	11568
347.721	4705
347.807	399
347.893	480
347.979	312
348.065	373
348.150	-344
348.236	-249
348.322	27
348.408	-532
348.493	181
348.579	189
348.665	-184
348.751	-372
348.836	-1056
348.922	1632
349.008	11490
349.094	9720
349.179	168
349.265	20
349.351	-426
349.436	-678
349.522	461
349.608	-66
349.693	2671
349.779	8114
349.864	874
349.950	144
350.036	105
350.121	-141
350.207	-759
350.292	-660
350.378	107
350.463	832
350.549	543
350.634	417
350.720	-804
350.805	-908
350.891	-111
350.976	-66
351.062	779
351.147	-168
351.233	-427
351.318	3388
351.404	4560
351.489	-16
351.574	-80
351.660	11
351.745	-29
351.830	-643
351.916	-154
352.001	225
352.086	6898
352.172	2985
352.257	381
352.342	403
352.428	422
352.513	2634
352.598	11791
352.684	2315
352.769	345
352.854	-574
352.939	-210
353.024	-177
353.110	66
353.195	203
353.280	1351
353.365	347
353.450	335
353.536	363
353.621	1960
353.706	381
353.791	648
353.876	-550
353.961	354
354.046	2151
354.131	3203
354.216	1995
354.302	710
354.387	-27
354.472	193
354.557	163
354.642	488
354.727	971
354.812	-392
354.897	-526
354.982	-109
355.067	-907
355.152	-493
355.237	-41
355.321	1043
355.406	2308
355.491	5642
355.576	1246
355.661	1820
355.746	2460
355.831	11274
355.916	2869
356.001	410
356.085	-305
356.170	-132
356.255	-354
356.340	497
356.425	1907
356.509	21314
356.594	7354
356.679	272
356.764	1212
356.849	1479
356.933	17009
357.018	30810
357.103	3724
357.187	1167
357.272	395
357.357	1552
357.441	813
357.526	679
357.611	-224
357.695	-3
357.780	-453
357.865	-633
357.949	929
358.034	13988
358.118	32576
358.203	5469
358.288	71
358.372	1089
358.457	7753
358.541	15266
358.626	8522
358.710	8816
358.795	1143
358.879	1279
358.964	-127
359.048	-753
359.133	-63
359.217	71
359.302	72
359.386	-143
359.470	-2
359.555	395
359.639	26
359.724	-688
359.808	-592
359.892	168
359.977	-553
360.061	471
360.145	-397
360.230	938
360.314	1238
360.398	-104
360.483	1281
360.567	2652
360.651	4179
360.735	2208
360.820	14075
360.904	15937
360.988	4850
361.072	1273
361.157	-185
361.241	-537
361.325	-421
361.409	-422
361.493	-5
361.577	-211
361.662	63
361.746	3155
361.830	21163
361.914	11676
361.998	725
362.082	1136
362.166	1883
362.250	1392
362.334	1497
362.418	1739
362.502	369
362.586	-464
362.671	-691
362.754	-101
362.839	-116
362.922	-437
363.006	5394
363.090	23214
363.174	14470
363.258	1460
363.342	668
363.426	3779
363.510	14109
363.594	5015
363.678	586
363.762	-16
363.846	610
363.929	206
364.013	1749
364.097	604
364.181	5353
364.265	17367
364.349	4457
364.432	7224
364.516	874
364.600	1847
364.684	6262
364.767	21387
364.851	4689
364.935	3031
365.019	1149
365.102	1925
365.186	444
365.270	8762
365.353	15673
365.437	3146
365.521	-159
365.604	-702
365.688	143
365.771	1515
365.855	41
365.939	255
366.022	1289
366.106	43
366.189	-761
366.273	132
366.357	99
366.440	-525
366.524	-692
366.607	-286
366.691	-416
366.774	-60
366.858	1368
366.941	1249
367.024	27
367.108	636
367.191	864
367.275	-307
367.358	-609
367.442	54
367.525	-1111
367.608	615
367.692	609
367.775	803
367.858	750
367.942	9821
368.025	5162
368.108	26
368.192	1340
368.275	1739
368.358	1140
368.442	4328
368.525	6669
368.608	1831
368.691	9598
368.775	6098
368.858	495
368.941	2063
369.024	655
369.107	-267
369.190	-537
369.274	-799
369.357	1108
369.440	767
369.523	99
369.606	-503
369.689	1203
369.772	169
369.855	-1
369.939	-683
370.022	189
370.105	626
370.188	1018
370.271	835
370.354	362
370.437	2946
370.520	13420
370.603	5572
370.686	1006
370.769	6166
370.852	9929
370.935	10719
371.018	2088
371.100	-779
371.183	127
371.266	-365
371.349	-1216
371.432	400
371.515	-544
371.598	1235
371.681	1764
371.763	1423
371.846	1960
371.929	20130
372.012	17239
372.095	3459
372.177	8124
372.260	12105
372.343	1823
372.426	3431
372.508	2128
372.591	723
372.674	6655
372.757	12128
372.839	1818
372.922	7511
373.005	5454
373.087	1072
373.170	2219
373.253	7904
373.335	12511
373.418	25868
373.500	24980
373.583	6818
373.666	23705
373.748	11505
373.831	1648
373.913	1154
373.996	2108
374.078	11269
374.161	3766
374.243	5144
374.326	10669
374.408	3369
374.491	19742
374.573	25529
374.656	3443
374.738	7883
374.821	19300
374.903	30915
374.985	12070
375.068	1901
375.150	1831
375.233	11996
375.315	9096
375.397	1214
375.480	-501
375.562	-2
375.644	534
375.727	8884
375.809	24377
375.891	12508
375.973	2968
376.056	3809
376.138	4070
376.220	650
376.302	12168
376.385	15671
376.467	2800
376.549	2268
376.631	6883
376.713	15279
376.795	1213
376.878	-676
376.960	-670
377.042	157
377.124	1809
377.206	124
377.288	-583
377.370	-523
377.452	-382
377.534	-88
377.616	-477
377.699	-423
377.781	-622
377.863	-327
377.945	-12
378.027	-487
378.109	-605
378.190	-122
378.272	-78
378.354	-375
378.436	-926
378.518	1448
378.600	3091
378.682	2902
378.764	8237
378.846	1813
378.928	871
379.010	1467
379.091	-104
379.173	-123
379.255	-650
379.337	-144
379.419	6582
379.501	9128
379.582	666
379.664	639
379.746	2427
379.828	8900
379.909	10512
379.991	2717
380.073	-419
380.155	-161
380.236	-538
380.318	-643
380.400	-878
380.481	1093
380.563	831
380.645	957
380.726	345
380.808	313
380.889	-435
380.971	-393
381.053	-481
381.134	351
381.216	3827
381.297	6829
381.379	1114
381.460	3528
381.542	21663
381.623	7559
381.705	551
381.786	321
381.868	1027
381.949	12518
382.031	25035
382.112	6207
382.193	-11
382.275	1404
382.356	8044
382.438	12782
382.519	20254
382.600	16157
382.682	7716
382.763	17005
382.844	5870
382.926	7019
383.007	1234
383.088	2691
383.170	17631
383.251	11368
383.332	10682
383.413	16582
383.495	2389
383.576	1329
383.657	1628
383.738	16188
383.820	26672
383.901	5385
383.982	14347
384.063	21940
384.144	4213
384.225	1150
384.306	196
384.388	-246
384.469	-482
384.550	616
384.631	1037
384.712	-102
384.793	-121
384.874	924
384.955	8976
385.036	4137
385.117	-523
385.198	550
385.279	25
385.360	1378
385.441	-90
385.522	3978
385.603	13477
385.684	4262
385.765	519
385.846	1499
385.927	18968
386.008	12478
386.089	480
386.169	964
386.250	110
386.331	629
386.412	537
386.493	5859
386.574	3217
386.654	672
386.735	272
386.816	373
386.897	-273
386.977	109
387.058	-624
387.139	2186
387.220	5772
387.300	3004
387.381	239
387.462	-515
387.542	145
387.623	-171
387.704	4410
387.784	16984
387.865	8381
387.946	1465
388.026	-720
388.107	-1240
388.187	2111
388.268	2414
388.349	256
388.429	120
388.510	3091
388.590	17835
388.671	10195
388.751	3676
388.832	4989
388.912	986
388.993	-1381
389.073	41
389.154	-583
389.234	-1156
389.314	665
389.395	-777
389.475	4541
389.556	6576
389.636	1272
389.716	940
389.797	14
389.877	4412
389.957	8876
390.038	2383
390.118	356
390.198	2884
390.279	6751
390.359	1460
390.439	4905
390.519	5842
390.600	3480
390.680	120
390.760	199
390.840	-157
390.920	-771
391.001	-848
391.081	348
391.161	-261
391.241	-13
391.321	1698
391.401	977
391.481	1366
391.562	-670
391.642	-285
391.722	-296
391.802	1256
391.882	582
391.962	6365
392.042	2570
392.122	1643
392.202	5537
392.282	8272
392.362	2276
392.442	2742
392.522	-43
392.602	928
392.682	3283
392.762	10378
392.842	2449
392.921	6833
393.001	11711
393.081	2707
393.161	3260
393.241	20788
393.321	77428
393.401	29057
393.480	4636
393.560	1281
393.640	-135
393.720	-668
393.800	-636
393.879	-202
393.959	-1142
394.039	581
394.119	-129
394.198	650
394.278	7793
394.358	38231
394.437	11865
394.517	1634
394.597	-339
394.676	1343
394.756	4543
394.836	7491
394.915	389
394.995	532
395.075	-193
395.154	-598
395.234	-448
395.313	-298
395.393	-1168
395.472	925
395.552	4381
395.631	7900
395.711	5106
395.790	10490
395.870	1931
395.949	201
396.029	10568
396.108	50517
396.188	16139
396.267	3980
396.346	692
396.426	1343
396.505	635
396.585	847
396.664	3288
396.743	25626
396.823	58572
396.902	19708
396.981	2054
397.061	990
397.140	-1124
397.219	448
397.298	55
397.378	903
397.457	-171
397.536	-396
397.615	-2051
397.694	266
397.774	-746
397.853	-1071
397.932	-648
398.011	-477
398.090	4519
398.169	7287
398.249	519
398.328	-24
398.407	-671
398.486	-938
398.565	79
398.644	-1095
398.723	-412
398.802	-143
398.881	4578
398.960	9293
399.039	255
399.118	-1394
399.197	-967
399.276	-522
399.355	-1340
399.434	-758
399.513	-992
399.592	-1691
399.671	328
399.750	3570
399.829	11886
399.908	2714
399.986	-1048
400.065	-804
400.144	-1518
400.223	1080
400.302	-925
400.380	-845
400.459	5006
400.538	2353
400.617	-873
400.696	-460
400.774	-294
400.853	1859
400.932	84
401.011	452
401.089	-978
401.168	-772
401.247	28
401.325	-546
401.404	-74
401.483	-699
401.561	-843
401.640	-535
401.718	346
401.797	-845
401.876	-760
401.954	-1107
402.033	-719
402.111	82
402.190	-1230
402.268	-143
402.347	-508
402.425	1947
402.504	-1203
402.582	-349
402.661	-1044
402.739	-471
402.818	-571
402.896	89
402.974	2252
403.053	4501
403.131	454
403.210	2492
403.288	3451
403.366	1980
403.445	1267
403.523	-913
403.601	-883
403.680	-1420
403.758	28
403.836	-545
403.915	-693
403.993	-337
404.071	650
404.149	-824
404.228	-1586
404.306	540
404.384	-299
404.462	4521
404.540	22500
404.618	4658
404.697	-297
404.775	-55
404.853	-741
404.931	-1055
405.009	-662
405.087	-459
405.165	-1429
405.243	-2155
405.321	-373
405.399	-1112
405.478	-859
405.556	49
405.634	-1291
405.712	-1450
405.790	257
405.868	-388
405.945	-215
406.023	-427
406.101	-1313
406.179	588
406.257	4750
406.335	13770
406.413	2244
406.491	-144
406.569	-1401
406.647	-229
406.724	-591
406.802	-855
406.880	-1906
406.958	106
407.036	-354
407.113	11832
407.191	4832
407.269	-83
407.347	-583
407.424	226
407.502	-990
407.580	372
407.658	353
407.735	1227
407.813	1991
407.891	242
407.968	-1073
408.046	292
408.124	-560
408.201	-435
408.279	-341
408.356	-104
408.434	-613
408.512	-507
408.589	-891
408.667	-672
408.744	-1633
408.822	-521
408.899	-1146
408.977	-128
409.054	-1559
409.132	-1565
409.209	49
409.287	-376
409.364	-569
409.441	-642
409.519	-601
409.596	-190
409.674	-698
409.751	-668
409.828	-462
409.906	555
409.983	-1307
410.060	-423
410.138	-4
410.215	247
410.292	-929
410.370	-508
410.447	-750
410.524	-1093
410.601	-338
410.678	332
410.756	-848
410.833	-1676
410.910	-349
410.987	-242
411.064	-1186
411.142	-852
411.219	-385
411.296	-590
411.373	-766
411.450	-132
411.527	-652
411.604	-1832
411.681	-959
411.758	130
411.835	-915
411.913	-935
411.990	-1010
412.067	-589
412.144	-797
412.221	-837
412.298	-562
412.374	-1393
412.451	-1257
412.528	-943
412.605	-1475
412.682	-499
412.759	-184
412.836	-574
412.913	-1653
412.990	-477
413.067	42
413.143	2860
413.220	1648
413.297	-407
413.374	243
413.451	-1217
413.527	-345
413.604	-15
413.681	-1436
413.758	-797
413.834	-742
413.911	-1196
413.988	-1337
414.065	-989
414.141	-1128
414.218	330
414.295	3374
414.371	5361
414.448	-343
414.524	-998
414.601	-1086
414.678	-1062
414.754	-1114
414.831	-1150
414.907	-925
414.984	-826
415.060	-603
415.137	-588
415.213	-378
415.290	69
415.366	143
415.443	-297
415.519	-1331
415.596	-1367
415.672	-654
415.749	-532
415.825	-580
415.902	-858
415.978	-1067
416.054	-38
416.131	-1907
416.207	-737
416.283	-773
416.360	-662
416.436	-492
416.512	-913
416.589	-1567
416.665	-355
416.741	-563
416.817	-1788
416.894	-1260
416.970	-297
417.046	25
417.122	-724
417.198	-1142
417.275	-865
417.351	-1307
417.427	-256
417.503	-939
417.579	-1065
417.655	-703
417.731	-283
417.808	-1999
417.884	-623
417.960	-1105
418.036	-1598
418.112	-345
418.188	-1045
418.264	-743
418.340	-768
418.416	-1186
418.492	-680
418.568	-633
418.644	367
418.720	549
418.796	-285
418.872	-1173
418.947	-1635
419.023	-929
419.099	991
419.175	-1504
419.251	-895
419.327	-2137
419.403	-1365
419.478	-1264
419.554	-701
419.630	-752
419.706	-144
419.782	378
419.857	487
419.933	-697
420.009	-290
420.085	539
420.160	3880
420.236	183
420.312	-580
420.387	-1295
420.463	-661
420.539	-458
420.614	-999
420.690	-652
420.766	-1447
420.841	109
420.917	-1207
420.992	-632
421.068	-1146
421.143	-1047
421.219	-1215
421.294	-421
421.370	-1043
421.445	1001
421.521	-80
421.596	-671
421.672	-497
421.747	-320
421.823	-936
421.898	-693
421.974	-150
422.049	-895
422.124	-635
422.200	-586
422.275	337
422.350	-495
422.426	1186
422.501	7034
422.576	34208
422.652	44821
422.727	14064
422.802	2752
422.878	1194
422.953	-621
423.028	-773
423.103	-656
423.178	-1590
423.254	-1270
423.329	795
423.404	-1418
423.479	-294
423.554	710
423.630	-815
423.705	-783
423.780	-957
423.855	-350
423.930	-633
424.005	-1236
424.080	-573
424.155	-947
424.230	-828
424.305	-1397
424.380	-1119
424.455	-1596
424.530	-318
424.605	-1483
424.680	-282
424.755	-616
424.830	-520
424.905	-831
424.980	2220
425.055	3072
425.130	-1251
425.204	-531
425.279	-1510
425.354	-1043
425.429	-856
425.504	-677
425.579	-923
425.653	-1481
425.728	-1004
425.803	-628
425.878	-285
425.952	1380
426.027	3127
426.102	-1022
426.177	-1062
426.251	-30
426.326	-1239
426.401	-1228
426.475	-256
426.550	-1375
426.625	-1137
426.699	-734
426.774	-1587
426.848	-409
426.923	-905
426.998	-26
427.072	6266
427.147	9659
427.221	1399
427.296	-1307
427.370	-670
427.445	-565
427.519	-897
427.594	-480
427.668	-6
427.743	-1293
427.817	-693
427.892	-1501
427.966	-960
428.040	-1760
428.115	769
428.189	2936
428.263	5480
428.338	578
428.412	-613
428.486	-1214
428.561	-194
428.635	-611
428.709	494
428.784	482
428.858	5602
428.932	3147
429.006	664
429.080	134
429.155	-1111
429.229	-848
429.303	130
429.377	1502
429.451	-6
429.526	299
429.600	-1030
429.674	-881
429.748	245
429.822	5778
429.896	4991
429.970	4043
430.044	7002
430.118	3268
430.192	11175
430.266	3866
430.340	-645
430.414	-118
430.488	3058
430.562	5663
430.636	2325
430.710	12892
430.784	7655
430.858	-190
430.932	-877
431.006	-737
431.080	-987
431.153	-1367
431.227	-1313
431.301	-1893
431.375	1705
431.449	642
431.523	245
431.596	-864
431.670	-1007
431.744	465
431.818	6017
431.891	202
431.965	-288
432.039	-1095
432.112	-423
432.186	-956
432.260	-292
432.333	-614
432.407	-849
432.481	5549
432.554	8522
432.628	556
432.702	-998
432.775	-1412
432.849	-635
432.922	-1426
432.996	-585
433.069	-1397
433.143	-1213
433.216	-1023
433.290	-1052
433.363	-1674
433.437	-606
433.510	-1863
433.584	-922
433.657	-1004
433.730	-12
433.804	-1632
433.877	-184
433.951	-1051
434.024	-794
434.097	-1549
434.171	-639
434.244	-1447
434.317	-1098
434.391	-472
434.464	-770
434.537	-1352
434.610	-1380
434.684	-1300
434.757	-494
434.830	-1504
434.903	-818
434.977	-847
435.050	-1072
435.123	-1217
435.196	-1081
435.269	-934
435.342	-1824
435.415	-1900
435.489	-25
435.562	-1243
435.635	-977
435.708	-1439
435.781	-1433
435.854	-535
435.927	-1834
436.000	-1849
436.073	-362
436.146	-1184
436.219	-1273
436.292	-1766
436.365	-1669
436.438	-1036
436.511	-849
436.584	-1067
436.657	-1873
436.729	-729
436.802	-237
436.875	-1164
436.948	-1234
437.021	-1293
437.094	-842
437.166	-1505
437.239	-550
437.312	-1622
437.385	-919
437.457	-1450
437.530	506
437.603	-764
437.676	-638
437.748	-1358
437.821	-817
437.894	-168
437.966	-304
438.039	-1369
438.112	-68
438.184	-1266
438.257	6886
438.330	13260
438.402	1911
438.475	89
438.547	-376
438.620	-1538
438.692	-1517
438.765	-1051
438.837	-720
438.910	-1334
438.982	-829
439.055	-808
439.127	-1301
439.200	-1329
439.272	-893
439.345	-1216
439.417	-652
439.489	-508
439.562	-1039
439.634	-688
439.707	-1203
439.779	-1716
439.851	-836
439.923	-1010
439.996	-1314
440.068	-1295
440.140	-993
440.213	-1389
440.285	-179
440.357	2081
440.429	9871
440.502	2285
440.574	-871
440.646	-706
440.718	-620
440.790	-1242
440.862	-944
440.935	-1505
441.007	-1390
441.079	-1039
441.151	-1266
441.223	-658
441.295	-1002
441.367	-781
441.439	2797
441.511	1183
441.583	-503
441.655	-1071
441.727	-782
441.799	-1635
441.871	-487
441.943	-1398
442.015	-1673
442.087	-1056
442.159	-803
442.231	-303
442.303	-734
442.374	-385
442.446	1805
442.518	2857
442.590	699
442.662	755
442.734	24
442.805	-1162
442.877	-570
442.949	-937
443.021	-896
443.092	-1815
443.164	-1133
443.236	-1412
443.308	-830
443.379	1750
443.451	9291
443.523	5732
443.594	595
443.666	-1645
443.737	-1318
443.809	-1312
443.881	-1275
443.952	-1012
444.024	-1147
444.095	-1029
444.167	-969
444.238	-426
444.310	-1202
444.381	-1165
444.453	-590
444.524	-955
444.596	-803
444.667	-1471
444.739	-1209
444.810	-418
444.882	80
444.953	-947
445.024	382
445.096	-398
445.167	-976
445.238	-828
445.310	693
445.381	7043
445.452	12687
445.524	4590
445.595	1594
445.666	242
445.737	598
445.809	-863
445.880	-320
445.951	-1052
446.022	-1241
446.094	-659
446.165	-173
446.236	-1321
446.307	-273
446.378	-1251
446.449	-790
446.520	-338
446.591	-625
446.663	-1100
446.734	-1040
446.805	-1026
446.876	-338
446.947	-563
447.018	-756
447.089	-969
447.160	-840
447.231	-2079
447.302	-953
447.373	-1793
447.444	-891
447.514	-1440
447.585	-671
447.656	-1551
447.727	-1022
447.798	-1862
447.869	-1327
447.940	-1188
448.010	-1020
448.081	-189
448.152	-479
448.223	-872
448.294	-1181
448.364	-1097
448.435	-1823
448.506	-1283
448.577	-1263
448.647	-1277
448.718	-1198
448.789	-1271
448.859	-1099
448.930	-1405
449.001	-1557
449.071	-1333
449.142	-1211
449.213	-908
449.283	-1443
449.354	-1069
449.424	-601
449.495	-920
449.565	-441
449.636	-1276
449.706	-988
449.777	-1720
449.847	-1147
449.918	-1408
449.988	-932
450.059	-1568
450.129	-1147
450.200	-1278
450.270	-1158
450.340	-1302
450.411	-1297
450.481	-1811
450.551	-1775
450.622	-1824
450.692	-935
450.762	-1693
450.833	-711
450.903	-1468
450.973	-1544
451.043	-1419
451.114	-1061
451.184	-269
451.254	155
451.324	-545
451.395	-1420
451.465	-1306
451.535	-1237
451.605	-1427
451.675	-902
451.745	616
451.815	17
451.885	-1945
451.956	-1204
452.026	-1307
452.096	-1472
452.166	-443
452.236	761
452.306	-590
452.376	-1446
452.446	-1391
452.516	-408
452.586	-880
452.656	-108
452.725	-163
452.795	-83
452.865	-460
452.935	-1372
453.005	-597
453.075	-1083
453.145	-1797
453.215	599
453.284	1645
453.354	2695
453.424	4801
453.494	5993
453.564	6298
453.633	-98
453.703	-1323
453.773	-1251
453.843	-1754
453.895	-1269
453.912	-1148
453.976	-1397
453.982	-1459
454.052	-1314
454.057	-1272
454.121	-1254
454.139	-1139
454.191	-762
454.220	-795
454.261	-1164
454.301	-213
454.330	-183
454.382	-214
454.400	-163
454.463	301
454.469	349
454.539	-740
454.544	-576
454.608	1362
454.625	1911
454.678	3545
454.707	5266
454.748	5337
454.788	6667
454.817	5383
454.869	3109
454.887	3047
454.950	1232
454.956	1226
455.026	4017
455.031	4437
455.095	5839
455.112	6802
455.165	8375
455.193	9382
455.234	9613
455.274	10015
455.303	8374
455.355	6778
455.373	6364
455.436	4849
455.442	4406
455.512	2319
455.517	2051
455.581	903
455.598	681
455.650	127
455.679	150
455.720	342
455.760	55
455.789	-251
455.841	157
455.858	185
455.922	14
455.928	-9
455.997	-232
456.003	-147
456.066	1724
456.084	2102
456.136	4280
456.165	5850
456.205	6508
456.245	7768
456.274	5810
456.326	1534
456.343	1365
456.407	1344
456.412	1320
456.482	713
456.488	708
456.551	521
456.569	338
456.620	-90
456.650	314
456.689	678
456.730	422
456.758	417
456.811	744
456.827	1350
456.892	4159
456.897	4663
456.966	13154
456.973	14152
457.035	22986
457.054	25984
457.104	12286
457.134	4064
457.173	2961
457.215	1443
457.242	1538
457.296	1710
457.311	1631
457.377	1883
457.380	1880
457.449	1770
457.457	1848
457.518	2368
457.538	2411
457.587	4102
457.619	5527
457.656	8031
457.699	10622
457.725	9543
457.780	7372
457.794	7238
457.861	7277
457.863	7436
457.932	12751
457.941	13648
458.001	16128
458.022	17278
458.070	11370
458.103	6568
458.138	5721
458.183	4975
458.207	5450
458.264	6870
458.276	7762
458.344	13333
458.345	13395
458.414	24696
458.425	26766
458.483	19763
458.506	17017
458.551	10990
458.586	6020
458.620	4952
458.667	3250
458.689	3231
458.747	3793
458.758	4007
458.826	6011
458.828	6039
458.895	4757
458.908	4541
458.964	4712
458.989	4696
459.033	5255
459.069	5989
459.101	6059
459.150	6190
459.170	5794
459.230	4583
459.239	4583
459.307	4423
459.311	4400
459.376	4830
459.391	5123
459.444	4999
459.471	4593
459.513	4383
459.552	4432
459.582	5043
459.632	6358
459.650	6675
459.713	7276
459.719	7259
459.787	7023
459.793	6983
459.856	5068
459.873	4637
459.924	5092
459.954	5088
459.993	6449
460.034	8134
460.061	10153
460.114	14172
460.130	13208
460.195	8984
460.198	8842
460.267	5770
460.275	5386
460.335	6483
460.355	6747
460.404	7939
460.436	8744
460.472	13235
460.516	18760
460.540	21315
460.596	27324
460.609	24246
460.676	7391
460.677	7401
460.745	6370
460.757	6170
460.814	6290
460.837	6343
460.882	8243
460.917	10094
460.950	11283
460.997	12309
461.019	10692
461.077	6562
461.087	6778
461.155	8025
461.158	8046
461.224	7554
461.238	7384
461.292	7174
461.318	7079
461.360	9023
461.398	10783
461.428	17957
461.478	30083
461.496	38809
461.558	67400
461.565	64188
461.633	28205
461.638	25171
461.701	15090
461.719	11891
461.769	11638
461.799	11441
461.837	9065
461.879	6841
461.905	7291
461.959	8094
461.973	9414
462.039	14639
462.042	15389
462.110	33607
462.119	35914
462.178	30630
462.199	28529
462.246	16978
462.279	8771
462.314	10283
462.359	12095
462.382	10813
462.439	7510
462.450	7533
462.518	7162
462.519	7130
462.586	8082
462.599	8226
462.654	11344
462.679	12712
462.722	18624
462.759	23433
462.790	19704
462.839	13882
462.858	12616
462.919	8050
462.926	7976
462.993	6924
462.999	6811
463.061	8898
463.078	9439
463.129	10370
463.158	10738
463.197	11188
463.238	11903
463.265	11814
463.318	10990
463.333	11093
463.398	11559
463.401	11649
463.468	12637
463.478	12705
463.536	18040
463.558	19840
463.604	26494
463.637	31372
463.672	35423
463.717	40139
463.739	49733
463.797	74289
463.807	69418
463.875	34618
463.877	33522
463.943	15064
463.957	10922
464.010	10448
464.036	10273
464.078	10864
464.116	11393
464.146	13239
464.196	16142
464.213	15926
464.275	14666
464.281	15227
464.349	21493
464.355	22017
464.416	16537
464.435	14604
464.484	16055
464.515	17049
464.551	19955
464.594	23180
464.619	20418
464.674	13737
464.686	13799
464.754	13664
464.754	13762
464.821	18158
464.833	18848
464.889	14737
464.913	12869
464.956	11756
464.992	10581
465.024	10943
465.072	11525
465.091	12071
465.152	13522
465.159	14365
465.226	21470
465.231	21871
465.294	31733
465.311	34220
465.361	33964
465.390	33588
465.429	48274
465.470	63604
465.496	54061
465.549	33600
465.563	30188
465.629	13287
465.631	13364
465.698	13526
465.708	13451
465.765	12825
465.788	12569
465.833	13125
465.867	13405
465.900	13918
465.947	14462
465.967	14745
466.026	15247
466.035	15407
466.102	16052
466.106	15996
466.169	16028
466.185	15949
466.236	16945
466.265	17320
466.304	18934
466.344	20455
466.371	23588
466.423	29397
466.438	33728
466.503	52271
466.505	54339
466.572	108260
466.582	115687
466.639	83994
466.662	70955
466.707	47648
466.741	29251
466.774	27338
466.820	24166
466.841	23761
466.900	22121
466.908	22097
466.975	20856
466.979	20663
467.042	23444
467.058	23991
467.109	25559
467.138	26215
467.176	25829
467.217	25127
467.243	25208
467.296	24951
467.310	25548
467.375	27540
467.377	27498
467.455	18604
467.534	20267
467.613	25765
467.692	38144
467.772	36990
467.851	26741
467.930	45796
468.009	109857
468.088	63988
468.167	18190
468.246	20567
468.326	19725
468.405	17437
468.484	18076
468.563	22529
468.642	27211
468.721	19122
468.800	20177
468.879	27854
468.958	49524
469.037	27504
469.116	16657
469.195	15402
469.274	15280
469.353	15578
469.432	15994
469.511	17689
469.590	22510
469.669	32470
469.748	38389
469.827	18443
469.905	18158
469.984	17458
470.063	22097
470.142	34077
470.221	32413
470.300	23384
470.378	20694
470.457	19612
470.536	32054
470.615	32317
470.694	21346
470.772	31813
470.851	48407
470.930	21322
471.008	12548
471.087	11621
471.166	11908
471.245	13667
471.323	13556
471.402	13466
471.480	10998
471.559	13301
471.638	11562
471.716	11235
471.795	12800
471.873	12061
471.952	13965
472.031	19175
472.109	25687
472.188	17159
472.266	11320
472.345	10689
472.423	11222
472.502	14291
472.580	23168
472.659	18696
472.737	19697
472.815	13458
472.894	17758
472.972	21193
473.051	14619
473.129	17434
473.207	21353
473.286	18261
473.364	19012
473.443	32121
473.521	55057
473.599	22709
473.677	14042
473.756	19417
473.834	17438
473.912	16024
473.991	23537
474.069	37546
474.147	43107
474.225	13331
474.303	14983
474.382	18158
474.460	18730
474.538	17564
474.616	18740
474.694	16744
474.772	14699
474.851	14192
474.929	15050
475.007	16708
475.085	18728
475.163	23706
475.241	38296
475.319	21667
475.397	15995
475.475	18422
475.553	33801
475.631	80838
475.709	86636
475.787	89154
475.865	19781
475.943	17550
476.021	28115
476.099	33237
476.177	17809
476.255	16205
476.333	17382
476.410	26950
476.488	31575
476.566	16130
476.644	16666
476.722	15443
476.800	14252
476.877	12944
476.955	15260
477.033	17563
477.111	19273
477.189	12704
477.266	10914
477.344	11201
477.422	12660
477.499	12123
477.577	13539
477.655	21006
477.732	15353
477.810	16764
477.888	15221
477.965	13290
478.043	16663
478.121	24907
478.198	44522
478.276	15122
478.353	12292
478.431	13378
478.508	21412
478.586	15530
478.664	14659
478.741	22009
478.819	27813
478.896	13112
478.974	14725
479.051	20740
479.128	22494
479.206	10987
479.283	10628
479.361	11144
479.438	16662
479.516	15905
479.593	14819
479.670	18041
479.748	20941
479.825	35182
479.902	20282
479.980	13287
480.057	12685
480.134	16142
480.211	16346
480.289	25438
480.366	50777
480.443	25321
480.520	13503
480.598	15855
480.675	19804
480.752	17641
480.829	15916
480.906	18432
480.984	17602
481.061	16770
481.138	12389
481.215	10451
481.292	13245
481.369	13719
481.446	14686
481.523	10637
481.600	11557
481.677	13784
481.754	17721
481.831	33092
481.908	46469
481.985	15387
482.062	16791
482.139	32391
482.216	52253
482.293	17334
482.370	14461
482.447	14072
482.524	12825
482.601	15496
482.678	11967
482.755	10808
482.832	11213
482.908	10615
482.985	13589
483.062	14722
483.139	13905
483.216	12760
483.293	12758
483.369	13688
483.446	19480
483.523	13811
483.600	13489
483.676	17622
483.753	21677
483.830	38116
483.906	95486
483.983	63897
484.060	21708
484.136	22149
484.213	19931
484.290	18373
484.366	14693
484.443	16523
484.519	18395
484.596	18142
484.673	25677
484.749	20169
484.826	15418
484.902	16231
484.979	18340
485.055	15995
485.132	15276
485.208	17205
485.285	23081
485.361	41542
485.437	95602
485.514	39497
485.590	22722
485.667	23196
485.743	39460
485.819	90751
485.896	34248
485.972	16777
486.049	16400
486.125	17300
486.201	22126
486.277	24081
486.354	20146
486.430	20662
486.506	21890
486.583	31426
486.659	65959
486.735	45389
486.811	71289
486.887	123171
486.964	215486
487.040	198992
487.116	78873
487.192	21174
487.268	22936
487.344	24942
487.420	27861
487.497	28111
487.573	54214
487.649	148749
487.725	103239
487.801	27352
487.877	22359
487.953	27949
488.029	29524
488.105	24756
488.181	26245
488.257	44178
488.333	121991
488.409	81593
488.485	29869
488.561	25548
488.637	26663
488.712	42931
488.788	54982
488.864	129564
488.940	343538
489.016	367967
489.092	53313
489.168	22999
489.243	19142
489.319	15108
489.395	13920
489.471	15354
489.547	15988
489.622	17274
489.698	23880
489.774	53805
489.849	114826
489.925	28518
490.001	17305
490.076	23146
490.152	52771
490.228	43437
490.303	15026
490.379	13344
490.455	11638
490.530	13451
490.606	17205
490.681	18583
490.757	22943
490.833	33397
490.908	35365
490.984	28701
491.059	20959
491.135	39210
491.210	92436
491.286	29736
491.361	23916
491.436	21217
491.512	27796
491.587	41482
491.663	86364
491.738	245274
491.814	243753
491.889	552758
491.964	222864
492.040	54281
492.115	20607
492.190	25883
492.266	35319
492.341	25453
492.416	20626
492.491	15702
492.567	21006
492.642	37478
492.717	35630
492.792	15245
492.868	15735
492.943	14391
493.018	15822
493.093	22401
493.168	52924
493.243	135426
493.318	53381
493.394	15454
493.469	14179
493.544	18380
493.619	32776
493.694	63396
493.769	52731
493.844	24561
493.919	15248
493.994	16044
494.069	14181
494.144	13235
494.219	10883
494.294	13050
494.369	14346
494.444	20579
494.519	24249
494.594	13209
494.669	16575
494.744	15036
494.818	17381
494.893	16702
494.968	15902
495.043	15450
495.118	19437
495.193	21183
495.267	27918
495.342	40913
495.417	59381
495.492	148349
495.566	620658
495.641	730187
495.716	63304
495.791	22169
495.865	19685
495.940	16551
496.015	16961
496.089	18760
496.164	17589
496.239	18545
496.313	24112
496.388	29283
496.462	50186
496.537	27395
496.612	26670
496.686	31383
496.761	25797
496.835	24677
496.910	25952
496.984	20618
497.059	22806
497.133	36541
497.208	36017
497.282	28834
497.357	45461
497.431	40749
497.505	32280
497.580	43779
497.654	68320
497.729	73183
497.803	72406
497.877	104522
497.952	299822
498.026	906510
498.100	239945
498.175	117433
498.249	98803
498.323	70865
498.397	85970
498.472	50135
498.546	41253
498.620	44059
498.694	59273
498.768	93933
498.843	121491
498.917	452750
498.991	538770
499.065	44288
499.139	26888
499.213	32218
499.287	35769
499.362	27069
499.436	27283
499.510	36490
499.584	50703
499.658	61082
499.732	186761
499.806	570299
499.880	108145
499.954	72842
500.028	91751
500.102	52092
500.176	30286
500.250	30931
500.324	45908
500.397	108890
500.471	212858
500.545	367729
500.619	254931
500.693	28839
500.767	24638
500.841	30296
500.914	24213
500.988	35773
501.062	74259
501.136	80449
501.210	189720
501.283	439713
501.357	119475
501.431	83882
501.505	84477
501.578	22973
501.652	37978
501.726	49225
501.799	74996
501.873	144598
501.947	31702
502.020	43262
502.094	114421
502.167	130833
502.241	37343
502.315	100609
502.388	103341
502.462	47353
502.535	29160
502.609	30799
502.682	25801
502.756	12166
502.829	14123
502.903	12804
502.976	13588
503.050	12878
503.123	15502
503.196	18124
503.270	24494
503.343	49022
503.417	185907
503.490	258134
503.563	71971
503.637	67450
503.710	135687
503.783	70377
503.857	150407
503.930	70308
504.003	85122
504.076	52820
504.150	19887
504.223	22298
504.296	17342
504.369	12968
504.443	12882
504.516	11955
504.589	12322
504.662	18325
504.735	21046
504.808	47892
504.881	39176
504.954	15686
505.028	34857
505.101	20586
505.174	22253
505.247	13109
505.320	12095
505.393	9532
505.466	10825
505.539	10051
505.612	10865
505.685	9367
505.758	11545
505.831	8572
505.904	12560
505.977	12733
506.049	21272
506.122	19847
506.195	26140
506.268	90947
506.341	172997
506.414	34752
506.487	18717
506.559	14758
506.632	17477
506.705	33108
506.778	32999
506.851	13676
506.923	13939
506.996	24755
507.069	22690
507.141	16848
507.214	16059
507.287	32412
507.360	33742
507.432	13741
507.505	14759
507.577	11800
507.650	14344
507.723	26937
507.795	36615
507.868	15751
507.940	9764
508.013	9440
508.086	9042
508.158	17799
508.231	16091
508.303	9217
508.376	11433
508.448	9565
508.520	15499
508.593	20060
508.665	9688
508.738	9641
508.810	8428
508.883	12450
508.955	17658
509.027	8700
509.100	7311
509.172	7036
509.244	7643
509.317	7646
509.389	10099
509.461	11561
509.534	20357
509.606	17235
509.678	20851
509.750	29143
509.822	11335
509.895	9209
509.967	7580
510.039	7890
510.111	9990
510.183	10147
510.255	9469
510.328	9854
510.400	13774
510.472	11406
510.544	15421
510.616	31612
510.688	14129
510.760	13966
510.832	19957
510.904	26939
510.976	11329
511.048	9166
511.120	11911
511.192	24080
511.264	11828
511.336	7520
511.408	8592
511.480	7228
511.552	8009
511.624	9269
511.695	8385
511.767	10229
511.839	19599
511.911	40358
511.983	14281
512.055	13411
512.126	11551
512.198	17836
512.270	20755
512.342	26341
512.414	27291
512.485	16224
512.557	16573
512.629	15537
512.700	9728
512.772	17087
512.844	11164
512.915	11015
512.987	15538
513.059	17836
513.130	30331
513.202	59763
513.273	38263
513.345	15382
513.416	12812
513.488	15207
513.560	26474
513.631	30526
513.703	33393
513.774	112267
513.845	88094
513.917	14588
513.988	15323
514.060	21947
514.131	29414
514.203	14512
514.274	10874
514.345	20286
514.417	33549
514.488	13639
514.560	21015
514.631	30718
514.702	25902
514.773	21509
514.845	16707
514.916	17911
514.987	19429
515.059	29158
515.130	20986
515.201	22992
515.272	25174
515.343	16781
515.414	13784
515.486	11317
515.557	11904
515.628	10003
515.699	11956
515.770	14359
515.841	13527
515.912	14714
515.983	17447
516.055	32395
516.126	46757
516.197	26443
516.268	23099
516.339	31680
516.410	46137
516.481	74375
516.552	245678
516.622	493055
516.693	60329
516.764	61421
516.835	39822
516.906	52127
516.977	101160
517.048	215267
517.119	654985
517.190	333403
517.260	115601
517.331	19189
517.402	16132
517.473	14304
517.544	13606
517.614	14802
517.685	15643
517.756	18782
517.827	25214
517.897	31483
517.968	47138
518.039	70650
518.109	146696
518.180	572934
518.250	918086
518.321	86075
518.392	25803
518.462	28162
518.533	23891
518.603	28041
518.674	47922
518.745	86989
518.815	41880
518.886	30702
518.956	52347
519.027	107259
519.097	149707
519.168	165906
519.238	33791
519.309	32770
519.379	50426
519.449	26424
519.520	13428
519.590	11294
519.660	12239
519.731	17512
519.801	11832
519.871	10691
519.942	13329
520.012	16000
520.082	27886
520.153	15536
520.223	8604
520.293	11640
520.363	9127
520.434	16090
520.504	15040
520.574	12781
520.644	20057
520.714	34967
520.784	31460
520.855	84571
520.925	142910
520.995	16625
521.065	12440
521.135	10694
521.205	10937
521.275	10714
521.345	21354
521.415	28516
521.485	30541
521.555	20368
521.625	24481
521.695	13137
521.765	10080
521.835	15158
521.905	9787
521.975	9770
522.045	10614
522.115	17276
522.185	23251
522.254	39649
522.324	61639
522.394	39162
522.464	46751
522.534	153249
522.603	197437
522.673	22642
522.743	16040
522.813	23366
522.883	28720
522.952	18849
523.022	26417
523.092	61778
523.161	213203
523.231	52810
523.301	12360
523.370	12793
523.440	11494
523.509	8794
523.579	7836
523.649	7449
523.718	11913
523.788	7469
523.857	6341
523.927	7017
523.996	8636
524.066	11688
524.135	18117
524.205	7873
524.274	7885
524.344	7163
524.413	8418
524.483	9111
524.552	12311
524.621	9112
524.691	7786
524.760	6895
524.830	8806
524.899	14568
524.968	13580
525.038	9752
525.107	10169
525.176	8303
525.245	10149
525.315	8085
525.384	9402
525.453	11980
525.522	7979
525.591	7159
525.661	9580
525.730	8995
525.799	13551
525.868	21436
525.937	26083
526.006	63044
526.076	105806
526.145	56744
526.214	54127
526.283	80852
526.352	75960
526.421	173970
526.490	121303
526.559	93546
526.628	47005
526.697	75323
526.766	223979
526.835	548698
526.904	387027
526.973	64411
527.042	16966
527.110	14657
527.179	24078
527.248	14314
527.317	10624
527.386	8776
527.455	8590
527.523	7933
527.592	7762
527.661	6977
527.730	8699
527.799	8624
527.867	7810
527.936	12425
528.005	25633
528.074	37768
528.142	21543
528.211	55572
528.280	34175
528.348	10857
528.417	5580
528.485	6340
528.554	6304
528.623	5866
528.691	7199
528.760	6560
528.828	5865
528.897	4970
528.965	4320
529.034	6035
529.102	4630
529.171	6759
529.239	6374
529.308	6070
529.376	6045
529.445	10190
529.513	7001
529.581	12340
529.650	11746
529.718	12153
529.786	7233
529.855	6548
529.923	6408
529.992	8755
530.060	19055
530.128	24200
530.196	6877
530.265	5196
530.333	5623
530.401	5431
530.469	4348
530.537	5940
530.606	8428
530.674	5857
530.742	5447
530.810	4868
530.878	5746
530.946	6102
531.014	5381
531.083	5355
531.151	5818
531.219	5106
531.287	6005
531.355	5058
531.423	6987
531.491	8730
531.559	9621
531.627	5692
531.695	6558
531.763	6247
531.831	6707
531.898	7250
531.966	9846
532.034	11955
532.102	14229
532.170	21153
532.238	57391
532.306	111316
532.374	24505
532.441	19753
532.509	28191
532.577	59043
532.645	227658
532.712	214677
532.780	25018
532.848	9818
532.916	8335
532.983	6793
533.051	7013
533.119	8059
533.186	9184
533.254	5844
533.322	5733
533.389	6602
533.457	6645
533.524	8516
533.592	8963
533.659	8143
533.727	9128
533.794	15627
533.862	38444
533.930	31630
533.997	33645
534.064	7184
534.132	7247
534.199	7256
534.267	6971
534.334	6802
534.402	5754
534.469	4563
534.536	7545
534.604	7964
534.671	11175
534.738	19875
534.806	61464
534.873	26976
534.940	9641
535.008	8777
535.075	5917
535.142	7074
535.209	9290
535.276	6550
535.344	5743
535.411	4218
535.478	4724
535.545	5638
535.612	7055
535.679	6139
535.747	5385
535.814	5797
535.881	5800
535.948	7514
536.015	7773
536.082	8258
536.149	10174
536.216	13124
536.283	21052
536.350	34889
536.417	24998
536.484	20941
536.551	30987
536.618	44775
536.685	24751
536.752	25295
536.818	48131
536.885	64888
536.952	64462
537.019	187149
537.086	42695
537.153	8769
537.219	10445
537.286	7318
537.353	6081
537.420	5661
537.487	7028
537.553	7350
537.620	9408
537.687	7099
537.753	6914
537.820	10101
537.887	9904
537.953	10757
538.020	14038
538.087	20765
538.153	48608
538.220	69324
538.286	18538
538.353	8541
538.419	6989
538.486	6012
538.553	7387
538.619	5897
538.685	6984
538.752	8911
538.818	14168
538.885	10532
538.951	9172
539.018	12133
539.084	12129
539.150	18931
539.217	25618
539.283	9143
539.350	10303
539.416	14081
539.482	20561
539.549	65659
539.615	73577
539.681	12778
539.747	10627
539.814	9449
539.880	16265
539.946	17456
540.012	14152
540.078	14552
540.145	21912
540.211	40622
540.277	80159
540.343	45756
540.409	72841
540.475	90607
540.541	11481
540.607	8913
540.673	7949
540.740	11460
540.806	16414
540.872	19329
540.937	33538
541.004	23570
541.069	10986
541.135	10609
541.201	14446
541.267	20318
541.333	40211
541.399	54199
541.465	18089
541.531	8483
541.597	7918
541.663	6708
541.728	6937
541.794	7068
541.860	8247
541.926	8558
541.992	10223
542.057	12298
542.123	19870
542.189	34651
542.255	69631
542.320	41808
542.386	13258
542.452	10024
542.517	9905
542.583	9109
542.648	13114
542.714	18904
542.780	44478
542.845	111573
542.911	24701
542.976	6616
543.042	8147
543.107	8577
543.173	12550
543.238	16688
543.304	49325
543.369	32439
543.435	6273
543.500	6563
543.566	8240
543.631	4450
543.697	4995
543.762	4880
543.827	4937
543.893	5173
543.958	6535
544.023	5773
544.089	7328
544.154	7471
544.219	8753
544.284	15107
544.350	25667
544.415	24874
544.480	28290
544.545	84506
544.610	51362
544.676	7463
544.741	6968
544.806	6595
544.871	6359
544.936	6670
545.001	6821
545.066	8633
545.132	10212
545.197	12740
545.262	17291
545.327	25420
545.392	57683
545.457	65868
545.522	11543
545.587	8722
545.652	6112
545.717	7279
545.781	6166
545.846	7005
545.911	8537
545.976	9715
546.041	10494
546.106	14883
546.171	23290
546.236	17347
546.300	9208
546.365	4954
546.430	8412
546.495	10246
546.559	10818
546.624	6369
546.689	7082
546.754	6286
546.818	6947
546.883	6809
546.948	8425
547.012	8519
547.077	9892
547.142	10538
547.206	12582
547.271	16371
547.335	12894
547.400	11973
547.464	16119
547.529	22950
547.594	16143
547.658	13671
547.722	10027
547.787	9076
547.852	9685
547.916	11484
547.980	16486
548.045	16803
548.109	10840
548.174	9590
548.238	9486
548.302	8463
548.367	8187
548.431	8928
548.495	9511
548.560	10725
548.624	11769
548.688	16323
548.752	12704
548.817	9729
548.881	16022
548.945	9914
549.009	8188
549.073	9594
549.138	7609
549.202	10371
549.266	9188
549.330	8981
549.394	9934
549.458	9208
549.522	10218
549.586	15088
549.650	18763
549.715	11731
549.779	9089
549.843	10626
549.907	11568
549.971	13028
550.034	15075
550.098	10400
550.162	11625
550.226	14402
550.290	15169
550.354	10910
550.418	12881
550.482	14002
550.546	22689
550.609	14901
550.673	11644
550.737	12598
550.801	12937
550.865	13946
550.928	16729
550.992	19658
551.056	26969
551.120	47675
551.183	35451
551.247	25985
551.311	49323
551.374	27931
551.438	12809
551.502	10972
551.565	9625
551.629	10809
551.692	11177
551.756	9165
551.819	10581
551.883	8297
551.946	10053
552.010	9440
552.073	9582
552.137	10327
552.200	9832
552.264	9438
552.327	10077
552.391	10649
552.454	11553
552.517	11900
552.581	11843
552.644	15040
552.708	22604
552.771	22196
552.834	13420
552.897	11811
552.961	12070
553.024	9724
553.087	9571
553.151	10050
553.214	10430
553.277	11336
553.340	13332
553.403	21683
553.466	17895
553.530	9950
553.593	10026
553.656	11152
553.719	9568
553.782	10639
553.845	9435
553.908	8071
553.971	8882
554.034	8337
554.097	9698
554.160	10287
554.223	12310
554.286	10701
554.349	10638
554.412	9304
554.475	9640
554.538	10928
554.601	10022
554.664	9095
554.727	8974
554.789	7131
554.852	7511
554.915	7018
554.978	9001
555.041	8465
555.104	8250
555.166	8861
555.229	9163
555.292	8405
555.354	12621
555.417	9120
555.480	7155
555.542	6761
555.605	7469
555.668	8481
555.730	7835
555.793	6930
555.856	7315
555.918	7604
555.981	7642
556.043	7811
556.106	8980
556.168	11179
556.231	12268
556.293	9466
556.356	11022
556.418	18912
556.481	13530
556.543	8304
556.606	7984
556.668	10409
556.730	11260
556.793	17501
556.855	29818
556.918	11450
556.980	9993
557.042	12678
557.104	23318
557.167	45357
557.229	17076
557.291	7517
557.354	8378
557.416	8160
557.478	16278
557.540	10653
557.602	5569
557.664	6262
557.727	8195
557.789	7428
557.851	7948
557.913	10298
557.975	15400
558.037	31411
558.099	40436
558.161	11109
558.223	11037
558.285	12964
558.347	16970
558.409	23334
558.471	35180
558.533	72310
558.595	79044
558.657	71413
558.719	183379
558.781	225510
558.843	47713
558.905	47001
558.966	17565
559.028	13464
559.090	15744
559.152	22935
559.214	36132
559.275	81361
559.337	154428
559.399	35297
559.461	15250
559.522	17043
559.584	22540
559.646	37648
559.707	97961
559.769	72353
559.831	17302
559.892	15980
559.954	28340
560.015	48595
560.077	24863
560.139	40782
560.200	38522
560.262	9816
560.323	6629
560.385	5593
560.446	4881
560.508	5278
560.569	4720
560.631	4555
560.692	5735
560.753	5769
560.815	4823
560.876	4817
560.937	5753
560.999	5788
561.060	8070
561.122	7183
561.183	9708
561.244	13743
561.305	18017
561.367	29869
561.428	76777
561.489	52780
561.550	9301
561.612	7637
561.673	6491
561.734	6173
561.795	5931
561.856	4635
561.917	6187
561.978	5160
562.039	5557
562.101	6209
562.162	6450
562.223	7906
562.284	11220
562.345	16643
562.406	8533
562.467	5340
562.528	4662
562.589	3921
562.649	5772
562.710	4221
562.771	5488
562.832	5181
562.893	4824
562.954	6232
563.015	6205
563.076	3592
563.136	5406
563.197	4846
563.258	7100
563.319	6107
563.380	5206
563.440	7122
563.501	6718
563.562	6667
563.622	7563
563.683	7497
563.744	8125
563.804	4778
563.865	5131
563.926	5746
563.986	6480
564.047	7199
564.107	6439
564.168	6821
564.229	9447
564.289	17092
564.350	9380
564.410	5414
564.471	5816
564.531	4813
564.591	5298
564.652	6327
564.712	8220
564.773	7284
564.833	6223
564.893	5881
564.954	6175
565.014	5881
565.074	5540
565.135	6049
565.195	4908
565.255	6743
565.316	7234
565.376	7156
565.436	9437
565.496	7403
565.557	6532
565.617	8387
565.677	8387
565.737	15671
565.797	14084
565.857	7961
565.917	9012
565.978	10707
566.038	12059
566.098	19768
566.158	19530
566.218	9549
566.278	7753
566.338	7106
566.398	7577
566.458	8950
566.518	8335
566.578	9333
566.638	9827
566.698	8652
566.757	9158
566.817	9163
566.877	10600
566.937	9576
566.997	9410
567.057	10027
567.116	10737
567.176	11150
567.236	12963
567.296	11977
567.355	13698
567.415	15780
567.475	13905
567.535	10420
567.594	10159
567.654	10604
567.714	13346
567.773	14201
567.833	15687
567.892	19034
567.952	23309
568.012	27635
568.071	36977
568.131	49560
568.190	59586
568.250	53224
568.309	48289
568.369	43277
568.428	41393
568.488	44230
568.547	53092
568.607	60114
568.666	78402
568.725	102319
568.785	95458
568.844	79478
568.903	61973
568.963	50113
569.022	41254
569.081	32690
569.141	28273
569.200	23938
569.259	21696
569.318	17972
569.378	16143
569.437	13981
569.496	13679
569.555	11767
569.614	11633
569.673	10663
569.732	10875
569.792	9589
569.851	9099
569.910	9399
569.969	10250
570.028	10643
570.087	9954
570.146	8760
570.205	8604
570.264	7941
570.323	6838
570.382	8595
570.441	8928
570.500	9428
570.559	7918
570.618	8095
570.676	9413
570.735	9375
570.794	10011
570.853	9356
570.912	7052
570.971	5656
571.029	6954
571.088	6524
571.147	6312
571.206	6312
571.264	6089
571.323	5304
571.382	8289
571.440	6268
571.499	5697
571.558	5793
571.616	4984
571.675	5443
571.733	5395
571.792	4290
571.851	5117
571.909	5357
571.968	4333
572.026	4615
572.085	4260
572.143	3813
572.202	4467
572.260	3399
572.319	4524
572.377	3626
572.435	4316
572.494	3004
572.552	4605
572.611	5108
572.669	3593
572.727	3983
572.786	4011
572.844	3146
572.902	3680
572.960	2660
573.019	4752
573.077	5054
573.135	4362
573.193	3152
573.251	3405
573.310	3184
573.368	3295
573.426	4008
573.484	3528
573.542	3303
573.600	4323
573.658	3771
573.716	4607
573.774	5602
573.832	5449
573.891	5240
573.948	3697
574.006	4130
574.064	3383
574.122	2923
574.180	3263
574.238	3299
574.296	2972
574.354	2626
574.412	2496
574.470	3108
574.528	3075
574.585	2748
574.643	4139
574.701	3739
574.759	2614
574.817	3078
574.874	2893
574.932	3373
574.990	3534
575.047	4527
575.105	5026
575.163	4533
575.221	5877
575.278	2355
575.336	3429
575.393	2660
575.451	2923
575.509	2712
575.566	4017
575.624	3083
575.681	2735
575.739	2658
575.796	3265
575.854	3424
575.911	3635
575.969	4896
576.026	4892
576.083	6475
576.141	7138
576.198	9667
576.256	5792
576.313	3444
576.370	4671
576.428	4737
576.485	5358
576.542	4039
576.599	3316
576.657	2551
576.714	3570
576.771	3551
576.828	3019
576.886	3890
576.943	3513
577.000	2875
577.057	3268
577.114	4213
577.171	4347
577.228	3977
577.286	5620
577.343	4738
577.400	4150
577.457	3577
577.514	3345
577.571	2904
577.628	2614
577.685	2911
577.742	4010
577.799	3976
577.855	3511
577.912	2935
577.969	3727
578.026	3669
578.083	4010
578.140	3678
578.197	4408
578.254	4080
578.310	3724
578.367	4036
578.424	5322
578.481	3971
578.537	4843
578.594	2881
578.651	2701
578.707	3139
578.764	2873
578.821	2532
578.877	4475
578.934	2584
578.991	4728
579.047	3684
579.104	3656
579.160	2711
579.217	2755
579.273	3266
579.330	3521
579.387	2151
579.443	3531
579.499	2540
579.556	3064
579.612	3878
579.669	3718
579.725	4131
579.782	2407
579.838	2633
579.894	3194
579.951	3326
580.007	3960
580.063	2929
580.120	4046
580.176	3953
580.232	3930
580.288	4797
580.345	6094
580.401	3817
580.457	4407
580.513	3758
580.569	3596
580.619	4002
580.625	4072
580.682	2868
580.692	2917
580.738	3171
580.765	3208
580.794	3261
580.838	3429
580.850	3483
580.906	2770
580.911	2843
580.962	3797
580.984	3507
581.018	3041
581.057	2767
581.074	2675
581.130	3257
581.130	3265
581.186	3892
581.203	3548
581.242	2864
581.276	3221
581.298	3434
581.349	3167
581.354	3154
581.410	3235
581.422	3466
581.466	4284
581.494	4295
581.522	4401
581.567	3920
581.577	3797
581.633	1906
581.640	2060
581.689	3403
581.713	2825
581.745	1937
581.786	2630
581.801	2920
581.857	2488
581.859	2500
581.912	2887
581.932	2893
581.968	3011
582.004	2901
582.024	2762
582.077	2537
582.080	2542
582.135	3713
582.150	3563
582.191	3058
582.223	3196
582.247	3420
582.296	3497
582.302	3486
582.358	2603
582.368	2682
582.414	3198
582.441	3421
582.469	3538
582.514	2814
582.525	2683
582.581	4022
582.587	3974
582.636	3374
582.659	3165
582.692	3065
582.732	3266
582.747	3337
582.803	3695
582.805	3667
582.858	2956
582.877	3029
582.914	3097
582.950	2920
582.969	2921
583.023	3296
583.025	3305
583.080	3709
583.095	3534
583.135	3266
583.168	2983
583.191	2679
583.240	2678
583.246	2708
583.302	2799
583.313	2917
583.357	3142
583.385	3217
583.412	3419
583.458	2952
583.468	2834
583.523	2655
583.531	2824
583.578	4117
583.603	3842
583.634	3219
583.676	3574
583.689	3772
583.744	3789
583.748	3742
583.799	3071
583.820	3154
583.854	3366
583.893	3496
583.910	3494
583.965	2865
583.965	2872
584.020	4370
584.038	4321
584.075	3761
584.110	3702
584.130	3864
584.183	3443
584.185	3395
584.240	3859
584.255	3812
584.296	4050
584.328	4036
584.351	3864
584.400	3232
584.406	3210
584.461	4217
584.472	4156
584.516	3538
584.545	3866
584.571	4231
584.617	4635
584.626	4707
584.681	3727
584.689	3737
584.736	4062
584.762	4241
584.791	4334
584.834	4301
584.846	4326
584.900	5016
584.906	5075
584.955	5075
584.978	4831
585.010	4980
585.051	5223
585.065	5212
585.120	5662
585.123	5689
585.175	6114
585.195	6334
585.230	6615
585.267	7305
585.284	7835
585.339	8691
585.340	8696
585.394	8897
585.412	9513
585.449	11489
585.484	12839
585.503	13295
585.556	17283
585.558	17480
585.613	27781
585.628	30356
585.667	38045
585.700	27269
585.722	21336
585.772	19697
585.777	18627
585.831	10991
585.845	9285
585.886	8098
585.917	7268
585.941	7042
585.989	6594
585.995	6602
586.050	7328
586.061	7498
586.104	7599
586.133	7122
586.159	7048
586.205	7466
586.213	7515
586.268	7660
586.277	7653
586.322	7565
586.349	7958
586.377	8231
586.421	8298
586.431	8377
586.486	9271
586.493	9752
586.540	13052
586.565	11890
586.595	10944
586.637	10469
586.649	9940
586.703	9285
586.709	9208
586.758	8545
586.781	8143
586.812	8032
586.853	8786
586.866	9103
586.921	9074
586.925	9144
586.975	9317
586.996	9055
587.029	8953
587.068	9263
587.083	9357
587.138	9158
587.140	9179
587.192	9804
587.212	10011
587.246	10302
587.284	10325
587.300	10505
587.355	11506
587.356	11534
587.409	11618
587.427	11602
587.463	12291
587.499	13219
587.517	13405
587.571	13332
587.571	13328
587.625	14492
587.643	14877
587.679	15508
587.715	16048
587.733	16352
587.786	17726
587.787	17732
587.841	19051
587.858	19253
587.895	20682
587.930	22574
587.949	23416
588.001	25371
588.003	25454
588.057	29307
588.073	30417
588.111	32750
588.145	35910
588.165	38475
588.217	45048
588.219	45290
588.273	53003
588.288	55775
588.327	63925
588.360	72269
588.381	77525
588.431	93794
588.435	94671
588.489	116665
588.503	124335
588.542	144920
588.575	167292
588.596	182056
588.646	226434
588.650	229343
588.704	292291
588.718	314580
588.757	381914
588.789	451903
588.811	509932
588.861	660083
588.865	675588
588.919	781516
588.932	781677
588.972	732172
589.004	689070
589.026	593556
589.075	454688
589.080	439399
589.133	281793
589.147	246241
589.187	214853
589.218	198283
589.241	199336
589.290	212746
589.294	214289
589.348	254237
589.361	270582
589.401	325947
589.433	393140
589.455	457726
589.504	552752
589.508	563692
589.562	582491
589.576	588705
589.615	459537
589.647	399665
589.669	317883
589.718	152700
589.722	147828
589.776	88037
589.790	73696
589.829	60377
589.861	50030
589.883	46470
589.932	39494
589.936	38931
589.989	32161
590.004	30475
590.043	27816
590.075	26049
590.096	24768
590.146	21794
590.149	21708
590.203	20959
590.218	20768
590.256	19422
590.289	18314
590.309	18088
590.360	17697
590.362	17605
590.416	16172
590.431	15709
590.469	15520
590.503	15588
590.522	15339
590.574	14452
590.575	14435
590.629	14372
590.645	14337
590.682	13692
590.716	13371
590.735	13466
590.787	13245
590.788	13228
590.841	12230
590.859	11972
590.894	12672
590.930	13239
590.947	12928
591.000	12040
591.001	12032
591.053	12462
591.072	12535
591.106	11740
591.143	11075
591.159	11514
591.212	12776
591.214	12823
591.265	12491
591.285	12308
591.318	12310
591.356	12205
591.371	12072
591.424	11577
591.427	11557
591.477	11630
591.498	11564
591.530	11186
591.569	10804
591.583	10831
591.636	10867
591.640	10869
591.689	11176
591.711	11328
591.741	11538
591.782	11711
591.794	11535
591.847	10717
591.853	10616
591.900	11455
591.924	11890
591.953	11568
591.995	11054
592.005	11080
592.058	11116
592.066	11132
592.111	11122
592.137	11027
592.164	11526
592.208	12406
592.216	12353
592.269	11886
592.279	11790
592.322	11340
592.350	11017
592.374	10752
592.421	10218
592.427	10322
592.479	11156
592.491	11339
592.532	11283
592.562	11186
592.585	11389
592.633	11738
592.704	10026
592.775	9946
592.846	10974
592.916	11668
592.987	10663
593.058	11069
593.128	10590
593.199	10957
593.270	8949
593.341	10752
593.411	10356
593.482	10283
593.553	10400
593.623	9926
593.694	10370
593.764	11711
593.835	10217
593.906	10902
593.976	9387
594.047	11992
594.117	11927
594.188	12338
594.258	10348
594.329	11197
594.399	9679
594.470	12237
594.540	10842
594.611	11050
594.681	11071
594.751	11813
594.822	11107
594.892	12205
594.963	12392
595.033	12953
595.103	11683
595.174	13339
595.244	12406
595.314	14622
595.384	12594
595.455	13053
595.525	13335
595.595	13692
595.665	12226
595.736	14066
595.806	13029
595.876	13523
595.946	12370
596.016	12612
596.087	13062
596.157	13664
596.227	12913
596.297	14630
596.367	13906
596.437	15895
596.507	15624
596.577	17101
596.647	15635
596.717	16212
596.787	14704
596.857	15924
596.927	14374
596.997	15994
597.067	15414
597.137	15753
597.207	16002
597.277	16320
597.347	15390
597.417	16524
597.487	15791
597.557	15940
597.626	15318
597.696	16471
597.766	16806
597.836	17419
597.906	15339
597.975	14907
598.045	13839
598.115	15360
598.185	15615
598.254	17895
598.324	17138
598.394	18124
598.464	16515
598.533	17819
598.603	15851
598.672	16794
598.742	15477
598.812	16197
598.881	15246
598.951	17437
599.020	15886
599.090	16901
599.159	16185
599.229	17489
599.299	15893
599.368	15430
599.437	15811
599.507	16216
599.576	15453
599.646	16096
599.715	15007
599.785	14547
599.854	14883
599.924	15660
599.993	14281
600.062	15064
600.132	14380
600.201	15452
600.270	15795
600.340	18041
600.409	16649
600.478	18121
600.547	17102
600.617	18194
600.686	14131
600.755	13152
600.824	11753
600.894	14180
600.963	12257
601.032	12604
601.101	12424
601.170	11942
601.239	11536
601.308	12125
601.378	11810
601.447	11920
601.516	11335
601.585	12632
601.654	11189
601.723	12656
601.792	11958
601.861	12654
601.930	13080
601.999	14371
602.068	11162
602.137	12536
602.206	12527
602.275	13081
602.343	13168
602.412	13792
602.481	12660
602.550	13194
602.619	13311
602.688	14374
602.756	13033
602.825	14098
602.894	13113
602.963	14087
603.032	14181
603.100	13349
603.169	13344
603.238	14346
603.307	13721
603.375	14902
603.444	14269
603.513	15192
603.581	14101
603.650	15141
603.719	13761
603.787	13506
603.856	14083
603.924	14200
603.993	14526
604.061	15263
604.130	15220
604.198	16423
604.267	15760
604.335	16702
604.404	16394
604.472	17427
604.541	16270
604.609	17791
604.678	17160
604.746	17682
604.815	17429
604.883	18519
604.951	18054
605.020	18974
605.088	17806
605.156	19377
605.225	18568
605.293	19256
605.361	18029
605.429	18244
605.498	19221
605.566	18939
605.634	20335
605.702	21444
605.771	20344
605.839	21427
605.907	19366
605.975	20900
606.043	19789
606.111	20524
606.180	20420
606.248	20549
606.316	19197
606.384	19140
606.452	19795
606.520	20494
606.588	20038
606.656	19626
606.724	17693
606.792	18055
606.860	16445
606.928	15595
606.996	14384
607.064	14555
607.132	14270
607.200	15502
607.267	15644
607.335	16531
607.403	16023
607.471	16701
607.539	14597
607.607	15833
607.674	13529
607.742	14307
607.810	13804
607.878	13973
607.946	13099
608.013	14836
608.081	14519
608.149	15298
608.216	14792
608.284	16204
608.352	13984
608.419	15659
608.487	15070
608.555	15897
608.622	14464
608.690	16683
608.757	16546
608.825	18374
608.893	16610
608.960	16784
609.028	15451
609.095	16163
609.163	15527
609.230	15493
609.298	13246
609.365	13695
609.432	15031
609.500	16053
609.567	17291
609.635	21050
609.702	21511
609.769	21098
609.837	16533
609.904	14110
609.971	13727
610.039	16646
610.106	17186
610.173	24954
610.241	40356
610.308	36311
610.375	15840
610.442	14367
610.509	12906
610.577	13924
610.644	12686
610.711	15703
610.778	14676
610.845	15777
610.912	15801
610.980	17144
611.047	17111
611.114	17250
611.181	15389
611.248	16290
611.315	17038
611.382	17912
611.449	16478
611.516	19078
611.583	17983
611.650	18156
611.717	17523
611.784	17576
611.851	18373
611.918	21130
611.984	20986
612.051	29437
612.118	44702
612.185	79356
612.252	72613
612.319	24726
612.386	20655
612.452	20667
612.519	19173
612.586	20548
612.653	19992
612.719	20102
612.786	19645
612.853	18476
612.919	16633
612.986	18021
613.053	16756
613.120	16931
613.186	15336
613.253	16340
613.319	15488
613.386	15546
613.453	14773
613.519	16469
613.586	14945
613.652	18085
613.719	15967
613.785	16725
613.852	15158
613.918	15709
613.985	14882
614.051	15964
614.118	16474
614.184	16800
614.250	15724
614.317	16717
614.383	13548
614.449	15891
614.516	15373
614.582	16289
614.648	15520
614.715	15631
614.781	14994
614.847	15971
614.914	14786
614.980	15244
615.046	14304
615.112	14717
615.179	14681
615.245	15477
615.311	15556
615.377	16405
615.443	16246
615.509	15433
615.575	14954
615.642	15805
615.708	15503
615.774	17566
615.840	17173
615.906	19734
615.972	23229
616.038	33628
616.104	53288
616.170	91331
616.236	101962
616.302	31406
616.368	20824
616.434	18747
616.500	17590
616.565	18156
616.631	19222
616.697	18896
616.763	18254
616.829	21563
616.895	29382
616.961	29668
617.026	18734
617.092	15962
617.158	14991
617.224	15477
617.289	14229
617.355	14576
617.421	13910
617.487	14364
617.552	12649
617.618	13793
617.684	12759
617.749	15575
617.815	12286
617.880	12388
617.946	11731
618.012	13169
618.077	12304
618.143	13299
618.208	12681
618.274	13682
618.339	13389
618.405	12179
618.470	11650
618.536	11291
618.601	10284
618.667	12490
618.732	10826
618.798	10762
618.863	10574
618.928	10754
618.994	11152
619.059	12344
619.124	10982
619.190	11789
619.255	10698
619.320	10716
619.386	9173
619.451	9282
619.516	8701
619.581	10219
619.647	9267
619.712	11061
619.777	9175
619.842	9937
619.907	9565
619.972	10781
620.038	9996
620.103	10437
620.168	8530
620.233	10011
620.298	9211
620.363	9811
620.428	8931
620.493	9925
620.558	9463
620.623	11084
620.688	9633
620.753	9905
620.818	10387
620.883	10483
620.948	9628
621.013	10511
621.078	9998
621.143	10155
621.207	11515
621.272	11099
621.337	10271
621.402	11845
621.467	10482
621.532	11685
621.596	10200
621.661	10482
621.726	9781
621.791	10572
621.855	10225
621.920	10567
621.985	10707
622.049	11082
622.114	10657
622.179	11225
622.243	11048
622.308	11787
622.373	12598
622.437	11833
622.502	10160
622.566	10980
622.631	9983
622.695	12210
622.760	10101
622.824	11993
622.889	10912
622.953	11695
623.018	12480
623.082	12843
623.147	10683
623.211	11121
623.276	10120
623.340	11209
623.404	10298
623.469	10670
623.533	9903
623.597	10425
623.662	10061
623.726	9849
623.790	8744
623.854	9028
623.919	8558
623.983	8311
624.047	8757
624.111	9495
624.176	8764
624.240	9809
624.304	8889
624.368	10293
624.432	8586
624.496	10288
624.560	9841
624.625	9796
624.689	9428
624.753	10495
624.817	9566
624.881	9435
624.945	8191
625.009	8554
625.073	8468
625.137	9621
625.201	8698
625.265	10304
625.329	8764
625.393	8948
625.456	9418
625.520	9732
625.584	9294
625.648	10047
625.712	10661
625.776	15720
625.839	15968
625.903	11530
625.967	7417
626.031	10807
626.095	11577
626.158	9375
626.222	6255
626.286	7498
626.349	5203
626.413	5493
626.477	6948
626.540	6229
626.604	6573
626.668	6425
626.731	5926
626.795	6519
626.858	6401
626.922	5853
626.986	4563
627.049	5786
627.113	6208
627.176	6603
627.240	4852
627.303	5946
627.366	5380
627.430	6442
627.493	5048
627.557	6439
627.620	5051
627.684	5552
627.747	4937
627.810	5329
627.874	4443
627.937	4881
628.000	4919
628.064	5836
628.127	4470
628.190	4297
628.253	4531
628.317	4544
628.380	3961
628.443	3948
628.506	3856
628.569	4891
628.632	3025
628.696	5015
628.759	3540
628.822	3909
628.885	3411
628.948	3900
629.011	3054
629.074	3551
629.137	2705
629.200	3163
629.263	3584
629.326	3623
629.389	2589
629.452	4622
629.515	3382
629.578	3747
629.641	2456
629.704	3707
629.767	2685
629.830	3776
629.892	3147
629.955	3019
630.018	3746
630.081	4004
630.144	2968
630.207	3317
630.269	3147
630.332	3119
630.395	2850
630.458	3783
630.520	2252
630.583	3748
630.646	2690
630.708	3259
630.771	2501
630.834	3319
630.896	2040
630.959	2997
631.021	1749
631.084	3718
631.146	1881
631.209	4005
631.272	2069
631.334	3591
631.397	2279
631.459	3278
631.522	2444
631.584	2932
631.646	2646
631.709	3212
631.771	2444
631.834	3477
631.896	2112
631.958	3225
632.021	2740
632.083	2368
632.145	2164
632.208	2806
632.270	2614
632.332	2503
632.395	2013
632.457	3463
632.519	1439
632.581	2973
632.643	1378
632.706	3245
632.768	1455
632.830	3252
632.892	2870
632.954	3560
633.016	2251
633.078	2303
633.141	1863
633.203	2784
633.265	1965
633.327	2394
633.389	1504
633.451	3691
633.513	1694
633.575	3405
633.637	1705
633.698	2906
633.760	2020
633.822	3036
633.884	1623
633.946	2573
634.008	1910
634.070	2573
634.132	1083
634.193	1897
634.255	1866
634.317	2850
634.379	2628
634.441	2198
634.502	1286
634.564	2614
634.626	1077
634.687	2710
634.749	1569
634.811	2769
634.873	1429
634.934	2426
634.996	1745
635.057	1217
635.119	1256
635.181	2412
635.242	1884
635.304	1114
635.365	2471
635.427	1537
635.488	1259
635.550	2114
635.611	1448
635.673	676
635.734	1318
635.796	1947
635.857	1687
635.918	1435
635.980	1588
636.041	1629
636.102	996
636.164	1495
636.225	1794
636.286	1602
636.348	1637
636.409	1821
636.470	1079
636.531	2040
636.593	1222
636.654	3195
636.715	1684
636.776	1500
636.838	176
636.899	2080
636.960	758
637.021	1898
637.082	853
637.143	1288
637.204	164
637.265	1972
637.326	1768
637.387	1927
637.448	322
637.509	1736
637.570	838
637.631	1919
637.692	637
637.753	958
637.814	-98
637.875	1424
637.936	990
637.997	851
638.058	387
638.119	1765
638.179	796
638.240	1013
638.301	1161
638.362	861
638.423	484
638.483	2647
638.544	573
638.605	2140
638.666	433
638.726	2498
638.787	907
638.848	1323
638.908	666
638.969	1544
639.030	616
639.090	425
639.151	-80
639.211	1618
639.272	255
639.332	2144
639.393	1046
639.453	1310
639.514	162
639.574	1665
639.635	765
639.695	1736
639.756	-540
639.816	1635
639.877	481
639.937	2975
639.997	649
640.058	1102
640.118	476
640.178	1207
640.239	101
640.299	936
640.359	-254
640.420	1612
640.480	161
640.540	795
640.600	177
640.661	1391
640.721	-287
640.781	2410
640.841	-173
640.901	1250
640.961	-114
641.021	1267
641.082	-340
641.142	1301
641.202	1126
641.262	444
641.322	569
641.382	412
641.442	-446
641.502	1045
641.562	398
641.622	435
641.682	478
641.742	906
641.802	118
641.861	968
641.921	-362
641.981	1093
642.041	641
642.101	1440
642.161	-495
642.221	1010
642.280	309
642.340	11
642.400	-649
642.460	1816
642.519	450
642.579	511
642.639	825
642.698	-181
642.758	1695
642.818	415
642.877	-269
642.937	902
642.997	-62
643.056	535
643.116	-976
643.175	2327
643.235	313
643.294	1120
643.354	436
643.414	1139
643.473	561
643.532	492
643.592	984
643.651	2149
643.711	4206
643.770	10178
643.830	16534
643.889	36923
643.948	17386
644.008	1916
644.067	127
644.126	845
644.186	671
644.245	1022
644.304	-450
644.363	2131
644.423	-497
644.482	446
644.541	85
644.600	-19
644.659	490
644.719	629
644.778	-132
644.837	1595
644.896	3340
644.955	6643
645.014	3693
645.073	871
645.132	-660
645.191	1134
645.250	185
645.309	1233
645.368	-223
645.427	946
645.486	-384
645.545	1228
645.604	-952
645.663	1079
645.722	-814
645.781	1369
645.840	-219
645.898	1091
645.957	1127
646.016	2237
646.075	3054
646.134	7800
646.192	15562
646.251	25932
646.310	7813
646.369	1676
646.427	290
646.486	-628
646.545	-135
646.603	1462
646.662	-464
646.721	934
646.779	-270
646.838	-820
646.896	135
646.955	800
647.014	959
647.072	1800
647.131	3645
647.189	3098
647.248	-103
647.306	569
647.365	626
647.423	-822
647.481	776
647.540	-33
647.598	-402
647.657	429
647.715	249
647.773	326
647.832	198
647.890	-609
647.948	-1165
648.007	378
648.065	-1041
648.123	209
648.181	-192
648.240	697
648.298	-948
648.356	-180
648.414	-546
648.472	332
648.531	-1026
648.589	243
648.647	-1035
648.705	4
648.763	-984
648.821	824
648.879	-923
648.937	344
648.995	89
649.053	-385
649.111	140
649.169	1727
649.227	2060
649.285	4817
649.343	10905
649.401	10889
649.459	1743
649.516	1803
649.574	-908
649.632	1375
649.690	974
649.748	1083
649.806	-1259
649.863	2126
649.921	2130
649.979	3045
650.037	-160
650.094	-1374
650.152	170
650.210	443
650.268	504
650.325	-631
650.383	-915
650.440	-451
650.498	-812
650.556	194
650.613	-1275
650.671	206
650.728	-1343
650.786	367
650.843	-518
650.901	-577
650.958	-380
651.016	304
651.073	-503
651.131	615
651.188	-1202
651.246	763
651.303	-1465
651.360	249
651.418	-734
651.475	196
651.532	-1469
651.590	266
651.647	-689
651.704	-196
651.762	-1196
651.819	-66
651.876	-935
651.933	-401
651.990	-358
652.048	-121
652.105	-965
652.162	753
652.219	-1250
652.276	617
652.333	-587
652.390	-516
652.448	-1505
652.505	-11
652.562	-713
652.619	136
652.676	-354
652.733	664
652.790	-631
652.847	-1041
652.904	-420
652.961	-704
653.017	-1455
653.074	152
653.131	-398
653.188	-1060
653.245	-185
653.302	-551
653.359	-1383
653.415	738
653.472	-1274
653.529	-321
653.586	-1491
653.642	-469
653.699	-429
653.756	-697
653.813	-1022
653.869	96
653.926	-844
653.983	-42
654.039	-686
654.096	332
654.152	81
654.209	-686
654.266	-659
654.322	-637
654.379	-1179
654.435	-532
654.492	-966
654.548	78
654.605	-782
654.661	-178
654.717	-922
654.774	311
654.830	121
654.887	-74
654.943	-1149
655.000	53
655.056	-1838
655.112	-374
655.168	-1316
655.225	-639
655.281	-897
655.337	-1589
655.394	-788
655.450	71
655.506	-500
655.562	-261
655.618	454
655.675	-334
655.731	-1026
655.787	-538
655.843	-515
655.899	-823
655.955	-431
656.011	-692
656.067	-1721
656.123	55
656.179	-1335
656.235	-78
656.291	-909
656.347	662
656.403	-656
656.459	-400
656.515	-1756
656.571	-416
656.627	-676
656.683	-449
656.739	-602
656.795	-970
656.850	-1476
656.906	-55
656.962	-688
657.018	-605
657.074	-1906
657.129	-676
657.185	-346
657.241	-416
657.297	-1165
657.352	-291
657.408	-1476
657.464	722
657.519	-1853
657.575	-1316
657.630	-905
657.686	-474
657.742	-2203
657.797	-13
657.853	-1571
657.908	132
657.964	-1537
658.019	-743
658.075	-564
658.130	592
658.186	-1821
658.241	-180
658.297	-1900
658.352	-979
658.407	-1680
658.463	-1049
658.518	-1088
658.573	160
658.629	-1057
658.684	-656
658.739	-137
658.795	-855
658.850	-1198
658.905	-280
658.960	-400
659.016	-811
659.071	-1388
659.126	-350
659.181	-1491
659.236	791
659.291	-605
659.346	178
659.401	-2031
659.457	187
659.512	-1483
659.567	433
659.622	-1141
659.677	-1172
659.732	-1388
659.787	-109
659.842	-1333
659.897	345
659.952	-518
660.007	-41
660.061	-1145
660.116	-1146
660.171	-1272
660.226	-62
660.281	-491
660.336	-905
660.391	-451
660.445	-1202
660.500	-1056
660.555	-508
660.610	-1487
660.664	439
660.719	-942
660.774	85
660.828	-979
660.883	-114
660.938	-1108
660.992	-691
661.047	-440
661.101	-932
661.156	-1320
661.211	-477
661.265	-859
661.320	-479
661.374	-1556
661.429	-624
661.483	-1034
661.538	-226
661.592	-1918
661.647	-678
661.701	-872
661.755	194
661.810	-914
661.864	-1190
661.919	-2081
661.973	-269
662.027	-1641
662.081	-853
662.136	-1754
662.190	-333
662.244	-861
662.299	-481
662.353	-1040
662.407	-96
662.461	-1340
662.515	-100
662.569	-1914
662.624	572
662.678	-1522
662.732	-147
662.786	-1207
662.840	-519
662.894	-1011
662.948	-591
663.002	-959
663.056	-177
663.110	-1770
663.164	-272
663.218	-590
663.272	-417
663.326	-428
663.380	-551
663.434	-1727
663.488	-1588
663.542	-1376
663.595	270
663.649	-1954
663.703	-689
663.757	-977
663.811	-599
663.864	-1701
663.918	-16
663.972	-1226
664.026	-64
664.079	-1407
664.133	25
664.187	-1143
664.240	-935
664.294	-1020
664.348	-522
664.401	-978
664.455	116
664.508	-1241
664.562	-340
664.615	-965
664.669	23
664.722	-1476
664.776	-926
664.829	-1103
664.883	-766
664.936	-1134
664.990	312
665.043	-871
665.097	-298
665.150	-128
665.203	-978
665.257	-1664
665.310	584
665.363	-1612
665.417	67
665.470	-1456
665.523	-428
665.576	-1120
665.630	-531
665.683	-1112
665.736	-605
665.789	-920
665.842	-437
665.895	-1153
665.949	438
666.002	-1061
666.055	245
666.108	-741
666.161	-132
666.214	-1172
666.267	-525
666.320	-1153
666.373	306
666.426	-1107
666.479	-685
666.532	-1479
666.585	-320
666.638	39
666.691	-389
666.744	-86
666.796	-1134
666.849	-1235
666.902	-40
666.955	-1174
667.008	112
667.060	-1455
667.113	-755
667.166	-921
667.219	11
667.271	-1786
667.324	-270
667.377	-1580
667.430	-409
667.482	-1690
667.535	283
667.587	-1269
667.640	-221
667.693	-1334
667.745	350
667.798	-873
667.850	-463
667.903	-1277
667.955	-516
668.008	-1197
668.060	191
668.113	-1317
668.165	-72
668.218	-1370
668.270	272
668.322	-1048
668.375	-359
668.427	-762
668.479	-546
668.532	-982
668.584	-530
668.636	-1383
668.689	192
668.741	-1813
668.793	102
668.845	-518
668.898	-722
668.950	-1085
669.002	-376
669.054	-1376
669.106	-800
669.158	-667
669.211	-99
669.263	-368
669.315	-170
669.367	-1320
669.419	-538
669.471	-621
669.523	-736
669.575	-297
669.627	-581
669.679	-1432
669.731	-523
669.783	-336
669.835	119
669.886	-1458
669.938	-774
669.990	-1051
670.042	-818
670.094	-1572
670.146	-211
670.197	-537
670.249	-204
670.301	-1710
670.353	574
670.404	-733
670.456	396
670.508	-108
670.560	1799
670.611	2064
670.663	5429
670.715	8282
670.766	17803
670.818	11009
670.869	1015
670.921	-1124
670.972	-524
671.024	-1388
671.075	393
671.127	-1059
671.178	-553
671.230	-1241
671.281	-75
671.333	-1186
671.384	-779
671.436	-2016
671.487	-556
671.538	-1338
671.590	-653
671.641	-257
671.692	879
671.744	25
671.795	1706
671.846	-470
671.897	-122
671.949	-1491
672.000	-66
672.051	-586
672.102	118
672.153	-1468
672.204	-478
672.256	-1222
672.307	-618
672.358	-1377
672.409	-505
672.460	-116
672.511	-659
672.562	-1658
672.613	-995
672.664	-1046
672.715	-16
672.766	-648
672.817	-268
672.868	-1219
672.919	-306
672.970	-1526
673.021	-528
673.071	-2068
673.122	489
673.173	-1477
673.224	-758
673.275	-947
673.326	-727
673.376	-747
673.427	-1203
673.478	-1562
673.528	-464
673.579	-1743
673.630	-841
673.680	-748
673.731	-624
673.782	-1274
673.832	109
673.883	-1172
673.934	-409
673.984	-1270
674.035	-171
674.085	-1363
674.136	-184
674.186	-2027
674.237	86
674.287	-1618
674.338	-441
674.388	-935
674.438	-1075
674.489	-858
674.539	-583
674.589	-830
674.640	-424
674.690	-1373
674.740	-1042
674.791	-1795
674.841	44
674.891	-1028
674.942	-430
674.992	-1951
675.042	-1028
675.092	-1308
675.142	-1422
675.193	-1515
675.243	-691
675.293	-1479
675.343	-738
675.393	-1481
675.443	-15
675.493	-1900
675.543	-904
675.593	-1676
675.643	-317
675.693	-1356
675.743	67
675.793	-1215
675.843	-1523
675.893	-1684
675.943	-326
675.993	-663
676.043	-482
676.093	-1160
676.142	-653
676.192	-1105
676.242	-320
676.292	-1898
676.341	-376
676.391	-950
676.441	-24
676.491	-1387
676.540	-525
676.590	-1117
676.640	-902
676.689	-2314
676.739	-474
676.789	-1117
676.838	-1354
676.888	-1567
676.937	-1108
676.987	-1270
677.037	-616
677.086	-2127
677.136	-835
677.185	-1931
677.235	-579
677.284	-1886
677.333	-1627
677.383	-878
677.432	-818
677.482	-911
677.531	-127
677.580	-1568
677.630	-910
677.679	-1586
677.728	-774
677.778	-1092
677.827	-586
677.876	-1144
677.925	-505
677.975	-1074
678.024	-96
678.073	-1773
678.122	-610
678.171	-1890
678.220	-252
678.269	-1198
678.319	-491
678.368	-1794
678.417	-421
678.466	-1088
678.515	-561
678.564	-1369
678.613	-638
678.662	-1491
678.711	-820
678.760	-718
678.809	-663
678.857	-1309
678.906	-613
678.955	-1835
679.004	150
679.053	-1077
679.102	-1053
679.151	-1539
679.199	-419
679.248	-1367
679.297	-890
679.346	-953
679.394	-472
679.443	-1511
679.492	-1246
679.540	-1924
679.589	-1052
679.638	-1459
679.686	-1
679.735	-1611
679.784	298
679.832	-2041
679.881	237
679.929	-1474
679.978	-886
680.026	-1933
680.075	-864
680.123	-1187
680.172	-651
680.220	-1206
680.268	-733
680.317	-1363
680.365	-1082
680.414	-1191
680.462	-778
680.510	-1528
680.559	-916
680.607	-2121
680.655	-972
680.703	-1374
680.752	-800
680.800	-1254
680.848	-1062
680.896	-1999
680.945	-809
680.993	-1679
681.041	-978
681.089	-1761
681.137	-875
681.185	-2508
681.233	-1451
681.281	-1669
681.308	-1333
681.329	-1078
681.377	-1659
681.425	-388
681.430	-457
681.473	-1283
681.521	-444
681.552	-1097
681.569	-1497
681.617	-609
681.665	-1021
681.674	-814
681.713	40
681.761	-1714
681.796	-568
681.809	-163
681.857	-673
681.904	-896
681.918	-997
681.952	-1303
682.000	-153
682.039	-871
682.048	-1042
682.096	-475
682.143	-822
682.161	-627
682.191	-321
682.239	-486
682.283	-565
682.286	-592
682.334	-269
682.382	-455
682.405	-809
682.430	-1179
682.477	-241
682.525	-1154
682.527	-1101
682.572	-220
682.620	-1080
682.648	-23
682.667	674
682.715	-473
682.763	525
682.770	332
682.810	-695
682.857	278
682.892	-754
682.905	-1171
682.952	-82
683.000	-439
683.014	-354
683.047	-180
683.095	-51
683.135	672
683.142	780
683.190	20
683.237	-89
683.257	-266
683.284	-510
683.332	112
683.379	-258
683.379	-247
683.426	759
683.473	-505
683.501	-241
683.521	-73
683.568	81
683.615	349
683.622	307
683.662	15
683.709	880
683.744	313
683.757	112
683.804	371
683.851	402
683.865	384
683.898	316
683.945	666
683.987	624
683.992	613
684.039	1192
684.086	1259
684.109	567
684.133	-191
684.180	1023
684.227	408
684.230	430
684.274	663
684.321	799
684.352	999
684.368	1094
684.415	541
684.462	1639
684.473	1264
684.509	90
684.556	882
684.595	1406
684.603	1494
684.649	982
684.696	418
684.716	840
684.743	1517
684.790	712
684.837	1220
684.838	1227
684.883	1352
684.930	1105
684.959	1320
684.977	1485
685.023	1641
685.070	1116
685.081	1259
685.117	1549
685.164	721
685.202	1554
685.210	1767
685.257	1126
685.303	1834
685.324	1737
685.350	1551
685.396	1645
685.443	1174
685.445	1218
685.490	2378
685.536	1884
685.566	2297
685.583	2495
685.629	1666
685.675	2601
685.688	2477
685.722	2049
685.768	2652
685.809	2033
685.815	1974
685.861	2640
685.908	1590
685.930	1825
685.954	2043
686.000	1565
686.047	2201
686.052	2151
686.093	2083
686.139	3157
686.173	2862
686.185	2680
686.232	3161
686.278	3362
686.294	3401
686.324	3294
686.370	2273
686.416	2027
686.416	2036
686.463	1853
686.509	2085
686.537	1548
686.555	1290
686.601	2190
686.647	2152
686.658	2244
686.693	2425
686.739	2156
686.779	2211
686.785	2242
686.831	2007
686.877	2482
686.900	2213
686.923	1948
686.969	2286
687.015	1958
687.022	1998
687.061	2318
687.107	2004
687.143	2345
687.153	2462
687.199	1894
687.245	2655
687.264	2554
687.291	2437
687.336	2194
687.382	2458
687.385	2415
687.428	2186
687.474	2828
687.506	3168
687.520	3219
687.565	2690
687.611	3107
687.627	2812
687.657	2320
687.702	3332
687.748	2375
687.748	2362
687.794	2778
687.839	2551
687.869	2980
687.885	3148
687.931	2646
687.976	2840
687.990	2686
688.022	2427
688.067	2773
688.111	2344
688.113	2353
688.158	2781
688.204	2988
688.233	3356
688.249	3457
688.295	2414
688.340	3227
688.354	2947
688.386	2601
688.431	3302
688.474	2995
688.477	2985
688.522	3049
688.567	3041
688.595	3072
688.613	3192
688.658	2430
688.703	3523
688.716	3298
688.749	2733
688.794	3618
688.837	2623
688.839	2606
688.884	3278
688.930	3036
688.958	3413
688.975	3580
689.020	2470
689.065	3108
689.079	2891
689.110	2726
689.155	3696
689.200	3392
689.201	3405
689.246	3637
689.291	2968
689.321	3306
689.336	3575
689.381	3104
689.426	3479
689.442	3367
689.471	3080
689.516	3662
689.561	2962
689.562	2952
689.606	3329
689.651	2751
689.683	3107
689.696	3322
689.741	3238
689.785	3905
689.804	3660
689.830	3229
689.875	3667
689.920	3292
689.925	3317
689.965	3759
690.010	3188
690.046	3364
690.054	3435
690.099	3237
690.144	3584
690.166	3232
690.189	3038
690.233	3374
690.278	3443
690.287	3617
690.323	4132
690.367	3644
690.408	3803
690.412	3875
690.457	3094
690.501	4201
690.528	4010
690.546	3890
690.590	3862
690.635	3599
690.649	3929
690.680	4468
690.724	3399
690.769	3733
690.770	3689
690.813	3321
690.857	3702
690.890	3586
690.902	3566
690.946	3765
690.991	3683
691.011	3980
691.035	4421
691.080	4140
691.124	4566
691.132	4486
691.168	4331
691.213	5004
691.252	4982
691.257	4962
691.301	4925
691.346	4376
691.373	4247
691.390	4299
691.434	4111
691.478	4660
691.493	4495
691.522	4259
691.567	4167
691.611	4144
691.614	4136
691.655	4593
691.699	4317
691.734	4545
691.743	4570
691.787	4305
691.831	3966
691.855	3723
691.875	3741
691.919	4286
691.964	4365
691.975	4449
692.008	4892
692.052	4512
692.096	5372
692.096	5339
692.139	4699
692.183	5032
692.216	4693
692.227	4602
692.271	4831
692.315	4558
692.337	4576
692.359	4682
692.403	4543
692.447	4763
692.457	4679
692.490	4692
692.534	5110
692.577	4983
692.578	5014
692.622	5221
692.666	5024
692.698	5302
692.709	5344
692.753	4596
692.797	4709
692.818	4512
692.840	4508
692.884	5084
692.928	4493
692.938	4558
692.971	4897
693.015	4529
693.059	4895
693.059	4863
693.102	4714
693.146	4911
693.179	4858
693.189	4819
693.233	4964
693.276	4800
693.299	4724
693.320	4884
693.363	4923
693.407	5354
693.420	5375
693.450	5446
693.493	5540
693.537	4988
693.540	4991
693.580	5517
693.624	5157
693.660	5427
693.667	5515
693.710	5395
693.753	5545
693.780	5267
693.797	5414
693.840	6413
693.883	6813
693.901	7107
693.926	7379
693.970	7247
694.013	7707
694.021	7619
694.056	6494
694.099	5752
694.141	4551
694.142	4587
694.185	5033
694.229	4843
694.261	5130
694.272	5275
694.315	4964
694.358	5547
694.381	5466
694.401	5451
694.444	5699
694.487	5589
694.501	5719
694.530	6251
694.573	6295
694.616	6731
694.621	6697
694.659	6030
694.702	5980
694.741	5024
694.745	5024
694.787	5170
694.830	4892
694.862	4916
694.873	4975
694.916	4679
694.959	4724
694.982	4543
695.002	4566
695.044	4790
695.087	4821
695.102	4897
695.130	5079
695.172	4994
695.215	5102
695.222	5056
695.258	5053
695.301	5171
695.342	5137
695.343	5185
695.386	5507
695.428	5817
695.462	6009
695.471	5989
695.514	5550
695.556	5320
695.582	5102
695.599	5120
695.641	5305
695.684	4864
695.701	4887
695.726	5187
695.769	5337
695.811	5664
695.821	5662
695.854	5524
695.896	5569
695.938	5083
695.941	5042
695.981	5147
696.023	4981
696.061	4933
696.065	4986
696.108	4929
696.150	5073
696.181	5070
696.192	5171
696.235	5501
696.277	5620
696.301	5758
696.319	5833
696.361	5851
696.404	5919
696.421	5875
696.446	5774
696.488	5669
696.530	5191
696.541	5145
696.572	5523
696.614	5644
696.656	5960
696.660	5940
696.698	5857
696.740	5768
696.780	5409
696.783	5426
696.825	5276
696.867	4839
696.900	4581
696.909	4714
696.951	5073
696.992	5576
697.020	5739
697.034	5618
697.076	5274
697.118	4791
697.139	4695
697.160	4912
697.202	4864
697.244	5053
697.259	5029
697.286	5114
697.327	5327
697.369	5410
697.379	5423
697.411	5508
697.453	5350
697.494	5394
697.499	5341
697.536	5372
697.578	5569
697.618	5477
697.620	5522
697.661	5657
697.703	5663
697.738	5715
697.744	5757
697.786	5676
697.828	5664
697.858	5571
697.869	5798
697.911	6441
697.952	7128
697.977	7491
697.994	7289
698.035	6562
698.077	5971
698.097	5593
698.118	5575
698.160	5545
698.201	5414
698.216	5351
698.243	5305
698.284	5139
698.325	5000
698.336	4913
698.367	5085
698.408	5327
698.449	5493
698.455	5487
698.491	5685
698.532	5786
698.573	5938
698.575	5901
698.614	5877
698.656	5837
698.694	5742
698.697	5790
698.738	5859
698.779	5907
698.814	5920
698.820	6014
698.862	6345
698.903	6694
698.933	6898
698.944	6942
698.985	6938
699.026	6926
699.053	6878
699.067	6865
699.172	6405
699.292	5593
699.411	6034
699.530	5695
699.650	6590
699.769	7626
699.889	6122
700.008	6145
700.127	6265
700.246	5680
700.366	6006
700.485	5598
700.604	6510
700.723	6024
700.843	6350
700.962	5703
701.081	5490
701.200	7074
701.319	4973
701.438	4523
701.557	5638
701.676	6135
701.796	5906
701.915	4924
702.034	5061
702.153	4993
702.272	5553
702.391	5759
702.509	5413
702.628	4916
702.747	5347
702.866	4289
702.985	4669
703.104	4480
703.223	5534
703.342	4695
703.460	4312
703.579	5040
703.698	6420
703.817	6025
703.935	9720
704.054	6602
704.173	4808
704.292	4197
704.410	4825
704.529	3975
704.648	4058
704.766	3872
704.885	4359
705.003	3941
705.122	4764
705.240	4686
705.359	5794
705.477	7795
705.596	8101
705.714	6444
705.833	6249
705.951	6271
706.070	10256
706.188	7551
706.307	6865
706.425	6066
706.543	7072
706.662	6503
706.780	6685
706.898	8098
707.016	9027
707.135	6686
707.253	6377
707.371	5520
707.489	5488
707.608	5736
707.726	5298
707.844	6626
707.962	5245
708.080	5774
708.198	5765
708.316	5171
708.434	6854
708.552	4979
708.670	5690
708.788	8409
708.906	10438
709.024	8965
709.142	8199
709.260	7209
709.378	7391
709.496	6907
709.614	8622
709.732	7756
709.850	8401
709.968	6570
710.085	6884
710.203	6944
710.321	7772
710.439	7251
710.556	7443
710.674	6823
710.792	6335
710.910	6895
711.027	8516
711.145	7145
711.263	6997
711.380	6302
711.498	7095
711.615	7110
711.733	7484
711.851	6102
711.968	7040
712.086	6243
712.203	7013
712.321	6980
712.438	7426
712.555	10315
712.673	12242
712.790	9612
712.908	8754
713.025	8432
713.142	11587
713.260	10176
713.377	9946
713.494	8643
713.612	8783
713.729	8801
713.846	9274
713.963	10221
714.081	8842
714.198	8246
714.315	9584
714.432	9090
714.549	10906
714.666	16746
714.783	61021
714.901	166787
715.018	22467
715.135	9187
715.252	8358
715.369	8107
715.486	7033
715.603	7065
715.720	7327
715.837	6571
715.953	8280
716.070	8093
716.187	6995
716.304	6966
716.421	8297
716.538	10005
716.655	7003
716.771	6707
716.888	6747
717.005	7719
717.122	5964
717.238	6617
717.355	6221
717.472	5014
717.589	6097
717.705	6017
717.822	6359
717.938	5763
718.055	6026
718.172	6552
718.288	6500
718.405	5735
718.521	6089
718.638	6791
718.754	12304
718.871	12663
718.987	9188
719.104	7855
719.220	5279
719.336	5403
719.453	5290
719.569	5165
719.685	5495
719.802	6163
719.918	7172
720.034	7603
720.151	16948
720.267	61847
720.383	24189
720.499	6201
720.616	5983
720.732	9238
720.848	13823
720.964	25044
721.080	21423
721.196	5432
721.312	5569
721.428	4805
721.544	6173
721.660	9320
721.776	7052
721.892	4968
722.008	5491
722.124	4387
722.240	3640
722.356	4548
722.472	5159
722.588	4999
722.704	4925
722.820	4246
722.936	4978
723.051	4320
723.167	5288
723.283	4698
723.399	4560
723.515	4482
723.630	4141
723.746	4448
723.862	4543
723.977	4287
724.093	4977
724.209	4380
724.324	4729
724.440	7016
724.555	18789
724.671	5346
724.786	4148
724.902	4150
725.017	4982
725.133	7010
725.248	17083
725.364	5846
725.479	4093
725.595	3530
725.710	3300
725.826	3237
725.941	3996
726.056	2897
726.172	3625
726.287	3629
726.402	3187
726.517	2797
726.633	4115
726.748	3902
726.863	2910
726.978	3842
727.093	3497
727.208	3542
727.324	3376
727.439	3850
727.554	3722
727.669	2637
727.784	3231
727.899	3227
728.014	4339
728.129	4572
728.244	4142
728.359	3285
728.474	3318
728.589	2960
728.704	2610
728.819	2898
728.934	3938
729.049	2729
729.163	3052
729.278	3258
729.393	3619
729.508	2164
729.622	3597
729.737	1919
729.852	3584
729.967	3260
730.081	3894
730.196	2530
730.311	2461
730.425	2252
730.540	2206
730.655	2142
730.769	3117
730.884	2757
730.998	1624
731.113	3549
731.227	3447
731.342	1751
731.456	2174
731.571	3056
731.685	3302
731.800	2929
731.914	4464
732.028	2959
732.143	3295
732.257	2961
732.371	3832
732.486	6590
732.600	19893
732.714	32433
732.829	5243
732.943	3127
733.057	3408
733.171	4120
733.285	3401
733.399	3076
733.514	2474
733.628	2357
733.742	2396
733.856	2856
733.970	2829
734.084	3258
734.198	2601
734.312	2602
734.426	4404
734.540	9400
734.654	3222
734.768	2096
734.882	2333
734.996	2330
735.109	2862
735.223	3056
735.337	2873
735.451	2203
735.565	2291
735.679	2574
735.792	5750
735.906	5409
736.020	2288
736.134	1427
736.247	2388
736.361	3521
736.475	6136
736.588	2489
736.702	3219
736.815	1626
736.929	2398
737.043	1702
737.156	2796
737.270	1745
737.383	2569
737.497	1891
737.610	2282
737.723	1750
737.837	2029
737.950	1514
738.064	1903
738.177	1492
738.290	2133
738.404	1507
738.517	1924
738.630	1928
738.744	1743
738.857	2414
738.970	2817
739.083	2266
739.197	2656
739.310	1283
739.423	1955
739.536	894
739.649	1322
739.762	1306
739.875	2083
739.988	1504
740.102	2003
740.215	1840
740.328	1262
740.441	1919
740.553	1943
740.667	1594
740.779	1663
740.892	1979
741.005	2770
741.118	3096
741.231	3328
741.344	1727
741.457	983
741.569	906
741.682	1438
741.795	2637
741.908	2143
742.020	2035
742.133	785
742.246	1154
742.358	1807
742.471	1699
742.584	1335
742.696	1090
742.809	1878
742.922	1391
743.034	1445
743.147	1859
743.259	1072
743.372	1131
743.484	1224
743.597	1016
743.709	2013
743.822	1680
743.934	1677
744.046	2243
744.159	3477
744.271	1831
744.383	2101
744.496	1488
744.608	3858
744.720	3642
744.832	1594
744.945	931
745.057	1479
745.169	1338
745.281	511
745.393	1187
745.506	1023
745.618	466
745.730	749
745.842	977
745.954	1617
746.066	1713
746.178	1270
746.290	889
746.402	999
746.514	1119
746.626	1097
746.738	1717
746.850	898
746.962	612
747.074	855
747.185	1660
747.297	832
747.409	894
747.521	1621
747.633	421
747.744	548
747.856	495
747.968	1161
748.080	176
748.191	66
748.303	301
748.414	1429
748.526	819
748.638	825
748.749	947
748.861	1672
748.972	1418
749.084	2020
749.195	825
749.307	1703
749.418	834
749.530	3846
749.641	3725
749.753	1984
749.864	1092
749.975	1103
750.087	576
750.198	1544
750.310	99
750.421	1072
750.532	899
750.643	643
750.755	1643
750.866	1927
750.977	1972
751.088	4038
751.199	7007
751.310	1215
751.422	1370
751.533	767
751.644	280
751.755	555
751.866	965
751.977	999
752.088	351
752.199	1056
752.310	957
752.421	422
752.532	495
752.643	680
752.753	279
752.864	488
752.975	432
753.086	1182
753.197	1566
753.308	18
753.418	1102
753.529	815
753.640	253
753.751	1105
753.861	1171
753.972	456
754.083	656
754.193	793
754.304	533
754.415	581
754.525	471
754.636	433
754.746	397
754.857	719
754.967	-320
755.078	637
755.188	316
755.299	701
755.409	157
755.520	1037
755.630	1083
755.740	636
755.851	243
755.961	533
756.071	190
756.182	859
756.292	949
756.402	645
756.512	314
756.623	612
756.733	662
756.843	787
756.953	1269
757.063	124
757.173	377
757.283	974
757.393	642
757.504	546
757.614	100
757.724	-129
757.834	-505
757.944	891
758.053	831
758.164	1647
758.273	827
758.383	926
758.493	1751
758.603	1428
758.713	2183
758.823	903
758.932	590
759.042	1047
759.152	1254
759.262	317
759.372	498
759.481	1512
759.591	949
759.701	1079
759.810	481
759.920	489
760.029	173
760.139	1353
760.249	590
760.358	459
760.468	543
760.577	1192
760.687	567
760.796	1009
760.906	1043
761.015	1125
761.124	1356
761.234	914
761.343	535
761.453	1558
761.562	1636
761.671	643
761.781	896
761.890	670
761.999	1137
762.108	797
762.218	512
762.327	578
762.436	1269
762.545	698
762.654	700
762.763	970
762.872	243
762.982	508
763.091	825
763.200	942
763.309	808
763.418	1512
763.527	1720
763.635	1193
763.744	1567
763.853	1352
763.962	1127
764.071	958
764.180	907
764.289	702
764.398	1335
764.506	653
764.615	1311
764.724	1217
764.833	1169
764.941	810
765.050	1161
765.159	1567
765.268	1348
765.376	1356
765.485	2402
765.593	2495
765.702	2479
765.810	2663
765.919	3875
766.028	6963
766.136	11808
766.245	25626
766.353	66625
766.461	238651
766.570	463124
766.678	108133
766.787	21958
766.895	10644
767.003	7046
767.112	6058
767.220	4123
767.328	3397
767.437	2761
767.545	2928
767.653	1701
767.761	2145
767.870	1732
767.978	2197
768.086	1204
768.194	1899
768.302	1931
768.410	1482
768.518	1562
768.626	1207
768.734	1555
768.842	2099
768.950	1851
769.058	2448
769.166	1780
769.274	2324
769.382	3706
769.490	5548
769.598	10722
769.706	23973
769.813	79566
769.921	292683
770.029	204975
770.137	21826
770.245	7431
770.352	5172
770.460	4022
770.568	3159
770.675	2707
770.783	2042
770.891	1980
770.998	2120
771.106	1746
771.213	1943
771.321	1661
771.428	2435
771.536	1050
771.643	1483
771.751	879
771.858	1778
771.966	1489
772.073	1487
772.181	1393
772.288	817
772.395	1875
772.503	1910
772.610	1865
772.717	1195
772.825	975
772.932	1348
773.039	1612
773.146	1082
773.253	1548
773.361	1121
773.468	625
773.575	1617
773.682	288
773.789	1719
773.896	752
774.003	830
774.110	759
774.217	1322
774.324	1521
774.431	1588
774.538	888
774.645	926
774.752	931
774.859	1891
774.966	1553
775.073	2370
775.179	532
775.286	1017
775.393	704
775.500	1635
775.607	1257
775.713	1201
775.820	1166
775.927	663
776.033	800
776.140	542
776.247	1062
776.353	1318
776.460	463
776.566	1242
776.673	624
776.779	963
776.886	123
776.992	893
777.099	1204
777.205	1443
777.312	1276
777.418	1841
777.524	1334
777.631	1676
777.737	229
777.843	1175
777.950	1021
778.056	1935
778.162	2170
778.268	946
778.375	648
778.481	1056
778.587	904
778.693	682
778.799	-108
778.906	940
779.012	275
779.118	1234
779.224	1212
779.330	745
779.436	912
779.542	68
779.648	726
779.754	217
779.860	1114
779.966	2016
780.071	3983
780.177	2519
780.283	736
780.389	1042
780.495	1122
780.601	407
780.706	342
780.812	902
780.918	541
781.024	344
781.129	463
781.235	838
781.341	794
781.446	1050
781.552	19
781.657	-126
781.763	-415
781.869	516
781.974	514
782.080	703
782.185	623
782.291	522
782.396	251
782.501	203
782.607	45
782.712	239
782.818	224
782.923	315
783.028	941
783.134	702
783.239	1663
783.344	1850
783.449	1018
783.555	283
783.660	419
783.765	515
783.870	700
783.975	630
784.080	-106
784.185	1065
784.291	475
784.396	1270
784.501	360
784.606	1000
784.711	225
784.816	906
784.921	-180
785.026	206
785.130	420
785.235	1116
785.340	-187
785.445	228
785.550	143
785.655	579
785.760	1085
785.864	180
785.969	630
786.074	807
786.178	158
786.283	899
786.388	-104
786.492	-23
786.597	270
786.702	982
786.806	-292
786.911	81
787.015	308
787.120	462
787.224	651
787.329	899
787.433	-111
787.538	324
787.642	514
787.747	488
787.851	846
787.955	-198
788.060	522
788.164	167
788.268	608
788.372	68
788.477	561
788.581	199
788.685	398
788.789	159
788.894	-616
788.998	414
789.102	310
789.206	85
789.310	-897
789.414	728
789.518	203
789.622	21
789.726	-94
789.830	365
789.934	-340
790.038	421
790.142	215
790.246	680
790.350	-83
790.454	1093
790.557	-205
790.661	232
790.765	-127
790.869	157
790.973	417
791.076	336
791.180	-700
791.284	-264
791.388	36
791.491	173
791.595	-484
791.698	346
791.802	449
791.906	502
792.009	-23
792.113	-58
792.216	-2
792.320	449
792.423	233
792.527	-6
792.630	-211
792.733	94
792.837	-810
792.940	975
793.043	-179
793.147	-596
793.250	42
793.353	781
793.457	-364
793.560	219
793.663	-143
793.766	2289
793.869	1083
793.973	-24
794.076	-669
794.179	662
794.282	566
794.385	883
794.488	85
794.591	1580
794.694	1840
794.797	2658
794.900	941
795.003	1031
795.106	-441
795.209	-86
795.312	500
795.415	1164
795.517	-236
795.620	-174
795.723	-319
795.826	875
795.929	-619
796.031	291
796.134	671
796.237	33
796.339	409
796.442	-289
796.545	-401
796.647	-720
796.750	-510
796.852	334
796.955	-606
797.057	-127
797.160	134
797.262	-423
797.365	60
797.467	515
797.570	-276
797.672	301
797.775	791
797.877	1518
797.979	2914
798.082	321
798.184	-264
798.286	524
798.388	-97
798.491	208
798.593	-971
798.695	98
798.797	-375
798.899	-577
799.001	-650
799.104	-281
799.206	-393
799.308	603
799.410	137
799.512	489
799.614	72
799.716	849
799.818	1700
799.920	897
800.021	1341
800.123	-378
800.225	-236
800.327	-434
800.429	-355
800.531	-262
800.633	527
800.734	-182
800.836	-14
800.938	95
801.039	148
801.141	30
801.243	-561
801.344	24
801.446	-849
801.548	-239
801.649	77
801.751	-154
801.852	-136
801.954	-352
802.055	-246
802.157	-465
802.258	131
802.360	-904
802.461	846
802.563	271
802.664	86
802.765	-576
802.867	-146
802.968	-541
803.069	721
803.170	-166
803.272	-699
803.373	-440
803.474	-257
803.575	-60
803.676	-1088
803.777	-68
803.879	-502
803.980	-737
804.081	-288
804.182	-965
804.283	-931
804.384	-591
804.485	-478
804.586	20
804.687	488
804.788	-778
804.888	-479
804.989	-1090
805.090	-962
805.191	33
805.292	356
805.393	60
805.493	-719
805.594	-719
805.695	-624
805.796	-315
805.896	-521
805.997	-509
806.098	-991
806.198	-963
806.299	-93
806.399	-371
806.500	-277
806.601	-381
806.701	250
806.802	191
806.902	680
807.002	-208
807.103	124
807.203	520
807.304	347
807.404	-570
807.504	-245
807.605	-736
807.705	-463
807.805	-497
807.906	-701
808.006	436
808.106	179
808.206	-93
808.306	-331
808.406	-434
808.507	-157
808.607	330
808.707	-471
808.807	-28
808.907	-1266
809.007	56
809.107	-548
809.207	-90
809.307	-974
809.407	-642
809.507	-674
809.607	-568
809.706	-520
809.806	-217
809.906	-14
810.006	-362
810.106	-742
810.205	-133
810.305	-1681
810.405	224
810.505	-1470
810.604	-915
810.704	-1103
810.804	-889
810.903	-460
811.003	-1533
811.102	-603
811.202	-985
811.301	-231
811.401	-378
811.500	-885
811.600	-968
811.699	-245
811.799	-932
811.898	-1215
811.997	-465
812.097	-245
812.196	132
812.295	-234
812.395	-837
812.494	-916
812.593	112
812.692	108
812.792	-242
812.891	-1068
812.990	447
813.089	-796
813.188	-104
813.287	-955
813.386	117
813.485	-479
813.584	-585
813.683	-1075
813.782	-951
813.881	-482
813.980	-427
814.079	-348
814.178	-606
814.277	-150
814.376	-65
814.475	-748
814.574	10
814.672	-403
814.771	304
814.870	-194
814.969	-932
815.067	-237
815.166	-405
815.265	-601
815.363	-238
815.462	-923
815.560	679
815.659	-500
815.758	-316
815.856	459
815.955	-270
816.053	-666
816.152	682
816.250	-580
816.348	378
816.447	-278
816.545	143
816.644	655
816.742	350
816.840	113
816.938	-700
817.037	189
817.135	303
817.233	434
817.331	103
817.430	486
817.528	1799
817.626	1
817.724	1422
817.822	1897
817.920	4351
818.018	8863
818.116	17574
818.214	46315
818.312	129033
818.410	202779
818.508	57656
818.606	11697
818.704	6441
818.802	5446
818.900	4984
818.997	6145
819.095	8751
819.193	17268
819.291	37412
819.389	94585
819.486	255950
819.584	291706
819.682	71583
819.779	16991
819.877	8498
819.975	5819
820.072	4278
820.170	3780
820.267	2741
820.365	1177
820.462	1360
820.560	254
820.657	265
820.755	801
820.852	464
820.949	351
821.047	829
821.144	-33
821.241	833
821.339	-705
821.436	465
821.533	545
821.631	1020
821.728	-301
821.825	444
821.922	1672
822.019	2140
822.116	3607
822.214	917
822.311	-29
822.408	-92
822.505	-370
822.602	312
822.699	-1468
822.796	504
822.893	-328
822.990	240
823.086	-103
823.183	-264
823.280	678
823.377	-586
823.474	-267
823.571	302
823.667	-29
823.764	165
823.861	-505
823.958	-573
824.054	169
824.151	-269
824.248	-832
824.344	41
824.441	-682
824.537	249
824.634	402
824.731	-101
824.827	7
824.924	-638
825.020	-645
825.116	-460
825.213	-520
825.309	-438
825.406	-739
825.502	-505
825.598	-852
825.695	24
825.791	-404
825.887	-216
825.983	-948
826.080	-294
826.176	-733
826.272	-40
826.368	726
826.464	-958
826.560	-248
826.656	-719
826.753	146
826.849	-303
826.945	-39
827.041	-324
827.137	-933
827.233	-471
827.328	-423
827.424	-309
827.520	-78
827.616	-1331
827.712	-1405
827.808	695
827.904	-306
827.999	-592
828.095	-627
828.191	-442
828.287	-1090
828.382	-460
828.478	149
828.574	-617
828.669	-773
828.765	61
828.860	-169
828.956	-71
829.051	-273
829.147	-882
829.242	-393
829.338	-542
829.433	-292
829.529	-646
829.624	-1036
829.720	-242
829.815	-27
829.910	-555
830.005	-1336
830.101	-1031
830.196	-461
830.291	-306
830.386	-1449
830.482	417
830.577	-662
830.672	-471
830.767	428
830.862	-1192
830.957	-7
831.052	-32
831.147	-335
831.242	165
831.337	-823
831.432	-13
831.527	-435
831.622	-467
831.717	-749
831.812	-748
831.907	-624
832.002	-747
832.097	-1745
832.191	-864
832.286	223
832.381	-604
832.476	-687
832.570	692
832.665	2113
832.760	4084
832.854	38
832.949	-482
833.044	-1169
833.138	176
833.233	124
833.327	-362
833.422	-708
833.516	136
833.611	-1415
833.705	-30
833.799	-239
833.894	-155
833.988	544
834.083	366
834.177	-852
834.271	-624
834.365	-709
834.460	-1443
834.554	-492
834.648	645
834.742	-1104
834.836	-549
834.931	-879
835.025	-443
835.119	-422
835.213	-572
835.307	-439
835.401	-779
835.495	-359
835.589	-286
835.683	-532
835.777	-878
835.871	-320
835.965	-976
836.059	463
836.152	-1
836.246	-384
836.340	852
836.434	1710
836.528	-199
836.621	-399
836.715	-338
836.809	-616
836.902	-1
836.996	-1841
837.090	-1313
837.183	-256
837.277	45
837.370	-345
837.464	-895
837.557	-502
837.651	-419
837.744	1286
837.838	1823
837.931	-119
838.025	-226
838.118	534
838.211	2375
838.305	2837
838.398	809
838.491	-308
838.584	437
838.678	802
838.771	3826
838.864	2976
838.957	-504
839.050	-698
839.144	-105
839.237	124
839.330	-150
839.423	-585
839.516	-347
839.609	-476
839.702	604
839.795	-264
839.888	-857
839.981	-611
840.073	-244
840.166	-776
840.259	-546
840.352	-494
840.445	-1147
840.538	-1436
840.630	500
840.723	-2276
840.816	126
840.909	-1294
841.001	-334
841.094	-421
841.186	1059
841.279	2159
841.372	224
841.464	-775
841.557	93
841.649	-831
841.742	247
841.834	-954
841.927	-843
842.019	-1106
842.111	-534
842.204	-968
842.296	477
842.388	9
842.481	1135
842.573	2061
842.665	5838
842.758	1738
842.850	-470
842.942	-1151
843.034	550
843.126	-676
843.218	607
843.310	2008
843.402	6855
843.495	15405
843.587	15986
843.679	3378
843.771	430
843.862	-18
843.954	854
844.046	-124
844.138	-738
844.230	-640
844.322	-1485
844.414	-944
844.505	-633
844.597	-185
844.689	-453
844.781	-432
844.872	-873
844.964	-1048
845.056	-554
845.147	367
845.239	-952
845.331	-561
845.422	-1059
845.514	-789
845.605	-240
845.697	114
845.788	-703
845.880	-1033
845.971	-466
846.063	-949
846.154	-1152
846.245	-993
846.337	-657
846.428	-247
846.519	-411
846.610	-23
846.702	855
846.793	1192
846.884	2504
846.975	-1118
847.066	-516
847.158	-1507
847.249	-474
847.340	662
847.431	-1690
847.522	-906
847.613	-733
847.704	-1170
847.795	-288
847.886	-1228
847.977	356
848.068	-1011
848.158	-507
848.249	-870
848.340	-958
848.431	-532
848.522	-762
848.612	-643
848.703	-1072
848.794	-1326
848.885	-567
848.975	-460
849.066	-1272
849.157	-1054
849.247	-682
849.338	-913
849.428	579
849.519	1867
849.609	4663
849.700	8469
849.790	19770
849.881	12868
849.971	670
850.061	-1004
850.152	-87
850.242	-503
850.332	-761
850.423	-600
850.513	-400
850.603	-556
850.693	-228
850.784	-875
850.874	-1404
850.964	-1313
851.054	-1504
851.144	-1548
851.234	24
851.324	-554
851.414	273
851.505	-420
851.595	-140
851.684	-647
851.774	701
851.864	676
851.954	-303
852.044	-249
852.134	-885
852.224	-1758
852.314	-437
852.403	-762
852.493	-703
852.583	-110
852.673	-1072
852.762	-950
852.852	-456
852.942	-850
853.031	-665
853.121	-299
853.210	-1163
853.300	-645
853.389	-301
853.479	-813
853.568	708
853.658	833
853.747	2899
853.837	6175
853.926	17460
854.015	34963
854.105	59433
854.194	127906
854.283	83300
854.373	11294
854.462	1837
854.551	270
854.640	942
854.729	534
854.819	1434
854.908	-667
854.997	695
855.086	126
855.175	-431
855.264	-597
855.353	-552
855.442	-607
855.531	-899
855.620	-813
855.709	54
855.798	-502
855.887	-911
855.975	-893
856.064	268
856.153	-489
856.242	-619
856.331	-440
856.419	-791
856.508	-853
856.597	-94
856.685	-1036
856.774	-450
856.863	-996
856.951	-1309
857.040	-449
857.128	84
857.217	-1429
857.305	-882
857.394	-665
857.482	-604
857.571	-762
857.659	-605
857.747	-694
857.836	-680
857.924	-1604
858.012	-508
858.101	-1437
858.189	-792
858.277	-217
858.365	-1020
858.454	-497
858.542	-1116
858.630	-1550
858.718	-891
858.806	-1309
858.894	-769
858.982	-1236
859.070	-284
859.158	-589
859.246	-557
859.334	-530
859.422	-645
859.510	-91
859.598	-810
859.686	-1037
859.773	-454
859.861	-286
859.949	-232
860.037	-1346
860.125	-582
860.212	-720
860.300	-515
860.388	-1354
860.475	-79
860.563	-1149
860.651	-206
860.738	-1154
860.826	-1107
860.913	-1320
861.001	-731
861.088	-1957
861.176	-315
861.263	-1499
861.350	-556
861.438	-593
861.525	-284
861.612	-599
861.700	-455
861.787	-1223
861.874	135
861.962	-365
862.049	-498
862.136	-1033
862.223	-207
862.310	-1181
862.397	-1263
862.484	-291
862.572	-452
862.659	-1388
862.746	-308
862.833	-389
862.920	-1285
863.007	-759
863.094	-1223
863.180	-1333
863.267	-1163
863.354	-1383
863.441	-653
863.528	-1170
863.615	-818
863.701	-542
863.788	-646
863.875	-1117
863.961	-959
864.048	-503
864.135	-890
864.221	-1032
864.308	-670
864.395	-715
864.481	-643
864.568	-834
864.654	-729
864.741	-836
864.827	-363
864.914	-460
865.000	-1066
865.086	-1235
865.173	170
865.259	233
865.345	-148
865.432	76
865.518	231
865.604	1216
865.690	2182
865.776	3684
865.863	7285
865.949	19080
866.035	30097
866.121	49282
866.207	87745
866.293	35874
866.379	4237
866.465	339
866.551	1348
866.637	96
866.723	11
866.809	-122
866.895	844
866.981	-371
867.066	-584
867.152	-208
867.238	-179
867.324	429
867.409	914
867.495	2043
867.581	846
867.667	240
867.752	-337
867.838	519
867.923	-109
868.009	-442
868.094	395
868.180	330
868.266	871
868.351	1011
868.436	-428
868.522	656
868.607	1894
868.693	2631
868.778	5110
868.863	8211
868.949	1894
869.034	-641
869.119	68
869.204	-590
869.290	-648
869.375	-1269
869.460	-569
869.545	-813
869.630	-304
869.715	-948
869.800	-695
869.885	-878
869.970	-734
870.055	-712
870.140	-345
870.225	-811
870.310	-106
870.395	-442
870.480	-1115
870.565	-508
870.650	-862
870.734	-892
870.819	-241
870.904	-336
870.989	-901
871.073	-147
871.158	-309
871.243	-596
871.327	691
871.412	-1010
871.496	-1193
871.581	-1166
871.665	-196
871.750	-483
871.834	-654
871.919	-1030
872.003	-447
872.088	-562
872.172	-936
872.257	-484
872.341	-694
872.425	-917
872.509	-1136
872.594	-912
872.678	-895
872.762	-941
872.846	1
872.930	-495
873.015	-351
873.099	-1522
873.183	-476
873.267	-146
873.351	-121
873.435	-738
873.519	-150
873.603	-903
873.687	-1452
873.771	-1233
873.855	-864
873.938	-1113
874.022	-156
874.106	-458
874.190	-1138
874.274	-748
874.358	-718
874.383	-768
874.441	-891
874.490	-702
874.525	-566
874.598	-1880
874.609	-2087
874.692	-755
874.705	-733
874.776	-607
874.813	-468
874.859	-306
874.920	-551
874.943	-644
875.027	-895
875.028	-899
875.110	-1358
875.135	-1002
875.194	-140
875.243	-277
875.277	-414
875.350	-1263
875.361	-1374
875.444	-737
875.457	-582
875.527	98
875.565	-261
875.611	-682
875.672	-280
875.694	-116
875.778	-820
875.780	-800
875.861	-145
875.887	-298
875.944	-605
875.994	-418
876.027	-330
876.101	-1025
876.111	-1103
876.194	141
876.209	122
876.277	37
876.316	115
876.360	138
876.423	-327
876.443	-444
876.526	297
876.530	260
876.610	-543
876.637	-344
876.693	6
876.745	-248
876.776	-441
876.852	-62
876.859	-9
876.942	-1185
876.959	-1133
877.025	-1168
877.066	-832
877.108	-287
877.173	241
877.190	308
877.273	-496
877.280	-468
877.356	23
877.387	67
877.439	101
877.494	120
877.522	138
877.601	-16
877.605	-26
877.688	-276
877.708	-323
877.770	-413
877.815	-39
877.853	226
877.922	-508
877.936	-665
878.018	-323
878.029	-276
878.101	344
878.136	138
878.184	-390
878.242	-648
878.266	-680
878.349	-177
878.349	-173
878.431	390
878.456	339
878.514	152
878.563	-249
878.596	-459
878.670	-364
878.679	-388
878.761	-460
878.776	-474
878.844	-328
878.883	-447
878.926	-610
878.990	-182
879.008	14
879.091	280
879.097	281
879.173	-299
879.203	-245
879.255	216
879.310	522
879.338	666
879.417	466
879.420	442
879.502	-89
879.523	-249
879.584	-666
879.630	-610
879.667	-406
879.736	-348
879.749	-426
879.831	-359
879.843	-421
879.913	-404
879.949	-92
879.995	201
880.056	-273
880.077	-405
880.159	-175
880.162	-187
880.241	-534
880.269	-246
880.323	476
880.375	789
880.405	871
880.482	1066
880.487	1091
880.569	2001
880.588	2266
880.651	3705
880.694	3226
880.733	2888
880.801	2980
880.815	2552
880.896	640
880.907	421
880.978	271
881.013	120
881.060	-61
881.120	-615
881.142	-723
881.224	123
881.226	129
881.305	73
881.332	-17
881.387	-123
881.438	-40
881.469	61
881.545	-269
881.550	-270
881.632	543
881.651	536
881.713	-224
881.757	-133
881.795	341
881.863	425
881.876	366
881.958	-357
881.969	-352
882.039	118
882.075	332
882.121	319
882.181	435
882.202	529
882.284	527
882.287	555
882.365	1320
882.393	1386
882.446	2108
882.499	1862
882.528	1211
882.605	1072
882.609	1072
882.690	189
882.711	83
882.771	-329
882.817	-521
882.853	-288
882.923	250
882.934	321
883.015	100
883.029	116
883.096	-73
883.135	-45
883.177	50
883.241	-198
883.258	-206
883.339	-100
883.347	-69
883.420	-59
883.453	-128
883.501	38
883.558	391
883.583	415
883.663	-65
883.664	-70
883.744	209
883.770	265
883.825	46
883.876	-216
883.906	-129
883.981	404
883.987	373
884.068	-387
884.087	-576
884.149	-204
884.193	275
884.230	225
884.298	-370
884.310	-327
884.391	262
884.404	336
884.472	212
884.510	96
884.552	77
884.615	156
884.633	116
884.714	18
884.721	-15
884.794	174
884.826	270
884.875	82
884.932	-130
884.956	-80
885.036	313
885.037	308
885.117	-201
885.143	-240
885.197	185
885.248	378
885.278	253
885.354	184
885.358	191
885.439	125
885.459	68
885.519	240
885.565	401
885.599	425
885.670	505
885.680	459
885.760	-34
885.775	-85
885.840	288
885.881	362
885.921	409
885.986	569
886.001	532
886.081	217
886.091	172
886.161	216
886.196	317
886.241	478
886.302	490
886.322	424
886.402	358
886.407	351
886.482	804
886.512	950
886.562	1042
886.617	1058
886.642	1038
886.722	897
886.722	890
886.802	1634
886.828	1801
886.882	1192
886.933	796
886.962	564
887.038	-375
887.042	-357
887.122	242
887.143	339
887.202	373
887.248	472
887.281	585
887.353	787
887.361	795
887.441	817
887.458	787
887.521	886
887.563	995
887.601	803
887.668	481
887.680	518
887.760	489
887.773	527
887.840	583
887.878	534
887.919	583
887.983	732
887.999	689
888.079	254
888.088	208
888.158	768
888.193	1086
888.238	941
888.297	571
888.317	584
888.397	815
888.402	816
888.476	277
888.507	56
888.556	201
888.612	380
888.635	474
888.715	747
888.717	746
888.794	988
888.821	1115
888.873	691
888.926	110
888.953	251
889.031	808
889.032	807
889.111	433
889.135	329
889.190	776
889.240	1143
889.270	905
889.345	265
889.349	304
889.428	966
889.449	1137
889.507	669
889.554	268
889.586	592
889.658	1308
889.665	1275
889.744	827
889.763	719
889.824	301
889.867	-9
889.903	354
889.972	1076
890.076	1698
890.181	493
890.285	89
890.390	1176
890.494	1562
890.599	1081
890.703	728
890.807	630
890.912	747
891.016	568
891.120	1075
891.224	622
891.329	1295
891.433	516
891.537	1174
891.641	665
891.745	372
891.849	746
891.953	728
892.058	669
892.162	1108
892.266	168
892.370	997
892.474	176
892.578	1068
892.682	602
892.786	1718
892.889	1900
892.993	1289
893.097	670
893.201	359
893.305	870
893.409	1070
893.512	961
893.616	440
893.720	489
893.824	917
893.927	488
894.031	835
894.135	948
894.238	1016
894.342	569
894.445	475
894.549	1218
894.652	1589
894.756	936
894.859	777
894.963	605
895.066	641
895.170	488
895.273	382
895.377	658
895.480	844
895.583	611
895.687	829
895.790	576
895.893	731
895.997	1407
896.100	1373
896.203	850
896.306	271
896.409	171
896.513	981
896.616	264
896.719	76
896.822	350
896.925	537
897.028	-87
897.131	918
897.234	-140
897.337	146
897.440	-245
897.543	658
897.646	1155
897.749	421
897.852	209
897.954	544
898.057	420
898.160	1049
898.263	668
898.366	1200
898.468	-205
898.571	1041
898.674	870
898.776	594
898.879	237
898.982	606
899.084	435
899.187	1186
899.290	1365
899.392	851
899.495	255
899.597	828
899.700	745
899.802	501
899.904	-31
900.007	1647
900.109	3381
900.212	862
900.314	1095
900.416	-129
900.519	-194
900.621	847
900.723	494
900.826	824
900.928	-180
901.030	1348
901.132	660
901.234	999
901.336	319
901.439	590
901.541	775
901.643	-217
901.745	669
901.847	1006
901.949	570
902.051	387
902.153	45
902.255	749
902.357	-80
902.459	924
902.560	172
902.662	789
902.764	1354
902.866	851
902.968	1065
903.070	1017
903.171	183
903.273	451
903.375	-168
903.477	544
903.578	-201
903.680	343
903.781	-352
903.883	623
903.985	335
904.086	262
904.188	329
904.289	811
904.391	801
904.492	1362
904.594	431
904.695	1264
904.796	83
904.898	230
904.999	576
905.100	736
905.202	246
905.303	74
905.404	584
905.506	-101
905.607	-55
905.708	1356
905.809	804
905.910	238
906.012	-206
906.113	1161
906.214	306
906.315	1259
906.416	676
906.517	1209
906.618	739
906.719	492
906.820	-350
906.921	966
907.022	-845
907.123	538
907.224	658
907.325	58
907.425	-18
907.526	391
907.627	444
907.728	-354
907.828	597
907.929	729
908.030	305
908.131	862
908.231	524
908.332	324
908.433	-408
908.533	8
908.634	443
908.734	246
908.835	94
908.935	1593
909.036	935
909.136	920
909.237	893
909.337	713
909.438	-142
909.538	1390
909.638	-498
909.739	296
909.839	474
909.939	1147
910.040	1052
910.140	102
910.240	771
910.340	168
910.440	399
910.541	80
910.641	588
910.741	623
910.841	775
910.941	919
911.041	528
911.141	293
911.241	141
911.341	105
911.441	240
911.541	563
911.641	90
911.741	-396
911.841	541
911.941	783
912.040	90
912.140	184
912.240	414
912.340	455
912.440	112
912.539	863
912.639	979
912.739	584
912.838	192
912.938	997
913.038	-101
913.137	1070
913.237	-137
913.336	95
913.436	514
913.535	-70
913.635	403
913.734	619
913.834	83
913.933	391
914.033	-190
914.132	832
914.231	154
914.331	418
914.430	-629
914.529	802
914.629	500
914.728	106
914.827	634
914.926	395
915.025	657
915.125	-305
915.224	447
915.323	1235
915.422	-116
915.521	319
915.620	138
915.719	430
915.818	456
915.917	72
916.016	229
916.115	59
916.214	-139
916.313	300
916.412	-663
916.510	-415
916.609	1081
916.708	753
916.807	480
916.906	884
917.004	54
917.103	818
917.202	367
917.301	600
917.399	-114
917.498	335
917.596	365
917.695	891
917.794	-167
917.892	-53
917.991	225
918.089	639
918.188	725
918.286	14
918.384	915
918.483	2
918.581	644
918.680	149
918.778	575
918.876	409
918.975	499
919.073	1294
919.171	531
919.269	849
919.368	-487
919.466	555
919.564	-88
919.662	729
919.760	-217
919.858	-588
919.956	144
920.054	245
920.153	136
920.251	-111
920.349	-194
920.446	1200
920.544	-56
920.642	1082
920.740	652
920.838	1269
920.936	325
921.034	454
921.132	860
921.229	-460
921.327	154
921.425	733
921.523	-35
921.620	777
921.718	607
921.816	513
921.913	558
922.011	-137
922.109	1517
922.206	601
922.304	960
922.401	1012
922.499	695
922.596	1257
922.694	89
922.791	639
922.888	658
922.986	1442
923.083	679
923.181	1639
923.278	759
923.375	882
923.473	2662
923.570	1268
923.667	875
923.764	970
923.861	52
923.959	1035
924.056	721
924.153	1549
924.250	76
924.347	1256
924.444	987
924.541	1860
924.638	1282
924.735	1300
924.832	619
924.929	851
925.026	905
925.123	954
925.220	1928
925.317	1876
925.414	293
925.510	1062
925.607	1139
925.704	1432
925.801	935
925.897	919
925.994	1860
926.091	1861
926.187	1021
926.284	2126
926.381	2755
926.477	2336
926.574	2338
926.670	2871
926.767	1668
926.863	2240
926.960	2019
927.056	2524
927.153	1099
927.249	1284
927.346	1403
927.442	1232
927.538	697
927.635	723
927.731	-101
927.827	1188
927.924	699
928.020	1451
928.116	-2
928.212	1511
928.308	296
928.404	1415
928.501	1318
928.597	808
928.693	1084
928.789	771
928.885	470
928.981	347
929.077	1330
929.173	1191
929.269	181
929.365	416
929.461	-47
929.557	782
929.652	1053
929.748	515
929.844	165
929.940	1168
930.036	610
930.131	375
930.227	218
930.323	477
930.419	1207
930.514	868
930.610	1627
930.705	1351
930.801	1017
930.897	988
930.992	820
931.088	644
931.183	247
931.279	752
931.374	652
931.470	871
931.565	402
931.660	1178
931.756	1241
931.851	951
931.946	1255
932.042	1094
932.137	341
932.232	195
932.327	538
932.423	1112
932.518	522
932.613	671
932.708	854
932.803	1021
932.898	313
932.994	626
933.089	715
933.184	1294
933.279	265
933.374	1379
933.469	326
933.563	1011
933.658	552
933.753	391
933.848	624
933.943	1250
934.038	735
934.133	772
934.227	4
934.322	1081
934.417	442
934.512	692
934.606	589
934.701	456
934.796	266
934.890	576
934.985	348
935.079	805
935.174	802
935.269	356
935.363	533
935.458	1425
935.552	274
935.646	711
935.741	313
935.835	916
935.930	365
936.024	887
936.118	568
936.213	793
936.307	196
936.401	443
936.496	290
936.590	1217
936.684	1384
936.778	75
936.872	840
936.966	1010
937.060	-272
937.155	548
937.249	166
937.343	1117
937.437	1000
937.531	236
937.625	-250
937.719	575
937.813	1028
937.906	-11
938.000	780
938.094	717
938.188	168
938.282	1091
938.376	247
938.469	570
938.563	745
938.657	1440
938.751	1849
938.844	2986
938.938	1173
939.032	985
939.125	281
939.219	619
939.312	1662
939.406	4574
939.500	2984
939.593	1065
939.686	1041
939.780	528
939.873	-128
939.967	1348
940.060	1325
940.154	748
940.247	511
940.340	1214
940.434	1090
940.527	1125
940.620	-348
940.713	740
940.806	-59
940.900	356
940.993	703
941.086	679
941.179	529
941.272	295
941.365	21
941.458	2266
941.551	2003
941.644	1380
941.737	71
941.830	925
941.923	515
942.016	258
942.109	-487
942.202	1063
942.295	95
942.388	-178
942.480	282
942.573	137
942.666	-268
942.759	101
942.851	576
942.944	455
943.037	69
943.129	955
943.222	-555
943.315	399
943.407	-206
943.500	154
943.592	-208
943.685	656
943.777	-493
943.870	1107
943.962	171
944.055	498
944.147	656
944.239	-167
944.332	299
944.424	584
944.516	193
944.609	275
944.701	26
944.793	26
944.885	481
944.977	-280
945.070	960
945.162	492
945.254	-726
945.346	731
945.438	129
945.530	250
945.622	407
945.714	-185
945.806	-195
945.898	372
945.990	463
946.082	990
946.174	325
946.266	1325
946.358	-85
946.449	981
946.541	-112
946.633	97
946.725	512
946.816	694
946.908	-292
947.000	121
947.091	100
947.183	774
947.275	620
947.366	428
947.458	593
947.549	-315
947.641	500
947.732	327
947.824	-437
947.915	736
948.007	144
948.098	26
948.190	-377
948.281	-7
948.372	-187
948.464	549
948.555	-121
948.646	-197
948.737	213
948.829	263
948.920	-197
949.011	584
949.102	-142
949.193	93
949.284	-515
949.376	197
949.467	485
949.558	132
949.649	-416
949.740	-277
949.831	-422
949.922	411
950.013	15
950.104	142
950.194	-389
950.285	382
950.376	-131
950.467	-239
950.558	-830
950.649	499
950.739	384
950.830	63
950.921	216
951.011	944
951.102	343
951.193	329
951.283	309
951.374	-154
951.464	354
951.555	702
951.646	655
951.736	-77
951.826	430
951.917	-190
952.007	-254
952.098	-477
952.188	514
952.279	46
952.369	539
952.459	-575
952.549	146
952.640	-879
952.730	239
952.820	78
952.910	-535
953.001	-391
953.091	42
953.181	428
953.271	-145
953.361	130
953.451	-321
953.541	36
953.631	-197
953.721	-536
953.811	46
953.901	-78
953.991	-357
954.081	-496
954.171	-678
954.261	307
954.350	468
954.440	334
954.530	-546
954.620	147
954.710	1430
954.799	255
954.889	-282
954.979	-303
955.068	-538
955.158	492
955.248	-998
955.337	-815
955.427	763
955.516	-44
955.606	-11
955.695	514
955.785	310
955.874	582
955.964	-721
956.053	321
956.142	-140
956.232	153
956.321	-202
956.410	-189
956.500	57
956.589	264
956.678	-168
956.767	276
956.856	-661
956.946	716
957.035	133
957.124	559
957.213	-285
957.302	324
957.391	-571
957.480	-217
957.569	-382
957.658	-274
957.747	-192
957.836	-102
957.925	-465
958.014	-42
958.103	-716
958.192	-69
958.280	-519
958.369	-112
958.458	-60
958.547	941
958.635	-1239
958.724	458
958.813	-299
958.901	-95
958.990	-595
959.079	-77
959.167	81
959.256	-474
959.344	508
959.433	-585
959.521	-182
959.610	388
959.698	-93
959.787	-247
959.875	-717
959.964	977
960.052	1044
960.140	913
960.228	-535
960.317	-267
960.405	-269
960.493	259
960.581	-259
960.670	-171
960.758	-968
960.846	-1127
960.934	-1213
961.022	-141
961.110	224
961.198	776
961.286	163
961.374	549
961.462	-62
961.550	-391
961.638	278
961.726	590
961.814	-753
961.902	-17
961.990	-851
962.078	-187
962.165	-42
962.253	-308
962.341	-1038
962.429	-265
962.516	-1092
962.604	-311
962.692	21
962.779	193
962.867	-568
962.955	-730
963.042	-819
963.130	-814
963.217	42
963.305	138
963.392	-218
963.480	105
963.567	635
963.654	393
963.742	1100
963.829	3556
963.917	7921
964.004	3585
964.091	289
964.178	76
964.266	-581
964.353	466
964.440	-112
964.527	36
964.614	-932
964.701	440
964.789	-65
964.876	1274
964.963	-826
965.050	-257
965.137	-294
965.224	-26
965.311	-28
965.398	424
965.485	-43
965.571	-686
965.658	-1177
965.745	-486
965.832	20
965.919	-860
966.006	-623
966.092	170
966.179	-1620
966.266	158
966.352	-866
966.439	-178
966.526	-366
966.612	-11
966.699	-609
966.786	-605
966.872	-882
966.959	-387
967.045	-698
967.132	-419
967.218	-927
967.304	-631
967.391	-337
967.477	829
967.564	1933
967.650	4534
967.736	1738
967.822	-226
967.909	-967
967.995	-499
968.081	-30
968.167	-948
968.254	-20
968.340	-643
968.426	-870
968.512	448
968.598	-171
968.684	-580
968.770	173
968.856	-389
968.942	177
969.028	92
969.114	-734
969.200	-408
969.286	-754
969.372	-543
969.457	-1312
969.543	172
969.629	-851
969.715	-636
969.801	-683
969.886	-286
969.972	-1300
970.058	4
970.143	-389
970.229	476
970.315	-534
970.400	477
970.486	242
970.571	573
970.657	2847
970.742	617
970.828	-437
970.913	-1042
970.999	-1299
971.084	-984
971.169	-874
971.255	-322
971.340	-648
971.425	-135
971.511	-1240
971.596	-297
971.681	-451
971.766	-942
971.852	-686
971.937	228
972.022	-91
972.107	-957
972.192	-1042
972.277	-401
972.362	-1144
972.447	-78
972.532	-436
972.617	-780
972.702	-322
972.787	-186
972.872	798
972.957	1008
973.042	-620
973.126	-758
973.211	-620
973.296	-506
973.381	-820
973.466	-606
973.550	278
973.635	-513
973.720	-1213
973.804	-586
973.889	-983
973.973	698
974.058	362
974.143	103
974.227	-877
974.312	383
974.396	523
974.481	645
974.565	-618
974.649	-655
974.734	-666
974.818	-151
974.902	-1014
974.987	-261
975.071	-1294
975.155	-1091
975.240	-882
975.324	-1073
975.408	-932
975.492	-1002
975.576	-517
975.660	-139
975.744	-1860
975.829	-1040
975.913	-528
975.997	-1191
976.081	-973
976.165	-456
976.249	-828
976.333	185
976.416	-623
976.500	-201
976.584	-395
976.668	-804
976.752	-611
976.836	-802
976.919	-1193
977.003	-1146
977.087	-321
977.171	-42
977.254	-1359
977.338	477
977.422	-314
977.505	162
977.589	-602
977.672	-666
977.756	-701
977.839	-844
977.923	-1421
978.006	47
978.090	-687
978.173	-1167
978.257	-325
978.340	540
978.423	260
978.507	-390
978.590	-942
978.673	-6
978.756	-655
978.840	-74
978.923	129
979.006	-658
979.089	-1995
979.172	-15
979.255	-1232
979.338	-708
979.422	-649
979.505	-209
979.588	-611
979.671	-723
979.754	-709
979.836	-73
979.919	-619
980.002	-253
980.085	-192
980.168	-618
980.251	-739
980.334	144
980.416	-1438
980.499	-815
980.582	-959
980.665	-959
980.747	-735
980.830	-1118
980.912	-783
980.995	-1245
981.078	-824
981.160	-828
981.243	-446
981.325	-490
981.408	-447
981.490	193
981.573	-1032
981.655	-977
981.738	-172
981.820	-941
981.902	-765
981.984	-1486
982.067	-924
982.149	-603
982.231	-500
982.314	17
982.396	-939
982.478	-456
982.560	-1540
982.642	-36
982.724	-870
982.807	-839
982.888	-1006
982.971	-380
983.053	-891
983.135	-261
983.216	-1263
983.298	252
983.380	-1442
983.462	101
983.544	-969
983.626	-634
983.708	-986
983.790	-977
983.871	-471
983.953	-1109
984.035	-800
984.117	-1138
984.198	-1362
984.280	-671
984.362	-2213
984.443	-280
984.525	-1496
984.606	-1842
984.688	-874
984.769	-899
984.851	-850
984.932	-744
985.014	-1211
985.095	-524
985.177	-1115
985.258	-1359
985.339	-1425
985.421	-233
985.502	-1131
985.583	-1065
985.664	-611
985.746	-558
985.827	-1531
985.908	-840
985.989	-925
986.070	-964
986.151	-897
986.232	-1019
986.313	-761
986.395	-782
986.476	-906
986.557	-718
986.637	-1068
986.718	-761
986.799	-1296
986.880	-305
986.961	-421
987.042	-867
987.123	-791
987.204	-685
987.284	-1624
987.365	-83
987.446	-714
987.526	-526
987.607	-296
987.688	-480
987.768	-757
987.849	-46
987.930	-1333
988.010	-833
988.091	-331
988.171	-1238
988.252	-1813
988.332	28
988.413	-1162
988.493	-596
988.573	-378
988.654	-438
988.734	-1614
988.814	-2222
988.895	-140
988.975	-335
989.055	-1557
989.135	-1015
989.216	-843
989.296	-1515
989.376	-983
989.456	-481
989.536	-1729
989.616	-379
989.696	-1125
989.776	-1359
989.856	-1685
989.936	-644
990.016	-1536
990.096	-478
990.176	-1012
990.256	-768
990.336	-532
990.416	-1247
990.495	-1386
990.575	-529
990.655	-632
990.735	-1160
990.814	-1079
990.894	-1318
990.974	-1658
991.053	-287
991.133	-1258
991.213	-1067
991.292	-366
991.372	-1193
991.451	-662
991.531	-921
991.610	-658
991.690	-934
991.769	-1389
991.849	-614
991.928	-976
992.007	-1053
992.087	-960
992.166	-880
992.245	-488
992.324	-1156
992.404	-1243
992.483	-1891
992.562	-1330
992.641	-1305
992.720	-1436
992.799	-321
992.879	-1078
992.958	-602
993.037	-1441
993.116	-1116
993.195	-253
993.274	-718
993.353	-915
993.432	-203
993.510	-760
993.589	11
993.668	-1414
993.747	-493
993.826	-1768
993.904	-1453
993.983	-1335
994.062	-1283
994.141	-1051
994.219	-1512
994.298	-1928
994.377	-1305
994.455	-973
994.534	-982
994.612	-1321
994.691	-879
994.769	-1268
994.848	-211
994.926	-1207
995.005	-648
995.083	-1209
995.161	-733
995.240	-2058
995.318	-1037
995.397	-1399
995.475	-1410
995.553	-841
995.631	-1458
995.710	-720
995.788	-1198
995.866	-1418
995.944	-962
996.022	-837
996.100	-1087
996.178	-1179
996.256	-1595
996.334	-908
996.412	-193
996.490	-234
996.568	-1249
996.646	-1858
996.724	-483
996.802	-1866
996.880	-687
996.958	-1536
997.036	-1211
997.113	-1464
997.191	-593
997.269	-916
997.346	-1238
997.424	-842
997.502	-1708
997.579	-2158
997.657	-979
997.735	-205
997.812	-1314
997.890	-1601
997.967	-1553
998.045	-653
998.122	-1327
998.200	-1077
998.277	-274
998.354	-983
998.432	-1432
998.509	-405
998.586	-992
998.664	-903
998.741	-542
998.818	-945
998.896	-204
998.973	-1531
999.050	-1729
999.127	-1319
999.204	27
999.281	-1570
999.358	-732
999.435	-1569
999.512	-1051
999.589	-900
999.666	-619
999.743	-1405
999.820	-985
999.897	-922
999.974	-1128
1000.051	-1124
1000.128	-1112
1000.205	-1081
1000.281	-818
1000.358	-1339
1000.435	202
1000.512	-953
1000.588	-1230
1000.665	-1101
1000.741	-1535
1000.818	-1725
1000.895	-1747
1000.971	-701
1001.048	-538
1001.124	-1424
1001.201	-494
1001.277	-1268
1001.354	-827
1001.430	-1684
1001.507	-840
1001.583	-767
1001.659	-1128
1001.736	-1335
1001.812	-615
1001.888	-1343
1001.964	-445
1002.041	-2307
1002.117	-596
1002.193	-1507
1002.269	-1030
1002.345	-1307
1002.421	-1429
1002.497	-787
1002.573	-985
1002.649	-1598
1002.725	-1030
1002.801	-663
1002.877	-528
1002.953	-1520
1003.029	-438
1003.105	-1344
1003.181	-1467
1003.257	-1950
1003.333	-895
1003.408	-1435
1003.484	-1541
1003.560	-1139
1003.636	-1683
1003.711	-1068
1003.787	-668
1003.862	-1566
1003.938	-1348
1004.014	-1191
1004.089	-1379
1004.165	-603
1004.240	-697
1004.316	-1207
1004.391	-1986
1004.467	-912
1004.542	-947
1004.617	-1576
1004.693	-256
1004.768	-1344
1004.844	-134
1004.919	-954
1004.994	-688
1005.069	-1344
1005.145	-852
1005.220	-1206
1005.295	-1299
1005.370	-1827
1005.445	-796
1005.520	-691
1005.595	-1891
1005.670	-777
1005.745	-1760
1005.820	-1347
1005.895	-749
1005.970	-1434
1006.045	-890
1006.120	-1037
1006.195	-813
1006.270	-1058
1006.345	-333
1006.419	-1663
1006.494	-1707
1006.569	-1124
1006.644	-957
1006.718	-778
1006.793	-817
1006.868	-1626
1006.942	-1754
1007.017	-1397
1007.092	-485
1007.166	-1828
1007.241	-863
1007.315	-1987
1007.390	-702
1007.464	-372
1007.539	-1341
1007.613	-1728
1007.687	-620
1007.762	-1844
1007.836	-1550
1007.910	-1848
1007.984	-1543
1008.059	-916
1008.133	-170
1008.207	-1875
1008.281	-109
1008.356	-1761
1008.430	-686
1008.504	-1861
1008.578	-1641
1008.652	-2166
1008.726	-1872
1008.800	-1712
1008.874	-681
1008.948	-1618
1009.022	-893
1009.096	-2123
1009.170	-1467
1009.244	-1840
1009.317	-379
1009.391	-1129
1009.465	-1427
1009.539	-1378
1009.613	-952
1009.686	-1178
1009.760	-1845
1009.834	-1344
1009.907	-38
1009.981	-1927
1010.054	-1244
1010.128	-1638
1010.201	-1051
1010.275	-82
1010.349	-1516
1010.422	-913
1010.495	-1294
1010.569	-1888
1010.642	-424
1010.716	-788
1010.789	-326
1010.862	-1483
1010.936	-1807
1011.009	-352
1011.082	-1268
1011.155	-1323
1011.229	-1188
1011.302	-1279
1011.375	-1032
1011.448	-726
1011.521	-1691
1011.594	-494
1011.667	-233
1011.740	-1556
1011.813	-933
1011.886	-2264
1011.959	-915
1012.032	-1136
1012.105	-989
1012.178	-2380
1012.251	-1236
1012.324	-2298
1012.396	-753
1012.469	-1831
1012.542	-1452
1012.614	-424
1012.687	-1742
1012.760	-1806
1012.833	-741
1012.905	-1811
1012.978	-242
1013.050	-1894
1013.123	-1827
1013.195	-1426
1013.268	-1324
1013.340	-1729
1013.413	-1564
1013.485	-1479
1013.558	-1832
1013.630	-1585
1013.702	-850
1013.775	-1905
1013.847	-1449
1013.919	-1009
1013.992	-1030
1014.064	-1361
1014.136	-1591
1014.208	-1843
1014.280	-1598
1014.353	-1860
1014.425	-1432
1014.497	-1281
1014.569	-1137
1014.641	-1345
1014.713	-973
1014.785	-1868
1014.857	-1397
1014.929	-1836
1015.001	-1629
1015.072	-2093
1015.144	-1518
1015.216	-1177
1015.288	-1196
1015.360	-1869
1015.431	-1863
1015.503	-1327
1015.575	-2292
1015.647	-2162
1015.718	-1609
1015.790	-1835
1015.861	-2348
1015.933	-1733
1016.005	-1174
1016.076	-1813
1016.148	-612
1016.219	-1499
1016.291	-943
1016.362	-1445
1016.433	-1741
1016.505	-1383
1016.576	-826
1016.647	-1786
1016.719	-1329
1016.790	-2246
1016.861	-996
1016.932	-1859
1017.004	-943
1017.075	-1803
1017.146	-1086
1017.217	-1629
1017.288	-1019
1017.359	-1617
1017.430	-1293
1017.502	-1504
1017.573	-1816
1017.644	-863
1017.714	-1740
1017.785	-1429
1017.856	-2031
1017.927	-2433
1017.998	-1499
1018.069	-2086
1018.140	-1346
1018.210	-1877
1018.281	-1253
1018.352	-1366
1018.423	-1173
1018.493	-2436
1018.564	-1424
1018.635	-1461
1018.705	-1830
1018.776	-1656
1018.846	-1627
1018.917	-1977
1018.987	-1675
1019.058	-1799
1019.128	-1292
1019.199	-1726
1019.269	-2203
1019.340	-1295
1019.410	-2263
1019.480	-1641
1019.551	-1473
1019.621	-1723
1019.691	-968
1019.761	-2364
1019.832	-1768
1019.902	-1684
1019.972	-1807
1020.042	-1937
1020.112	-1421
1020.182	-1914
1020.252	-1831
1020.322	-1476
1020.392	-1099
1020.462	-2477
1020.532	-1104
1020.602	-1548
1020.672	-1250
1020.742	-1663
1020.812	-1539
1020.882	-1683
1020.952	-1632
1021.021	-1372
1021.091	-1905
1021.161	-1816
1021.230	-1900
1021.300	-1895
1021.370	-1508
1021.440	-1314
1021.509	-1084
1021.579	-2025
1021.648	-1644
1021.718	-1903
1021.787	-805
1021.857	-1619
1021.926	-1442
1021.996	-1234
1022.065	-1175
1022.134	-1531
1022.204	-1836
1022.273	-1029
1022.342	-1952
1022.412	-1389
1022.481	-1390
1022.550	-2035
1022.619	-1821
1022.689	-1976
1022.758	-1601
1022.827	-1544
1022.896	-1751
1022.965	-1844
1023.034	-1896
1023.103	-2381
1023.172	-1153
1023.241	-2411
1023.310	-1779
1023.379	-1181
1023.448	-572
1023.517	-2167
1023.586	-2353
1023.654	-1751
1023.723	-1263
1023.792	-1392
1023.861	-1554
1023.929	-2187
1023.998	-1690
1024.067	-1325
1024.135	-1031
1024.204	-1852
1024.273	-1563
1024.341	-2233
1024.410	-2396
1024.478	-1521
1024.547	-1831
1024.615	-2594
1024.684	-2026
1024.752	-1445
1024.820	-1471
1024.889	-978
1024.957	-1308
1025.026	-1726
1025.094	-1303
1025.162	-1545
1025.230	-1709
1025.299	-1993
1025.367	-1216
1025.435	-1702
1025.503	-1485
1025.571	-1937
1025.639	-1325
1025.707	-1454
1025.776	-1883
1025.844	-1810
1025.912	-1867
1025.979	-1638
1026.047	-1093
1026.115	-2138
1026.183	-1772
1026.251	-2164
1026.319	-1514
1026.387	-2642
1026.454	-1414
1026.522	-1679
1026.590	-1310
1026.658	-2815
1026.725	-1430
1026.793	-1368
1026.861	-2142
1026.928	-2189
1026.996	-2095
1027.064	-2693
1027.131	-1510
1027.199	-2255
1027.266	-1531
1027.334	-1023
1027.401	-1512
1027.468	-1469
1027.536	-1582
1027.603	-1841
1027.671	-1621
1027.738	-1193
1027.805	-2099
1027.872	-1986
1027.940	-1729
1028.007	-2147
1028.074	-1127
1028.141	-2287
1028.208	-1914
1028.275	-2058
1028.342	-2756
1028.409	-1817
1028.477	-1456
1028.544	-2439
1028.610	-1580
1028.678	-1986
1028.744	-1245
1028.811	-1585
1028.878	-2172
1028.945	-2440
1029.012	-1726
1029.079	-1911
1029.146	-1629
1029.212	-1049
1029.279	-1883
1029.346	-2323
1029.412	-667
1029.479	-1908
1029.546	-904
1029.612	-1354
1029.679	-1268
1029.745	-1385
1029.812	-1778
1029.878	-2649
1029.945	-1503
1030.011	-1907
1030.078	-2322
1030.144	-1634
1030.210	-1607
1030.277	-2019
1030.343	-1671
1030.409	-3053
1030.476	-1746
1030.542	-2675
1030.608	-2470
1030.674	-2389
1030.740	-2413
1030.807	-1700
1030.873	-1577
1030.939	-1975
1031.005	-2194
1031.071	-1865
1031.137	-2371
1031.203	-1685
1031.269	-2101
1031.335	-2117
1031.401	-2509
1031.467	-2549
1031.533	-1934
1031.598	-2109
1031.664	-1693
1031.730	-1959
1031.796	-1640
1031.861	-2114
1031.927	-1962
1031.993	-2844
1032.058	-1864
1032.124	-1883
1032.190	-2065
1032.255	-2208
1032.321	-1771
1032.386	-2410
1032.452	-2767
1032.518	-2330
1032.583	-1891
1032.648	-2051
1032.714	-2041
1032.779	-1812
1032.844	-1891
1032.910	-1756
1032.975	-1584
1033.040	-2318
1033.106	-1875
1033.171	-2163
1033.236	-1982
1033.301	-1407
1033.366	-2166
1033.432	-2750
1033.496	-1239
1033.562	-1259
1033.627	-2064
1033.692	-1116
1033.757	-1849
1033.822	-2063
1033.887	-1964
1033.952	-2835
1034.016	-1158
1034.081	-1770
1034.146	-1468
1034.211	-1839
1034.276	-1821
1034.340	-1391
1034.405	-991
1034.470	-833
1034.535	-1054
1034.599	-1739
1034.664	-825
1034.729	-2070
1034.793	-1662
1034.858	-1414
1034.922	-1849
1034.987	-2337
1035.051	-2517
1035.116	-2705
1035.180	-1537
1035.245	-1749
1035.309	-2099
1035.373	-1768
1035.437	-2098
1035.502	-1950
1035.566	-1964
1035.630	-1745
1035.695	-1850
1035.759	-1713
1035.823	-1953
1035.887	-3176
1035.951	-1364
1036.015	-2452
1036.079	-1963
1036.143	-2526
1036.208	-1622
1036.271	-2111
1036.336	-2680
1036.399	-1425
1036.463	-1496
1036.527	-1068
1036.591	-1599
1036.655	-2526
1036.719	-2001
1036.783	-1805
1036.846	-1488
1036.910	-1305
1036.974	-2277
1037.037	-1949
1037.101	-1423
1037.165	-1997
1037.228	-1983
1037.292	-2044
1037.355	-1822
1037.419	-1869
1037.483	-2076
1037.546	-2922
1037.609	-2489
1037.673	-2218
1037.736	-2319
1037.800	-2013
1037.863	-2048
1037.926	-1630
1037.990	-2013
1038.053	-1988
1038.116	-2316
1038.179	-1954
1038.243	-2583
1038.306	-1784
1038.369	-1545
1038.432	-2115
1038.495	-1493
1038.558	-2346
1038.621	-1681
1038.684	-2335
1038.747	-1558
1038.810	-2442
1038.873	-2217
1038.936	-2838
1038.999	-2077
1039.062	-2908
1039.125	-1732
1039.188	-2344
1039.250	-2055
1039.313	-2533
1039.376	-1735
1039.438	-2266
1039.501	-1861
1039.564	-1657
1039.627	-2482
1039.689	-2058
1039.752	-1634
1039.814	-2134
1039.877	-1762
1039.939	-2517
1040.002	-1205
1040.064	-1758
1040.127	-2381
1040.189	-2267
1040.251	-2353
1040.314	-2358
1040.376	-2382
1040.438	-2375
1040.501	-1199
1040.563	-2569
1040.625	-2896
1040.687	-2225
1040.750	-2380
1040.812	-2887
1040.874	-1629
1040.936	-2964
1040.998	-1911
1041.060	-1499
1041.122	-1844
1041.184	-2766
1041.246	-2439
1041.308	-2281
1041.370	-3126
1041.432	-2626
1041.494	-2729
1041.555	-2212
1041.617	-1796
1041.679	-2125
1041.741	-2384
1041.802	-2550
1041.864	-1914
1041.926	-2023
1041.987	-1424
1042.049	-2732
1042.111	-2572
1042.172	-2133
1042.234	-1745
1042.295	-1958
1042.357	-2341
1042.418	-2152
1042.480	-1589
1042.541	-2489
1042.603	-1627
1042.664	-2503
1042.725	-1423
1042.786	-1843
1042.848	-1879
1042.909	-1838
1042.970	-2069
1043.031	-3202
1043.093	-2193
1043.154	-2534
1043.215	-2622
1043.276	-2087
1043.337	-2511
1043.398	-2408
1043.459	-2090
1043.520	-2577
1043.581	-1798
1043.642	-2434
1043.703	-1785
1043.764	-1853
1043.825	-1722
1043.886	-2868
1043.947	-1012
1044.007	-2088
1044.068	-2343
1044.129	-2618
1044.189	-1815
1044.250	-2279
1044.311	-1685
1044.371	-2231
1044.432	-2318
1044.493	-2677
1044.553	-2137
1044.614	-2574
1044.674	-2318
1044.735	-2842
1044.795	-1248
1044.856	-2588
1044.916	-1641
1044.976	-1950
1045.037	-2037
1045.097	-1491
1045.157	-1909
1045.218	-1513
1045.278	-1988
1045.338	-1516
1045.398	-1656
1045.458	-1926
1045.519	-1898
1045.579	-2076
1045.639	-1542
1045.699	-2404
1045.759	-1574
1045.819	-2548
1045.879	-1975
1045.939	-2688
1045.999	-1784
1046.059	-2067
1046.119	-1943
1046.179	-2072
1046.238	-1858
1046.298	-1746
1046.358	-2234
1046.418	-1332
1046.477	-1962
1046.537	-1530
1046.597	-2580
1046.656	-1487
1046.716	-1092
1046.776	-1432
1046.835	-1943
1046.895	-1534
1046.954	-1265
1047.014	-1220
1047.073	-1067
1047.133	0
