'Start Wavelength	183.833
'End Wavelength	1047.133
'Gate Delay	5.000
'Gate Width (ms)	1.050
'Laser Output Level	0.000
'X Position	0.000
'Y Position	0.000
'Z Position	0.000
'Grid Point Number	1.000
'Shot Number	100.000
183.833	160.000
183.903	-52.000
183.973	214
184.042	516
184.112	341
184.182	189
184.252	393
184.321	242
184.391	336
184.461	-89
184.531	832
184.600	359
184.670	-548
184.740	-374
184.809	-642
184.879	341
184.949	1139
185.018	429
185.088	-104
185.158	-131
185.228	386
185.297	1498
185.367	-23
185.436	-139
185.506	78
185.576	268
185.645	185
185.715	-61
185.785	217
185.854	121
185.924	131
185.993	102
186.063	290
186.133	855
186.202	21
186.272	190
186.341	-45
186.411	-265
186.481	1239
186.550	1247
186.620	631
186.689	290
186.759	43
186.828	-718
186.898	652
186.967	-415
187.037	766
187.106	105
187.176	456
187.246	155
187.315	-107
187.385	640
187.454	900
187.524	1063
187.593	275
187.662	1074
187.732	487
187.801	926
187.871	976
187.940	1008
188.010	923
188.079	648
188.149	906
188.218	1035
188.288	1550
188.357	889
188.426	964
188.496	570
188.565	606
188.635	59
188.704	619
188.773	419
188.843	716
188.912	322
188.981	455
189.051	1090
189.120	1083
189.190	1088
189.259	732
189.328	1369
189.398	384
189.467	447
189.536	333
189.606	1176
189.675	1234
189.744	764
189.813	424
189.883	637
189.952	611
190.021	3566
190.091	5177
190.160	1423
190.229	1103
190.298	969
190.368	791
190.437	603
190.506	144
190.575	216
190.645	803
190.714	-89
190.783	768
190.852	840
190.922	1824
190.991	821
191.060	476
191.129	412
191.198	-211
191.268	465
191.337	978
191.406	1169
191.475	-125
191.544	-66
191.613	354
191.683	834
191.752	675
191.821	756
191.890	288
191.959	-24
192.028	653
192.097	553
192.166	400
192.236	355
192.305	710
192.374	695
192.443	591
192.512	-281
192.581	452
192.650	442
192.719	764
192.788	853
192.857	752
192.926	840
192.995	666
193.064	1650
193.133	1529
193.202	1609
193.271	1069
193.340	1400
193.409	1562
193.478	2351
193.547	2193
193.616	2429
193.685	1614
193.754	1318
193.823	353
193.892	871
193.961	362
194.030	1499
194.099	-3
194.168	31
194.237	1083
194.306	25
194.375	490
194.444	1720
194.513	739
194.582	1634
194.651	1665
194.720	393
194.788	-105
194.857	1101
194.926	1119
194.995	688
195.064	1421
195.133	1739
195.202	2503
195.270	1647
195.339	970
195.408	381
195.477	2230
195.546	2354
195.615	900
195.683	1977
195.752	1892
195.821	1830
195.890	1841
195.959	2393
196.027	2482
196.096	2440
196.165	1779
196.234	1786
196.303	1513
196.371	890
196.440	1372
196.509	641
196.578	-116
196.646	480
196.715	1125
196.784	1270
196.853	495
196.921	1134
196.990	-9
197.059	1308
197.127	1865
197.196	969
197.265	526
197.333	1024
197.402	478
197.471	157
197.539	520
197.608	1795
197.677	4698
197.745	2262
197.814	5149
197.883	3705
197.951	4130
198.020	2508
198.088	1564
198.157	2248
198.226	5870
198.294	1744
198.363	1345
198.431	909
198.500	2695
198.569	5593
198.637	919
198.706	1448
198.774	7126
198.843	6569
198.911	1407
198.980	1581
199.048	1080
199.117	1461
199.185	1315
199.254	632
199.322	1268
199.391	979
199.459	1124
199.528	1295
199.596	1289
199.665	932
199.733	1444
199.802	1386
199.870	1187
199.939	397
200.007	1201
200.076	1294
200.144	1128
200.213	1297
200.281	1867
200.349	1842
200.418	1573
200.486	471
200.555	787
200.623	930
200.691	1398
200.760	1114
200.828	1111
200.897	1284
200.965	170
201.033	1479
201.102	840
201.170	1088
201.238	1247
201.307	1783
201.375	1021
201.443	1689
201.512	1493
201.580	1045
201.648	987
201.716	1170
201.785	2299
201.853	1182
201.921	1164
201.990	930
202.058	701
202.126	427
202.194	1325
202.263	573
202.331	323
202.399	2002
202.467	2546
202.536	10294
202.604	6226
202.672	1348
202.740	934
202.808	1311
202.877	1931
202.945	1484
203.013	730
203.081	1102
203.149	922
203.218	1163
203.286	988
203.354	1525
203.422	924
203.490	1231
203.558	767
203.626	907
203.695	733
203.763	1206
203.831	436
203.899	1177
203.967	1391
204.035	797
204.103	1406
204.171	1192
204.239	1736
204.307	1583
204.375	1459
204.443	548
204.512	337
204.580	817
204.648	942
204.716	717
204.784	1010
204.852	691
204.920	1195
204.988	1045
205.056	1794
205.124	2113
205.192	940
205.260	1501
205.328	865
205.396	1382
205.464	977
205.532	1095
205.600	197
205.667	1263
205.735	5825
205.803	8989
205.871	1915
205.939	852
206.007	1272
206.075	1166
206.143	1334
206.211	988
206.279	701
206.347	1231
206.414	1624
206.482	1079
206.550	1657
206.618	1352
206.686	943
206.754	1419
206.822	2662
206.889	288
206.957	638
207.025	578
207.093	255
207.161	850
207.229	1270
207.296	756
207.364	1006
207.432	877
207.500	653
207.567	1483
207.635	1032
207.703	1314
207.771	373
207.839	1691
207.906	568
207.974	1626
208.042	816
208.109	2130
208.177	1912
208.245	1412
208.313	2712
208.380	5467
208.448	2295
208.516	576
208.583	2005
208.651	1808
208.719	1184
208.786	1437
208.854	1614
208.922	1235
208.989	1539
209.057	2131
209.125	1453
209.192	1113
209.260	1332
209.327	3941
209.395	1758
209.463	1037
209.530	2087
209.598	1078
209.665	1814
209.733	1910
209.801	1128
209.868	1357
209.936	2207
210.003	2298
210.071	2924
210.138	2267
210.206	4124
210.273	2524
210.341	1706
210.408	1219
210.476	1392
210.543	2321
210.611	3264
210.678	2418
210.746	2377
210.813	2738
210.881	3861
210.948	2683
211.016	2496
211.083	1600
211.151	1599
211.218	2941
211.285	3358
211.353	1973
211.420	2335
211.488	1622
211.555	1309
211.622	1910
211.690	1004
211.757	2078
211.825	2125
211.892	2413
211.959	2116
212.027	1679
212.094	1915
212.161	2308
212.229	3808
212.296	9742
212.363	31455
212.431	12932
212.498	5134
212.565	2307
212.633	2632
212.700	2667
212.767	1944
212.835	3212
212.902	2480
212.969	2140
213.036	2352
213.104	2755
213.171	3156
213.238	2445
213.305	1967
213.373	1719
213.440	1372
213.507	3122
213.574	3134
213.641	1246
213.709	1437
213.776	3357
213.843	3691
213.910	3786
213.977	2506
214.045	1460
214.112	2014
214.179	2799
214.246	2449
214.313	1922
214.380	3283
214.447	3448
214.515	2704
214.582	2639
214.649	2666
214.716	2261
214.783	2646
214.850	2335
214.917	3655
214.984	4011
215.051	4309
215.118	4506
215.185	2223
215.253	3279
215.320	2687
215.387	2807
215.454	2805
215.521	1539
215.588	3214
215.655	2129
215.722	3829
215.789	3764
215.856	3674
215.923	4821
215.990	3014
216.057	2170
216.124	3122
216.191	3173
216.258	2871
216.325	3435
216.391	3650
216.458	3221
216.525	4228
216.592	11083
216.659	9870
216.726	5020
216.793	4469
216.860	3184
216.927	3110
216.994	2766
217.061	4623
217.127	3512
217.194	4736
217.261	6180
217.328	5863
217.395	4456
217.462	3292
217.529	3476
217.595	3009
217.662	3333
217.729	8365
217.796	6983
217.863	2843
217.929	2718
217.996	2879
218.063	2223
218.130	1755
218.196	2274
218.263	2152
218.330	2572
218.397	2460
218.463	2019
218.530	2737
218.597	10406
218.664	10246
218.730	3989
218.797	2229
218.864	2538
218.930	2026
218.997	1995
219.064	4179
219.131	8443
219.197	3623
219.264	1644
219.331	1720
219.397	703
219.464	2148
219.530	6214
219.597	4519
219.664	1891
219.730	2097
219.797	1381
219.864	2198
219.930	4379
219.997	12405
220.063	6168
220.130	3403
220.196	2646
220.263	3567
220.330	6448
220.396	9373
220.463	5546
220.529	3731
220.596	3491
220.662	4200
220.729	15413
220.795	10073
220.862	10598
220.928	16374
220.995	19458
221.061	21950
221.128	16435
221.194	5469
221.261	3470
221.327	2997
221.394	2598
221.460	3554
221.526	4448
221.593	20608
221.659	13111
221.726	13643
221.792	10993
221.859	5993
221.925	3413
221.991	2961
222.058	1714
222.124	4250
222.190	3358
222.257	1824
222.323	1176
222.390	1771
222.456	1657
222.522	1852
222.589	1641
222.655	1921
222.721	2252
222.788	1928
222.854	1967
222.920	1882
222.986	1915
223.053	2242
223.119	1123
223.185	2205
223.251	579
223.318	1972
223.384	1872
223.450	1200
223.516	1229
223.583	1665
223.649	2065
223.715	1506
223.781	1494
223.848	1691
223.914	1891
223.980	1864
224.046	1660
224.112	1446
224.178	1558
224.245	1447
224.311	1180
224.377	1442
224.443	2025
224.509	2297
224.575	1623
224.641	1722
224.708	1399
224.774	2023
224.840	2871
224.906	1893
224.972	2381
225.038	2911
225.104	2435
225.170	1795
225.236	1661
225.302	1478
225.368	2025
225.434	1772
225.500	3061
225.566	2315
225.632	2500
225.699	2445
225.765	2958
225.831	3880
225.897	8536
225.963	5793
226.028	4489
226.094	3925
226.160	4862
226.226	13878
226.292	26645
226.358	13064
226.424	7106
226.490	5064
226.556	4688
226.622	6816
226.688	10246
226.754	12395
226.820	38408
226.886	33155
226.951	11085
227.017	6194
227.083	5334
227.149	6964
227.215	5691
227.281	3820
227.347	3849
227.412	3969
227.478	7295
227.544	11249
227.610	5561
227.676	4069
227.742	3710
227.807	2968
227.873	3128
227.939	6595
228.005	3440
228.070	1766
228.136	1452
228.202	2475
228.268	3774
228.333	7571
228.399	5130
228.465	2154
228.531	2031
228.596	2799
228.662	8251
228.728	5488
228.793	3041
228.859	3368
228.925	4063
228.990	4498
229.056	5148
229.122	3536
229.187	5089
229.253	3317
229.319	2815
229.384	6621
229.450	2238
229.516	1090
229.581	3473
229.647	4287
229.712	15124
229.778	15769
229.844	9425
229.909	8318
229.975	7278
230.040	5207
230.106	5709
230.171	6223
230.237	9760
230.302	9653
230.368	4053
230.433	4057
230.499	5224
230.564	3291
230.630	2837
230.695	2729
230.761	2185
230.826	7928
230.892	5033
230.957	2609
231.023	3254
231.088	2727
231.154	3276
231.219	6794
231.285	7946
231.350	2944
231.415	2519
231.481	2780
231.546	1915
231.612	2037
231.677	1917
231.742	3444
231.808	2198
231.873	2193
231.938	8389
232.004	8388
232.069	3468
232.135	2843
232.200	2094
232.265	1771
232.330	1718
232.396	2262
232.461	1492
232.526	2788
232.592	3373
232.657	8514
232.722	5975
232.788	2910
232.853	2079
232.918	2642
232.983	2557
233.048	8020
233.114	6943
233.179	10467
233.244	14151
233.309	4556
233.375	3613
233.440	3000
233.505	3091
233.570	2938
233.635	2764
233.700	8069
233.766	11955
233.831	5028
233.896	5353
233.961	6204
234.026	4937
234.091	4220
234.156	4407
234.222	7769
234.287	27409
234.352	25963
234.417	13365
234.482	8847
234.547	7139
234.612	5464
234.677	7211
234.742	27377
234.807	18446
234.872	7023
234.937	5617
235.002	5235
235.067	4716
235.132	3884
235.197	3789
235.262	3716
235.327	4372
235.392	6273
235.457	7061
235.522	4453
235.587	4037
235.652	3236
235.717	4469
235.782	5560
235.847	14820
235.912	16732
235.977	18772
236.042	7387
236.107	7184
236.172	7218
236.236	4426
236.301	4054
236.366	8372
236.431	17391
236.496	8815
236.561	13615
236.626	55042
236.691	39970
236.755	16316
236.820	14208
236.885	9141
236.950	8005
237.015	8814
237.079	11969
237.144	16302
237.209	52635
237.274	102836
237.339	44923
237.403	17544
237.468	14181
237.533	8098
237.598	6766
237.662	6033
237.727	7574
237.792	12192
237.856	13779
237.921	7631
237.986	13081
238.050	13235
238.115	36791
238.180	32947
238.245	17916
238.309	11615
238.374	9407
238.438	8250
238.503	4658
238.568	5245
238.632	4111
238.697	4251
238.762	16123
238.826	21453
238.891	9555
238.955	10397
239.020	5892
239.085	6908
239.149	4542
239.214	4872
239.278	4514
239.343	4213
239.407	6581
239.472	35432
239.536	29264
239.601	9570
239.665	5281
239.730	6672
239.794	14470
239.859	28266
239.923	12433
239.988	5814
240.052	5167
240.117	5561
240.181	5156
240.246	5200
240.310	6172
240.374	20604
240.439	35857
240.503	11721
240.568	16971
240.632	21624
240.696	8232
240.761	5559
240.825	4401
240.890	4852
240.954	20595
241.018	36977
241.083	19535
241.147	6516
241.211	9328
241.276	19255
241.340	9163
241.404	6296
241.469	6227
241.533	5976
241.597	4520
241.661	4965
241.726	6125
241.790	5276
241.854	5259
241.919	5681
241.983	4907
242.047	4075
242.111	4859
242.175	4034
242.240	5667
242.304	5674
242.368	7686
242.432	6422
242.496	5041
242.561	4567
242.625	4885
242.689	3634
242.753	4745
242.817	5154
242.881	5622
242.946	5981
243.010	7272
243.074	7400
243.138	6305
243.202	6420
243.266	6038
243.330	6516
243.394	31055
243.458	92080
243.522	30690
243.586	13203
243.651	7212
243.715	7915
243.779	12410
243.843	15497
243.907	25615
243.971	16971
244.035	8209
244.099	5943
244.163	11576
244.227	16213
244.291	14068
244.355	10038
244.419	8754
244.483	6596
244.546	5296
244.610	4982
244.674	8938
244.738	10257
244.802	6179
244.866	5174
244.930	4934
244.994	5798
245.058	5786
245.122	9925
245.186	10193
245.249	9929
245.313	9450
245.377	6343
245.441	5824
245.505	6390
245.569	7047
245.632	9052
245.696	23355
245.760	12162
245.824	9309
245.888	6956
245.951	7470
246.015	7414
246.079	10590
246.143	31377
246.207	53823
246.270	22954
246.334	12695
246.398	12805
246.461	23542
246.525	12677
246.589	10433
246.653	9885
246.716	13495
246.780	14572
246.844	21377
246.907	8810
246.971	7904
247.035	9128
247.098	9515
247.162	28907
247.226	72629
247.289	33391
247.353	14698
247.416	24763
247.480	14956
247.544	10675
247.607	15177
247.671	9960
247.734	8652
247.798	9310
247.861	27484
247.925	63140
247.989	23038
248.052	10079
248.116	11792
248.179	21219
248.243	108336
248.306	110055
248.370	71142
248.433	25425
248.497	17649
248.560	26977
248.624	34451
248.687	43468
248.751	116287
248.814	59502
248.877	56151
248.941	81063
249.004	137054
249.068	112296
249.131	38363
249.194	22873
249.258	27982
249.321	19174
249.385	14692
249.448	11721
249.511	16142
249.575	27877
249.638	20225
249.701	12701
249.765	12295
249.828	15235
249.891	12180
249.955	10769
250.018	40344
250.081	56313
250.145	23112
250.208	16041
250.271	16205
250.334	14514
250.398	12190
250.461	16755
250.524	22720
250.587	93605
250.651	157012
250.714	55427
250.777	29291
250.840	17701
250.903	15282
250.967	28155
251.030	66846
251.093	31051
251.156	27530
251.219	23228
251.282	28919
251.345	132114
251.409	125659
251.472	71671
251.535	246637
251.598	172423
251.661	59890
251.724	78046
251.787	74311
251.850	157964
251.913	87524
251.976	32145
252.039	24619
252.103	23133
252.166	50328
252.229	127839
252.292	110603
252.355	223804
252.418	94877
252.481	45351
252.544	30285
252.607	30036
252.670	91138
252.733	98904
252.796	207979
252.858	140316
252.921	80399
252.984	43024
253.047	30315
253.110	22723
253.173	32640
253.236	26044
253.299	30742
253.362	27566
253.425	25937
253.488	62307
253.550	39829
253.613	44270
253.676	47566
253.739	21762
253.802	28046
253.865	27432
253.928	19113
253.990	40095
254.053	66425
254.116	48489
254.179	42129
254.242	20300
254.304	38361
254.367	42115
254.430	34889
254.493	42064
254.555	75686
254.618	40735
254.681	23653
254.743	18484
254.806	19463
254.869	47125
254.932	49771
254.994	19203
255.057	19409
255.120	10919
255.182	10062
255.245	12038
255.308	8951
255.370	6791
255.433	7839
255.496	7626
255.558	6970
255.621	9073
255.683	7086
255.746	7690
255.809	5979
255.871	5525
255.934	5971
255.996	7590
256.059	5765
256.121	10028
256.184	33218
256.246	23864
256.309	21015
256.371	10832
256.434	7514
256.496	6712
256.559	7671
256.621	14457
256.684	27672
256.746	77039
256.809	29321
256.871	14659
256.934	12451
256.996	15218
257.059	10392
257.121	7532
257.183	7530
257.246	8471
257.308	7253
257.371	17575
257.433	98000
257.495	96683
257.558	58356
257.620	34497
257.683	17621
257.745	15990
257.807	9478
257.870	9125
257.932	8479
257.994	7349
258.056	6510
258.119	10080
258.181	26422
258.243	14941
258.306	8494
258.368	34043
258.430	30909
258.492	39207
258.555	52140
258.617	13485
258.679	12377
258.741	23033
258.803	13017
258.866	7516
258.928	7603
258.990	7101
259.052	12240
259.114	16932
259.177	10027
259.239	11868
259.301	31861
259.363	21817
259.425	9229
259.487	7769
259.549	8511
259.611	8469
259.674	8468
259.736	33971
259.798	68636
259.860	100455
259.922	87317
259.984	24120
260.046	11868
260.108	9147
260.170	7478
260.232	6875
260.294	8472
260.356	6904
260.418	15066
260.480	28537
260.542	24984
260.604	56204
260.666	77505
260.728	20098
260.790	14925
260.852	11374
260.914	10602
260.976	9924
261.038	21275
261.100	66380
261.161	57459
261.223	18901
261.285	33428
261.347	48750
261.409	14629
261.471	11218
261.533	7368
261.595	8385
261.656	20333
261.718	51742
261.780	23357
261.842	13951
261.904	10278
261.966	11952
262.027	8842
262.089	21080
262.151	17073
262.213	9253
262.274	28080
262.336	22235
262.398	9673
262.460	22372
262.521	50301
262.583	16264
262.645	9856
262.706	12939
262.768	46364
262.830	20770
262.892	12048
262.953	12802
263.015	68943
263.077	174400
263.138	57074
263.200	30472
263.261	13230
263.323	10271
263.385	7493
263.446	8684
263.508	25495
263.569	16107
263.631	8278
263.693	5584
263.754	5500
263.816	5074
263.877	4686
263.939	4507
264.000	8014
264.062	21060
264.123	12230
264.185	4226
264.246	4871
264.308	16530
264.369	36033
264.431	10610
264.492	6660
264.554	11251
264.615	25734
264.677	11329
264.738	7173
264.800	4504
264.861	6288
264.922	4612
264.984	4102
265.045	3991
265.107	7069
265.168	33402
265.229	29936
265.291	8381
265.352	5564
265.413	5362
265.475	3407
265.536	5862
265.597	5743
265.659	4450
265.720	3391
265.781	3163
265.843	3888
265.904	8646
265.965	59988
266.026	43767
266.088	13444
266.149	13994
266.210	8077
266.271	5093
266.333	6624
266.394	6647
266.455	5407
266.516	3630
266.577	14227
266.639	26702
266.700	9044
266.761	5438
266.822	4830
266.883	8416
266.944	6253
267.005	5113
267.067	4573
267.128	3332
267.189	4578
267.250	6161
267.311	4737
267.372	3527
267.433	4476
267.494	4802
267.555	4076
267.616	2607
267.677	3658
267.738	3310
267.799	14988
267.860	35760
267.921	13622
267.982	10321
268.043	6432
268.104	6743
268.165	5900
268.226	4390
268.287	3527
268.348	6227
268.409	7381
268.470	4033
268.531	3079
268.592	2902
268.653	3251
268.714	3959
268.775	5017
268.836	20159
268.896	26051
268.957	11565
269.018	5178
269.079	4868
269.140	3917
269.201	5126
269.262	4828
269.322	4431
269.383	6126
269.444	9549
269.505	13685
269.565	17748
269.626	10688
269.687	7091
269.748	5179
269.809	8602
269.869	15416
269.930	6551
269.991	4704
270.051	3372
270.112	3761
270.173	4164
270.234	4124
270.294	4038
270.355	6013
270.416	4349
270.476	4890
270.537	15370
270.598	35088
270.658	14804
270.719	7470
270.779	11727
270.840	9482
270.901	6758
270.961	7713
271.022	9172
271.082	16041
271.143	15242
271.203	6789
271.264	5408
271.325	8312
271.385	29290
271.446	15724
271.506	7818
271.567	8556
271.627	7523
271.688	7989
271.748	22443
271.809	97148
271.869	141223
271.930	37211
271.990	58836
272.050	114394
272.111	29065
272.171	16584
272.232	17466
272.292	79264
272.352	40642
272.413	26751
272.473	25413
272.534	25491
272.594	20127
272.654	19910
272.715	38433
272.775	18492
272.835	14962
272.896	8640
272.956	8621
273.016	18109
273.077	15007
273.137	9213
273.197	11260
273.257	44880
273.318	101120
273.378	35837
273.438	35106
273.498	82440
273.559	31550
273.619	48557
273.679	113600
273.739	40745
273.799	19975
273.860	48713
273.920	98710
273.980	25057
274.040	16264
274.100	22575
274.160	125808
274.221	113587
274.281	79905
274.341	87901
274.401	58613
274.461	21898
274.521	19253
274.581	78453
274.641	110705
274.701	40779
274.761	18430
274.821	41170
274.882	152123
274.942	128907
275.002	74734
275.062	27315
275.122	16058
275.182	13227
275.242	16665
275.302	30566
275.362	27825
275.421	17793
275.481	57505
275.541	138749
275.601	78428
275.661	40205
275.721	27794
275.781	15449
275.841	9994
275.901	12640
275.961	10719
276.021	8684
276.081	20605
276.140	62717
276.200	27538
276.260	19325
276.320	11318
276.380	14198
276.440	10009
276.499	7569
276.559	6694
276.619	13570
276.679	39420
276.738	29492
276.798	12957
276.858	16658
276.918	12619
276.978	8786
277.037	8375
277.097	14963
277.157	52117
277.216	22666
277.276	13144
277.336	8050
277.395	10171
277.455	10128
277.515	9712
277.574	40988
277.634	75411
277.694	24680
277.753	91808
277.813	69731
277.873	53794
277.932	169125
277.992	56755
278.051	54892
278.111	75629
278.171	30516
278.230	84871
278.290	52465
278.349	19947
278.409	13242
278.468	10095
278.528	9683
278.587	9015
278.647	10919
278.706	37869
278.766	112034
278.825	31118
278.885	18499
278.944	19017
279.004	30458
279.063	32226
279.122	18734
279.182	16508
279.241	16747
279.301	19724
279.360	36216
279.419	156704
279.479	498263
279.538	438811
279.598	112222
279.657	59801
279.716	91381
279.776	152534
279.835	50398
279.894	26925
279.953	23182
280.013	45578
280.072	77401
280.131	56853
280.191	331404
280.250	390087
280.309	92296
280.368	61489
280.428	52825
280.487	26704
280.546	21277
280.605	31800
280.664	47406
280.724	16793
280.783	12247
280.842	11011
280.901	9948
280.960	10264
281.019	9492
281.079	8572
281.138	8801
281.197	12850
281.256	66466
281.315	50422
281.374	13762
281.433	10769
281.492	9214
281.551	8050
281.611	7477
281.670	9551
281.729	9240
281.788	6628
281.847	6776
281.906	7785
281.965	6020
282.024	6006
282.083	5075
282.142	4915
282.201	6955
282.260	31991
282.319	21083
282.378	7672
282.436	11577
282.495	48758
282.554	27208
282.613	9925
282.672	7762
282.731	11209
282.790	11150
282.849	10012
282.908	6208
282.967	4785
283.025	5654
283.084	8209
283.143	26761
283.202	61195
283.261	17934
283.319	9858
283.378	9848
283.437	8905
283.496	16127
283.555	12062
283.613	7238
283.672	7595
283.731	19796
283.790	23327
283.848	8528
283.907	8662
283.966	13022
284.024	14881
284.083	8531
284.142	13550
284.201	9719
284.259	16761
284.318	66826
284.376	56263
284.435	17740
284.494	23767
284.552	18449
284.611	15933
284.670	17625
284.728	19179
284.787	26345
284.845	29440
284.904	29695
284.962	39828
285.021	74110
285.079	234105
285.138	735953
285.197	708998
285.255	272039
285.314	131849
285.372	78251
285.431	50228
285.489	36990
285.547	27132
285.606	21402
285.664	16576
285.723	15957
285.781	14873
285.840	13894
285.898	9997
285.957	7884
286.015	7786
286.073	7574
286.132	8055
286.190	10970
286.248	10565
286.307	16678
286.365	13776
286.423	6939
286.482	6286
286.540	5486
286.598	9508
286.657	8451
286.715	7061
286.773	9081
286.832	14313
286.890	25258
286.948	9978
287.006	7149
287.064	6437
287.123	7440
287.181	11988
287.239	8745
287.297	10938
287.356	28117
287.414	16319
287.472	11358
287.530	8933
287.588	7915
287.646	13052
287.704	17630
287.763	9180
287.821	10068
287.879	10289
287.937	14371
287.995	35161
288.053	209001
288.111	699064
288.169	292865
288.227	84697
288.285	47824
288.343	37367
288.401	27248
288.459	16783
288.517	12624
288.575	11094
288.633	8507
288.691	7966
288.749	8026
288.807	6438
288.865	6464
288.923	5874
288.981	6009
289.039	5147
289.097	5978
289.155	6359
289.213	5081
289.271	4233
289.329	6358
289.386	13735
289.444	14994
289.502	6868
289.560	3498
289.618	3424
289.676	3695
289.734	3871
289.791	4781
289.849	6514
289.907	7836
289.965	4174
290.022	4272
290.080	6473
290.138	7776
290.196	4246
290.253	2581
290.311	3271
290.369	3300
290.427	2000
290.484	3554
290.542	3177
290.600	4389
290.657	4246
290.715	5199
290.773	3512
290.830	4567
290.888	4812
290.946	4205
291.003	3633
291.061	4249
291.118	22531
291.176	51993
291.234	14181
291.291	5748
291.349	5737
291.406	5264
291.464	5020
291.521	5094
291.579	3799
291.636	3492
291.694	5999
291.751	16411
291.809	9121
291.866	4801
291.924	5132
291.981	6206
292.039	6261
292.096	3935
292.154	4921
292.211	6915
292.268	15490
292.326	17509
292.383	9860
292.441	5736
292.498	8386
292.555	10135
292.613	12436
292.670	7631
292.727	8614
292.785	26225
292.842	66211
292.899	36030
292.957	10629
293.014	6960
293.071	6195
293.129	5950
293.186	4175
293.243	7903
293.300	10386
293.358	6305
293.415	3779
293.472	4438
293.529	9873
293.586	49938
293.644	131555
293.701	53040
293.758	22391
293.815	17329
293.872	18494
293.929	12183
293.987	10761
294.044	24953
294.101	47764
294.158	45430
294.215	17888
294.272	10481
294.329	9419
294.386	12745
294.443	10165
294.500	7752
294.558	5692
294.615	7246
294.672	29638
294.729	131248
294.786	102954
294.843	40011
294.900	25375
294.957	20321
295.014	15151
295.070	9842
295.127	7824
295.184	5872
295.241	9898
295.298	49907
295.355	103831
295.412	37215
295.469	16705
295.526	33767
295.583	51133
295.640	49749
295.696	79486
295.753	28745
295.810	13003
295.867	12251
295.924	21826
295.981	19690
296.037	9062
296.094	6971
296.151	5413
296.208	5433
296.265	5138
296.321	5159
296.378	7959
296.435	35671
296.492	63910
296.548	35347
296.605	107517
296.662	154333
296.718	48164
296.775	21208
296.832	22590
296.888	51230
296.945	99469
297.002	68106
297.058	23234
297.115	15657
297.172	22923
297.228	115393
297.285	207287
297.341	65243
297.398	24377
297.454	15841
297.511	12091
297.568	12340
297.624	9074
297.681	7351
297.737	6343
297.794	5154
297.850	5870
297.907	5395
297.963	6621
298.020	14717
298.076	56349
298.133	47924
298.189	19727
298.245	43614
298.302	139412
298.358	78538
298.415	41103
298.471	32863
298.527	22482
298.584	16318
298.640	27942
298.697	70860
298.753	49918
298.809	17829
298.866	10129
298.922	8822
298.978	13309
299.035	10396
299.091	8369
299.147	9010
299.203	6605
299.260	7379
299.316	24210
299.372	120143
299.428	110608
299.485	34643
299.541	18518
299.597	13941
299.653	12345
299.710	10593
299.766	7372
299.822	16389
299.878	77721
299.934	81526
299.990	77682
300.046	151353
300.103	68861
300.159	29196
300.215	33838
300.271	36447
300.327	17087
300.383	10789
300.439	8713
300.495	8482
300.551	8578
300.607	22476
300.663	56381
300.719	76267
300.775	109437
300.831	56203
300.887	71702
300.943	55371
300.999	20887
301.055	14816
301.111	16626
301.167	12092
301.223	7043
301.279	7148
301.335	6373
301.391	5474
301.447	5493
301.503	8832
301.559	19409
301.614	17887
301.670	32952
301.726	49717
301.782	29139
301.838	50273
301.894	47995
301.949	112925
302.005	351193
302.061	322768
302.117	130649
302.173	51114
302.228	32100
302.284	30730
302.340	58293
302.396	43783
302.451	35849
302.507	110156
302.563	120327
302.618	59589
302.674	23731
302.730	14345
302.785	10947
302.841	10954
302.897	15110
302.952	27910
303.008	23754
303.064	33971
303.119	36928
303.175	17606
303.230	9862
303.286	7557
303.341	5714
303.397	5669
303.453	5472
303.508	6073
303.564	9337
303.619	30993
303.675	110753
303.730	82769
303.786	30000
303.841	15428
303.897	12367
303.952	18398
304.008	25980
304.063	22295
304.118	44663
304.174	43097
304.229	34426
304.285	16927
304.340	9802
304.372	10189
304.395	10497
304.451	9837
304.463	9504
304.506	8427
304.554	8960
304.562	9086
304.617	20049
304.644	49669
304.672	80707
304.728	121911
304.735	112901
304.783	53427
304.825	29490
304.838	22339
304.894	13261
304.916	12520
304.949	11892
305.004	9925
305.006	9789
305.059	7380
305.097	6173
305.115	5615
305.170	4483
305.188	4648
305.225	5173
305.278	7488
305.280	7596
305.336	6877
305.369	7567
305.391	8108
305.446	12095
305.459	12135
305.501	12293
305.550	10582
305.556	10420
305.612	23226
305.640	53580
305.667	83325
305.722	97587
305.731	92485
305.777	61622
305.821	87389
305.832	94890
305.887	96627
305.912	75416
305.942	45470
305.997	21627
306.002	20674
306.053	14116
306.092	10572
306.108	9405
306.163	8166
306.183	7364
306.218	6148
306.273	6253
306.273	6239
306.328	6462
306.364	6282
306.383	6143
306.438	6691
306.454	7740
306.493	10732
306.545	27566
306.548	28843
306.603	49713
306.635	65626
306.658	77271
306.713	63018
306.725	57343
306.768	31389
306.816	16085
306.823	14471
306.878	10285
306.906	8522
306.933	7416
306.988	7206
306.997	7136
307.043	7166
307.087	10158
307.098	11032
307.152	20167
307.177	24701
307.207	30311
307.262	33629
307.268	32644
307.317	22062
307.358	17307
307.372	16118
307.427	29121
307.448	41014
307.482	63426
307.536	69819
307.538	68922
307.591	35746
307.629	22734
307.646	17601
307.701	13492
307.719	16068
307.756	25243
307.809	49027
307.810	49499
307.865	39331
307.900	30001
307.920	23362
307.975	15086
307.990	15158
308.029	19945
308.080	49706
308.084	53999
308.139	182750
308.170	212488
308.194	220642
308.248	136574
308.261	128917
308.303	85962
308.351	51185
308.358	48574
308.412	27591
308.441	21248
308.467	17108
308.522	11564
308.531	10831
308.576	9583
308.621	10015
308.631	10464
308.686	21659
308.712	34099
308.740	49812
308.795	50685
308.802	49611
308.849	30944
308.892	20186
308.904	18550
308.959	15949
308.982	16945
309.013	21228
309.068	36946
309.072	39325
309.122	76420
309.162	146861
309.177	184323
309.231	340978
309.253	338709
309.286	265800
309.340	146044
309.343	142625
309.395	73174
309.433	36690
309.449	32054
309.504	23977
309.523	22688
309.558	25734
309.613	38874
309.613	38966
309.667	54202
309.703	55121
309.722	48633
309.776	30123
309.793	25794
309.830	21782
309.883	23632
309.885	24239
309.939	57527
309.973	71135
309.994	72411
310.048	59859
310.063	56620
310.102	35026
310.153	12906
310.157	12455
310.211	8272
310.243	6389
310.265	6178
310.320	6046
310.333	5955
310.374	5511
310.423	5022
310.428	4954
310.483	4600
310.513	4834
310.537	5286
310.591	6101
310.603	6064
310.646	5234
310.693	4114
310.700	3883
310.754	2616
310.783	2068
310.808	2164
310.862	2538
310.873	2626
310.917	2971
310.963	3557
310.971	3621
311.025	4049
311.053	4052
311.079	3746
311.133	3412
311.143	3346
311.188	3235
311.233	3024
311.242	2950
311.296	2708
311.323	2571
311.350	2525
311.404	2459
311.413	2453
311.458	2096
311.503	1811
311.512	1952
311.567	2943
311.593	3418
311.621	4271
311.675	5762
311.683	6007
311.729	5282
311.772	4531
311.783	4372
311.837	3629
311.862	3370
311.891	4970
311.945	8004
311.952	8413
311.999	6433
312.042	4676
312.053	4392
312.107	3088
312.132	2507
312.222	2391
312.311	4294
312.401	2947
312.491	4639
312.581	8196
312.671	2228
312.760	1742
312.850	2553
312.940	3128
313.030	2656
313.119	2661
313.209	2351
313.299	1903
313.389	4083
313.478	3094
313.568	2636
313.658	1249
313.747	1095
313.837	1225
313.927	2326
314.016	2963
314.106	3553
314.195	4672
314.285	4292
314.375	5287
314.464	3166
314.554	1081
314.643	1587
314.733	3082
314.823	3145
314.912	1877
315.002	2176
315.091	3959
315.181	4209
315.270	3630
315.360	3484
315.449	3146
315.539	4065
315.628	4139
315.718	4957
315.807	6446
315.896	9675
315.986	4211
316.075	10368
316.165	14319
316.254	12191
316.344	2727
316.433	2332
316.522	1760
316.612	4130
316.701	2213
316.790	9898
316.880	10497
316.969	1322
317.058	1457
317.148	1438
317.237	1521
317.326	1411
317.415	1268
317.505	4267
317.594	3150
317.683	2407
317.772	4484
317.862	9748
317.951	17683
318.040	10828
318.129	4947
318.219	3828
318.308	4610
318.397	6547
318.486	9148
318.575	20551
318.664	32698
318.754	3992
318.843	4680
318.932	4111
319.021	6644
319.110	23281
319.199	51282
319.288	23734
319.377	8641
319.466	2742
319.555	3752
319.644	14373
319.733	12930
319.822	4922
319.911	27377
320.000	59164
320.089	10968
320.178	4589
320.267	6693
320.356	7362
320.445	5195
320.534	7973
320.623	2974
320.712	2384
320.801	3174
320.890	5065
320.979	7661
321.068	11239
321.157	19024
321.245	12168
321.334	17237
321.423	28598
321.512	8915
321.601	11258
321.690	15871
321.779	9296
321.867	8137
321.956	17770
322.045	7209
322.134	17052
322.222	31166
322.311	15504
322.400	7513
322.489	15202
322.577	40417
322.666	11579
322.755	14650
322.843	16847
322.932	17192
323.021	9021
323.110	7636
323.198	5249
323.287	8629
323.375	29104
323.464	49112
323.553	16521
323.641	43482
323.730	12459
323.819	13966
323.907	38299
323.996	11124
324.084	6039
324.173	23421
324.261	10027
324.350	7528
324.438	8048
324.527	2258
324.615	4136
324.704	9163
324.792	12092
324.881	8936
324.969	1749
325.058	3118
325.146	9659
325.235	15525
325.323	12720
325.412	13240
325.500	3396
325.588	1565
325.677	1963
325.765	2102
325.853	1895
325.942	2154
326.030	2911
326.118	6131
326.207	5185
326.295	1740
326.383	2477
326.472	5318
326.560	7836
326.648	1704
326.737	1648
326.825	1547
326.913	648
327.001	3213
327.090	8765
327.178	5289
327.266	2596
327.354	4976
327.442	3133
327.531	998
327.619	2139
327.707	1735
327.795	3394
327.883	5042
327.971	3407
328.060	2149
328.148	1381
328.236	2008
328.324	1142
328.412	1848
328.500	2798
328.588	7616
328.676	19262
328.764	6264
328.852	1890
328.940	1794
329.028	1256
329.116	4248
329.204	10563
329.292	3504
329.380	800
329.468	1025
329.556	1355
329.644	1005
329.732	1828
329.820	1714
329.908	1460
329.996	682
330.084	2099
330.172	13390
330.259	23505
330.347	6714
330.435	1968
330.523	8645
330.611	25084
330.699	8383
330.787	4396
330.874	6837
330.962	7158
331.050	1923
331.138	739
331.226	1647
331.313	1820
331.401	10767
331.489	9011
331.577	1506
331.664	687
331.752	2998
331.840	2351
331.927	759
332.015	705
332.103	3459
332.190	7565
332.278	20956
332.366	7940
332.453	2381
332.541	1468
332.629	2474
332.716	2297
332.804	2366
332.891	12573
332.979	12078
333.066	2092
333.154	6998
333.242	8109
333.329	933
333.417	3708
333.504	11647
333.592	7720
333.679	11014
333.767	3011
333.854	1123
333.942	3451
334.029	10871
334.117	30136
334.204	45442
334.291	5913
334.379	4163
334.466	2308
334.554	1961
334.641	3380
334.728	4151
334.816	18429
334.903	78626
334.990	30192
335.078	3162
335.165	2541
335.252	2566
335.340	6956
335.427	42701
335.514	20783
335.602	2489
335.689	1348
335.776	4888
335.863	3961
335.951	3663
336.038	27837
336.125	57842
336.212	10090
336.299	2152
336.387	972
336.474	659
336.561	1257
336.648	2232
336.735	1492
336.822	2081
336.910	5885
336.997	24988
337.084	51683
337.171	46535
337.258	44766
337.345	12077
337.432	1097
337.519	1416
337.606	2527
337.693	24572
337.780	26308
337.867	8626
337.954	11735
338.041	10448
338.128	1635
338.215	5346
338.302	20848
338.389	34098
338.476	8009
338.563	29801
338.650	11471
338.737	10437
338.824	7453
338.911	1779
338.998	1000
339.085	2365
339.171	6116
339.258	10249
339.345	4254
339.432	10413
339.519	3128
339.606	258
339.692	1556
339.779	952
339.866	4623
339.953	4921
340.040	1453
340.126	3228
340.213	2314
340.300	2046
340.387	4781
340.473	4600
340.560	1267
340.647	9425
340.733	23996
340.820	4389
340.907	1305
340.993	1709
341.080	1335
341.167	2096
341.253	7639
341.340	6954
341.426	2633
341.513	1999
341.600	777
341.686	2559
341.773	8729
341.859	4908
341.946	841
342.032	-382
342.119	3
342.205	3294
342.292	3495
342.378	4951
342.465	5165
342.551	3203
342.638	15534
342.724	17505
342.811	6456
342.897	1158
342.984	494
343.070	1562
343.156	676
343.243	1182
343.329	1183
343.416	539
343.502	21
343.588	379
343.675	1636
343.761	3278
343.847	3848
343.934	12344
344.020	90453
344.106	79576
344.193	9709
344.279	10699
344.365	40959
344.451	17959
344.538	6483
344.624	2575
344.710	3419
344.796	485
344.882	1045
344.969	1477
345.055	2794
345.141	3615
345.227	3967
345.313	2118
345.399	709
345.486	23
345.572	305
345.658	1810
345.744	739
345.830	1131
345.916	1841
346.002	1571
346.088	3229
346.174	3387
346.260	1399
346.346	1183
346.432	3332
346.518	28671
346.604	32916
346.690	2959
346.776	2156
346.862	1137
346.948	189
347.034	977
347.120	2438
347.206	1237
347.292	1686
347.378	3339
347.464	25905
347.549	51686
347.635	36970
347.721	14645
347.807	2121
347.893	1875
347.979	1376
348.065	2233
348.150	570
348.236	1191
348.322	1307
348.408	1101
348.493	2235
348.579	830
348.665	425
348.751	916
348.836	870
348.922	6964
349.008	43815
349.094	27359
349.179	1921
349.265	1134
349.351	120
349.436	1051
349.522	2671
349.608	4099
349.693	14381
349.779	28018
349.864	4025
349.950	365
350.036	685
350.121	812
350.207	440
350.292	-18
350.378	492
350.463	3626
350.549	2042
350.634	2890
350.720	916
350.805	-60
350.891	1601
350.976	2384
351.062	2383
351.147	1284
351.233	2645
351.318	16759
351.404	14605
351.489	872
351.574	716
351.660	758
351.745	718
351.830	927
351.916	1369
352.001	4710
352.086	23913
352.172	10806
352.257	1852
352.342	2165
352.428	4192
352.513	13309
352.598	41546
352.684	11125
352.769	3597
352.854	309
352.939	3321
353.024	2452
353.110	1279
353.195	4325
353.280	8207
353.365	3272
353.450	899
353.536	2298
353.621	8276
353.706	4774
353.791	2531
353.876	793
353.961	2842
354.046	10442
354.131	14152
354.216	8855
354.302	1696
354.387	638
354.472	829
354.557	996
354.642	2208
354.727	4222
354.812	2770
354.897	1292
354.982	616
355.067	-193
355.152	571
355.237	2248
355.321	4610
355.406	15140
355.491	22284
355.576	5588
355.661	8517
355.746	12574
355.831	39018
355.916	8536
356.001	1963
356.085	668
356.170	946
356.255	739
356.340	1910
356.425	14773
356.509	71304
356.594	19780
356.679	3390
356.764	3455
356.849	8616
356.933	70498
357.018	98401
357.103	12573
357.187	5751
357.272	2834
357.357	4436
357.441	2699
357.526	4045
357.611	2995
357.695	1874
357.780	2920
357.865	2479
357.949	5671
358.034	57696
358.118	102793
358.203	15836
358.288	3292
358.372	6303
358.457	36085
358.541	53385
358.626	33712
358.710	27726
358.795	6225
358.879	6708
358.964	2000
359.048	47
359.133	518
359.217	511
359.302	-23
359.386	2699
359.470	3216
359.555	1625
359.639	634
359.724	320
359.808	1772
359.892	2252
359.977	1265
360.061	2623
360.145	1287
360.230	3378
360.314	5820
360.398	1925
360.483	9416
360.567	12401
360.651	18487
360.735	8496
360.820	54121
360.904	49428
360.988	19197
361.072	5097
361.157	2553
361.241	1767
361.325	1760
361.409	2050
361.493	1048
361.577	1116
361.662	3342
361.746	16068
361.830	75324
361.914	32249
361.998	3522
362.082	9175
362.166	11136
362.250	6096
362.334	5131
362.418	4479
362.502	2607
362.586	1244
362.671	653
362.754	-103
362.839	1106
362.922	2774
363.006	17574
363.090	76750
363.174	43266
363.258	6067
363.342	4308
363.426	12334
363.510	48265
363.594	14768
363.678	1737
363.762	4323
363.846	3191
363.929	1537
364.013	7322
364.097	4208
364.181	25227
364.265	48157
364.349	14186
364.432	14713
364.516	5389
364.600	6416
364.684	26625
364.767	68989
364.851	15710
364.935	10904
365.019	5589
365.102	9919
365.186	5309
365.270	31044
365.353	43465
365.437	7166
365.521	2280
365.604	1334
365.688	1776
365.771	5542
365.855	2178
365.939	1875
366.022	3659
366.106	491
366.189	141
366.273	1354
366.357	501
366.440	296
366.524	-707
366.607	650
366.691	1503
366.774	889
366.858	5243
366.941	5585
367.024	1750
367.108	4143
367.191	3011
367.275	-201
367.358	-581
367.442	601
367.525	565
367.608	2262
367.692	4395
367.775	4527
367.858	5728
367.942	32361
368.025	14971
368.108	3007
368.192	6779
368.275	7183
368.358	6574
368.442	14041
368.525	18374
368.608	10066
368.691	36722
368.775	19394
368.858	4010
368.941	7092
369.024	3667
369.107	339
369.190	-115
369.274	1438
369.357	6665
369.440	4495
369.523	1861
369.606	-214
369.689	1981
369.772	850
369.855	1037
369.939	1081
370.022	3395
370.105	5230
370.188	3722
370.271	2488
370.354	5346
370.437	12900
370.520	45720
370.603	15088
370.686	9529
370.769	20302
370.852	36606
370.935	32771
371.018	4844
371.100	633
371.183	1053
371.266	1416
371.349	140
371.432	933
371.515	1645
371.598	4257
371.681	6642
371.763	4074
371.846	9258
371.929	73745
372.012	50066
372.095	11119
372.177	31857
372.260	34206
372.343	6395
372.426	11436
372.508	6232
372.591	3846
372.674	28083
372.757	39466
372.839	7359
372.922	24669
373.005	15731
373.087	3786
373.170	9668
373.253	31654
373.335	39358
373.418	89863
373.500	71660
373.583	20663
373.666	77450
373.748	30965
373.831	5301
373.913	3321
373.996	11005
374.078	33158
374.161	9963
374.243	20729
374.326	35341
374.408	12803
374.491	71480
374.573	73574
374.656	12646
374.738	33066
374.821	63290
374.903	97993
374.985	31952
375.068	3411
375.150	6027
375.233	38785
375.315	25387
375.397	4223
375.480	906
375.562	1295
375.644	4047
375.727	36039
375.809	73211
375.891	27873
375.973	8573
376.056	12954
376.138	11162
376.220	5258
376.302	44554
376.385	43883
376.467	9370
376.549	10426
376.631	30729
376.713	44919
376.795	4855
376.878	463
376.960	561
377.042	1611
377.124	5769
377.206	1634
377.288	-364
377.370	726
377.452	1099
377.534	193
377.616	785
377.699	352
377.781	-579
377.863	815
377.945	684
378.027	-187
378.109	807
378.190	75
378.272	57
378.354	-354
378.436	-143
378.518	5597
378.600	9354
378.682	11838
378.764	28795
378.846	5692
378.928	4407
379.010	4377
379.091	1360
379.173	979
379.255	324
379.337	3053
379.419	23098
379.501	26563
379.582	3479
379.664	3352
379.746	12269
379.828	28738
379.909	34795
379.991	9789
380.073	1239
380.155	1367
380.236	279
380.318	44
380.400	721
380.481	6337
380.563	4677
380.645	6058
380.726	3562
380.808	2372
380.889	1241
380.971	754
381.053	270
381.134	2769
381.216	16446
381.297	18331
381.379	4407
381.460	17196
381.542	71233
381.623	21149
381.705	2860
381.786	3018
381.868	5000
381.949	46320
382.031	74345
382.112	16831
382.193	3611
382.275	5814
382.356	30476
382.438	42439
382.519	68458
382.600	43595
382.682	32522
382.763	60332
382.844	56023
382.926	60516
383.007	16653
383.088	39755
383.170	165859
383.251	82982
383.332	47815
383.413	52408
383.495	11463
383.576	11361
383.657	29678
383.738	163036
383.820	186008
383.901	39127
383.982	58412
384.063	67847
384.144	13702
384.225	4500
384.306	3457
384.388	1965
384.469	1476
384.550	2080
384.631	4923
384.712	2324
384.793	100
384.874	7576
384.955	30630
385.036	11651
385.117	1389
385.198	2929
385.279	3318
385.360	2802
385.441	1973
385.522	14501
385.603	42018
385.684	9291
385.765	4147
385.846	11141
385.927	64412
386.008	31436
386.089	2987
386.169	1085
386.250	1411
386.331	2295
386.412	4279
386.493	22674
386.574	11191
386.654	3547
386.735	2301
386.816	2301
386.897	1890
386.977	1187
387.058	886
387.139	9497
387.220	26005
387.300	8169
387.381	2837
387.462	1064
387.542	2135
387.623	1477
387.704	18514
387.784	56641
387.865	24983
387.946	2603
388.026	576
388.107	412
388.187	6967
388.268	6041
388.349	1865
388.429	2154
388.510	16354
388.590	56178
388.671	30858
388.751	15216
388.832	17692
388.912	2617
388.993	-1005
389.073	827
389.154	1521
389.234	641
389.314	2601
389.395	1222
389.475	18455
389.556	19210
389.636	2777
389.716	4113
389.797	4054
389.877	19035
389.957	27039
390.038	6449
390.118	972
390.198	14301
390.279	21492
390.359	6591
390.439	22847
390.519	30348
390.600	15151
390.680	2743
390.760	1426
390.840	605
390.920	395
391.001	-636
391.081	1071
391.161	579
391.241	313
391.321	4087
391.401	3384
391.481	1372
391.562	-705
391.642	2716
391.722	2357
391.802	3261
391.882	3732
391.962	21520
392.042	9750
392.122	4669
392.202	18693
392.282	21532
392.362	6965
392.442	6984
392.522	2345
392.602	2842
392.682	13357
392.762	28614
392.842	7841
392.921	22310
393.001	34232
393.081	9166
393.161	13162
393.241	73077
393.321	214979
393.401	68698
393.480	11550
393.560	4254
393.640	2161
393.720	1483
393.800	732
393.879	455
393.959	1034
394.039	2036
394.119	1937
394.198	6111
394.278	44880
394.358	148537
394.437	40500
394.517	4999
394.597	1892
394.676	6767
394.756	16809
394.836	21127
394.915	5137
394.995	1931
395.075	1834
395.154	606
395.234	1492
395.313	983
395.393	-590
395.472	3015
395.552	17329
395.631	21112
395.711	16410
395.790	29154
395.870	7113
395.949	7531
396.029	59485
396.108	186854
396.188	59010
396.267	12811
396.346	6906
396.426	4591
396.505	4003
396.585	5919
396.664	13623
396.743	87414
396.823	151868
396.902	49939
396.981	7648
397.061	3661
397.140	75
397.219	559
397.298	2401
397.378	1296
397.457	36
397.536	521
397.615	-1398
397.694	2547
397.774	388
397.853	-931
397.932	-376
398.011	1770
398.090	17151
398.169	19061
398.249	2771
398.328	1253
398.407	709
398.486	-255
398.565	612
398.644	-846
398.723	205
398.802	785
398.881	16025
398.960	22317
399.039	1481
399.118	-1077
399.197	66
399.276	200
399.355	-537
399.434	-49
399.513	326
399.592	-867
399.671	3982
399.750	14318
399.829	32515
399.908	5123
399.986	-360
400.065	-392
400.144	-903
400.223	1918
400.302	-332
400.380	1417
400.459	18227
400.538	7089
400.617	26
400.696	-44
400.774	1499
400.853	4964
400.932	2120
401.011	757
401.089	-291
401.168	-139
401.247	-421
401.325	8
401.404	1254
401.483	-160
401.561	475
401.640	285
401.718	1499
401.797	195
401.876	-377
401.954	-650
402.033	-935
402.111	2004
402.190	-448
402.268	707
402.347	1842
402.425	6163
402.504	-31
402.582	720
402.661	171
402.739	-896
402.818	-596
402.896	887
402.974	12055
403.053	18619
403.131	3276
403.210	9973
403.288	12400
403.366	9607
403.445	6014
403.523	170
403.601	-175
403.680	-1515
403.758	155
403.836	-615
403.915	-951
403.993	-362
404.071	2539
404.149	219
404.228	-241
404.306	2664
404.384	6015
404.462	20523
404.540	63709
404.618	11572
404.697	2010
404.775	249
404.853	-98
404.931	-510
405.009	-500
405.087	-331
405.165	-1140
405.243	-1374
405.321	607
405.399	-31
405.478	1696
405.556	406
405.634	-925
405.712	-971
405.790	903
405.868	-666
405.945	866
406.023	83
406.101	-483
406.179	2690
406.257	24734
406.335	42051
406.413	7114
406.491	948
406.569	-561
406.647	534
406.724	1052
406.802	-47
406.880	-703
406.958	1074
407.036	5337
407.113	41159
407.191	13471
407.269	443
407.347	-235
407.424	-737
407.502	-732
407.580	1355
407.658	2052
407.735	4078
407.813	3314
407.891	850
407.968	-592
408.046	-56
408.124	-479
408.201	1282
408.279	-117
408.356	-358
408.434	923
408.512	656
408.589	-1666
408.667	-880
408.744	-951
408.822	-748
408.899	-1874
408.977	-1154
409.054	-777
409.132	-424
409.209	158
409.287	-894
409.364	-308
409.441	-996
409.519	888
409.596	-16
409.674	-1159
409.751	-208
409.828	396
409.906	1014
409.983	-1506
410.060	-877
410.138	-188
410.215	-645
410.292	-761
410.370	-871
410.447	-390
410.524	-1586
410.601	173
410.678	195
410.756	292
410.833	-1600
410.910	733
410.987	-135
411.064	-497
411.142	-366
411.219	463
411.296	-472
411.373	-790
411.450	-540
411.527	-1145
411.604	-1333
411.681	-1141
411.758	915
411.835	1899
411.913	-717
411.990	-1415
412.067	-197
412.144	-92
412.221	-117
412.298	759
412.374	-361
412.451	-63
412.528	-493
412.605	-553
412.682	619
412.759	-240
412.836	-471
412.913	-1101
412.990	-587
413.067	1647
413.143	13581
413.220	5412
413.297	-593
413.374	1704
413.451	742
413.527	-209
413.604	280
413.681	-311
413.758	-796
413.834	-654
413.911	-470
413.988	-1485
414.065	-497
414.141	-343
414.218	1954
414.295	15261
414.371	14286
414.448	376
414.524	-486
414.601	-1639
414.678	-325
414.754	-151
414.831	-480
414.907	-218
414.984	-482
415.060	-186
415.137	-286
415.213	-389
415.290	-8
415.366	1598
415.443	545
415.519	-731
415.596	-511
415.672	906
415.749	-65
415.825	74
415.902	-743
415.978	-483
416.054	-219
416.131	-1513
416.207	-1399
416.283	-338
416.360	-393
416.436	162
416.512	-817
416.589	-752
416.665	-207
416.741	-1543
416.817	-688
416.894	-876
416.970	-906
417.046	341
417.122	-228
417.198	350
417.275	-443
417.351	-818
417.427	196
417.503	-14
417.579	-519
417.655	-719
417.731	-503
417.808	-1329
417.884	-1156
417.960	-506
418.036	-1134
418.112	2966
418.188	531
418.264	-194
418.340	189
418.416	77
418.492	442
418.568	1176
418.644	3725
418.720	4546
418.796	652
418.872	-559
418.947	-1476
419.023	103
419.099	2456
419.175	-1156
419.251	-761
419.327	-1078
419.403	63
419.478	491
419.554	607
419.630	-1012
419.706	-183
419.782	4525
419.857	5239
419.933	713
420.009	-181
420.085	4225
420.160	13000
420.236	2412
420.312	392
420.387	-719
420.463	-368
420.539	-523
420.614	-1150
420.690	-140
420.766	-1695
420.841	-307
420.917	-1090
420.992	951
421.068	-735
421.143	-805
421.219	-1311
421.294	192
421.370	-1370
421.445	551
421.521	713
421.596	367
421.672	116
421.747	-481
421.823	-569
421.898	658
421.974	359
422.049	42
422.124	500
422.200	1088
422.275	1521
422.350	2297
422.426	4000
422.501	17216
422.576	89664
422.652	100055
422.727	24326
422.802	5218
422.878	1454
422.953	398
423.028	629
423.103	59
423.178	-73
423.254	130
423.329	2663
423.404	-449
423.479	2144
423.554	4235
423.630	690
423.705	-304
423.780	394
423.855	1234
423.930	345
424.005	-960
424.080	346
424.155	-812
424.230	-935
424.305	-210
424.380	-1136
424.455	207
424.530	-307
424.605	-443
424.680	889
424.755	528
424.830	-1069
424.905	1600
424.980	11040
425.055	9107
425.130	-56
425.204	-273
425.279	-1181
425.354	-879
425.429	-1435
425.504	101
425.579	-1131
425.653	-1093
425.728	-716
425.803	158
425.878	887
425.952	8663
426.027	10594
426.102	587
426.177	-739
426.251	1812
426.326	-598
426.401	-348
426.475	-382
426.550	-814
426.625	98
426.699	-581
426.774	-380
426.848	-394
426.923	-52
426.998	2864
427.072	22936
427.147	27455
427.221	3520
427.296	577
427.370	293
427.445	242
427.519	-1458
427.594	10
427.668	80
427.743	-739
427.817	316
427.892	-1559
427.966	-1001
428.040	-486
428.115	2158
428.189	9105
428.263	11236
428.338	1446
428.412	144
428.486	1621
428.561	3343
428.635	1613
428.709	2648
428.784	3164
428.858	14402
428.932	6864
429.006	3140
429.080	2109
429.155	-303
429.229	-610
429.303	3256
429.377	5950
429.451	794
429.526	3584
429.600	606
429.674	-433
429.748	3067
429.822	17995
429.896	12614
429.970	13573
430.044	19411
430.118	10532
430.192	27723
430.266	7784
430.340	179
430.414	714
430.488	12653
430.562	15641
430.636	7558
430.710	39860
430.784	19387
430.858	1565
430.932	-487
431.006	-906
431.080	-1648
431.153	-1029
431.227	-1150
431.301	-450
431.375	2775
431.449	3926
431.523	71
431.596	-639
431.670	-616
431.744	3251
431.818	11654
431.891	1698
431.965	-619
432.039	-316
432.112	-113
432.186	-1023
432.260	-310
432.333	-834
432.407	1858
432.481	23242
432.554	24719
432.628	2678
432.702	-739
432.775	-1305
432.849	-1582
432.922	-559
432.996	-1480
433.069	-673
433.143	-929
433.216	-723
433.290	-1138
433.363	-889
433.437	-511
433.510	-1455
433.584	264
433.657	-505
433.730	-249
433.804	-909
433.877	-740
433.951	-1172
434.024	-183
434.097	-1525
434.171	-541
434.244	-1407
434.317	-1343
434.391	-1131
434.464	-1704
434.537	-859
434.610	-1093
434.684	-732
434.757	-936
434.830	-698
434.903	-1629
434.977	-863
435.050	-1608
435.123	-718
435.196	27
435.269	-1309
435.342	-810
435.415	-1194
435.489	-979
435.562	-1244
435.635	-1048
435.708	-898
435.781	-715
435.854	-391
435.927	-1138
436.000	-829
436.073	59
436.146	-1751
436.219	-1204
436.292	-2079
436.365	-997
436.438	-1240
436.511	-945
436.584	-1522
436.657	-1592
436.729	-850
436.802	-844
436.875	-446
436.948	-552
437.021	-1266
437.094	-1082
437.166	-821
437.239	-504
437.312	-1156
437.385	-1303
437.457	-786
437.530	516
437.603	-1309
437.676	-1174
437.748	-1366
437.821	-383
437.894	-417
437.966	-524
438.039	-539
438.112	-700
438.184	2180
438.257	29370
438.330	35560
438.402	4224
438.475	-615
438.547	-224
438.620	-1617
438.692	-598
438.765	-886
438.837	-752
438.910	-1315
438.982	-786
439.055	-989
439.127	-544
439.200	-1047
439.272	-1190
439.345	-549
439.417	-344
439.489	-920
439.562	-1528
439.634	-461
439.707	-1485
439.779	-1149
439.851	-1501
439.923	-997
439.996	-1118
440.068	-940
440.140	-814
440.213	-1712
440.285	709
440.357	10865
440.429	29083
440.502	5290
440.574	-726
440.646	-434
440.718	-445
440.790	-272
440.862	-1235
440.935	-1430
441.007	-1037
441.079	-539
441.151	-1883
441.223	-604
441.295	-1529
441.367	440
441.439	11900
441.511	4739
441.583	-453
441.655	-270
441.727	-373
441.799	-1141
441.871	-1155
441.943	-1238
442.015	-823
442.087	-576
442.159	353
442.231	-250
442.303	243
442.374	-471
442.446	4265
442.518	6836
442.590	1595
442.662	4529
442.734	419
442.805	-1290
442.877	-1530
442.949	-376
443.021	-1026
443.092	-245
443.164	-1427
443.236	-579
443.308	432
443.379	7481
443.451	20241
443.523	8782
443.594	918
443.666	-724
443.737	-1281
443.809	-752
443.881	-1713
443.952	-801
444.024	-879
444.095	-446
444.167	214
444.238	-17
444.310	-613
444.381	-1072
444.453	-999
444.524	-1402
444.596	-1580
444.667	-682
444.739	-73
444.810	326
444.882	1509
444.953	229
445.024	1296
445.096	-73
445.167	-407
445.238	1852
445.310	4695
445.381	19797
445.452	27731
445.524	10637
445.595	2939
445.666	3690
445.737	1967
445.809	-707
445.880	-73
445.951	-1025
446.022	-1766
446.094	-34
446.165	-826
446.236	-1036
446.307	-451
446.378	-1631
446.449	-1011
446.520	489
446.591	332
446.663	-613
446.734	-276
446.805	-217
446.876	-338
446.947	-1283
447.018	-909
447.089	-99
447.160	-586
447.231	-876
447.302	-1338
447.373	-1055
447.444	-811
447.514	-491
447.585	-143
447.656	-982
447.727	-1847
447.798	-1193
447.869	-1155
447.940	-1256
448.010	-279
448.081	1099
448.152	-193
448.223	-279
448.294	-393
448.364	-654
448.435	-1021
448.506	-1596
448.577	-1498
448.647	-1368
448.718	-1321
448.789	-854
448.859	-119
448.930	-878
449.001	-1023
449.071	-1248
449.142	-1788
449.213	-928
449.283	-1498
449.354	-559
449.424	701
449.495	-616
449.565	558
449.636	-661
449.706	-1091
449.777	-1165
449.847	-1692
449.918	-1264
449.988	-1436
450.059	-1540
450.129	-1610
450.200	-1626
450.270	-1139
450.340	-1149
450.411	-1363
450.481	-1280
450.551	-575
450.622	-1410
450.692	-690
450.762	-2468
450.833	-1600
450.903	-924
450.973	-1839
451.043	-1627
451.114	-1161
451.184	-223
451.254	1349
451.324	-352
451.395	-1495
451.465	-1128
451.535	-1011
451.605	-873
451.675	-1194
451.745	3139
451.815	661
451.885	-2336
451.956	-1615
452.026	-1184
452.096	-828
452.166	86
452.236	3336
452.306	238
452.376	-1522
452.446	-685
452.516	-301
452.586	-698
452.656	2115
452.725	1569
452.795	1650
452.865	322
452.935	-322
453.005	-1070
453.075	-407
453.145	-77
453.215	5056
453.284	6079
453.354	7138
453.424	16079
453.494	19820
453.564	16596
453.633	1280
453.703	-1082
453.773	-1592
453.843	-1517
453.895	-1205
453.912	-1131
453.976	-1145
453.982	-1176
454.052	-869
454.057	-893
454.121	-1550
454.139	-1560
454.191	-1627
454.220	-1225
454.261	-854
454.301	-606
454.330	-685
454.382	1099
454.400	1727
454.463	225
454.469	69
454.539	-296
454.544	-308
454.608	-558
454.625	-165
454.678	1592
454.707	3544
454.748	5158
454.788	7928
454.817	7563
454.869	4055
454.887	3347
454.950	907
454.956	804
455.026	2439
455.031	2703
455.095	6239
455.112	7993
455.165	16094
455.193	20189
455.234	18657
455.274	18278
455.303	13391
455.355	6598
455.373	6426
455.436	3332
455.442	3000
455.512	3259
455.517	2986
455.581	220
455.598	-23
455.650	-624
455.679	-651
455.720	-641
455.760	-121
455.789	172
455.841	167
455.858	99
455.922	131
455.928	141
455.997	4
456.003	36
456.066	983
456.084	1299
456.136	3272
456.165	4767
456.205	5495
456.245	6429
456.274	4646
456.326	1213
456.343	1101
456.407	377
456.412	325
456.482	620
456.488	598
456.551	-121
456.569	-106
456.620	395
456.650	362
456.689	88
456.730	391
456.758	750
456.811	700
456.827	1173
456.892	3805
456.897	4284
456.966	12153
456.973	13166
457.035	21538
457.054	24317
457.104	11596
457.134	3765
457.173	2539
457.215	1151
457.242	1260
457.296	1231
457.311	1139
457.377	1062
457.380	1046
457.449	791
457.457	898
457.518	1500
457.538	1561
457.587	2096
457.619	2177
457.656	2534
457.699	3369
457.725	3258
457.780	2880
457.794	2791
457.861	2883
457.863	2927
457.932	4601
457.941	4803
458.001	5200
458.022	5754
458.070	4633
458.103	3242
458.138	3351
458.183	3173
458.207	3090
458.264	3414
458.276	3418
458.344	4436
458.345	4457
458.414	7995
458.425	8702
458.483	6408
458.506	5796
458.551	5239
458.586	3638
458.620	2912
458.667	2026
458.689	2044
458.747	2874
458.758	3085
458.826	4841
458.828	4867
458.895	3373
458.908	3187
458.964	3034
458.989	2911
459.033	3283
459.069	3431
459.101	3239
459.150	3175
459.170	3053
459.230	3359
459.239	3446
459.307	2945
459.311	2936
459.376	3744
459.391	3856
459.444	3334
459.471	3159
459.513	2897
459.552	3006
459.582	3348
459.632	3459
459.650	3491
459.713	3748
459.719	3775
459.787	4155
459.793	4183
459.856	3504
459.873	3255
459.924	3558
459.954	3652
459.993	4192
460.034	5301
460.061	6408
460.114	7917
460.130	7413
460.195	5715
460.198	5663
460.267	3743
460.275	3539
460.335	3781
460.355	3865
460.404	4536
460.436	5002
460.472	6635
460.516	8703
460.540	9369
460.596	11078
460.609	10141
460.676	4913
460.677	4925
460.745	4388
460.757	4315
460.814	4043
460.837	3986
460.882	5222
460.917	6124
460.950	6308
460.997	6675
461.019	6061
461.077	4561
461.087	4674
461.155	4718
461.158	4713
461.224	4747
461.238	4821
461.292	5015
461.318	4844
461.360	5741
461.398	6802
461.428	9904
461.478	14989
461.496	18175
461.558	28703
461.565	27420
461.633	12870
461.638	11702
461.701	9067
461.719	7670
461.769	6809
461.799	6680
461.837	5667
461.879	4662
461.905	4868
461.959	5380
461.973	5850
462.039	7992
462.042	8300
462.110	14876
462.119	15788
462.178	14800
462.199	14279
462.246	9577
462.279	6050
462.314	6594
462.359	7290
462.382	6862
462.439	5742
462.450	5766
462.518	5712
462.519	5689
462.586	6408
462.599	6427
462.654	7292
462.679	7918
462.722	10844
462.759	12968
462.790	11171
462.839	8397
462.858	7962
462.919	6576
462.926	6514
462.993	5013
462.999	4890
463.061	6472
463.078	6944
463.129	6924
463.158	6727
463.197	7857
463.238	9089
463.265	8643
463.318	7762
463.333	7807
463.398	7313
463.401	7344
463.468	7870
463.478	7851
463.536	10132
463.558	10828
463.604	13906
463.637	16242
463.672	17631
463.717	19117
463.739	22524
463.797	31227
463.807	29381
463.875	16441
463.877	16013
463.943	9027
463.957	7356
464.010	7075
464.036	6945
464.078	7345
464.116	7873
464.146	8848
464.196	10160
464.213	9860
464.275	8660
464.281	8930
464.349	11835
464.355	12056
464.416	10035
464.435	9280
464.484	9851
464.515	10269
464.551	11511
464.594	12849
464.619	11868
464.674	9285
464.686	9309
464.754	9208
464.754	9269
464.821	10907
464.833	11122
464.889	9476
464.913	8741
464.956	8690
464.992	8524
465.024	8731
465.072	8966
465.091	9019
465.152	8970
465.159	9334
465.226	12092
465.231	12242
465.294	16385
465.311	17364
465.361	17588
465.390	17649
465.429	23599
465.470	29688
465.496	25913
465.549	17832
465.563	16475
465.629	9796
465.631	9854
465.698	9969
465.708	9934
465.765	8766
465.788	8349
465.833	9038
465.867	9373
465.900	9786
465.947	10316
465.967	10380
466.026	10377
466.035	10484
466.102	10769
466.106	10723
466.169	11602
466.185	11766
466.236	11323
466.265	10899
466.304	11001
466.344	11084
466.371	12700
466.423	15633
466.438	17539
466.503	25596
466.505	26463
466.572	48338
466.582	51336
466.639	38221
466.662	32818
466.707	23776
466.741	16523
466.774	16467
466.820	16147
466.841	16155
466.900	15895
466.908	15687
466.975	13252
466.979	13035
467.042	14745
467.058	15078
467.109	14710
467.138	14380
467.176	14703
467.217	14886
467.243	14793
467.296	14367
467.310	14386
467.375	14039
467.377	14058
467.455	11295
467.534	11759
467.613	14867
467.692	19450
467.772	18744
467.851	14929
467.930	23158
468.009	50215
468.088	28684
468.167	11680
468.246	13375
468.326	12977
468.405	10805
468.484	12314
468.563	17611
468.642	20983
468.721	13230
468.800	12676
468.879	15634
468.958	24544
469.037	14792
469.116	12013
469.195	9271
469.274	11216
469.353	10568
469.432	10748
469.511	12147
469.590	14435
469.669	18560
469.748	20518
469.827	12409
469.905	12929
469.984	14064
470.063	20340
470.142	32031
470.221	27602
470.300	18310
470.378	15177
470.457	13546
470.536	19874
470.615	18739
470.694	15185
470.772	19820
470.851	29328
470.930	13605
471.008	10823
471.087	9015
471.166	9112
471.245	9995
471.323	10310
471.402	9702
471.480	9544
471.559	10544
471.638	10238
471.716	9408
471.795	10332
471.873	8198
471.952	8973
472.031	11956
472.109	13639
472.188	10848
472.266	8991
472.345	7774
472.423	9010
472.502	9652
472.580	14254
472.659	12056
472.737	13110
472.815	9051
472.894	11844
472.972	13336
473.051	10940
473.129	11658
473.207	13598
473.286	11918
473.364	12099
473.443	18782
473.521	27689
473.599	12898
473.677	10338
473.756	15568
473.834	14252
473.912	10707
473.991	14200
474.069	19621
474.147	21959
474.225	8811
474.303	10585
474.382	11378
474.460	11353
474.538	10749
474.616	12185
474.694	11456
474.772	10230
474.851	10106
474.929	10721
475.007	11358
475.085	11478
475.163	13910
475.241	21150
475.319	13327
475.397	10895
475.475	10785
475.553	18979
475.631	38211
475.709	39567
475.787	40051
475.865	12775
475.943	10879
476.021	16291
476.099	17969
476.177	13379
476.255	11214
476.333	12544
476.410	16065
476.488	18214
476.566	10341
476.644	10744
476.722	11158
476.800	11109
476.877	9851
476.955	12067
477.033	13611
477.111	14510
477.189	10077
477.266	9127
477.344	8608
477.422	10593
477.499	9580
477.577	10167
477.655	13610
477.732	11413
477.810	14974
477.888	13215
477.965	9765
478.043	11414
478.121	14600
478.198	22571
478.276	11031
478.353	10870
478.431	9756
478.508	14239
478.586	9893
478.664	11172
478.741	14222
478.819	16912
478.896	9454
478.974	10903
479.051	12814
479.128	14037
479.206	8515
479.283	9218
479.361	8409
479.438	10744
479.516	10801
479.593	10762
479.670	11678
479.748	12859
479.825	19493
479.902	12651
479.980	10083
480.057	9329
480.134	10205
480.211	12409
480.289	19449
480.366	33801
480.443	15287
480.520	9642
480.598	9642
480.675	12130
480.752	11548
480.829	10848
480.906	10030
480.984	10721
481.061	11226
481.138	9270
481.215	7995
481.292	11262
481.369	10918
481.446	12311
481.523	8079
481.600	9640
481.677	10372
481.754	11627
481.831	18178
481.908	21787
481.985	10454
482.062	11729
482.139	17608
482.216	25570
482.293	11037
482.370	11080
482.447	10054
482.524	9741
482.601	11270
482.678	8400
482.755	8660
482.832	8529
482.908	9016
482.985	9077
483.062	10298
483.139	10831
483.216	9285
483.293	9893
483.369	9683
483.446	12867
483.523	9234
483.600	10248
483.676	11471
483.753	13306
483.830	20623
483.906	44653
483.983	30064
484.060	17171
484.136	17248
484.213	16101
484.290	14484
484.366	12837
484.443	12789
484.519	15642
484.596	14318
484.673	18168
484.749	15875
484.826	14180
484.902	14510
484.979	16188
485.055	15208
485.132	14091
485.208	16319
485.285	19660
485.361	26980
485.437	50129
485.514	24527
485.590	19273
485.667	19746
485.743	25751
485.819	48177
485.896	21604
485.972	15901
486.049	15874
486.125	15968
486.201	18611
486.277	18959
486.354	17468
486.430	19485
486.506	20781
486.583	22196
486.659	36316
486.735	26470
486.811	38322
486.887	59311
486.964	100035
487.040	88213
487.116	38567
487.192	17143
487.268	18514
487.344	15587
487.420	16009
487.497	16956
487.573	26867
487.649	57152
487.725	37644
487.801	14680
487.877	14849
487.953	17641
488.029	17357
488.105	16300
488.181	18039
488.257	26036
488.333	57218
488.409	36929
488.485	17975
488.561	14831
488.637	15174
488.712	21767
488.788	28271
488.864	62268
488.940	153934
489.016	160208
489.092	25147
489.168	13900
489.243	13111
489.319	11727
489.395	10299
489.471	11203
489.547	10540
489.622	11721
489.698	14872
489.774	31329
489.849	58819
489.925	17653
490.001	10825
490.076	14048
490.152	27626
490.228	23161
490.303	10850
490.379	9408
490.455	10077
490.530	9584
490.606	12358
490.681	11885
490.757	14244
490.833	18990
490.908	23112
490.984	22386
491.059	14108
491.135	21146
491.210	42900
491.286	16838
491.361	15606
491.436	13165
491.512	15105
491.587	22111
491.663	41049
491.738	110291
491.814	109258
491.889	246472
491.964	91639
492.040	26012
492.115	13395
492.190	19024
492.266	25979
492.341	14718
492.416	12265
492.491	11842
492.567	13596
492.642	20832
492.717	18067
492.792	12168
492.868	12815
492.943	12930
493.018	16895
493.093	27097
493.168	80078
493.243	245453
493.318	85139
493.394	14872
493.469	11830
493.544	13291
493.619	17965
493.694	31086
493.769	25706
493.844	14953
493.919	10326
493.994	10761
494.069	10070
494.144	9091
494.219	9113
494.294	9093
494.369	10824
494.444	12068
494.519	13682
494.594	9339
494.669	11170
494.744	11696
494.818	10989
494.893	10876
494.968	10673
495.043	10880
495.118	12096
495.193	11952
495.267	15628
495.342	20674
495.417	27830
495.492	71682
495.566	284163
495.641	306683
495.716	27764
495.791	11615
495.865	11957
495.940	10209
496.015	9568
496.089	11429
496.164	9788
496.239	10971
496.313	14209
496.388	14650
496.462	24359
496.537	14378
496.612	14610
496.686	17129
496.761	13761
496.835	14269
496.910	12747
496.984	11376
497.059	12427
497.133	17410
497.208	17626
497.282	14293
497.357	21767
497.431	17530
497.505	15751
497.580	19703
497.654	30068
497.729	31010
497.803	31776
497.877	48675
497.952	151987
498.026	422974
498.100	99207
498.175	48895
498.249	41105
498.323	30108
498.397	36772
498.472	21371
498.546	16865
498.620	18593
498.694	26751
498.768	40125
498.843	57027
498.917	221850
498.991	234780
499.065	19404
499.139	12893
499.213	15900
499.287	16941
499.362	14891
499.436	14290
499.510	17983
499.584	24356
499.658	31612
499.732	93999
499.806	257448
499.880	46254
499.954	34103
500.028	42426
500.102	24418
500.176	15334
500.250	17057
500.324	24619
500.397	51314
500.471	98159
500.545	171773
500.619	107408
500.693	16105
500.767	14092
500.841	16968
500.914	13664
500.988	18982
501.062	35079
501.136	38922
501.210	89064
501.283	193388
501.357	52395
501.431	37598
501.505	38265
501.578	13484
501.652	26113
501.726	32060
501.799	36966
501.873	60305
501.947	16336
502.020	22396
502.094	53233
502.167	57040
502.241	19227
502.315	47442
502.388	44524
502.462	22264
502.535	16668
502.609	15496
502.682	13986
502.756	7800
502.829	9539
502.903	7879
502.976	10252
503.050	8566
503.123	9006
503.196	9421
503.270	13404
503.343	24485
503.417	85033
503.490	106312
503.563	30749
503.637	32156
503.710	57599
503.783	34250
503.857	66932
503.930	36323
504.003	42453
504.076	24305
504.150	11405
504.223	13208
504.296	10863
504.369	8530
504.443	7286
504.516	9311
504.589	7755
504.662	10895
504.735	11150
504.808	24491
504.881	18597
504.954	9625
505.028	18411
505.101	11752
505.174	13233
505.247	9129
505.320	10676
505.393	14639
505.466	23019
505.539	18684
505.612	11614
505.685	8325
505.758	9601
505.831	6573
505.904	9761
505.977	8569
506.049	10197
506.122	10202
506.195	13584
506.268	45709
506.341	75952
506.414	16712
506.487	10575
506.559	8655
506.632	10817
506.705	16581
506.778	17183
506.851	9368
506.923	8737
506.996	13760
507.069	13903
507.141	9020
507.214	9552
507.287	17626
507.360	17428
507.432	9039
507.505	10205
507.577	6634
507.650	9865
507.723	15325
507.795	19514
507.868	9910
507.940	8029
508.013	7342
508.086	7219
508.158	10613
508.231	10238
508.303	6620
508.376	7885
508.448	7451
508.520	10079
508.593	12323
508.665	6870
508.738	7843
508.810	6491
508.883	8847
508.955	9885
509.027	6987
509.100	6168
509.172	5544
509.244	5759
509.317	5478
509.389	7029
509.461	8537
509.534	11243
509.606	9478
509.678	12264
509.750	14552
509.822	8211
509.895	7393
509.967	5443
510.039	7885
510.111	8834
510.183	7886
510.255	7502
510.328	7046
510.400	7677
510.472	7119
510.544	10193
510.616	15936
510.688	9546
510.760	8213
510.832	12037
510.904	13932
510.976	8652
511.048	7234
511.120	8366
511.192	13609
511.264	7792
511.336	5093
511.408	7346
511.480	6673
511.552	5424
511.624	6518
511.695	6870
511.767	7219
511.839	10592
511.911	19030
511.983	9098
512.055	9285
512.126	8440
512.198	11663
512.270	12262
512.342	14870
512.414	13556
512.485	10310
512.557	9822
512.629	9823
512.700	8383
512.772	14527
512.844	8273
512.915	7429
512.987	10234
513.059	9957
513.130	15540
513.202	29908
513.273	18534
513.345	8643
513.416	8703
513.488	9836
513.560	13918
513.631	13739
513.703	17775
513.774	52869
513.845	36552
513.917	9036
513.988	9118
514.060	11788
514.131	15053
514.203	8945
514.274	7184
514.345	13565
514.417	15589
514.488	8136
514.560	12280
514.631	16068
514.702	12312
514.773	11456
514.845	8794
514.916	10093
514.987	10168
515.059	16060
515.130	10184
515.201	12276
515.272	13010
515.343	7515
515.414	8122
515.486	7297
515.557	7944
515.628	6404
515.699	8828
515.770	9409
515.841	8677
515.912	9562
515.983	10389
516.055	19482
516.126	24064
516.197	15401
516.268	15119
516.339	20768
516.410	31423
516.481	57391
516.552	206657
516.622	333012
516.693	42100
516.764	44028
516.835	30713
516.906	40227
516.977	79491
517.048	191033
517.119	682838
517.190	270392
517.260	61616
517.331	14039
517.402	12722
517.473	11990
517.544	10829
517.614	13703
517.685	11995
517.756	16096
517.827	21464
517.897	26666
517.968	43155
518.039	64268
518.109	148756
518.180	625689
518.250	871608
518.321	71695
518.392	21160
518.462	20699
518.533	15380
518.603	15780
518.674	24874
518.745	41009
518.815	17922
518.886	15325
518.956	27393
519.027	50638
519.097	68637
519.168	73413
519.238	16506
519.309	17227
519.379	24086
519.449	14991
519.520	8918
519.590	7584
519.660	8209
519.731	9198
519.801	7921
519.871	7017
519.942	7832
520.012	9067
520.082	15200
520.153	8370
520.223	5960
520.293	7935
520.363	5465
520.434	10641
520.504	9359
520.574	6750
520.644	11181
520.714	17726
520.784	15685
520.855	42620
520.925	61178
520.995	10685
521.065	7600
521.135	6086
521.205	7563
521.275	7258
521.345	10580
521.415	14504
521.485	15287
521.555	10938
521.625	11590
521.695	6148
521.765	7086
521.835	7247
521.905	6468
521.975	6033
522.045	5409
522.115	9425
522.185	11345
522.254	19041
522.324	27250
522.394	17255
522.464	26147
522.534	78090
522.603	83487
522.673	11910
522.743	8871
522.813	12986
522.883	13701
522.952	9543
523.022	14334
523.092	29844
523.161	94461
523.231	22113
523.301	7825
523.370	7585
523.440	5745
523.509	5411
523.579	5061
523.649	4921
523.718	6285
523.788	5136
523.857	6168
523.927	5274
523.996	6533
524.066	6348
524.135	11521
524.205	4645
524.274	4488
524.344	5117
524.413	5908
524.483	5178
524.552	6193
524.621	5087
524.691	5597
524.760	4993
524.830	4906
524.899	8986
524.968	7507
525.038	6936
525.107	6203
525.176	4856
525.245	6263
525.315	4927
525.384	5170
525.453	5925
525.522	5038
525.591	3674
525.661	5418
525.730	4008
525.799	6637
525.868	9428
525.937	9678
526.006	23110
526.076	34839
526.145	20265
526.214	22724
526.283	26268
526.352	28468
526.421	59291
526.490	49013
526.559	37488
526.628	20952
526.697	33597
526.766	112466
526.835	249288
526.904	139863
526.973	22132
527.042	8636
527.110	8632
527.179	12030
527.248	6530
527.317	7942
527.386	4258
527.455	6399
527.523	4945
527.592	5010
527.661	3967
527.730	6235
527.799	5793
527.867	5336
527.936	6981
528.005	14402
528.074	17030
528.142	11408
528.211	25592
528.280	15287
528.348	6498
528.417	3345
528.485	4188
528.554	4931
528.623	3677
528.691	4183
528.760	3488
528.828	5013
528.897	3116
528.965	3772
529.034	4417
529.102	3519
529.171	5108
529.239	6261
529.308	3455
529.376	3768
529.445	6368
529.513	3430
529.581	5386
529.650	6198
529.718	6116
529.786	4532
529.855	5160
529.923	3886
529.992	4863
530.060	9126
530.128	11442
530.196	5190
530.265	3403
530.333	3033
530.401	3867
530.469	2049
530.537	4306
530.606	6126
530.674	4180
530.742	2671
530.810	3890
530.878	4115
530.946	5169
531.014	3868
531.083	4122
531.151	3853
531.219	2440
531.287	4021
531.355	2652
531.423	5313
531.491	5995
531.559	5779
531.627	3548
531.695	4256
531.763	4367
531.831	4570
531.898	3655
531.966	6095
532.034	6659
532.102	7336
532.170	10305
532.238	28632
532.306	46856
532.374	12164
532.441	10834
532.509	14025
532.577	30165
532.645	116883
532.712	93600
532.780	12470
532.848	6187
532.916	5228
532.983	4272
533.051	4794
533.119	5933
533.186	5528
533.254	3754
533.322	4249
533.389	3549
533.457	5263
533.524	6303
533.592	6756
533.659	4726
533.727	5534
533.794	8932
533.862	18522
533.930	15992
533.997	15920
534.064	4267
534.132	5808
534.199	5325
534.267	4220
534.334	4548
534.402	4397
534.469	2738
534.536	3976
534.604	4115
534.671	4403
534.738	9154
534.806	21063
534.873	10583
534.940	5942
535.008	5212
535.075	4190
535.142	3829
535.209	5588
535.276	3420
535.344	3463
535.411	3112
535.478	3145
535.545	5367
535.612	5645
535.679	4569
535.747	4124
535.814	4116
535.881	3849
535.948	5350
536.015	5229
536.082	4828
536.149	6266
536.216	7076
536.283	10475
536.350	16196
536.417	10413
536.484	9839
536.551	15556
536.618	19737
536.685	11127
536.752	12240
536.818	23287
536.885	28938
536.952	32938
537.019	88464
537.086	18826
537.153	4176
537.219	6162
537.286	3493
537.353	3335
537.420	3192
537.487	4580
537.553	4505
537.620	5797
537.687	4383
537.753	4414
537.820	5744
537.887	6552
537.953	6256
538.020	7797
538.087	9938
538.153	22705
538.220	30840
538.286	7769
538.353	4895
538.419	5025
538.486	4117
538.553	4489
538.619	4064
538.685	5233
538.752	5303
538.818	6534
538.885	6410
538.951	5018
539.018	5008
539.084	7378
539.150	9091
539.217	13330
539.283	4793
539.350	5294
539.416	7418
539.482	10374
539.549	31964
539.615	34178
539.681	6803
539.747	5858
539.814	4902
539.880	7822
539.946	7832
540.012	7609
540.078	6617
540.145	10181
540.211	18762
540.277	36955
540.343	19975
540.409	35676
540.475	40288
540.541	5583
540.607	4349
540.673	5035
540.740	5929
540.806	8628
540.872	9870
540.937	16094
541.004	11040
541.069	4487
541.135	6897
541.201	7795
541.267	10184
541.333	18710
541.399	25622
541.465	8458
541.531	4099
541.597	4202
541.663	4235
541.728	4335
541.794	4490
541.860	4521
541.926	4213
541.992	5759
542.057	5619
542.123	10212
542.189	15228
542.255	31554
542.320	18925
542.386	6166
542.452	4410
542.517	5994
542.583	4713
542.648	6848
542.714	8993
542.780	22328
542.845	52213
542.911	11393
542.976	3631
543.042	5301
543.107	5005
543.173	6213
543.238	8642
543.304	23725
543.369	14784
543.435	4710
543.500	3150
543.566	5016
543.631	2323
543.697	4230
543.762	3393
543.827	4077
543.893	2690
543.958	4052
544.023	2327
544.089	5107
544.154	4581
544.219	4218
544.284	6505
544.350	12195
544.415	11283
544.480	13721
544.545	41748
544.610	22847
544.676	3913
544.741	3473
544.806	3527
544.871	3867
544.936	3259
545.001	5141
545.066	4673
545.132	5571
545.197	5335
545.262	8995
545.327	11360
545.392	27414
545.457	30934
545.522	5180
545.587	4611
545.652	3666
545.717	3734
545.781	3529
545.846	3827
545.911	4285
545.976	5489
546.041	4515
546.106	7612
546.171	12212
546.236	8422
546.300	5125
546.365	3816
546.430	4777
546.495	4944
546.559	5845
546.624	3106
546.689	3881
546.754	3149
546.818	4430
546.883	4045
546.948	4165
547.012	4247
547.077	6063
547.142	5960
547.206	6441
547.271	7699
547.335	7210
547.400	6476
547.464	8191
547.529	10225
547.594	7156
547.658	6245
547.722	4964
547.787	5064
547.852	5236
547.916	5945
547.980	8368
548.045	7375
548.109	5090
548.174	4946
548.238	4725
548.302	3620
548.367	4067
548.431	4803
548.495	5381
548.560	5157
548.624	6163
548.688	8260
548.752	6743
548.817	5795
548.881	7867
548.945	3905
549.009	5031
549.073	4826
549.138	3916
549.202	6240
549.266	4830
549.330	5691
549.394	4761
549.458	4817
549.522	5164
549.586	7700
549.650	8255
549.715	6170
549.779	3806
549.843	4808
549.907	5442
549.971	5638
550.034	6879
550.098	6251
550.162	6917
550.226	6968
550.290	7170
550.354	5088
550.418	6301
550.482	5975
550.546	10268
550.609	7359
550.673	5373
550.737	5521
550.801	7540
550.865	6249
550.928	8100
550.992	7927
551.056	11749
551.120	20138
551.183	14435
551.247	10269
551.311	22625
551.374	11536
551.438	6078
551.502	5969
551.565	4148
551.629	5379
551.692	5528
551.756	4589
551.819	5854
551.883	4643
551.946	4247
552.010	4564
552.073	5145
552.137	5471
552.200	5504
552.264	3932
552.327	4510
552.391	5973
552.454	5867
552.517	6360
552.581	6357
552.644	9762
552.708	20684
552.771	16581
552.834	7574
552.897	6402
552.961	6989
553.024	4835
553.087	5220
553.151	5167
553.214	5390
553.277	6801
553.340	8523
553.403	16962
553.466	11909
553.530	5190
553.593	5747
553.656	4713
553.719	4706
553.782	5159
553.845	4114
553.908	3156
553.971	5033
554.034	4369
554.097	5633
554.160	6192
554.223	6287
554.286	4646
554.349	6255
554.412	4327
554.475	4589
554.538	4728
554.601	4646
554.664	5085
554.727	4273
554.789	3906
554.852	3985
554.915	3233
554.978	4988
555.041	4646
555.104	4789
555.166	4482
555.229	4320
555.292	3650
555.354	6295
555.417	4351
555.480	3208
555.542	3473
555.605	5343
555.668	4551
555.730	3838
555.793	3566
555.856	4566
555.918	4659
555.981	4418
556.043	3420
556.106	4632
556.168	5648
556.231	5283
556.293	4646
556.356	6497
556.418	8481
556.481	6121
556.543	4702
556.606	4587
556.668	5885
556.730	6890
556.793	7923
556.855	12759
556.918	5246
556.980	5901
557.042	4933
557.104	12158
557.167	19983
557.229	8086
557.291	3571
557.354	5503
557.416	4294
557.478	7030
557.540	4880
557.602	3378
557.664	2394
557.727	4226
557.789	3526
557.851	4264
557.913	4847
557.975	7011
558.037	12208
558.099	14605
558.161	4796
558.223	4881
558.285	5068
558.347	6211
558.409	9518
558.471	14853
558.533	30236
558.595	28902
558.657	23081
558.719	65067
558.781	73138
558.843	15542
558.905	14885
558.966	6123
559.028	4516
559.090	6015
559.152	7998
559.214	12625
559.275	28449
559.337	51484
559.399	11142
559.461	5993
559.522	7085
559.584	8652
559.646	13033
559.707	35418
559.769	23317
559.831	6442
559.892	6545
559.954	10617
560.015	17984
560.077	9882
560.139	15290
560.200	14166
560.262	3930
560.323	4238
560.385	3740
560.446	2905
560.508	2829
560.569	2474
560.631	2608
560.692	3735
560.753	3275
560.815	2745
560.876	1897
560.937	3965
560.999	4324
561.060	4364
561.122	3635
561.183	4102
561.244	7463
561.305	9061
561.367	14196
561.428	36854
561.489	22027
561.550	5013
561.612	3862
561.673	3349
561.734	3774
561.795	3632
561.856	3609
561.917	3545
561.978	3037
562.039	2915
562.101	2771
562.162	3526
562.223	3174
562.284	5965
562.345	7629
562.406	4912
562.467	3342
562.528	3441
562.589	2061
562.649	3603
562.710	2040
562.771	3152
562.832	2478
562.893	3452
562.954	3862
563.015	3843
563.076	2285
563.136	3203
563.197	3112
563.258	4512
563.319	3601
563.380	2907
563.440	3650
563.501	3614
563.562	2677
563.622	4781
563.683	3189
563.744	4173
563.804	2321
563.865	2951
563.926	3183
563.986	4220
564.047	3201
564.107	3402
564.168	3661
564.229	4873
564.289	8302
564.350	4620
564.410	2435
564.471	3578
564.531	1997
564.591	3620
564.652	2578
564.712	5114
564.773	3634
564.833	3522
564.893	3210
564.954	3708
565.014	3335
565.074	2473
565.135	3642
565.195	2665
565.255	3576
565.316	3016
565.376	3236
565.436	4716
565.496	3175
565.557	3515
565.617	2988
565.677	4350
565.737	7758
565.797	6283
565.857	3323
565.917	4684
565.978	4968
566.038	4774
566.098	9358
566.158	8661
566.218	4206
566.278	4287
566.338	4067
566.398	3242
566.458	4466
566.518	3261
566.578	4317
566.638	4659
566.698	3505
566.757	4339
566.817	3543
566.877	4088
566.937	2744
566.997	3858
567.057	3303
567.116	4370
567.176	4645
567.236	5419
567.296	3657
567.355	5556
567.415	5626
567.475	5616
567.535	3808
567.594	4898
567.654	3844
567.714	5111
567.773	5625
567.833	5013
567.892	7413
567.952	8330
568.012	8928
568.071	11805
568.131	16930
568.190	20492
568.250	17005
568.309	14378
568.369	12271
568.428	11987
568.488	12257
568.547	15789
568.607	18933
568.666	25112
568.725	34581
568.785	29032
568.844	20584
568.903	15989
568.963	12264
569.022	10092
569.081	8123
569.141	7390
569.200	6104
569.259	6136
569.318	4285
569.378	5479
569.437	3810
569.496	3369
569.555	3840
569.614	4503
569.673	3807
569.732	3405
569.792	3129
569.851	3615
569.910	3178
569.969	3722
570.028	5080
570.087	3896
570.146	3546
570.205	3671
570.264	2560
570.323	2905
570.382	4234
570.441	4301
570.500	3960
570.559	3806
570.618	3795
570.676	5334
570.735	4938
570.794	6255
570.853	4593
570.912	3382
570.971	3354
571.029	2790
571.088	3058
571.147	3091
571.206	3265
571.264	3792
571.323	2139
571.382	4785
571.440	3344
571.499	3362
571.558	2918
571.616	2634
571.675	2655
571.733	2476
571.792	2463
571.851	1929
571.909	2046
571.968	2291
572.026	2636
572.085	2109
572.143	1847
572.202	2297
572.260	2377
572.319	2232
572.377	1764
572.435	2562
572.494	1391
572.552	2739
572.611	1992
572.669	1959
572.727	1784
572.786	2294
572.844	1711
572.902	2097
572.960	1547
573.019	2721
573.077	2447
573.135	2961
573.193	2196
573.251	2419
573.310	1797
573.368	1382
573.426	1338
573.484	2610
573.542	2154
573.600	2198
573.658	1811
573.716	2404
573.774	2811
573.832	3130
573.891	1948
573.948	2689
574.006	1571
574.064	1843
574.122	1054
574.180	2072
574.238	1899
574.296	1337
574.354	1280
574.412	2279
574.470	1629
574.528	1445
574.585	1662
574.643	2775
574.701	1041
574.759	2252
574.817	2078
574.874	1187
574.932	1437
574.990	2159
575.047	1719
575.105	2730
575.163	2906
575.221	3031
575.278	1947
575.336	2556
575.393	1683
575.451	2548
575.509	1950
575.566	2290
575.624	1802
575.681	2839
575.739	1802
575.796	2412
575.854	1117
575.911	2159
575.969	2328
576.026	2765
576.083	3519
576.141	4115
576.198	4917
576.256	2510
576.313	2018
576.370	2108
576.428	3677
576.485	2735
576.542	2677
576.599	1719
576.657	1630
576.714	2342
576.771	2556
576.828	2286
576.886	2420
576.943	1638
577.000	1572
577.057	1701
577.114	3444
577.171	3154
577.228	2224
577.286	3331
577.343	2770
577.400	2172
577.457	2306
577.514	3106
577.571	1137
577.628	1862
577.685	1839
577.742	2326
577.799	1631
577.855	1997
577.912	2111
577.969	2556
578.026	2067
578.083	3463
578.140	1702
578.197	2535
578.254	2298
578.310	2536
578.367	2228
578.424	3723
578.481	1907
578.537	2874
578.594	1360
578.651	2141
578.707	1283
578.764	1917
578.821	1163
578.877	2319
578.934	1283
578.991	1658
579.047	2313
579.104	2067
579.160	997
579.217	1732
579.273	1258
579.330	1825
579.387	1038
579.443	2185
579.499	1513
579.556	2051
579.612	2937
579.669	2664
579.725	2189
579.782	1773
579.838	539
579.894	1823
579.951	2183
580.007	2550
580.063	3246
580.120	3205
580.176	2636
580.232	3098
580.288	1970
580.345	2567
580.401	1513
580.457	2584
580.513	2427
580.569	1655
580.619	1592
580.625	1589
580.682	2225
580.692	2033
580.738	1212
580.765	1521
580.794	1853
580.838	1546
580.850	1470
580.906	1830
580.911	1876
580.962	2408
580.984	2069
581.018	1565
581.057	546
581.074	99
581.130	2710
581.130	2728
581.186	1658
581.203	1762
581.242	2025
581.276	1655
581.298	1404
581.349	1351
581.354	1349
581.410	1397
581.422	1422
581.466	1541
581.494	1623
581.522	1723
581.567	2288
581.577	2406
581.633	943
581.640	922
581.689	872
581.713	1204
581.745	1641
581.786	2166
581.801	2358
581.857	1205
581.859	1218
581.912	1655
581.932	1497
581.968	1162
582.004	1232
582.024	1268
582.077	1118
582.080	1117
582.135	1685
582.150	1496
582.191	1018
582.223	1286
582.247	1478
582.296	1867
582.302	1917
582.358	1270
582.368	1329
582.414	1731
582.441	1556
582.469	1295
582.514	1037
582.525	1004
582.581	1704
582.587	1651
582.636	1098
582.659	1288
582.692	1594
582.732	1294
582.747	1153
582.803	1034
582.805	1033
582.858	1259
582.877	1288
582.914	1337
582.950	1129
582.969	988
583.023	1255
583.025	1276
583.080	2047
583.095	2075
583.135	2236
583.168	2307
583.191	2276
583.240	1715
583.246	1643
583.302	890
583.313	994
583.357	1537
583.385	1479
583.412	1320
583.458	656
583.468	576
583.523	1405
583.531	1391
583.578	1224
583.603	1414
583.634	1604
583.676	1747
583.689	1806
583.744	1516
583.748	1543
583.799	1736
583.820	1240
583.854	692
583.893	1440
583.910	1672
583.965	882
583.965	884
584.020	994
584.038	995
584.075	1182
584.110	1334
584.130	1330
584.183	1288
584.185	1286
584.240	1508
584.255	1422
584.296	1309
584.328	1310
584.351	1295
584.400	967
584.406	938
584.461	1403
584.472	1330
584.516	1078
584.545	1373
584.571	1532
584.617	1185
584.626	1155
584.681	1638
584.689	1602
584.736	1239
584.762	1148
584.791	1110
584.834	1300
584.846	1371
584.900	1865
584.906	1898
584.955	2073
584.978	1948
585.010	1929
585.051	1801
585.065	1611
585.120	1844
585.123	1815
585.175	1954
585.195	2500
585.230	3357
585.267	3479
585.284	3503
585.339	3224
585.340	3216
585.394	2466
585.412	2803
585.449	3341
585.484	3402
585.503	3555
585.556	4549
585.558	4593
585.613	9081
585.628	9896
585.667	12404
585.700	8331
585.722	5502
585.772	4631
585.777	4445
585.831	2621
585.845	2483
585.886	2479
585.917	2115
585.941	2042
585.989	1868
585.995	1867
586.050	1767
586.061	1829
586.104	2048
586.133	2198
586.159	2223
586.205	2075
586.213	2063
586.268	1777
586.277	1772
586.322	1920
586.349	2320
586.377	2491
586.421	2077
586.431	2054
586.486	2402
586.493	2640
586.540	4374
586.565	3931
586.595	3277
586.637	2473
586.649	2187
586.703	2040
586.709	2042
586.758	2227
586.781	2138
586.812	1981
586.853	2324
586.866	2478
586.921	1801
586.925	1851
586.975	2278
586.996	2142
587.029	2057
587.068	1911
587.083	1953
587.138	2386
587.140	2430
587.192	2910
587.212	2707
587.246	2431
587.284	2729
587.300	2763
587.355	2497
587.356	2493
587.409	2736
587.427	2830
587.463	2907
587.499	3003
587.517	2965
587.571	2634
587.571	2633
587.625	3641
587.643	3716
587.679	3561
587.715	3743
587.733	3800
587.786	3533
587.787	3533
587.841	3893
587.858	4197
587.895	4849
587.930	5126
587.949	5253
588.001	5358
588.003	5370
588.057	6975
588.073	7246
588.111	7755
588.145	8609
588.165	8922
588.217	9835
588.219	9902
588.273	12163
588.288	12946
588.327	14960
588.360	17045
588.381	18298
588.431	23166
588.435	23424
588.489	30205
588.503	32646
588.542	39724
588.575	48373
588.596	53783
588.646	71674
588.650	72799
588.704	97635
588.718	106473
588.757	133492
588.789	167455
588.811	196358
588.861	303707
588.865	313862
588.919	375062
588.932	356670
588.972	280522
589.004	261287
589.026	200323
589.075	107114
589.080	103152
589.133	64789
589.147	56509
589.187	52171
589.218	52870
589.241	55477
589.290	64513
589.294	65335
589.348	83624
589.361	91027
589.401	115673
589.433	157661
589.455	196996
589.504	261547
589.508	267625
589.562	229161
589.576	232000
589.615	147155
589.647	102982
589.669	78697
589.718	28966
589.722	28026
589.776	17845
589.790	15393
589.829	12865
589.861	11057
589.883	10162
589.932	8282
589.936	8174
589.989	7090
590.004	6831
590.043	6067
590.075	5511
590.096	5309
590.146	4836
590.149	4785
590.203	4211
590.218	4055
590.256	4007
590.289	3937
590.309	3625
590.360	2740
590.362	2739
590.416	3252
590.431	3383
590.469	3238
590.503	3201
590.522	3141
590.574	2918
590.575	2916
590.629	3084
590.645	3124
590.682	2986
590.716	3006
590.735	3064
590.787	2892
590.788	2881
590.841	2440
590.859	2304
590.894	2529
590.930	2756
590.947	2761
591.000	2528
591.001	2531
591.053	2371
591.072	2270
591.106	1952
591.143	1681
591.159	1839
591.212	2331
591.214	2356
591.265	2147
591.285	2089
591.318	2381
591.356	2667
591.371	2657
591.424	2533
591.427	2542
591.477	2135
591.498	1886
591.530	1816
591.569	1887
591.583	1899
591.636	1821
591.640	1826
591.689	2215
591.711	2416
591.741	2150
591.782	1727
591.794	1804
591.847	2194
591.853	2247
591.900	1963
591.924	1791
591.953	1836
591.995	2004
592.005	2009
592.058	2014
592.066	2018
592.111	2170
592.137	2269
592.164	2290
592.208	2357
592.216	2349
592.269	2302
592.279	2305
592.322	1738
592.350	1354
592.374	1352
592.421	1403
592.427	1427
592.479	1712
592.491	1790
592.532	1945
592.562	2059
592.585	2099
592.633	2185
592.704	1685
592.775	1395
592.846	2095
592.916	1993
592.987	1169
593.058	2499
593.128	1951
593.199	1447
593.270	1872
593.341	1832
593.411	1257
593.482	601
593.553	2567
593.623	1832
593.694	1486
593.764	1616
593.835	2023
593.906	1286
593.976	1421
594.047	333
594.117	1692
594.188	1047
594.258	1359
594.329	1050
594.399	1778
594.470	1850
594.540	890
594.611	1934
594.681	1090
594.751	1916
594.822	1673
594.892	1189
594.963	2678
595.033	1687
595.103	1259
595.174	2053
595.244	1933
595.314	2635
595.384	1883
595.455	1748
595.525	1891
595.595	2484
595.665	1638
595.736	1700
595.806	2074
595.876	1738
595.946	2011
596.016	1715
596.087	1078
596.157	1658
596.227	914
596.297	1938
596.367	1353
596.437	1435
596.507	2038
596.577	2738
596.647	2094
596.717	1443
596.787	1674
596.857	1828
596.927	1698
596.997	1781
597.067	1982
597.137	1849
597.207	2144
597.277	2249
597.347	2216
597.417	2464
597.487	2425
597.557	2413
597.626	1898
597.696	2409
597.766	1881
597.836	2326
597.906	2153
597.975	1937
598.045	2090
598.115	1585
598.185	1747
598.254	2291
598.324	2860
598.394	2730
598.464	2245
598.533	1799
598.603	2250
598.672	2443
598.742	2801
598.812	2519
598.881	2575
598.951	2574
599.020	2818
599.090	1645
599.159	2874
599.229	2140
599.299	1874
599.368	2162
599.437	2088
599.507	2388
599.576	2044
599.646	2074
599.715	2050
599.785	1719
599.854	1731
599.924	1433
599.993	1762
600.062	1401
600.132	1282
600.201	1652
600.270	2496
600.340	2381
600.409	2272
600.478	2243
600.547	2905
600.617	1792
600.686	1772
600.755	888
600.824	1383
600.894	1640
600.963	1662
601.032	1448
601.101	1150
601.170	938
601.239	910
601.308	1157
601.378	461
601.447	1373
601.516	2103
601.585	2132
601.654	1835
601.723	2002
601.792	1389
601.861	1205
601.930	2078
601.999	717
602.068	1518
602.137	1240
602.206	1655
602.275	1283
602.343	1841
602.412	2028
602.481	1186
602.550	2083
602.619	1306
602.688	1260
602.756	962
602.825	1103
602.894	305
602.963	1889
603.032	2382
603.100	1137
603.169	1200
603.238	1239
603.307	1575
603.375	1544
603.444	1442
603.513	1190
603.581	2255
603.650	1866
603.719	982
603.787	1521
603.856	1601
603.924	2357
603.993	1741
604.061	1746
604.130	1480
604.198	1456
604.267	1589
604.335	1467
604.404	2111
604.472	1221
604.541	2035
604.609	1828
604.678	2609
604.746	1763
604.815	1976
604.883	1942
604.951	2301
605.020	2375
605.088	1903
605.156	2532
605.225	2816
605.293	1914
605.361	1575
605.429	2011
605.498	2646
605.566	2165
605.634	2383
605.702	2143
605.771	2887
605.839	2471
605.907	3077
605.975	2724
606.043	2610
606.111	2459
606.180	2396
606.248	1702
606.316	3336
606.384	2027
606.452	3408
606.520	3103
606.588	2379
606.656	2233
606.724	1717
606.792	2283
606.860	1973
606.928	2221
606.996	1724
607.064	1648
607.132	1948
607.200	1791
607.267	1946
607.335	1140
607.403	2120
607.471	2069
607.539	985
607.607	2362
607.674	1904
607.742	1844
607.810	1419
607.878	1073
607.946	1208
608.013	1007
608.081	1826
608.149	1743
608.216	1734
608.284	2298
608.352	1580
608.419	1096
608.487	2393
608.555	1871
608.622	1713
608.690	2061
608.757	2930
608.825	2268
608.893	2197
608.960	1961
609.028	1829
609.095	2478
609.163	2091
609.230	2187
609.298	1249
609.365	1043
609.432	2472
609.500	2252
609.567	1633
609.635	2349
609.702	2411
609.769	1866
609.837	1899
609.904	1550
609.971	979
610.039	2309
610.106	2249
610.173	2784
610.241	6599
610.308	4091
610.375	2460
610.442	1379
610.509	513
610.577	2023
610.644	1388
610.711	1844
610.778	2073
610.845	1650
610.912	1819
610.980	2345
611.047	2178
611.114	1811
611.181	2583
611.248	1439
611.315	2852
611.382	751
611.449	1843
611.516	2490
611.583	2585
611.650	2615
611.717	2742
611.784	2354
611.851	2948
611.918	2012
611.984	2750
612.051	3553
612.118	7293
612.185	15733
612.252	8714
612.319	2990
612.386	2863
612.452	2274
612.519	2934
612.586	2538
612.653	3524
612.719	2603
612.786	2385
612.853	2422
612.919	1724
612.986	2622
613.053	1608
613.120	820
613.186	1404
613.253	2509
613.319	1645
613.386	1066
613.453	1442
613.519	1871
613.586	1829
613.652	3085
613.719	1877
613.785	2023
613.852	1510
613.918	1722
613.985	2552
614.051	2115
614.118	2864
614.184	2313
614.250	1415
614.317	2004
614.383	2001
614.449	1455
614.516	1456
614.582	1816
614.648	1630
614.715	1471
614.781	1419
614.847	1252
614.914	1339
614.980	1704
615.046	1751
615.112	1575
615.179	1620
615.245	1464
615.311	889
615.377	2145
615.443	2753
615.509	1877
615.575	2382
615.642	2229
615.708	2330
615.774	1866
615.840	2430
615.906	2908
615.972	3730
616.038	4567
616.104	9041
616.170	18887
616.236	13603
616.302	4558
616.368	2576
616.434	1919
616.500	2089
616.565	1914
616.631	2628
616.697	1023
616.763	1838
616.829	3063
616.895	5589
616.961	3760
617.026	1663
617.092	2102
617.158	1707
617.224	2014
617.289	1641
617.355	970
617.421	730
617.487	1679
617.552	1241
617.618	1425
617.684	778
617.749	2621
617.815	1723
617.880	1212
617.946	1615
618.012	1218
618.077	1401
618.143	1290
618.208	1916
618.274	1285
618.339	1092
618.405	392
618.470	1526
618.536	1111
618.601	1337
618.667	799
618.732	683
618.798	1187
618.863	1234
618.928	764
618.994	1897
619.059	1777
619.124	2027
619.190	630
619.255	292
619.320	1454
619.386	522
619.451	653
619.516	981
619.581	1079
619.647	558
619.712	1072
619.777	812
619.842	274
619.907	683
619.972	709
620.038	885
620.103	883
620.168	822
620.233	1222
620.298	541
620.363	515
620.428	642
620.493	519
620.558	625
620.623	1237
620.688	1113
620.753	647
620.818	558
620.883	635
620.948	739
621.013	889
621.078	505
621.143	83
621.207	2019
621.272	948
621.337	963
621.402	1191
621.467	271
621.532	1080
621.596	1407
621.661	719
621.726	1054
621.791	1093
621.855	1308
621.920	564
621.985	602
622.049	1581
622.114	450
622.179	1272
622.243	1015
622.308	1426
622.373	2760
622.437	1129
622.502	636
622.566	676
622.631	996
622.695	1115
622.760	898
622.824	914
622.889	901
622.953	817
623.018	2512
623.082	832
623.147	862
623.211	860
623.276	1335
623.340	682
623.404	487
623.469	389
623.533	986
623.597	862
623.662	862
623.726	1318
623.790	152
623.854	284
623.919	532
623.983	714
624.047	255
624.111	589
624.176	1096
624.240	-14
624.304	1422
624.368	1305
624.432	508
624.496	703
624.560	993
624.625	886
624.689	739
624.753	748
624.817	991
624.881	-116
624.945	894
625.009	891
625.073	475
625.137	-2
625.201	666
625.265	1004
625.329	340
625.393	204
625.456	1631
625.520	1299
625.584	996
625.648	381
625.712	617
625.776	1949
625.839	2892
625.903	541
625.967	-462
626.031	1670
626.095	1346
626.158	-159
626.222	-221
626.286	1259
626.349	-646
626.413	-1062
626.477	647
626.540	-140
626.604	167
626.668	63
626.731	538
626.795	-74
626.858	337
626.922	11
626.986	52
627.049	-588
627.113	352
627.176	137
627.240	365
627.303	-208
627.366	277
627.430	672
627.493	-195
627.557	135
627.620	-175
627.684	353
627.747	-265
627.810	-565
627.874	-132
627.937	-936
628.000	1531
628.064	52
628.127	-556
628.190	-117
628.253	400
628.317	419
628.380	-52
628.443	-859
628.506	629
628.569	-175
628.632	-1003
628.696	352
628.759	-12
628.822	55
628.885	-683
628.948	402
629.011	-453
629.074	-880
629.137	-474
629.200	-842
629.263	977
629.326	-729
629.389	-312
629.452	-568
629.515	-356
629.578	-408
629.641	-66
629.704	-285
629.767	-435
629.830	-269
629.892	-350
629.955	-607
630.018	716
630.081	-469
630.144	-369
630.207	-702
630.269	855
630.332	-598
630.395	-414
630.458	-217
630.520	-238
630.583	697
630.646	-197
630.708	-149
630.771	-516
630.834	229
630.896	-511
630.959	-268
631.021	-1520
631.084	-649
631.146	159
631.209	-341
631.272	-545
631.334	-278
631.397	-325
631.459	-351
631.522	-568
631.584	-914
631.646	-74
631.709	-223
631.771	-72
631.834	-46
631.896	-792
631.958	-1529
632.021	36
632.083	-1149
632.145	159
632.208	-242
632.270	-284
632.332	-806
632.395	-1307
632.457	126
632.519	-921
632.581	-261
632.643	-992
632.706	-413
632.768	-834
632.830	-184
632.892	-534
632.954	-75
633.016	-165
633.078	-811
633.141	-30
633.203	-460
633.265	-219
633.327	-1587
633.389	-1450
633.451	-653
633.513	-398
633.575	96
633.637	-313
633.698	-399
633.760	185
633.822	-360
633.884	-47
633.946	-486
634.008	-856
634.070	-460
634.132	-443
634.193	-236
634.255	-71
634.317	-953
634.379	219
634.441	-731
634.502	-647
634.564	-411
634.626	-348
634.687	1
634.749	114
634.811	-964
634.873	-1
634.934	-416
634.996	182
635.057	-781
635.119	-785
635.181	-995
635.242	-436
635.304	-1951
635.365	646
635.427	-837
635.488	-701
635.550	-832
635.611	173
635.673	-1744
635.734	281
635.796	-392
635.857	254
635.918	-1474
635.980	391
636.041	-790
636.102	-29
636.164	-1148
636.225	-60
636.286	-1580
636.348	98
636.409	96
636.470	-1013
636.531	-573
636.593	-627
636.654	-568
636.715	-599
636.776	-883
636.838	-1050
636.899	-360
636.960	-770
637.021	-367
637.082	-1077
637.143	-777
637.204	-1116
637.265	-835
637.326	311
637.387	-706
637.448	-1351
637.509	-815
637.570	-524
637.631	-745
637.692	-384
637.753	-1138
637.814	-651
637.875	-327
637.936	-469
637.997	-913
638.058	-628
638.119	-760
638.179	-1432
638.240	-1381
638.301	-1419
638.362	-1045
638.423	-263
638.483	-391
638.544	-1155
638.605	-660
638.666	-2026
638.726	-660
638.787	-700
638.848	-1828
638.908	-936
638.969	-592
639.030	105
639.090	-1164
639.151	-960
639.211	-271
639.272	-131
639.332	-258
639.393	-425
639.453	-1077
639.514	-1185
639.574	-141
639.635	-793
639.695	-163
639.756	-1504
639.816	-484
639.877	-514
639.937	-721
639.997	-253
640.058	-1251
640.118	-482
640.178	120
640.239	-844
640.299	-786
640.359	-1559
640.420	-916
640.480	-446
640.540	-1416
640.600	-1067
640.661	-416
640.721	-872
640.781	-402
640.841	-2293
640.901	146
640.961	-316
641.021	-1500
641.082	-971
641.142	-951
641.202	-487
641.262	-2341
641.322	-693
641.382	-561
641.442	-727
641.502	-535
641.562	-783
641.622	-1154
641.682	-1011
641.742	-1094
641.802	-628
641.861	-209
641.921	-983
641.981	-398
642.041	-880
642.101	-631
642.161	-1047
642.221	-1288
642.280	-404
642.340	-947
642.400	-1881
642.460	-699
642.519	-1557
642.579	-1486
642.639	-936
642.698	-2778
642.758	944
642.818	-578
642.877	-898
642.937	-1329
642.997	-654
643.056	-1029
643.116	-1716
643.175	-560
643.235	-1795
643.294	-638
643.354	-823
643.414	-720
643.473	-643
643.532	-626
643.592	-1581
643.651	-822
643.711	579
643.770	1667
643.830	2548
643.889	9077
643.948	3253
644.008	-45
644.067	-1170
644.126	-1360
644.186	-1362
644.245	-871
644.304	-1262
644.363	39
644.423	-1977
644.482	14
644.541	-62
644.600	-1838
644.659	-665
644.719	-995
644.778	-1051
644.837	-1243
644.896	-345
644.955	625
645.014	-589
645.073	-1006
645.132	-948
645.191	-580
645.250	-1274
645.309	-345
645.368	-2003
645.427	-127
645.486	-2479
645.545	-783
645.604	-1404
645.663	-759
645.722	-1214
645.781	-1238
645.840	-1467
645.898	-277
645.957	-421
646.016	-1861
646.075	95
646.134	290
646.192	2136
646.251	6464
646.310	-144
646.369	-1523
646.427	-77
646.486	-1355
646.545	-576
646.603	-145
646.662	-87
646.721	-941
646.779	-1246
646.838	-1196
646.896	-679
646.955	-1042
647.014	-563
647.072	-788
647.131	-604
647.189	-539
647.248	-1545
647.306	-2
647.365	-714
647.423	-2041
647.481	101
647.540	-1935
647.598	-938
647.657	-1137
647.715	-889
647.773	-1091
647.832	97
647.890	-1738
647.948	-1370
648.007	-699
648.065	-1017
648.123	-1355
648.181	442
648.240	-368
648.298	-1925
648.356	-1563
648.414	-340
648.472	-382
648.531	-479
648.589	-482
648.647	-979
648.705	-1338
648.763	-945
648.821	-1205
648.879	-881
648.937	-1066
648.995	-940
649.053	-1347
649.111	-1396
649.169	-813
649.227	-1203
649.285	-42
649.343	1869
649.401	1601
649.459	-131
649.516	-1217
649.574	-1786
649.632	-667
649.690	-1072
649.748	-625
649.806	-1948
649.863	-222
649.921	837
649.979	-1177
650.037	-33
650.094	-2076
650.152	-251
650.210	-963
650.268	113
650.325	-688
650.383	-1650
650.440	-2469
650.498	-620
650.556	-298
650.613	-926
650.671	-922
650.728	-795
650.786	-1150
650.843	-1263
650.901	-1868
650.958	-1029
651.016	-871
651.073	-1067
651.131	-986
651.188	-2356
651.246	-695
651.303	-1293
651.360	-469
651.418	-1528
651.475	-604
651.532	-2247
651.590	-457
651.647	-1793
651.704	-1728
651.762	-1436
651.819	-1262
651.876	-1483
651.933	-1098
651.990	-1323
652.048	-1470
652.105	-1863
652.162	-613
652.219	-2157
652.276	-1004
652.333	-755
652.390	-2251
652.448	-1511
652.505	-992
652.562	-1435
652.619	-1575
652.676	-335
652.733	-327
652.790	-1116
652.847	-2129
652.904	-655
652.961	-1433
653.017	-1211
653.074	-1223
653.131	-1215
653.188	-1752
653.245	-1281
653.302	-883
653.359	-1561
653.415	-660
653.472	-1367
653.529	-707
653.586	-1670
653.642	-1550
653.699	-1353
653.756	-1597
653.813	-1628
653.869	-1156
653.926	-1957
653.983	-2166
654.039	-925
654.096	-900
654.152	-20
654.209	-1631
654.266	-1280
654.322	-1652
654.379	-1830
654.435	-1349
654.492	-1556
654.548	-1460
654.605	-1371
654.661	-253
654.717	-1840
654.774	-978
654.830	-1186
654.887	-1413
654.943	-862
655.000	-919
655.056	-1266
655.112	-1243
655.168	-1808
655.225	-1798
655.281	-775
655.337	-1451
655.394	-1902
655.450	-1642
655.506	-1222
655.562	-1762
655.618	-217
655.675	-1615
655.731	-1062
655.787	-2370
655.843	-342
655.899	-2039
655.955	-1604
656.011	-859
656.067	-2437
656.123	-843
656.179	-1536
656.235	-1217
656.291	-2149
656.347	-881
656.403	-1665
656.459	-1880
656.515	-934
656.571	-1769
656.627	-886
656.683	-1623
656.739	-593
656.795	-1270
656.850	-1461
656.906	-1147
656.962	-246
657.018	-1843
657.074	-1393
657.129	-1661
657.185	-592
657.241	-1427
657.297	-1914
657.352	-1127
657.408	-1677
657.464	-470
657.519	-1558
657.575	-1621
657.630	-942
657.686	-1119
657.742	-1621
657.797	-1370
657.853	-2282
657.908	-465
657.964	-1102
658.019	-1678
658.075	-1796
658.130	-520
658.186	-1878
658.241	-934
658.297	-2118
658.352	-2137
658.407	-297
658.463	-1560
658.518	-1017
658.573	-1187
658.629	-2072
658.684	-1314
658.739	-779
658.795	-1790
658.850	-1744
658.905	-2071
658.960	-1344
659.016	-2558
659.071	-1239
659.126	-1792
659.181	-1670
659.236	-474
659.291	507
659.346	-1512
659.401	-1022
659.457	-1338
659.512	-1840
659.567	-1167
659.622	-1617
659.677	-1314
659.732	-1932
659.787	-2188
659.842	-1186
659.897	-1189
659.952	-1326
660.007	-1040
660.061	-1312
660.116	-1584
660.171	-1864
660.226	-1144
660.281	94
660.336	-1890
660.391	-968
660.445	-1921
660.500	-1123
660.555	-966
660.610	-1776
660.664	-965
660.719	-1906
660.774	-1075
660.828	-1693
660.883	-1332
660.938	-577
660.992	-1781
661.047	-1202
661.101	-1557
661.156	-968
661.211	-2324
661.265	-1533
661.320	-1498
661.374	-1232
661.429	-2054
661.483	-1574
661.538	-2056
661.592	-1362
661.647	-1177
661.701	-1187
661.755	-1186
661.810	-1453
661.864	-2056
661.919	-1938
661.973	-1481
662.027	-1094
662.081	-1938
662.136	-2102
662.190	-1480
662.244	-936
662.299	-1666
662.353	-1435
662.407	-1774
662.461	-1940
662.515	-1470
662.569	-1848
662.624	-317
662.678	-2316
662.732	-1678
662.786	-1508
662.840	-1257
662.894	-1553
662.948	-1628
663.002	-1852
663.056	-891
663.110	-2238
663.164	-1582
663.218	-1304
663.272	-1526
663.326	-819
663.380	-1356
663.434	-1722
663.488	-2970
663.542	-1569
663.595	-1684
663.649	-1540
663.703	-1571
663.757	-1424
663.811	-2439
663.864	-2070
663.918	-906
663.972	-1799
664.026	-2239
664.079	-1319
664.133	-590
664.187	-1705
664.240	-1554
664.294	-638
664.348	-614
664.401	-763
664.455	-1224
664.508	-1549
664.562	-1268
664.615	-358
664.669	-1957
664.722	-353
664.776	-1128
664.829	-1856
664.883	-994
664.936	-1264
664.990	-825
665.043	-1435
665.097	-1994
665.150	-838
665.203	-1787
665.257	-1587
665.310	-1093
665.363	-1356
665.417	-1587
665.470	-1874
665.523	-1637
665.576	-1789
665.630	-1846
665.683	-1495
665.736	-1925
665.789	-1360
665.842	-1498
665.895	-397
665.949	-1610
666.002	-1399
666.055	-973
666.108	-528
666.161	-1515
666.214	-1301
666.267	-1634
666.320	-1245
666.373	-1252
666.426	-1247
666.479	-1847
666.532	-1233
666.585	-2368
666.638	-2251
666.691	-1197
666.744	-1598
666.796	-1664
666.849	-1834
666.902	-1540
666.955	-1858
667.008	-1893
667.060	-1906
667.113	-2192
667.166	-2007
667.219	-1424
667.271	-884
667.324	-1434
667.377	-1610
667.430	-1872
667.482	-1244
667.535	-2193
667.587	-1183
667.640	-1224
667.693	-2037
667.745	-2511
667.798	-834
667.850	-2052
667.903	-874
667.955	-1937
668.008	-1707
668.060	-1726
668.113	-1578
668.165	-1711
668.218	-1500
668.270	-1858
668.322	-1824
668.375	-1744
668.427	-778
668.479	-2115
668.532	-1208
668.584	-1766
668.636	-1598
668.689	-1759
668.741	-1353
668.793	-1764
668.845	-1956
668.898	-1000
668.950	-1264
669.002	-1815
669.054	-1825
669.106	-2043
669.158	-701
669.211	-1700
669.263	-1341
669.315	-894
669.367	-1820
669.419	-1956
669.471	-1731
669.523	-2002
669.575	-1508
669.627	-2359
669.679	-1314
669.731	-1564
669.783	-1937
669.835	-941
669.886	-2119
669.938	-844
669.990	-1031
670.042	-2137
670.094	-1070
670.146	-1307
670.197	-1643
670.249	-693
670.301	-1594
670.353	-1249
670.404	-2258
670.456	-1277
670.508	-854
670.560	-319
670.611	329
670.663	1870
670.715	8530
670.766	23180
670.818	16558
670.869	124
670.921	-684
670.972	-1319
671.024	-1257
671.075	-1659
671.127	-732
671.178	-2378
671.230	-974
671.281	-2018
671.333	-1448
671.384	-2209
671.436	-1935
671.487	-994
671.538	-1465
671.590	-1663
671.641	-1849
671.692	-1733
671.744	-1198
671.795	-674
671.846	-1543
671.897	-1937
671.949	-2050
672.000	-1780
672.051	-1448
672.102	-1973
672.153	-1811
672.204	-1371
672.256	-1177
672.307	-2263
672.358	-1347
672.409	-1748
672.460	-722
672.511	-2355
672.562	-2103
672.613	-2120
672.664	-2006
672.715	-1936
672.766	-1309
672.817	-1536
672.868	-1873
672.919	-1647
672.970	-1372
673.021	-1657
673.071	-2774
673.122	-1607
673.173	-1045
673.224	-1515
673.275	-1213
673.326	-1627
673.376	-1494
673.427	-2058
673.478	-2394
673.528	-1211
673.579	-1351
673.630	-2726
673.680	-569
673.731	-2184
673.782	-2021
673.832	-2079
673.883	-1505
673.934	-2466
673.984	-1731
674.035	-2022
674.085	-926
674.136	-1742
674.186	-1925
674.237	-1191
674.287	-1720
674.338	-2029
674.388	-1990
674.438	-2210
674.489	-1423
674.539	-1967
674.589	-2099
674.640	-1333
674.690	-1767
674.740	-1936
674.791	-1656
674.841	-1609
674.891	-2041
674.942	-1918
674.992	-1873
675.042	-1827
675.092	-1776
675.142	-1565
675.193	-1422
675.243	-1915
675.293	-1303
675.343	-1985
675.393	-1916
675.443	-1954
675.493	-1613
675.543	-1678
675.593	-2086
675.643	-1003
675.693	-1777
675.743	-1880
675.793	-1962
675.843	-2437
675.893	-2395
675.943	-1284
675.993	-2633
676.043	-1946
676.093	-1494
676.142	-2018
676.192	-1696
676.242	-1698
676.292	-2005
676.341	-2203
676.391	-1876
676.441	-2333
676.491	-2205
676.540	-1579
676.590	-1470
676.640	-1378
676.689	-2084
676.739	-1930
676.789	-1737
676.838	-2096
676.888	-1717
676.937	-1948
676.987	-1789
677.037	-1968
677.086	-2426
677.136	-1915
677.185	-1422
677.235	-1429
677.284	-1744
677.333	-1826
677.383	-1723
677.432	-1915
677.482	-1776
677.531	-1600
677.580	-1776
677.630	-1877
677.679	-1599
677.728	-1487
677.778	-1225
677.827	-2016
677.876	-935
677.925	-1490
677.975	-1983
678.024	-1577
678.073	-1779
678.122	-2353
678.171	-1742
678.220	-2370
678.269	-1958
678.319	-1559
678.368	-2023
678.417	-1482
678.466	-1652
678.515	-2065
678.564	-1578
678.613	-2085
678.662	-2055
678.711	-1901
678.760	-1775
678.809	-1879
678.857	-1964
678.906	-2413
678.955	-2186
679.004	-1321
679.053	-2267
679.102	-2146
679.151	-2083
679.199	-1990
679.248	-1669
679.297	-2563
679.346	-1893
679.394	-2399
679.443	-1933
679.492	-1710
679.540	-1913
679.589	-1378
679.638	-1028
679.686	-2255
679.735	-1716
679.784	-1929
679.832	-2672
679.881	-1592
679.929	-1897
679.978	-1966
680.026	-2475
680.075	-2215
680.123	-1888
680.172	-2364
680.220	-2524
680.268	-1957
680.317	-1969
680.365	-2366
680.414	-2077
680.462	-1802
680.510	-1664
680.559	-2099
680.607	-1484
680.655	-1957
680.703	-1756
680.752	-2194
680.800	-1986
680.848	-2149
680.896	-2227
680.945	-1162
680.993	-1438
681.041	-1786
681.089	-1285
681.137	-1980
681.185	-1604
681.233	-1367
681.281	-1815
681.308	-2043
681.329	-2234
681.377	-1978
681.425	-1713
681.430	-1641
681.473	-1018
681.521	-1609
681.552	-1799
681.569	-1917
681.617	-1467
681.665	-1703
681.674	-1689
681.713	-1661
681.761	-1829
681.796	-2398
681.809	-2626
681.857	-1067
681.904	-2052
681.918	-1999
681.952	-1883
682.000	-1899
682.039	-2003
682.048	-2033
682.096	-1573
682.143	-2318
682.161	-1893
682.191	-1224
682.239	-315
682.283	-2107
682.286	-2248
682.334	-1744
682.382	-1494
682.405	-1523
682.430	-1545
682.477	-1444
682.525	-1811
682.527	-1816
682.572	-2122
682.620	-1358
682.648	-1579
682.667	-1729
682.715	-1155
682.763	-1550
682.770	-1737
682.810	-2719
682.857	-1685
682.892	-1443
682.905	-1357
682.952	-1059
683.000	-1196
683.014	-1398
683.047	-1889
683.095	-1594
683.135	-1514
683.142	-1511
683.190	-1493
683.237	-1892
683.257	-1632
683.284	-1260
683.332	-1616
683.379	-1274
683.379	-1270
683.426	-1271
683.473	-1319
683.501	-1154
683.521	-1002
683.568	-1828
683.615	-1626
683.622	-1539
683.662	-1144
683.709	-1515
683.744	-2056
683.757	-2238
683.804	-930
683.851	-1502
683.865	-1319
683.898	-965
683.945	-1365
683.987	-940
683.992	-889
684.039	-1547
684.086	-1301
684.109	-1059
684.133	-785
684.180	-948
684.227	-715
684.230	-737
684.274	-1077
684.321	-1033
684.352	-1061
684.368	-1098
684.415	-985
684.462	-1138
684.473	-1192
684.509	-1311
684.556	-787
684.595	-989
684.603	-1038
684.649	-1131
684.696	-1240
684.716	-869
684.743	-351
684.790	-361
684.837	-1157
684.838	-1156
684.883	-1101
684.930	-798
684.959	-813
684.977	-847
685.023	-932
685.070	-1148
685.081	-1127
685.117	-992
685.164	-793
685.202	-239
685.210	-143
685.257	-937
685.303	-192
685.324	-495
685.350	-867
685.396	-865
685.443	-528
685.445	-513
685.490	-140
685.536	-740
685.566	-716
685.583	-694
685.629	-770
685.675	-591
685.688	-614
685.722	-687
685.768	-626
685.809	-328
685.815	-290
685.861	-481
685.908	-528
685.930	-701
685.954	-809
686.000	-654
686.047	-180
686.052	-209
686.093	-490
686.139	-407
686.173	-202
686.185	-133
686.232	-977
686.278	-637
686.294	-580
686.324	-439
686.370	-776
686.416	-498
686.416	-489
686.463	-258
686.509	-569
686.537	-613
686.555	-649
686.601	-673
686.647	-694
686.658	-698
686.693	-510
686.739	-401
686.779	-247
686.785	-255
686.831	132
686.877	-189
686.900	-302
686.923	-362
686.969	-348
687.015	-741
687.022	-746
687.061	-682
687.107	-399
687.143	-519
687.153	-562
687.199	-110
687.245	-385
687.264	-506
687.291	-659
687.336	-608
687.382	-601
687.385	-599
687.428	-420
687.474	-503
687.506	-250
687.520	-172
687.565	-451
687.611	-619
687.627	-667
687.657	-627
687.702	-355
687.748	-349
687.748	-354
687.794	-85
687.839	-608
687.869	-239
687.885	-68
687.931	-232
687.976	-852
687.990	-723
688.022	-305
688.067	-216
688.111	-184
688.113	-181
688.158	-129
688.204	-330
688.233	-474
688.249	-484
688.295	61
688.340	268
688.354	179
688.386	-26
688.431	-99
688.474	479
688.477	505
688.522	176
688.567	-157
688.595	-17
688.613	206
688.658	516
688.703	157
688.716	204
688.749	93
688.794	282
688.837	-288
688.839	-296
688.884	-52
688.930	4
688.958	-225
688.975	-304
689.020	326
689.065	87
689.079	177
689.110	282
689.155	35
689.200	-155
689.201	-147
689.246	-193
689.291	466
689.321	75
689.336	-79
689.381	-93
689.426	102
689.442	172
689.471	283
689.516	125
689.561	379
689.562	355
689.606	22
689.651	18
689.683	139
689.696	166
689.741	458
689.785	356
689.804	231
689.830	131
689.875	63
689.920	285
689.925	333
689.965	786
690.010	-42
690.046	5
690.054	40
690.099	360
690.144	143
690.166	79
690.189	-14
690.233	572
690.278	-161
690.287	-131
690.323	132
690.367	113
690.408	136
690.412	145
690.457	233
690.501	333
690.528	378
690.546	451
690.590	670
690.635	119
690.649	192
690.680	290
690.724	-27
690.769	338
690.770	328
690.813	511
690.857	596
690.890	645
690.902	665
690.946	697
690.991	557
691.011	700
691.035	995
691.080	1180
691.124	961
691.132	1002
691.168	962
691.213	1238
691.252	1022
691.257	1029
691.301	650
691.346	848
691.373	799
691.390	776
691.434	551
691.478	306
691.493	474
691.522	883
691.567	855
691.611	830
691.614	829
691.655	1016
691.699	912
691.734	997
691.743	1011
691.787	852
691.831	691
691.855	614
691.875	631
691.919	725
691.964	502
691.975	523
692.008	725
692.052	831
692.096	880
692.096	864
692.139	1198
692.183	873
692.216	935
692.227	960
692.271	820
692.315	584
692.337	516
692.359	703
692.403	853
692.447	1422
692.457	1409
692.490	1083
692.534	1057
692.577	1144
692.578	1163
692.622	1267
692.666	749
692.698	962
692.709	1050
692.753	882
692.797	960
692.818	928
692.840	997
692.884	878
692.928	902
692.938	940
692.971	1135
693.015	1222
693.059	1570
693.059	1553
693.102	1217
693.146	791
693.179	681
693.189	720
693.233	937
693.276	979
693.299	1026
693.320	1084
693.363	974
693.407	830
693.420	914
693.450	1161
693.493	798
693.537	886
693.540	860
693.580	859
693.624	1114
693.660	1045
693.667	1082
693.710	1668
693.753	1633
693.780	1835
693.797	2107
693.840	2713
693.883	3615
693.901	3709
693.926	3336
693.970	2839
694.013	2470
694.021	2399
694.056	2160
694.099	1563
694.141	1066
694.142	1087
694.185	1217
694.229	1450
694.261	1536
694.272	1589
694.315	1716
694.358	1703
694.381	1768
694.401	1694
694.444	1440
694.487	1153
694.501	1064
694.530	1271
694.573	1314
694.616	1597
694.621	1619
694.659	1625
694.702	1510
694.741	1442
694.745	1459
694.787	1383
694.830	1341
694.862	1241
694.873	1244
694.916	1189
694.959	1354
694.982	1169
695.002	1045
695.044	1226
695.087	1132
695.102	1074
695.130	1008
695.172	1279
695.215	1065
695.222	1046
695.258	1077
695.301	1095
695.342	1155
695.343	1176
695.386	1358
695.428	1192
695.462	1161
695.471	1190
695.514	1406
695.556	1336
695.582	1501
695.599	1620
695.641	1606
695.684	1718
695.701	1649
695.726	1531
695.769	1509
695.811	1496
695.821	1435
695.854	1335
695.896	1572
695.938	1187
695.941	1165
695.981	1172
696.023	1155
696.061	1086
696.065	1123
696.108	1414
696.150	1599
696.181	1626
696.192	1588
696.235	1566
696.277	1361
696.301	1333
696.319	1432
696.361	1571
696.404	1662
696.421	1649
696.446	1679
696.488	1815
696.530	1938
696.541	1950
696.572	2075
696.614	2172
696.656	2144
696.660	2132
696.698	2130
696.740	2030
696.780	1980
696.783	1990
696.825	1792
696.867	1510
696.900	1257
696.909	1326
696.951	1506
696.992	1826
697.020	1964
697.034	1887
697.076	1589
697.118	1310
697.139	1204
697.160	1329
697.202	1415
697.244	1600
697.259	1616
697.286	1596
697.327	1476
697.369	1520
697.379	1493
697.411	1450
697.453	1299
697.494	1242
697.499	1214
697.536	1408
697.578	1662
697.618	1764
697.620	1783
697.661	1710
697.703	1653
697.738	1573
697.744	1606
697.786	1715
697.828	1781
697.858	1792
697.869	1744
697.911	1501
697.952	1306
697.977	1150
697.994	1219
698.035	1360
698.077	1530
698.097	1543
698.118	1521
698.160	1513
698.201	1512
698.216	1476
698.243	1461
698.284	1442
698.325	1421
698.336	1390
698.367	1356
698.408	1310
698.449	1265
698.455	1239
698.491	1318
698.532	1404
698.573	1493
698.575	1478
698.614	1634
698.656	1809
698.694	1925
698.697	1938
698.738	1833
698.779	1734
698.814	1628
698.820	1656
698.862	1720
698.903	1784
698.933	1813
698.944	1908
698.985	2213
699.026	2518
699.053	2700
699.067	2630
699.172	1956
699.292	2027
699.411	1463
699.530	2210
699.650	2714
699.769	1156
699.889	1243
700.008	1790
700.127	2904
700.246	1482
700.366	1581
700.485	1951
700.604	2033
700.723	2317
700.843	2107
700.962	1832
701.081	1729
701.200	1620
701.319	1943
701.438	1556
701.557	1744
701.676	1330
701.796	1777
701.915	1712
702.034	1724
702.153	1859
702.272	2094
702.391	1892
702.509	2090
702.628	1247
702.747	1449
702.866	1978
702.985	1330
703.104	1582
703.223	1830
703.342	1357
703.460	1885
703.579	1460
703.698	1625
703.817	1854
703.935	2736
704.054	1140
704.173	1813
704.292	1526
704.410	1270
704.529	1789
704.648	1253
704.766	1597
704.885	1951
705.003	1259
705.122	894
705.240	1328
705.359	1590
705.477	2093
705.596	2640
705.714	2330
705.833	1891
705.951	2170
706.070	2418
706.188	2851
706.307	1861
706.425	1992
706.543	2375
706.662	2000
706.780	2802
706.898	1935
707.016	1639
707.135	1971
707.253	2166
707.371	1492
707.489	1905
707.608	1605
707.726	1906
707.844	2028
707.962	1388
708.080	1690
708.198	1487
708.316	1765
708.434	2577
708.552	1637
708.670	2029
708.788	2319
708.906	2822
709.024	2719
709.142	2653
709.260	2756
709.378	2413
709.496	2187
709.614	3322
709.732	2158
709.850	3322
709.968	1726
710.085	2537
710.203	2234
710.321	2311
710.439	2128
710.556	1912
710.674	2137
710.792	2422
710.910	1998
711.027	1752
711.145	2385
711.263	2515
711.380	2291
711.498	2214
711.615	1957
711.733	2109
711.851	1741
711.968	2039
712.086	1771
712.203	2003
712.321	2188
712.438	1840
712.555	2677
712.673	3508
712.790	2705
712.908	2744
713.025	3010
713.142	2707
713.260	1917
713.377	3265
713.494	2179
713.612	3204
713.729	2534
713.846	2850
713.963	1842
714.081	2408
714.198	1315
714.315	2305
714.432	2910
714.549	2879
714.666	3929
714.783	13467
714.901	18004
715.018	2758
715.135	2339
715.252	1647
715.369	2298
715.486	2644
715.603	2133
715.720	2691
715.837	2324
715.953	2138
716.070	2243
716.187	2624
716.304	2374
716.421	1698
716.538	1975
716.655	2309
716.771	2074
716.888	2146
717.005	1769
717.122	2273
717.238	1975
717.355	1774
717.472	2348
717.589	2020
717.705	1141
717.822	2056
717.938	1143
718.055	1960
718.172	2101
718.288	1702
718.405	1561
718.521	1530
718.638	1067
718.754	3299
718.871	2263
718.987	2116
719.104	2528
719.220	1252
719.336	1983
719.453	1136
719.569	1267
719.685	2166
719.802	2314
719.918	1994
720.034	2502
720.151	2972
720.267	9302
720.383	3109
720.499	2210
720.616	2022
720.732	2938
720.848	2948
720.964	5368
721.080	2644
721.196	1824
721.312	1169
721.428	1520
721.544	1354
721.660	2096
721.776	1012
721.892	1656
722.008	1857
722.124	1042
722.240	1332
722.356	2069
722.472	1598
722.588	1397
722.704	2011
722.820	1227
722.936	1508
723.051	1547
723.167	1195
723.283	1288
723.399	1255
723.515	2499
723.630	1207
723.746	559
723.862	1222
723.977	1345
724.093	125
724.209	938
724.324	1229
724.440	2121
724.555	2746
724.671	653
724.786	1059
724.902	837
725.017	879
725.133	1806
725.248	2513
725.364	1106
725.479	900
725.595	855
725.710	1657
725.826	497
725.941	679
726.056	1375
726.172	870
726.287	915
726.402	796
726.517	725
726.633	1009
726.748	655
726.863	551
726.978	1607
727.093	783
727.208	1003
727.324	1025
727.439	808
727.554	1203
727.669	1086
727.784	615
727.899	506
728.014	1095
728.129	1537
728.244	724
728.359	486
728.474	1269
728.589	1307
728.704	692
728.819	1043
728.934	408
729.049	632
729.163	665
729.278	896
729.393	1059
729.508	417
729.622	1053
729.737	765
729.852	443
729.967	828
730.081	485
730.196	1390
730.311	460
730.425	448
730.540	408
730.655	1297
730.769	759
730.884	380
730.998	57
731.113	432
731.227	709
731.342	1001
731.456	1274
731.571	361
731.685	525
731.800	397
731.914	128
732.028	583
732.143	504
732.257	409
732.371	1069
732.486	1920
732.600	3951
732.714	3386
732.829	567
732.943	564
733.057	-43
733.171	1404
733.285	798
733.399	653
733.514	123
733.628	302
733.742	950
733.856	683
733.970	85
734.084	-41
734.198	1041
734.312	904
734.426	610
734.540	2049
734.654	-558
734.768	522
734.882	885
734.996	203
735.109	993
735.223	274
735.337	390
735.451	1398
735.565	44
735.679	140
735.792	1007
735.906	693
736.020	616
736.134	1055
736.247	82
736.361	847
736.475	668
736.588	-132
736.702	559
736.815	-96
736.929	832
737.043	447
737.156	559
737.270	-93
737.383	-209
737.497	340
737.610	454
737.723	324
737.837	-310
737.950	844
738.064	1
738.177	335
738.290	152
738.404	430
738.517	809
738.630	265
738.744	506
738.857	18
738.970	920
739.083	11
739.197	881
739.310	-131
739.423	523
739.536	83
739.649	112
739.762	274
739.875	171
739.988	-338
740.102	166
740.215	558
740.328	463
740.441	109
740.553	130
740.667	-72
740.779	1049
740.892	-14
741.005	531
741.118	116
741.231	707
741.344	-48
741.457	140
741.569	676
741.682	578
741.795	282
741.908	671
742.020	-473
742.133	-94
742.246	286
742.358	669
742.471	1503
742.584	-145
742.696	-22
742.809	324
742.922	-622
743.034	-113
743.147	208
743.259	-287
743.372	-123
743.484	-20
743.597	-412
743.709	136
743.822	-1124
743.934	-41
744.046	180
744.159	1313
744.271	1009
744.383	374
744.496	394
744.608	1831
744.720	-20
744.832	-41
744.945	-160
745.057	18
745.169	-154
745.281	846
745.393	40
745.506	-98
745.618	31
745.730	184
745.842	-603
745.954	-297
746.066	-388
746.178	-4
746.290	1017
746.402	240
746.514	21
746.626	-114
746.738	5
746.850	1299
746.962	132
747.074	-93
747.185	-129
747.297	-394
747.409	390
747.521	721
747.633	-460
747.744	179
747.856	-197
747.968	115
748.080	-276
748.191	-551
748.303	-22
748.414	109
748.526	-119
748.638	-508
748.749	313
748.861	617
748.972	-74
749.084	134
749.195	-108
749.307	15
749.418	-587
749.530	281
749.641	829
749.753	103
749.864	704
749.975	-193
750.087	-117
750.198	-674
750.310	75
750.421	76
750.532	-232
750.643	635
750.755	-334
750.866	-390
750.977	-363
751.088	489
751.199	1531
751.310	-239
751.422	-43
751.533	94
751.644	194
751.755	-434
751.866	-160
751.977	-48
752.088	281
752.199	605
752.310	-68
752.421	-535
752.532	-319
752.643	-137
752.753	-259
752.864	-738
752.975	-343
753.086	-243
753.197	-373
753.308	41
753.418	-255
753.529	-110
753.640	736
753.751	319
753.861	-267
753.972	-68
754.083	176
754.193	-12
754.304	-541
754.415	-223
754.525	-222
754.636	-86
754.746	327
754.857	563
754.967	-425
755.078	-348
755.188	499
755.299	174
755.409	-459
755.520	591
755.630	-208
755.740	-771
755.851	-633
755.961	48
756.071	-72
756.182	41
756.292	-404
756.402	279
756.512	-506
756.623	136
756.733	312
756.843	-412
756.953	-93
757.063	172
757.173	-71
757.283	28
757.393	-556
757.504	128
757.614	-343
757.724	8
757.834	-1400
757.944	145
758.053	-477
758.164	127
758.273	723
758.383	147
758.493	346
758.603	609
758.713	-647
758.823	-52
758.932	-774
759.042	-509
759.152	-264
759.262	301
759.372	348
759.481	-445
759.591	-100
759.701	66
759.810	179
759.920	300
760.029	166
760.139	599
760.249	-503
760.358	31
760.468	-10
760.577	-50
760.687	523
760.796	-381
760.906	-350
761.015	-467
761.124	-355
761.234	-259
761.343	-54
761.453	-235
761.562	-575
761.671	-498
761.781	-260
761.890	400
761.999	140
762.108	-135
762.218	309
762.327	-671
762.436	595
762.545	175
762.654	-664
762.763	392
762.872	-404
762.982	116
763.091	-235
763.200	-210
763.309	-601
763.418	1167
763.527	145
763.635	120
763.744	18
763.853	813
763.962	109
764.071	-109
764.180	120
764.289	494
764.398	-27
764.506	-172
764.615	-288
764.724	-84
764.833	-191
764.941	-337
765.050	1328
765.159	386
765.268	776
765.376	1275
765.485	1424
765.593	745
765.702	2010
765.810	2923
765.919	5440
766.028	9194
766.136	16690
766.245	34673
766.353	93566
766.461	265452
766.570	280176
766.678	67316
766.787	20877
766.895	11065
767.003	7269
767.112	6150
767.220	4044
767.328	3408
767.437	2335
767.545	1880
767.653	1698
767.761	1958
767.870	1725
767.978	1108
768.086	564
768.194	794
768.302	1248
768.410	889
768.518	578
768.626	866
768.734	1427
768.842	1325
768.950	1146
769.058	1675
769.166	1934
769.274	2422
769.382	3928
769.490	7034
769.598	13516
769.706	33296
769.813	108854
769.921	258535
770.029	102841
770.137	17886
770.245	7656
770.352	5111
770.460	3379
770.568	2392
770.675	1567
770.783	1252
770.891	1195
770.998	1041
771.106	1037
771.213	1090
771.321	209
771.428	1347
771.536	328
771.643	563
771.751	402
771.858	1527
771.966	-499
772.073	123
772.181	303
772.288	714
772.395	276
772.503	27
772.610	-384
772.717	-471
772.825	750
772.932	357
773.039	33
773.146	340
773.253	64
773.361	259
773.468	-240
773.575	638
773.682	-511
773.789	111
773.896	545
774.003	-407
774.110	402
774.217	-204
774.324	-121
774.431	-420
774.538	-445
774.645	188
774.752	260
774.859	325
774.966	167
775.073	-32
775.179	74
775.286	-292
775.393	-363
775.500	-663
775.607	-974
775.713	-725
775.820	-337
775.927	-171
776.033	-319
776.140	478
776.247	-314
776.353	-751
776.460	346
776.566	-302
776.673	-135
776.779	181
776.886	-548
776.992	194
777.099	-593
777.205	2763
777.312	820
777.418	2029
777.524	2152
777.631	552
777.737	-668
777.843	-382
777.950	-1171
778.056	-971
778.162	-121
778.268	-394
778.375	-1141
778.481	-238
778.587	-572
778.693	133
778.799	-1113
778.906	-819
779.012	-463
779.118	-812
779.224	-41
779.330	-526
779.436	-913
779.542	-814
779.648	433
779.754	-1181
779.860	732
779.966	3423
780.071	7882
780.177	35
780.283	-500
780.389	86
780.495	-246
780.601	-422
780.706	-477
780.812	-124
780.918	-729
781.024	-537
781.129	-976
781.235	-188
781.341	-147
781.446	-200
781.552	-217
781.657	48
781.763	-1084
781.869	-326
781.974	-68
782.080	-397
782.185	-55
782.291	-743
782.396	-840
782.501	-26
782.607	-1252
782.712	-61
782.818	-866
782.923	-421
783.028	-974
783.134	-333
783.239	-22
783.344	-619
783.449	-1211
783.555	-1094
783.660	-335
783.765	-187
783.870	-12
783.975	-1002
784.080	-671
784.185	-330
784.291	-1047
784.396	-468
784.501	-336
784.606	-8
784.711	-246
784.816	-426
784.921	-766
785.026	-1006
785.130	-285
785.235	-254
785.340	-950
785.445	-910
785.550	-1094
785.655	-46
785.760	-1011
785.864	-521
785.969	-531
786.074	-607
786.178	-487
786.283	-410
786.388	-1275
786.492	-275
786.597	-826
786.702	-946
786.806	-1053
786.911	-372
787.015	-91
787.120	-579
787.224	-751
787.329	471
787.433	-1276
787.538	-831
787.642	-501
787.747	-1222
787.851	-1367
787.955	-985
788.060	-674
788.164	-40
788.268	-1088
788.372	-1111
788.477	-1011
788.581	396
788.685	-501
788.789	-439
788.894	-909
788.998	162
789.102	-361
789.206	-167
789.310	-1076
789.414	-483
789.518	-864
789.622	45
789.726	-1130
789.830	-1007
789.934	-1031
790.038	1
790.142	-799
790.246	-883
790.350	-477
790.454	-396
790.557	-746
790.661	-668
790.765	-828
790.869	-921
790.973	-849
791.076	-323
791.180	-428
791.284	-936
791.388	-463
791.491	-583
791.595	-959
791.698	-737
791.802	-496
791.906	-40
792.009	-410
792.113	-434
792.216	-597
792.320	-952
792.423	-831
792.527	-275
792.630	-1029
792.733	-736
792.837	-1528
792.940	-222
793.043	-609
793.147	-1844
793.250	-400
793.353	64
793.457	-1342
793.560	-264
793.663	-333
793.766	-490
793.869	-1312
793.973	-455
794.076	-1514
794.179	88
794.282	-398
794.385	-679
794.488	822
794.591	-885
794.694	1272
794.797	3143
794.900	202
795.003	-452
795.106	-1384
795.209	-64
795.312	-502
795.415	-819
795.517	-1061
795.620	-1006
795.723	-1605
795.826	-367
795.929	-1236
796.031	-25
796.134	153
796.237	-969
796.339	-429
796.442	-967
796.545	-1080
796.647	-1978
796.750	-545
796.852	-1218
796.955	-1800
797.057	-1138
797.160	-914
797.262	-1199
797.365	-184
797.467	-297
797.570	-1205
797.672	-1116
797.775	-210
797.877	-505
797.979	-885
798.082	-1037
798.184	-785
798.286	-389
798.388	-1451
798.491	248
798.593	-1181
798.695	-1869
798.797	-1052
798.899	-822
799.001	-1593
799.104	-853
799.206	-1219
799.308	-648
799.410	-9
799.512	-494
799.614	-1261
799.716	-326
799.818	-187
799.920	-973
800.021	-658
800.123	-1145
800.225	-1058
800.327	-1448
800.429	-937
800.531	-365
800.633	-739
800.734	-1946
800.836	-1067
800.938	-575
801.039	-1051
801.141	-766
801.243	-777
801.344	-928
801.446	-1582
801.548	-544
801.649	-959
801.751	-968
801.852	-1370
801.954	-322
802.055	-1014
802.157	-1569
802.258	-165
802.360	-1499
802.461	-132
802.563	-1339
802.664	-1047
802.765	-422
802.867	-1332
802.968	-2200
803.069	-347
803.170	-783
803.272	-1366
803.373	-1114
803.474	-1529
803.575	-1360
803.676	-1125
803.777	-1156
803.879	-1720
803.980	-1007
804.081	-579
804.182	-1354
804.283	-1541
804.384	-1134
804.485	-1406
804.586	-1066
804.687	184
804.788	-521
804.888	-939
804.989	-1057
805.090	-726
805.191	-758
805.292	-200
805.393	-1290
805.493	-845
805.594	-978
805.695	-1229
805.796	-685
805.896	-578
805.997	-528
806.098	-1563
806.198	-847
806.299	-1094
806.399	-995
806.500	-1755
806.601	-958
806.701	-2075
806.802	-826
806.902	-1051
807.002	-820
807.103	-762
807.203	-788
807.304	-634
807.404	-1252
807.504	-642
807.605	-1823
807.705	-1414
807.805	-1141
807.906	-1598
808.006	-825
808.106	-565
808.206	-90
808.306	-1695
808.406	-1020
808.507	-1449
808.607	-1193
808.707	-1017
808.807	-841
808.907	-1439
809.007	-888
809.107	-1234
809.207	-1266
809.307	-1149
809.407	-1140
809.507	-1257
809.607	-1419
809.706	-725
809.806	-1350
809.906	-845
810.006	-918
810.106	-1370
810.205	-1184
810.305	-2013
810.405	-519
810.505	-1371
810.604	-1682
810.704	-1130
810.804	-587
810.903	-1194
811.003	-957
811.102	-1517
811.202	-1552
811.301	-848
811.401	-986
811.500	-1334
811.600	-1073
811.699	-1002
811.799	-1061
811.898	-670
811.997	-990
812.097	-1691
812.196	-1544
812.295	-1515
812.395	-790
812.494	-1498
812.593	-454
812.692	-1338
812.792	-1550
812.891	-162
812.990	-1253
813.089	-939
813.188	-1140
813.287	-1537
813.386	-847
813.485	-1114
813.584	-1920
813.683	-1329
813.782	-806
813.881	-1381
813.980	-888
814.079	-1972
814.178	-587
814.277	-855
814.376	-1737
814.475	-1078
814.574	-900
814.672	-827
814.771	-1036
814.870	-475
814.969	-1365
815.067	-957
815.166	-1292
815.265	-1360
815.363	-815
815.462	-1977
815.560	-697
815.659	-705
815.758	-1630
815.856	-1695
815.955	-901
816.053	-1846
816.152	-192
816.250	-1481
816.348	-603
816.447	-1130
816.545	-1024
816.644	-446
816.742	-676
816.840	-991
816.938	-1569
817.037	-566
817.135	-555
817.233	-1048
817.331	-548
817.430	-1262
817.528	-773
817.626	-942
817.724	-182
817.822	-1363
817.920	-80
818.018	331
818.116	4205
818.214	12827
818.312	38926
818.410	28711
818.508	2998
818.606	547
818.704	872
818.802	736
818.900	777
818.997	370
819.095	672
819.193	3051
819.291	10649
819.389	30242
819.486	81617
819.584	38060
819.682	4098
819.779	617
819.877	469
819.975	-303
820.072	-803
820.170	-968
820.267	-539
820.365	-1260
820.462	-1206
820.560	-979
820.657	-1294
820.755	-998
820.852	-1168
820.949	-643
821.047	-89
821.144	-1775
821.241	-427
821.339	-1367
821.436	-1332
821.533	-277
821.631	341
821.728	-140
821.825	-241
821.922	-535
822.019	932
822.116	-680
822.214	-1605
822.311	-1042
822.408	-887
822.505	-986
822.602	-1763
822.699	-1369
822.796	-1247
822.893	-685
822.990	-1164
823.086	-1102
823.183	-906
823.280	-1934
823.377	-1419
823.474	-1055
823.571	-1124
823.667	-2043
823.764	-1445
823.861	-907
823.958	-981
824.054	-1531
824.151	-1325
824.248	-968
824.344	-103
824.441	-1505
824.537	-1434
824.634	-496
824.731	-696
824.827	-1099
824.924	-2012
825.020	-1313
825.116	-1102
825.213	-772
825.309	-1146
825.406	-2197
825.502	-1340
825.598	-2142
825.695	-717
825.791	-1405
825.887	-747
825.983	-1614
826.080	-1083
826.176	-1215
826.272	-687
826.368	-1044
826.464	-1009
826.560	-321
826.656	-963
826.753	-948
826.849	-1910
826.945	-266
827.041	-1463
827.137	-1430
827.233	-670
827.328	-999
827.424	-982
827.520	-1094
827.616	-2311
827.712	-1621
827.808	-725
827.904	-1764
827.999	-934
828.095	-1984
828.191	-1439
828.287	-1343
828.382	-1562
828.478	-850
828.574	-1439
828.669	-1305
828.765	-1046
828.860	-1622
828.956	-1302
829.051	-468
829.147	-984
829.242	-1733
829.338	-1315
829.433	-265
829.529	-687
829.624	-839
829.720	-1451
829.815	-1112
829.910	-1448
830.005	-994
830.101	-1026
830.196	-1648
830.291	-814
830.386	-1648
830.482	-363
830.577	-1380
830.672	-2473
830.767	-924
830.862	-1271
830.957	-256
831.052	-1576
831.147	-1627
831.242	-2241
831.337	-1598
831.432	-1474
831.527	-1826
831.622	-757
831.717	-2023
831.812	-1133
831.907	-1182
832.002	-670
832.097	-1370
832.191	-2183
832.286	-1003
832.381	-649
832.476	-921
832.570	-1012
832.665	831
832.760	54
832.854	-1876
832.949	-1224
833.044	-1764
833.138	-1153
833.233	-1033
833.327	-1798
833.422	-1893
833.516	-1686
833.611	-1812
833.705	-1366
833.799	-1770
833.894	-1568
833.988	-578
834.083	-1428
834.177	-1530
834.271	-1924
834.365	-1284
834.460	-1066
834.554	-2177
834.648	-1024
834.742	-1961
834.836	-876
834.931	-1375
835.025	-1040
835.119	-807
835.213	-1530
835.307	-1904
835.401	-1977
835.495	-1199
835.589	-1378
835.683	-1353
835.777	-1670
835.871	-297
835.965	-1599
836.059	-505
836.152	-245
836.246	-1649
836.340	-925
836.434	-1423
836.528	-1545
836.621	-660
836.715	-1887
836.809	-1552
836.902	-272
836.996	-1654
837.090	-1590
837.183	-1106
837.277	-1102
837.370	-1067
837.464	-1465
837.557	-1736
837.651	-1787
837.744	-1321
837.838	-1786
837.931	-1714
838.025	-1685
838.118	-908
838.211	-517
838.305	-909
838.398	-1449
838.491	-1019
838.584	-169
838.678	-664
838.771	321
838.864	-1024
838.957	-1817
839.050	-1226
839.144	-1509
839.237	-987
839.330	-1075
839.423	-1960
839.516	-2250
839.609	-951
839.702	-1001
839.795	-1925
839.888	-1623
839.981	-1510
840.073	-2121
840.166	-1509
840.259	-1184
840.352	-831
840.445	-1222
840.538	-1995
840.630	-1145
840.723	-2144
840.816	-837
840.909	-1630
841.001	-702
841.094	-484
841.186	-764
841.279	-1123
841.372	-1024
841.464	-1080
841.557	-1782
841.649	-2285
841.742	-834
841.834	-532
841.927	-1519
842.019	-1560
842.111	-791
842.204	-1345
842.296	-629
842.388	-619
842.481	-1238
842.573	24
842.665	-99
842.758	-711
842.850	-787
842.942	-2268
843.034	-1031
843.126	-542
843.218	-717
843.310	-280
843.402	1761
843.495	3843
843.587	2446
843.679	-522
843.771	-1123
843.862	-1155
843.954	-1607
844.046	-1261
844.138	-2144
844.230	-2111
844.322	-2338
844.414	-1073
844.505	-908
844.597	74
844.689	-859
844.781	-448
844.872	-1650
844.964	-984
845.056	-1587
845.147	-1678
845.239	-1836
845.331	-1316
845.422	-2478
845.514	-2137
845.605	-1911
845.697	-1832
845.788	-1233
845.880	-1152
845.971	-2022
846.063	-1015
846.154	-1320
846.245	-1327
846.337	-1536
846.428	-1610
846.519	-1436
846.610	-1051
846.702	-1099
846.793	-1371
846.884	-757
846.975	-1924
847.066	-1334
847.158	-1101
847.249	-1311
847.340	-1114
847.431	-2081
847.522	-892
847.613	-1636
847.704	-1181
847.795	-1225
847.886	-1296
847.977	-675
848.068	-2087
848.158	-2715
848.249	-1624
848.340	-1804
848.431	-1921
848.522	-1378
848.612	-1162
848.703	-1540
848.794	-1254
848.885	-1001
848.975	-2312
849.066	-1354
849.157	-1405
849.247	-1184
849.338	-1433
849.428	-387
849.519	820
849.609	1189
849.700	3371
849.790	6716
849.881	527
849.971	-1195
850.061	-1207
850.152	-1030
850.242	-582
850.332	-1906
850.423	-1325
850.513	-2059
850.603	-1547
850.693	-1076
850.784	-1443
850.874	-2218
850.964	-2189
851.054	-1287
851.144	-1439
851.234	-2105
851.324	-1298
851.414	-665
851.505	-2273
851.595	-1057
851.684	-1165
851.774	-1363
851.864	-1457
851.954	-1709
852.044	-1384
852.134	-1458
852.224	-1574
852.314	-1150
852.403	-1616
852.493	-1322
852.583	-1040
852.673	-1662
852.762	-1441
852.852	-2252
852.942	-1920
853.031	-1005
853.121	-2004
853.210	-1125
853.300	-1476
853.389	-1071
853.479	-1091
853.568	-650
853.658	-1795
853.747	1355
853.837	2397
853.926	7997
854.015	16460
854.105	33004
854.194	56608
854.283	17271
854.373	1169
854.462	-1721
854.551	-1049
854.640	-1425
854.729	-1392
854.819	-1067
854.908	-1611
854.997	-797
855.086	-1813
855.175	-1632
855.264	-1286
855.353	-1308
855.442	-1355
855.531	-2219
855.620	-1691
855.709	-1315
855.798	-732
855.887	-1471
855.975	-1752
856.064	-1414
856.153	-1086
856.242	-1742
856.331	-1624
856.419	-1316
856.508	-2147
856.597	-1361
856.685	-1854
856.774	-2107
856.863	-1511
856.951	-1202
857.040	-1921
857.128	-1920
857.217	-1462
857.305	-1436
857.394	-2108
857.482	-1570
857.571	-868
857.659	-1721
857.747	-1710
857.836	-1269
857.924	-1994
858.012	-1751
858.101	-1270
858.189	-1409
858.277	-2025
858.365	-1505
858.454	-1088
858.542	-1598
858.630	-1441
858.718	-1847
858.806	-1683
858.894	-1651
858.982	-1091
859.070	-690
859.158	-1293
859.246	-2134
859.334	-793
859.422	-1617
859.510	-1775
859.598	-880
859.686	-1277
859.773	-1026
859.861	-876
859.949	-1090
860.037	-2160
860.125	-1538
860.212	-1319
860.300	-486
860.388	-1440
860.475	-1844
860.563	-1877
860.651	-1628
860.738	-1684
860.826	-1373
860.913	-1057
861.001	-2056
861.088	-1721
861.176	-1680
861.263	-1078
861.350	-1947
861.438	-1546
861.525	-1250
861.612	-1237
861.700	-636
861.787	-2269
861.874	-1336
861.962	-1431
862.049	-1879
862.136	-1386
862.223	-1399
862.310	-1675
862.397	-1794
862.484	-2246
862.572	-2131
862.659	-1531
862.746	-1991
862.833	-1136
862.920	-897
863.007	-1111
863.094	-1672
863.180	-1337
863.267	-1401
863.354	-2521
863.441	-1433
863.528	-1863
863.615	-1321
863.701	-1528
863.788	-2002
863.875	-1770
863.961	-1539
864.048	-2645
864.135	-1763
864.221	-1497
864.308	-1737
864.395	-1874
864.481	-695
864.568	-1990
864.654	-1324
864.741	-1942
864.827	-1103
864.914	-2029
865.000	-1051
865.086	-2255
865.173	-701
865.259	-1332
865.345	-1317
865.432	-1281
865.518	-1015
865.604	-1198
865.690	-944
865.776	528
865.863	3422
865.949	8264
866.035	11364
866.121	28307
866.207	30729
866.293	5210
866.379	-351
866.465	-1372
866.551	-845
866.637	-1330
866.723	-1326
866.809	-1204
866.895	-688
866.981	-1239
867.066	-1691
867.152	-1066
867.238	-1143
867.324	-1505
867.409	-688
867.495	-776
867.581	-1142
867.667	-964
867.752	-1775
867.838	-597
867.923	-755
868.009	26
868.094	74
868.180	-717
868.266	-695
868.351	-66
868.436	-984
868.522	430
868.607	-99
868.693	-92
868.778	1995
868.863	680
868.949	-1276
869.034	-955
869.119	-1351
869.204	-1443
869.290	-1963
869.375	-1246
869.460	-1470
869.545	-1787
869.630	-1390
869.715	-1236
869.800	-1618
869.885	-1856
869.970	-1222
870.055	-1695
870.140	-852
870.225	-1103
870.310	-718
870.395	-1842
870.480	-2268
870.565	-1667
870.650	-1446
870.734	-1110
870.819	-867
870.904	-1425
870.989	-1910
871.073	-1966
871.158	-1685
871.243	-1412
871.327	-636
871.412	-1213
871.496	-1213
871.581	-891
871.665	-1310
871.750	-1177
871.834	-371
871.919	-1552
872.003	-2153
872.088	-492
872.172	-1384
872.257	-1167
872.341	-1060
872.425	-1556
872.509	-1779
872.594	-1563
872.678	-1239
872.762	-1858
872.846	-1803
872.930	-2038
873.015	-2453
873.099	-1759
873.183	-1363
873.267	-1591
873.351	-1968
873.435	-2096
873.519	-1584
873.603	-779
873.687	-1693
873.771	-1933
873.855	-1605
873.938	-1674
874.022	-1931
874.106	-2045
874.190	-1337
874.274	-1755
874.358	-1341
874.383	-1529
874.441	-1974
874.490	-1472
874.525	-1125
874.598	-1308
874.609	-1339
874.692	-1565
874.705	-1571
874.776	-1644
874.813	-1516
874.859	-1350
874.920	-1627
874.943	-1754
875.027	-1644
875.028	-1642
875.110	-1586
875.135	-1582
875.194	-1593
875.243	-1262
875.277	-1056
875.350	-1440
875.361	-1501
875.444	-1694
875.457	-1553
875.527	-735
875.565	-1040
875.611	-1512
875.672	-1228
875.694	-1088
875.778	-2053
875.780	-2015
875.861	-834
875.887	-973
875.944	-1194
875.994	-1368
876.027	-1510
876.101	-1530
876.111	-1538
876.194	-1746
876.209	-1672
876.277	-1279
876.316	-797
876.360	-271
876.423	-873
876.443	-1083
876.526	-731
876.530	-760
876.610	-1469
876.637	-1325
876.693	-945
876.745	-831
876.776	-770
876.852	-900
876.859	-929
876.942	-1378
876.959	-1336
877.025	-956
877.066	-594
877.108	-400
877.173	-939
877.190	-1025
877.273	-756
877.280	-711
877.356	-241
877.387	-504
877.439	-1044
877.494	-756
877.522	-574
877.601	-517
877.605	-517
877.688	-1048
877.708	-833
877.770	-362
877.815	-792
877.853	-1004
877.922	-419
877.936	-356
878.018	-656
878.029	-653
878.101	-465
878.136	-480
878.184	-526
878.242	-1041
878.266	-1241
878.349	-468
878.349	-468
878.431	-506
878.456	-409
878.514	-250
878.563	-614
878.596	-872
878.670	-729
878.679	-710
878.761	-575
878.776	-604
878.844	-635
878.883	-721
878.926	-784
878.990	-436
879.008	-341
879.091	-221
879.097	-211
879.173	-296
879.203	-376
879.255	-520
879.310	-637
879.338	-456
879.417	-171
879.420	-194
879.502	-468
879.523	-518
879.584	-324
879.630	-233
879.667	-216
879.736	-448
879.749	-488
879.831	-274
879.843	-285
879.913	-153
879.949	-28
879.995	-9
880.056	-12
880.077	3
880.159	14
880.162	17
880.241	515
880.269	859
880.323	1374
880.375	1397
880.405	1518
880.482	2753
880.487	2882
880.569	5613
880.588	5838
880.651	9536
880.694	10680
880.733	10423
880.801	11076
880.815	9665
880.896	2935
880.907	1940
880.978	663
881.013	207
881.060	250
881.120	79
881.142	2
881.224	-121
881.226	-123
881.305	4
881.332	10
881.387	121
881.438	131
881.469	113
881.545	-39
881.550	-40
881.632	-75
881.651	-77
881.713	-353
881.757	-212
881.795	213
881.863	347
881.876	278
881.958	74
881.969	25
882.039	284
882.075	494
882.121	536
882.181	239
882.202	135
882.284	413
882.287	415
882.365	1402
882.393	1615
882.446	2651
882.499	3452
882.528	2646
882.605	747
882.609	724
882.690	348
882.711	156
882.771	11
882.817	-31
882.853	70
882.923	243
882.934	309
883.015	643
883.029	709
883.096	343
883.135	137
883.177	339
883.241	340
883.258	285
883.339	157
883.347	174
883.420	442
883.453	432
883.501	273
883.558	282
883.583	543
883.663	885
883.664	881
883.744	860
883.770	833
883.825	926
883.876	845
883.906	803
883.981	972
883.987	945
884.068	433
884.087	279
884.149	540
884.193	480
884.230	356
884.298	439
884.310	390
884.391	107
884.404	56
884.472	585
884.510	745
884.552	500
884.615	303
884.633	341
884.714	-66
884.721	-38
884.794	525
884.826	638
884.875	777
884.932	815
884.956	862
885.036	1228
885.037	1219
885.117	975
885.143	937
885.197	882
885.248	810
885.278	835
885.354	731
885.358	713
885.439	368
885.459	335
885.519	694
885.565	660
885.599	542
885.670	662
885.680	714
885.760	707
885.775	721
885.840	672
885.881	717
885.921	677
885.986	463
886.001	515
886.081	862
886.091	852
886.161	1191
886.196	1510
886.241	1303
886.302	855
886.322	970
886.402	1526
886.407	1559
886.482	1727
886.512	1647
886.562	1759
886.617	1984
886.642	1981
886.722	1689
886.722	1674
886.802	2593
886.828	2768
886.882	2000
886.933	1301
886.962	1183
887.038	1002
887.042	1022
887.122	1113
887.143	1113
887.202	1018
887.248	960
887.281	799
887.353	404
887.361	529
887.441	1613
887.458	1821
887.521	1377
887.563	1093
887.601	1195
887.668	1355
887.680	1389
887.760	1560
887.773	1557
887.840	1630
887.878	1672
887.919	1573
887.983	1427
887.999	1357
888.079	879
888.088	825
888.158	830
888.193	737
888.238	977
888.297	1403
888.317	1472
888.397	1696
888.402	1687
888.476	1097
888.507	912
888.556	1311
888.612	1649
888.635	1568
888.715	1307
888.717	1288
888.794	1669
888.821	1844
888.873	1775
888.926	1564
888.953	1410
889.031	991
889.032	1003
889.111	1126
889.135	1171
889.190	1661
889.240	2033
889.270	1961
889.345	1788
889.349	1826
889.428	2311
889.449	2424
889.507	1765
889.554	1223
889.586	1306
889.658	1461
889.665	1502
889.744	1869
889.763	1947
889.824	1930
889.867	1899
889.903	2097
889.972	2463
890.076	1946
890.181	1401
890.285	1623
890.390	2136
890.494	1105
890.599	2790
890.703	2009
890.807	2079
890.912	2826
891.016	2018
891.120	1264
891.224	2906
891.329	2910
891.433	2662
891.537	1529
891.641	1564
891.745	1551
891.849	1220
891.953	1124
892.058	2055
892.162	1749
892.266	2607
892.370	997
892.474	919
892.578	2653
892.682	2054
892.786	2623
892.889	2813
892.993	2356
893.097	1392
893.201	1863
893.305	1585
893.409	1762
893.512	2068
893.616	2167
893.720	2172
893.824	1420
893.927	2188
894.031	2382
894.135	1615
894.238	1343
894.342	1938
894.445	2182
894.549	2267
894.652	2167
894.756	1958
894.859	1241
894.963	1771
895.066	1415
895.170	932
895.273	1247
895.377	1939
895.480	1163
895.583	2165
895.687	2651
895.790	1695
895.893	1637
895.997	1670
896.100	1383
896.203	1415
896.306	913
896.409	1655
896.513	936
896.616	1674
896.719	1684
896.822	1546
896.925	1488
897.028	1636
897.131	1211
897.234	1948
897.337	1056
897.440	1293
897.543	1385
897.646	1848
897.749	1964
897.852	1598
897.954	1387
898.057	1912
898.160	1237
898.263	1101
898.366	1597
898.468	1544
898.571	1764
898.674	2068
898.776	1184
898.879	1301
898.982	1418
899.084	1302
899.187	1283
899.290	1144
899.392	1198
899.495	1916
899.597	1699
899.700	1442
899.802	1028
899.904	2374
900.007	5192
900.109	4919
900.212	1206
900.314	1984
900.416	924
900.519	926
900.621	1138
900.723	1371
900.826	956
900.928	1515
901.030	1621
901.132	2051
901.234	2199
901.336	2406
901.439	1399
901.541	1366
901.643	1499
901.745	2043
901.847	2242
901.949	1260
902.051	1551
902.153	1355
902.255	1307
902.357	1699
902.459	1551
902.560	1988
902.662	2080
902.764	1772
902.866	2047
902.968	2005
903.070	2563
903.171	1707
903.273	1427
903.375	1937
903.477	1615
903.578	1921
903.680	621
903.781	1411
903.883	1612
903.985	1524
904.086	1257
904.188	1637
904.289	1543
904.391	1417
904.492	1930
904.594	2028
904.695	2445
904.796	2389
904.898	2344
904.999	1917
905.100	3316
905.202	2239
905.303	1230
905.404	1266
905.506	965
905.607	1468
905.708	1389
905.809	1540
905.910	2017
906.012	2034
906.113	1416
906.214	2447
906.315	1875
906.416	1427
906.517	1572
906.618	2154
906.719	1474
906.820	2575
906.921	1399
907.022	1471
907.123	609
907.224	1342
907.325	1424
907.425	1439
907.526	1268
907.627	1944
907.728	1101
907.828	1830
907.929	1718
908.030	1629
908.131	1720
908.231	1885
908.332	1877
908.433	2078
908.533	1222
908.634	1465
908.734	2018
908.835	2547
908.935	2918
909.036	2287
909.136	2726
909.237	2141
909.337	1229
909.438	1739
909.538	1548
909.638	1546
909.739	765
909.839	1702
909.939	1407
910.040	1404
910.140	1819
910.240	2474
910.340	1397
910.440	1449
910.541	865
910.641	990
910.741	1326
910.841	1568
910.941	1711
911.041	1449
911.141	700
911.241	725
911.341	832
911.441	1305
911.541	1243
911.641	1857
911.741	808
911.841	1691
911.941	2657
912.040	2206
912.140	1364
912.240	1697
912.340	1118
912.440	1161
912.539	1652
912.639	1464
912.739	1472
912.838	949
912.938	1306
913.038	2005
913.137	1236
913.237	1775
913.336	835
913.436	1346
913.535	756
913.635	1471
913.734	1317
913.834	2209
913.933	1230
914.033	1090
914.132	1177
914.231	1310
914.331	640
914.430	1122
914.529	347
914.629	1817
914.728	1190
914.827	1876
914.926	1400
915.025	1591
915.125	711
915.224	1381
915.323	1820
915.422	1603
915.521	403
915.620	1640
915.719	864
915.818	1322
915.917	670
916.016	1133
916.115	1254
916.214	731
916.313	383
916.412	1000
916.510	1305
916.609	1531
916.708	778
916.807	809
916.906	1487
917.004	641
917.103	1524
917.202	767
917.301	984
917.399	1395
917.498	806
917.596	990
917.695	371
917.794	1080
917.892	692
917.991	2353
918.089	1099
918.188	2009
918.286	1179
918.384	1151
918.483	933
918.581	1124
918.680	657
918.778	940
918.876	1175
918.975	1680
919.073	851
919.171	1357
919.269	42
919.368	2024
919.466	1304
919.564	1157
919.662	1632
919.760	1184
919.858	1487
919.956	1186
920.054	1291
920.153	1868
920.251	1084
920.349	1195
920.446	725
920.544	1318
920.642	1275
920.740	1491
920.838	1227
920.936	951
921.034	1164
921.132	1611
921.229	1224
921.327	1646
921.425	757
921.523	2399
921.620	1682
921.718	777
921.816	1523
921.913	1984
922.011	2137
922.109	998
922.206	1268
922.304	1409
922.401	1275
922.499	1702
922.596	710
922.694	1208
922.791	1233
922.888	1744
922.986	1608
923.083	2646
923.181	2326
923.278	1602
923.375	1366
923.473	2176
923.570	1467
923.667	1719
923.764	1201
923.861	1412
923.959	2185
924.056	1810
924.153	1951
924.250	2003
924.347	1099
924.444	1874
924.541	1624
924.638	2190
924.735	2546
924.832	1363
924.929	1834
925.026	2476
925.123	1343
925.220	1897
925.317	1401
925.414	1672
925.510	2299
925.607	2218
925.704	2126
925.801	2775
925.897	2960
925.994	3157
926.091	3737
926.187	3927
926.284	4544
926.381	4762
926.477	5224
926.574	4111
926.670	4352
926.767	5725
926.863	4337
926.960	3095
927.056	2025
927.153	2738
927.249	1285
927.346	1441
927.442	2006
927.538	1619
927.635	1817
927.731	1837
927.827	1635
927.924	1750
928.020	1263
928.116	1639
928.212	1185
928.308	2039
928.404	1730
928.501	2261
928.597	1406
928.693	1377
928.789	1121
928.885	1577
928.981	1339
929.077	1771
929.173	937
929.269	1971
929.365	1507
929.461	1614
929.557	895
929.652	1322
929.748	1459
929.844	1699
929.940	757
930.036	1633
930.131	739
930.227	2100
930.323	1360
930.419	2316
930.514	1998
930.610	1944
930.705	1820
930.801	2091
930.897	1069
930.992	759
931.088	1403
931.183	1142
931.279	1493
931.374	1212
931.470	1571
931.565	1623
931.660	983
931.756	1605
931.851	842
931.946	1616
932.042	1974
932.137	970
932.232	1203
932.327	1273
932.423	1606
932.518	1631
932.613	1169
932.708	990
932.803	1207
932.898	1705
932.994	1276
933.089	1155
933.184	1211
933.279	1523
933.374	1575
933.469	1649
933.563	1850
933.658	1060
933.753	994
933.848	1160
933.943	2028
934.038	1869
934.133	670
934.227	670
934.322	1656
934.417	865
934.512	1219
934.606	1842
934.701	941
934.796	1858
934.890	1543
934.985	1860
935.079	1199
935.174	1770
935.269	1191
935.363	1669
935.458	1343
935.552	1032
935.646	934
935.741	951
935.835	1328
935.930	1616
936.024	1275
936.118	1831
936.213	1305
936.307	2086
936.401	1494
936.496	1095
936.590	1594
936.684	1638
936.778	1069
936.872	1655
936.966	1516
937.060	1489
937.155	1258
937.249	1087
937.343	322
937.437	1952
937.531	1260
937.625	1915
937.719	1342
937.813	1634
937.906	1387
938.000	1158
938.094	881
938.188	803
938.282	1160
938.376	751
938.469	1268
938.563	2072
938.657	2361
938.751	5084
938.844	5637
938.938	3091
939.032	2635
939.125	2130
939.219	2244
939.312	5059
939.406	10722
939.500	5008
939.593	2582
939.686	1845
939.780	937
939.873	1590
939.967	955
940.060	1706
940.154	1534
940.247	1750
940.340	935
940.434	2240
940.527	1816
940.620	1558
940.713	1141
940.806	1510
940.900	1028
940.993	1214
941.086	1556
941.179	947
941.272	1656
941.365	2074
941.458	4437
941.551	5180
941.644	1706
941.737	1889
941.830	2266
941.923	1128
942.016	267
942.109	603
942.202	1123
942.295	865
942.388	-90
942.480	1182
942.573	657
942.666	597
942.759	1030
942.851	1708
942.944	425
943.037	1105
943.129	811
943.222	1193
943.315	519
943.407	1392
943.500	843
943.592	1284
943.685	523
943.777	906
943.870	1037
943.962	982
944.055	611
944.147	1507
944.239	6
944.332	1126
944.424	1270
944.516	1097
944.609	1353
944.701	955
944.793	855
944.885	1665
944.977	315
945.070	1155
945.162	354
945.254	1622
945.346	1707
945.438	1855
945.530	2131
945.622	2083
945.714	1450
945.806	1539
945.898	1078
945.990	1945
946.082	1336
946.174	1660
946.266	1417
946.358	1293
946.449	970
946.541	1301
946.633	606
946.725	1365
946.816	727
946.908	1216
947.000	547
947.091	628
947.183	750
947.275	1641
947.366	1175
947.458	951
947.549	-176
947.641	1386
947.732	338
947.824	1368
947.915	444
948.007	1369
948.098	990
948.190	786
948.281	707
948.372	1071
948.464	1047
948.555	862
948.646	-78
948.737	1529
948.829	503
948.920	446
949.011	1163
949.102	1231
949.193	1039
949.284	1958
949.376	1182
949.467	1511
949.558	766
949.649	1061
949.740	326
949.831	1198
949.922	781
950.013	1793
950.104	425
950.194	1002
950.285	605
950.376	759
950.467	336
950.558	591
950.649	1000
950.739	1190
950.830	694
950.921	666
951.011	1385
951.102	738
951.193	174
951.283	815
951.374	-164
951.464	1524
951.555	1075
951.646	1647
951.736	1846
951.826	290
951.917	847
952.007	285
952.098	1370
952.188	1061
952.279	1109
952.369	1096
952.459	-549
952.549	1930
952.640	-12
952.730	1348
952.820	882
952.910	638
953.001	1302
953.091	1954
953.181	799
953.271	1188
953.361	941
953.451	812
953.541	431
953.631	1925
953.721	447
953.811	811
953.901	-737
953.991	697
954.081	725
954.171	760
954.261	473
954.350	828
954.440	541
954.530	907
954.620	1709
954.710	2543
954.799	623
954.889	842
954.979	649
955.068	1134
955.158	-52
955.248	1034
955.337	102
955.427	797
955.516	544
955.606	780
955.695	958
955.785	1646
955.874	391
955.964	524
956.053	905
956.142	701
956.232	123
956.321	497
956.410	186
956.500	582
956.589	1092
956.678	1558
956.767	861
956.856	779
956.946	829
957.035	995
957.124	153
957.213	493
957.302	1001
957.391	925
957.480	959
957.569	734
957.658	410
957.747	1708
957.836	846
957.925	1144
958.014	688
958.103	-176
958.192	348
958.280	880
958.369	710
958.458	1153
958.547	308
958.635	672
958.724	716
958.813	283
958.901	58
958.990	256
959.079	583
959.167	630
959.256	529
959.344	1506
959.433	1143
959.521	1075
959.610	1104
959.698	1577
959.787	787
959.875	1986
959.964	1027
960.052	2046
960.140	511
960.228	1524
960.317	525
960.405	835
960.493	-47
960.581	516
960.670	-478
960.758	963
960.846	-35
960.934	538
961.022	659
961.110	1076
961.198	470
961.286	379
961.374	652
961.462	728
961.550	-39
961.638	678
961.726	217
961.814	402
961.902	71
961.990	717
962.078	706
962.165	121
962.253	1076
962.341	412
962.429	530
962.516	967
962.604	1080
962.692	230
962.779	1118
962.867	1464
962.955	173
963.042	1023
963.130	977
963.217	918
963.305	409
963.392	472
963.480	239
963.567	626
963.654	956
963.742	3237
963.829	7350
963.917	10372
964.004	3023
964.091	520
964.178	-52
964.266	518
964.353	-604
964.440	137
964.527	777
964.614	162
964.701	838
964.789	1802
964.876	1322
964.963	469
965.050	504
965.137	565
965.224	789
965.311	477
965.398	576
965.485	845
965.571	-125
965.658	268
965.745	1067
965.832	312
965.919	43
966.006	434
966.092	245
966.179	-13
966.266	-53
966.352	-539
966.439	-30
966.526	636
966.612	252
966.699	983
966.786	-317
966.872	367
966.959	47
967.045	353
967.132	209
967.218	171
967.304	254
967.391	1208
967.477	1565
967.564	4976
967.650	5105
967.736	1343
967.822	326
967.909	-77
967.995	-604
968.081	-22
968.167	-574
968.254	-332
968.340	136
968.426	369
968.512	1182
968.598	583
968.684	-242
968.770	921
968.856	471
968.942	916
969.028	689
969.114	124
969.200	-786
969.286	471
969.372	645
969.457	268
969.543	-98
969.629	76
969.715	237
969.801	348
969.886	126
969.972	652
970.058	714
970.143	42
970.229	1495
970.315	673
970.400	783
970.486	1795
970.571	1908
970.657	3531
970.742	309
970.828	1126
970.913	1009
970.999	-735
971.084	761
971.169	-24
971.255	-156
971.340	538
971.425	378
971.511	-275
971.596	-204
971.681	632
971.766	-289
971.852	919
971.937	193
972.022	220
972.107	-204
972.192	451
972.277	196
972.362	142
972.447	-14
972.532	214
972.617	91
972.702	616
972.787	733
972.872	2984
972.957	1770
973.042	425
973.126	-180
973.211	-79
973.296	589
973.381	545
973.466	-913
973.550	880
973.635	-1539
973.720	599
973.804	102
973.889	945
973.973	1308
974.058	1160
974.143	229
974.227	144
974.312	998
974.396	1450
974.481	558
974.565	438
974.649	-30
974.734	907
974.818	413
974.902	-226
974.987	-383
975.071	-37
975.155	785
975.240	665
975.324	-103
975.408	719
975.492	-603
975.576	-462
975.660	-207
975.744	32
975.829	-460
975.913	278
975.997	153
976.081	-1500
976.165	287
976.249	-277
976.333	-449
976.416	-590
976.500	711
976.584	-231
976.668	94
976.752	120
976.836	-545
976.919	-342
977.003	-154
977.087	712
977.171	11
977.254	-472
977.338	-237
977.422	229
977.505	-63
977.589	141
977.672	-549
977.756	-683
977.839	450
977.923	-388
978.006	266
978.090	630
978.173	-178
978.257	1199
978.340	1613
978.423	1232
978.507	543
978.590	-475
978.673	-399
978.756	1388
978.840	1347
978.923	57
979.006	-732
979.089	-896
979.172	972
979.255	-50
979.338	-266
979.422	-298
979.505	73
979.588	272
979.671	-474
979.754	-505
979.836	-686
979.919	132
980.002	-339
980.085	-285
980.168	-462
980.251	96
980.334	-513
980.416	-298
980.499	-1324
980.582	-173
980.665	37
980.747	118
980.830	291
980.912	181
980.995	-1056
981.078	534
981.160	-119
981.243	74
981.325	-414
981.408	536
981.490	-735
981.573	-72
981.655	-821
981.738	700
981.820	-603
981.902	-647
981.984	-289
982.067	-15
982.149	-807
982.231	-462
982.314	249
982.396	324
982.478	-328
982.560	-812
982.642	-1125
982.724	148
982.807	145
982.888	345
982.971	-651
983.053	-712
983.135	133
983.216	-181
983.298	596
983.380	-1234
983.462	176
983.544	359
983.626	-1540
983.708	442
983.790	4
983.871	-732
983.953	-249
984.035	163
984.117	-677
984.198	-1035
984.280	-183
984.362	-897
984.443	-318
984.525	-624
984.606	-602
984.688	24
984.769	274
984.851	-923
984.932	-435
985.014	52
985.095	-517
985.177	-479
985.258	-558
985.339	-1561
985.421	11
985.502	-688
985.583	-440
985.664	340
985.746	162
985.827	-633
985.908	768
985.989	602
986.070	-227
986.151	522
986.232	-328
986.313	663
986.395	-786
986.476	774
986.557	-83
986.637	229
986.718	54
986.799	172
986.880	-39
986.961	464
987.042	349
987.123	-20
987.204	-705
987.284	-486
987.365	-1096
987.446	-179
987.526	-539
987.607	485
987.688	259
987.768	-52
987.849	437
987.930	280
988.010	-1317
988.091	-454
988.171	-851
988.252	-710
988.332	1
988.413	-13
988.493	41
988.573	-205
988.654	-383
988.734	-736
988.814	-668
988.895	211
988.975	-312
989.055	95
989.135	-531
989.216	56
989.296	-418
989.376	-939
989.456	-555
989.536	245
989.616	-339
989.696	-155
989.776	-84
989.856	361
989.936	-536
990.016	-737
990.096	-18
990.176	-612
990.256	-568
990.336	-476
990.416	-577
990.495	-259
990.575	-356
990.655	276
990.735	-319
990.814	37
990.894	-1213
990.974	-442
991.053	-400
991.133	-598
991.213	-600
991.292	-1177
991.372	-763
991.451	68
991.531	-546
991.610	-340
991.690	-360
991.769	231
991.849	-778
991.928	-280
992.007	-260
992.087	-206
992.166	-696
992.245	449
992.324	45
992.404	-137
992.483	-611
992.562	965
992.641	-1354
992.720	-831
992.799	272
992.879	-567
992.958	-877
993.037	-865
993.116	-966
993.195	-140
993.274	-1036
993.353	-359
993.432	-509
993.510	-423
993.589	-27
993.668	-942
993.747	-1780
993.826	-1786
993.904	-83
993.983	-417
994.062	-674
994.141	419
994.219	-1279
994.298	-356
994.377	-1348
994.455	-126
994.534	-1202
994.612	-167
994.691	-787
994.769	-777
994.848	-634
994.926	-707
995.005	-136
995.083	-1467
995.161	184
995.240	-835
995.318	-1081
995.397	-47
995.475	-1172
995.553	231
995.631	-1628
995.710	-589
995.788	-1081
995.866	-384
995.944	91
996.022	-510
996.100	-488
996.178	-805
996.256	-1103
996.334	155
996.412	-992
996.490	111
996.568	-1466
996.646	-660
996.724	-1010
996.802	-171
996.880	-1282
996.958	-587
997.036	-823
997.113	-495
997.191	-326
997.269	124
997.346	-762
997.424	437
997.502	-1031
997.579	98
997.657	-1319
997.735	-245
997.812	-345
997.890	-716
997.967	-832
998.045	-193
998.122	-852
998.200	-622
998.277	-586
998.354	-578
998.432	-1658
998.509	171
998.586	-1801
998.664	-231
998.741	131
998.818	11
998.896	-468
998.973	-1061
999.050	-450
999.127	-517
999.204	-920
999.281	-1320
999.358	33
999.435	-1102
999.512	-530
999.589	-855
999.666	-1068
999.743	192
999.820	-735
999.897	-654
999.974	-268
1000.051	-526
1000.128	-1371
1000.205	-949
1000.281	-278
1000.358	-453
1000.435	-1019
1000.512	-418
1000.588	-424
1000.665	-818
1000.741	-340
1000.818	-239
1000.895	-1770
1000.971	-744
1001.048	-853
1001.124	-1256
1001.201	-861
1001.277	-1460
1001.354	-147
1001.430	-1442
1001.507	-327
1001.583	-938
1001.659	-1333
1001.736	-1405
1001.812	196
1001.888	-749
1001.964	-73
1002.041	-1256
1002.117	-309
1002.193	-446
1002.269	-1614
1002.345	-959
1002.421	-1599
1002.497	-561
1002.573	-553
1002.649	50
1002.725	-663
1002.801	-504
1002.877	-88
1002.953	-149
1003.029	-1200
1003.105	-765
1003.181	-484
1003.257	-601
1003.333	-652
1003.408	-748
1003.484	-551
1003.560	-1106
1003.636	-647
1003.711	-692
1003.787	-1185
1003.862	-757
1003.938	-1231
1004.014	-1032
1004.089	-1318
1004.165	-1171
1004.240	-1141
1004.316	-895
1004.391	-1871
1004.467	-437
1004.542	-1115
1004.617	-248
1004.693	-1167
1004.768	-1169
1004.844	-1026
1004.919	-1013
1004.994	-580
1005.069	-274
1005.145	-871
1005.220	-546
1005.295	-1130
1005.370	-401
1005.445	-1072
1005.520	-736
1005.595	-1532
1005.670	-859
1005.745	-1930
1005.820	-572
1005.895	-658
1005.970	-291
1006.045	-2105
1006.120	-664
1006.195	-1045
1006.270	-663
1006.345	-867
1006.419	-436
1006.494	-1427
1006.569	-1018
1006.644	-1818
1006.718	-724
1006.793	-975
1006.868	-974
1006.942	-791
1007.017	-756
1007.092	-1089
1007.166	-758
1007.241	-164
1007.315	-307
1007.390	-1811
1007.464	-608
1007.539	-1292
1007.613	-989
1007.687	-1070
1007.762	-656
1007.836	-1575
1007.910	-594
1007.984	-1540
1008.059	-795
1008.133	-1087
1008.207	-725
1008.281	-623
1008.356	-1321
1008.430	-666
1008.504	-1334
1008.578	-956
1008.652	-579
1008.726	-1092
1008.800	-1425
1008.874	-1463
1008.948	-558
1009.022	-1630
1009.096	-1844
1009.170	-1400
1009.244	-1422
1009.317	-1363
1009.391	-1216
1009.465	-935
1009.539	-1470
1009.613	-577
1009.686	-1208
1009.760	-1974
1009.834	-921
1009.907	-1537
1009.981	-1818
1010.054	-344
1010.128	-1797
1010.201	78
1010.275	-595
1010.349	-1957
1010.422	-409
1010.495	-1081
1010.569	-662
1010.642	-1212
1010.716	153
1010.789	-987
1010.862	-530
1010.936	-786
1011.009	40
1011.082	-324
1011.155	-1011
1011.229	-84
1011.302	135
1011.375	429
1011.448	696
1011.521	-230
1011.594	112
1011.667	-772
1011.740	-278
1011.813	-1393
1011.886	-1045
1011.959	-1219
1012.032	-373
1012.105	-1121
1012.178	-2077
1012.251	-490
1012.324	-890
1012.396	-712
1012.469	-768
1012.542	-1728
1012.614	-1569
1012.687	-1357
1012.760	-671
1012.833	-1659
1012.905	-1143
1012.978	-573
1013.050	-1090
1013.123	-1470
1013.195	-1039
1013.268	-1365
1013.340	-966
1013.413	-928
1013.485	-1007
1013.558	-1612
1013.630	-584
1013.702	-1275
1013.775	-1290
1013.847	-1098
1013.919	-787
1013.992	-1762
1014.064	-66
1014.136	-1563
1014.208	-1505
1014.280	-1748
1014.353	131
1014.425	-2023
1014.497	-640
1014.569	-983
1014.641	-1117
1014.713	-616
1014.785	-926
1014.857	-782
1014.929	-878
1015.001	-1642
1015.072	-832
1015.144	-1503
1015.216	-704
1015.288	-667
1015.360	-820
1015.431	-2263
1015.503	-1622
1015.575	-1363
1015.647	-644
1015.718	-691
1015.790	-1107
1015.861	-893
1015.933	-1820
1016.005	-1331
1016.076	-990
1016.148	-1283
1016.219	-1354
1016.291	-1601
1016.362	-293
1016.433	-1668
1016.505	-730
1016.576	-1263
1016.647	-1338
1016.719	-1726
1016.790	-1476
1016.861	-1236
1016.932	-1113
1017.004	-1478
1017.075	-1635
1017.146	-1092
1017.217	-1629
1017.288	-1086
1017.359	-1854
1017.430	-684
1017.502	-1065
1017.573	-739
1017.644	-1059
1017.714	-1532
1017.785	-995
1017.856	-1164
1017.927	-754
1017.998	-1407
1018.069	-1789
1018.140	-945
1018.210	-928
1018.281	-569
1018.352	-713
1018.423	-1095
1018.493	-1031
1018.564	-581
1018.635	-1345
1018.705	-1756
1018.776	-1555
1018.846	-766
1018.917	-718
1018.987	-1508
1019.058	-1057
1019.128	-1734
1019.199	-857
1019.269	-1758
1019.340	-1106
1019.410	-2278
1019.480	-772
1019.551	-1687
1019.621	-607
1019.691	-1316
1019.761	-1343
1019.832	-767
1019.902	-902
1019.972	-1590
1020.042	-1628
1020.112	-859
1020.182	-1528
1020.252	-642
1020.322	-1570
1020.392	-1412
1020.462	-638
1020.532	-1300
1020.602	-571
1020.672	-1205
1020.742	-1281
1020.812	-1356
1020.882	-1586
1020.952	-1830
1021.021	-1046
1021.091	-620
1021.161	-1163
1021.230	-1685
1021.300	-1314
1021.370	-865
1021.440	-634
1021.509	-1280
1021.579	-1393
1021.648	-1142
1021.718	-704
1021.787	-1457
1021.857	-1169
1021.926	-1127
1021.996	-1134
1022.065	-1925
1022.134	-1099
1022.204	-1182
1022.273	-1219
1022.342	-1354
1022.412	-1015
1022.481	-2022
1022.550	-1322
1022.619	-1363
1022.689	-1319
1022.758	-1528
1022.827	-1502
1022.896	-2217
1022.965	-599
1023.034	-1659
1023.103	-1780
1023.172	-1349
1023.241	-1376
1023.310	-1199
1023.379	-1049
1023.448	-34
1023.517	-379
1023.586	-2347
1023.654	-1134
1023.723	-901
1023.792	-1118
1023.861	-2118
1023.929	-2001
1023.998	-1100
1024.067	-1472
1024.135	-1445
1024.204	-1349
1024.273	-2083
1024.341	-1391
1024.410	-1579
1024.478	-565
1024.547	-1700
1024.615	-1831
1024.684	-2041
1024.752	-1655
1024.820	-1520
1024.889	-1276
1024.957	-1187
1025.026	-930
1025.094	-1329
1025.162	-1612
1025.230	-1451
1025.299	-1619
1025.367	-1211
1025.435	-1210
1025.503	-1429
1025.571	-1468
1025.639	-1527
1025.707	-947
1025.776	-1822
1025.844	-438
1025.912	-1161
1025.979	-1520
1026.047	-1124
1026.115	-374
1026.183	-2019
1026.251	-835
1026.319	-910
1026.387	-2153
1026.454	-1489
1026.522	-1284
1026.590	-1800
1026.658	-1473
1026.725	-1212
1026.793	-1080
1026.861	-1944
1026.928	-569
1026.996	-1503
1027.064	-1619
1027.131	-2336
1027.199	-796
1027.266	-2335
1027.334	-993
1027.401	-1845
1027.468	-1800
1027.536	-947
1027.603	-1577
1027.671	-1064
1027.738	-1315
1027.805	-907
1027.872	-1238
1027.940	-1215
1028.007	-686
1028.074	-740
1028.141	-1418
1028.208	-1991
1028.275	-1136
1028.342	-2364
1028.409	-1379
1028.477	-1040
1028.544	-1555
1028.610	-1532
1028.678	-937
1028.744	-1739
1028.811	-1391
1028.878	-1478
1028.945	-787
1029.012	-1873
1029.079	-1200
1029.146	-1281
1029.212	-1738
1029.279	-2413
1029.346	-1864
1029.412	-2179
1029.479	-669
1029.546	-1587
1029.612	-1589
1029.679	-1952
1029.745	-1444
1029.812	-667
1029.878	-902
1029.945	-2627
1030.011	-571
1030.078	-1960
1030.144	-1033
1030.210	-1337
1030.277	-2395
1030.343	-1674
1030.409	-574
1030.476	-985
1030.542	-592
1030.608	-1797
1030.674	-1155
1030.740	-1254
1030.807	-849
1030.873	-1896
1030.939	-1066
1031.005	-1798
1031.071	-1008
1031.137	-1198
1031.203	-871
1031.269	-1401
1031.335	-1296
1031.401	-1646
1031.467	-1146
1031.533	-723
1031.598	-1806
1031.664	-1559
1031.730	-705
1031.796	-1188
1031.861	-1285
1031.927	-1883
1031.993	-1158
1032.058	-2324
1032.124	-1260
1032.190	-1561
1032.255	-1220
1032.321	-980
1032.386	-1254
1032.452	-1580
1032.518	-1610
1032.583	-2155
1032.648	-853
1032.714	-1928
1032.779	-1224
1032.844	-684
1032.910	-1817
1032.975	-1432
1033.040	-1144
1033.106	-1924
1033.171	-1742
1033.236	-1667
1033.301	-478
1033.366	-1853
1033.432	-900
1033.496	-1468
1033.562	-869
1033.627	-1198
1033.692	-402
1033.757	-1635
1033.822	-1417
1033.887	-1789
1033.952	-1870
1034.016	-914
1034.081	-1249
1034.146	-1779
1034.211	-1505
1034.276	-1264
1034.340	-693
1034.405	-1405
1034.470	-1124
1034.535	298
1034.599	-26
1034.664	242
1034.729	-222
1034.793	-1422
1034.858	-1447
1034.922	-1071
1034.987	-1162
1035.051	-1671
1035.116	-1496
1035.180	-2675
1035.245	-1183
1035.309	-2570
1035.373	-1449
1035.437	-1030
1035.502	-2002
1035.566	-1160
1035.630	-1169
1035.695	-2106
1035.759	-1138
1035.823	-1135
1035.887	-1826
1035.951	-1634
1036.015	-2435
1036.079	-1627
1036.143	-1648
1036.208	-1865
1036.271	-743
1036.336	-1372
1036.399	-2018
1036.463	-1527
1036.527	-791
1036.591	-1674
1036.655	-970
1036.719	-595
1036.783	-88
1036.846	6
1036.910	406
1036.974	-594
1037.037	-1267
1037.101	-1571
1037.165	-952
1037.228	-1361
1037.292	-766
1037.355	-1023
1037.419	-1188
1037.483	-1774
1037.546	-1308
1037.609	-2825
1037.673	-1154
1037.736	-1745
1037.800	-1401
1037.863	-1453
1037.926	-1037
1037.990	-1977
1038.053	-1347
1038.116	-1591
1038.179	-1434
1038.243	-2021
1038.306	-721
1038.369	-1717
1038.432	-1265
1038.495	-1782
1038.558	-1424
1038.621	-1701
1038.684	-1147
1038.747	-2352
1038.810	-697
1038.873	-1511
1038.936	-1471
1038.999	-1196
1039.062	-2152
1039.125	-1188
1039.188	-1526
1039.250	-2366
1039.313	-968
1039.376	-2145
1039.438	-1408
1039.501	-1719
1039.564	-1633
1039.627	-1679
1039.689	-2166
1039.752	-2076
1039.814	-856
1039.877	-1912
1039.939	-1421
1040.002	-1593
1040.064	-943
1040.127	-1997
1040.189	-1158
1040.251	-1695
1040.314	-1545
1040.376	-2248
1040.438	-805
1040.501	-1644
1040.563	-1548
1040.625	-1925
1040.687	-2376
1040.750	-1986
1040.812	-1890
1040.874	-1790
1040.936	-1156
1040.998	-2228
1041.060	-1527
1041.122	-1576
1041.184	-2109
1041.246	-1149
1041.308	-1461
1041.370	-1186
1041.432	-1557
1041.494	-1793
1041.555	-1473
1041.617	-1619
1041.679	-2130
1041.741	-1811
1041.802	-1958
1041.864	-1196
1041.926	-1120
1041.987	-2071
1042.049	-1610
1042.111	-1517
1042.172	-1665
1042.234	-1525
1042.295	-1694
1042.357	-1749
1042.418	-1679
1042.480	-1595
1042.541	-1979
1042.603	-1335
1042.664	-2181
1042.725	-1640
1042.786	-1518
1042.848	-1815
1042.909	-1563
1042.970	-1797
1043.031	-1581
1043.093	-2159
1043.154	-1093
1043.215	-1273
1043.276	-2069
1043.337	-1766
1043.398	-1400
1043.459	-1816
1043.520	-2106
1043.581	-1410
1043.642	-1257
1043.703	-1863
1043.764	-714
1043.825	-1858
1043.886	-1132
1043.947	-1563
1044.007	-1820
1044.068	-1536
1044.129	-1449
1044.189	-1571
1044.250	-2025
1044.311	-2040
1044.371	-1508
1044.432	-2277
1044.493	-1170
1044.553	-1133
1044.614	-948
1044.674	-2148
1044.735	-1477
1044.795	-1452
1044.856	-872
1044.916	-2059
1044.976	-101
1045.037	-2016
1045.097	-1268
1045.157	-816
1045.218	-661
1045.278	-1360
1045.338	-1000
1045.398	-1143
1045.458	-648
1045.519	-1912
1045.579	-925
1045.639	-1656
1045.699	-815
1045.759	-1611
1045.819	-878
1045.879	-1122
1045.939	-1099
1045.999	-1539
1046.059	-1816
1046.119	-1503
1046.179	-766
1046.238	-1153
1046.298	-809
1046.358	-1365
1046.418	-911
1046.477	-940
1046.537	-529
1046.597	-1409
1046.656	-514
1046.716	-975
1046.776	-724
1046.835	199
1046.895	-1176
1046.954	-675
1047.014	-533
1047.073	-363
1047.133	0
