'Start Wavelength	183.833
'End Wavelength	1047.133
'Gate Delay	5.000
'Gate Width (ms)	1.050
'Laser Output Level	0.000
'X Position	0.000
'Y Position	0.000
'Z Position	0.000
'Grid Point Number	1.000
'Shot Number	100.000
183.833	990.000
183.903	571.000
183.973	634
184.042	985
184.112	1035
184.182	1123
184.252	135
184.321	-111
184.391	1528
184.461	597
184.531	-120
184.600	1129
184.670	335
184.740	1020
184.809	718
184.879	816
184.949	743
185.018	364
185.088	984
185.158	191
185.228	683
185.297	387
185.367	-101
185.436	15
185.506	773
185.576	1120
185.645	316
185.715	762
185.785	542
185.854	793
185.924	777
185.993	1159
186.063	607
186.133	942
186.202	1316
186.272	951
186.341	547
186.411	634
186.481	601
186.550	1443
186.620	738
186.689	335
186.759	279
186.828	386
186.898	1240
186.967	909
187.037	1166
187.106	646
187.176	1119
187.246	1368
187.315	596
187.385	278
187.454	1201
187.524	1370
187.593	994
187.662	1174
187.732	1723
187.801	945
187.871	1487
187.940	1373
188.010	1036
188.079	923
188.149	1732
188.218	1697
188.288	1920
188.357	1175
188.426	867
188.496	701
188.565	856
188.635	807
188.704	1398
188.773	1043
188.843	1912
188.912	692
188.981	1485
189.051	941
189.120	1060
189.190	1374
189.259	1159
189.328	506
189.398	483
189.467	1147
189.536	515
189.606	1427
189.675	1487
189.744	1488
189.813	1175
189.883	1274
189.952	1560
190.021	1038
190.091	2451
190.160	1007
190.229	701
190.298	1192
190.368	455
190.437	531
190.506	1740
190.575	1192
190.645	990
190.714	1072
190.783	1846
190.852	2471
190.922	1993
190.991	2071
191.060	2281
191.129	2025
191.198	1358
191.268	1282
191.337	1944
191.406	640
191.475	1102
191.544	1372
191.613	881
191.683	612
191.752	783
191.821	1276
191.890	1046
191.959	585
192.028	750
192.097	1512
192.166	1003
192.236	965
192.305	742
192.374	484
192.443	777
192.512	130
192.581	452
192.650	717
192.719	633
192.788	1086
192.857	645
192.926	567
192.995	768
193.064	513
193.133	877
193.202	911
193.271	1509
193.340	2280
193.409	2602
193.478	1767
193.547	816
193.616	927
193.685	1854
193.754	1078
193.823	1318
193.892	1088
193.961	564
194.030	2273
194.099	436
194.168	579
194.237	699
194.306	379
194.375	1164
194.444	1991
194.513	1556
194.582	2801
194.651	2374
194.720	510
194.788	960
194.857	1956
194.926	2113
194.995	1975
195.064	2222
195.133	2740
195.202	3607
195.270	1531
195.339	1649
195.408	975
195.477	2754
195.546	2730
195.615	1436
195.683	3290
195.752	3110
195.821	2524
195.890	3285
195.959	3475
196.027	3711
196.096	3796
196.165	4349
196.234	2979
196.303	2999
196.371	1499
196.440	1241
196.509	778
196.578	986
196.646	1342
196.715	950
196.784	1280
196.853	1649
196.921	1223
196.990	955
197.059	1534
197.127	1819
197.196	2201
197.265	1536
197.333	1185
197.402	633
197.471	1660
197.539	1097
197.608	1912
197.677	1808
197.745	1553
197.814	2099
197.883	1553
197.951	2730
198.020	1782
198.088	1235
198.157	1752
198.226	2286
198.294	1719
198.363	1133
198.431	1260
198.500	1883
198.569	2326
198.637	1436
198.706	617
198.774	2076
198.843	2531
198.911	886
198.980	887
199.048	1618
199.117	1086
199.185	1478
199.254	353
199.322	591
199.391	1006
199.459	1501
199.528	1564
199.596	882
199.665	673
199.733	1394
199.802	1007
199.870	1515
199.939	1217
200.007	1448
200.076	988
200.144	1396
200.213	1183
200.281	1540
200.349	1462
200.418	2865
200.486	1858
200.555	1683
200.623	1719
200.691	801
200.760	1170
200.828	1143
200.897	1319
200.965	836
201.033	828
201.102	1692
201.170	967
201.238	716
201.307	2018
201.375	1342
201.443	1212
201.512	1775
201.580	1410
201.648	1139
201.716	1034
201.785	1034
201.853	1489
201.921	1402
201.990	1801
202.058	1589
202.126	1231
202.194	57
202.263	272
202.331	1318
202.399	993
202.467	1154
202.536	4640
202.604	2475
202.672	1706
202.740	1104
202.808	933
202.877	1023
202.945	439
203.013	1165
203.081	1701
203.149	1103
203.218	996
203.286	1136
203.354	823
203.422	980
203.490	790
203.558	1358
203.626	960
203.695	1318
203.763	674
203.831	1275
203.899	3145
203.967	1170
204.035	1283
204.103	2026
204.171	1929
204.239	1086
204.307	1715
204.375	1141
204.443	324
204.512	-210
204.580	1037
204.648	488
204.716	1376
204.784	1445
204.852	503
204.920	1322
204.988	1919
205.056	1701
205.124	1859
205.192	974
205.260	31
205.328	211
205.396	1548
205.464	352
205.532	527
205.600	1409
205.667	820
205.735	1849
205.803	2902
205.871	1468
205.939	1389
206.007	1449
206.075	1873
206.143	1994
206.211	1665
206.279	1130
206.347	1110
206.414	1304
206.482	1423
206.550	2050
206.618	1732
206.686	1187
206.754	1923
206.822	2164
206.889	551
206.957	859
207.025	1011
207.093	377
207.161	1361
207.229	138
207.296	1048
207.364	1118
207.432	947
207.500	955
207.567	468
207.635	1085
207.703	693
207.771	855
207.839	1277
207.906	1283
207.974	1554
208.042	326
208.109	923
208.177	1302
208.245	1956
208.313	2890
208.380	4855
208.448	1424
208.516	796
208.583	1354
208.651	1933
208.719	1735
208.786	1696
208.854	1805
208.922	956
208.989	1937
209.057	1429
209.125	1364
209.192	877
209.260	1381
209.327	3927
209.395	2868
209.463	1506
209.530	921
209.598	1071
209.665	854
209.733	1513
209.801	1095
209.868	1542
209.936	2128
210.003	2349
210.071	2951
210.138	1752
210.206	4497
210.273	2787
210.341	962
210.408	1124
210.476	1163
210.543	2295
210.611	4122
210.678	1973
210.746	2102
210.813	3056
210.881	3677
210.948	2776
211.016	2020
211.083	1220
211.151	2450
211.218	3499
211.285	2734
211.353	2379
211.420	3315
211.488	1831
211.555	1539
211.622	1595
211.690	2196
211.757	2297
211.825	2036
211.892	1334
211.959	1154
212.027	1588
212.094	1594
212.161	1821
212.229	1681
212.296	4255
212.363	12642
212.431	4103
212.498	1560
212.565	2318
212.633	2058
212.700	2076
212.767	1626
212.835	768
212.902	838
212.969	2572
213.036	2432
213.104	1871
213.171	3929
213.238	2149
213.305	1149
213.373	1845
213.440	971
213.507	2169
213.574	2014
213.641	1410
213.709	1985
213.776	3846
213.843	4077
213.910	4817
213.977	2363
214.045	1995
214.112	2227
214.179	3163
214.246	2372
214.313	3477
214.380	2632
214.447	3667
214.515	2476
214.582	2514
214.649	2533
214.716	2612
214.783	1274
214.850	1361
214.917	2520
214.984	3271
215.051	4549
215.118	4168
215.185	2904
215.253	3207
215.320	1863
215.387	2683
215.454	3771
215.521	3461
215.588	2506
215.655	2445
215.722	4283
215.789	4411
215.856	6621
215.923	5980
215.990	2995
216.057	2313
216.124	3562
216.191	4739
216.258	3032
216.325	3569
216.391	3740
216.458	3514
216.525	5494
216.592	11857
216.659	10651
216.726	3811
216.793	2701
216.860	1736
216.927	1286
216.994	2621
217.061	4601
217.127	3117
217.194	3964
217.261	4748
217.328	3760
217.395	1736
217.462	1868
217.529	1651
217.595	2218
217.662	1949
217.729	8045
217.796	8082
217.863	2205
217.929	1209
217.996	1725
218.063	1546
218.130	1481
218.196	1958
218.263	1084
218.330	2320
218.397	1529
218.463	725
218.530	2715
218.597	10286
218.664	10707
218.730	3658
218.797	1593
218.864	1571
218.930	1590
218.997	1824
219.064	4656
219.131	9130
219.197	3800
219.264	1941
219.331	1878
219.397	1309
219.464	1315
219.530	6810
219.597	4772
219.664	836
219.730	2020
219.797	806
219.864	1195
219.930	4552
219.997	12867
220.063	6584
220.130	2812
220.196	1780
220.263	1897
220.330	1249
220.396	3094
220.463	2336
220.529	1425
220.596	2547
220.662	1104
220.729	6138
220.795	4432
220.862	3448
220.928	5566
220.995	7031
221.061	8971
221.128	6308
221.194	2402
221.261	1257
221.327	1953
221.394	1945
221.460	1851
221.526	2264
221.593	10094
221.659	5544
221.726	5293
221.792	3850
221.859	2206
221.925	1696
221.991	2444
222.058	3288
222.124	5168
222.190	3184
222.257	3161
222.323	1599
222.390	1876
222.456	4836
222.522	2523
222.589	3139
222.655	4539
222.721	3275
222.788	2827
222.854	2104
222.920	5226
222.986	9638
223.053	4997
223.119	2208
223.185	1685
223.251	1447
223.318	3314
223.384	2312
223.450	1638
223.516	1271
223.583	432
223.649	1659
223.715	1443
223.781	3456
223.848	3366
223.914	830
223.980	2074
224.046	1336
224.112	2127
224.178	2141
224.245	878
224.311	1092
224.377	1549
224.443	1168
224.509	1869
224.575	1507
224.641	419
224.708	703
224.774	1158
224.840	2792
224.906	2517
224.972	2016
225.038	3730
225.104	2968
225.170	2446
225.236	2411
225.302	2715
225.368	2068
225.434	1100
225.500	2901
225.566	2907
225.632	1050
225.699	1684
225.765	1654
225.831	3816
225.897	8971
225.963	6361
226.028	6503
226.094	5227
226.160	3695
226.226	5855
226.292	11644
226.358	12938
226.424	7939
226.490	4768
226.556	3706
226.622	8182
226.688	16006
226.754	9817
226.820	17195
226.886	14225
226.951	4703
227.017	4109
227.083	5247
227.149	10099
227.215	14138
227.281	11118
227.347	6510
227.412	3953
227.478	9392
227.544	15080
227.610	13647
227.676	7840
227.742	4616
227.807	2823
227.873	6047
227.939	16512
228.005	6703
228.070	2277
228.136	2047
228.202	1871
228.268	5316
228.333	10015
228.399	5199
228.465	2108
228.531	1939
228.596	3544
228.662	9660
228.728	6863
228.793	3198
228.859	3901
228.925	4653
228.990	5746
229.056	6617
229.122	3576
229.187	6297
229.253	3878
229.319	6868
229.384	8288
229.450	3161
229.516	836
229.581	3410
229.647	6020
229.712	16586
229.778	18536
229.844	11401
229.909	14858
229.975	11657
230.040	5785
230.106	6295
230.171	8678
230.237	13599
230.302	10665
230.368	4157
230.433	4924
230.499	13751
230.564	7609
230.630	2206
230.695	2525
230.761	2205
230.826	9701
230.892	4956
230.957	2472
231.023	2205
231.088	2065
231.154	2635
231.219	7268
231.285	8010
231.350	3588
231.415	1828
231.481	2208
231.546	1978
231.612	1919
231.677	1357
231.742	3562
231.808	1966
231.873	2173
231.938	8505
232.004	9490
232.069	3851
232.135	2172
232.200	2127
232.265	1539
232.330	1096
232.396	1647
232.461	1791
232.526	2165
232.592	2554
232.657	9601
232.722	7414
232.788	3011
232.853	3127
232.918	2752
232.983	2627
233.048	9005
233.114	7186
233.179	10848
233.244	14184
233.309	4704
233.375	4152
233.440	2786
233.505	2933
233.570	2635
233.635	2768
233.700	9974
233.766	13055
233.831	6520
233.896	8089
233.961	8829
234.026	6956
234.091	5662
234.156	5460
234.222	9425
234.287	28451
234.352	29312
234.417	15777
234.482	9166
234.547	6639
234.612	6099
234.677	7596
234.742	30494
234.807	20259
234.872	7600
234.937	5108
235.002	5927
235.067	4921
235.132	3529
235.197	3833
235.262	3298
235.327	4444
235.392	6584
235.457	7123
235.522	4015
235.587	3580
235.652	2477
235.717	3004
235.782	4614
235.847	16017
235.912	19161
235.977	21348
236.042	7038
236.107	7435
236.172	7799
236.236	3853
236.301	3604
236.366	8101
236.431	18726
236.496	6610
236.561	7351
236.626	22027
236.691	15195
236.755	10614
236.820	12751
236.885	8654
236.950	6303
237.015	7395
237.079	10650
237.144	9882
237.209	20680
237.274	47591
237.339	29811
237.403	14815
237.468	13103
237.533	6649
237.598	5083
237.662	5502
237.727	7503
237.792	8221
237.856	12797
237.921	7559
237.986	13268
238.050	14398
238.115	37825
238.180	33688
238.245	22042
238.309	14402
238.374	14549
238.438	10977
238.503	4666
238.568	3928
238.632	4581
238.697	5108
238.762	15869
238.826	22062
238.891	11122
238.955	10233
239.020	4748
239.085	6938
239.149	4798
239.214	3985
239.278	4033
239.343	4021
239.407	6071
239.472	37434
239.536	31364
239.601	8661
239.665	5162
239.730	6506
239.794	16169
239.859	30138
239.923	13964
239.988	7166
240.052	5360
240.117	5869
240.181	5157
240.246	5268
240.310	6142
240.374	24339
240.439	38736
240.503	13791
240.568	19787
240.632	24440
240.696	10123
240.761	6438
240.825	5220
240.890	5736
240.954	20827
241.018	40591
241.083	22870
241.147	8497
241.211	10634
241.276	21707
241.340	10058
241.404	5788
241.469	6422
241.533	5672
241.597	5067
241.661	5205
241.726	8017
241.790	9231
241.854	6820
241.919	5348
241.983	4352
242.047	9187
242.111	7560
242.175	4270
242.240	5740
242.304	7862
242.368	14989
242.432	6828
242.496	4940
242.561	5049
242.625	4435
242.689	3376
242.753	8253
242.817	6801
242.881	5821
242.946	7475
243.010	8075
243.074	9372
243.138	6543
243.202	7533
243.266	8533
243.330	6704
243.394	12467
243.458	29360
243.522	14294
243.586	10255
243.651	5805
243.715	7983
243.779	11157
243.843	10711
243.907	30018
243.971	23639
244.035	14361
244.099	8335
244.163	15030
244.227	18091
244.291	11439
244.355	12217
244.419	9174
244.483	8708
244.546	6024
244.610	5843
244.674	11927
244.738	12626
244.802	7520
244.866	6078
244.930	6360
244.994	7449
245.058	7927
245.122	8664
245.186	8670
245.249	12171
245.313	12947
245.377	8495
245.441	6924
245.505	9846
245.569	10215
245.632	10183
245.696	28010
245.760	15378
245.824	10821
245.888	7442
245.951	9467
246.015	10938
246.079	14615
246.143	39457
246.207	64357
246.270	29298
246.334	16036
246.398	15686
246.461	30329
246.525	15441
246.589	14887
246.653	15067
246.716	19853
246.780	20012
246.844	25825
246.907	11854
246.971	11104
247.035	14432
247.098	11848
247.162	35296
247.226	86026
247.289	40751
247.353	16823
247.416	30006
247.480	18517
247.544	16109
247.607	22533
247.671	13574
247.734	10591
247.798	13186
247.861	34345
247.925	76346
247.989	28275
248.052	13875
248.116	15356
248.179	29566
248.243	125822
248.306	131076
248.370	85568
248.433	32012
248.497	22872
248.560	34125
248.624	45976
248.687	56594
248.751	132503
248.814	74979
248.877	67972
248.941	96599
249.004	154085
249.068	131274
249.131	49392
249.194	28568
249.258	32577
249.321	25050
249.385	18539
249.448	12935
249.511	19514
249.575	33150
249.638	23745
249.701	14113
249.765	13434
249.828	16623
249.891	13246
249.955	10864
250.018	45938
250.081	67297
250.145	28872
250.208	18084
250.271	17704
250.334	15515
250.398	14756
250.461	17893
250.524	20493
250.587	43860
250.651	67931
250.714	37755
250.777	23975
250.840	12435
250.903	12360
250.967	25678
251.030	71290
251.093	33020
251.156	32402
251.219	21583
251.282	19449
251.345	60993
251.409	56909
251.472	30346
251.535	100788
251.598	70079
251.661	39313
251.724	74730
251.787	63560
251.850	79278
251.913	51010
251.976	33569
252.039	26334
252.103	24029
252.166	58011
252.229	142889
252.292	98547
252.355	138798
252.418	78279
252.481	62167
252.544	44126
252.607	35048
252.670	98299
252.733	81204
252.796	110140
252.858	121924
252.921	97129
252.984	53447
253.047	50507
253.110	32461
253.173	25891
253.236	26736
253.299	40466
253.362	44188
253.425	45950
253.488	80686
253.550	59060
253.613	65930
253.676	69490
253.739	30030
253.802	38552
253.865	36477
253.928	26360
253.990	51594
254.053	80790
254.116	80733
254.179	64342
254.242	28732
254.304	49837
254.367	56608
254.430	53289
254.493	53375
254.555	95622
254.618	61678
254.681	35097
254.743	28036
254.806	27910
254.869	57683
254.932	60408
254.994	26839
255.057	27806
255.120	15371
255.182	15490
255.245	19606
255.308	13004
255.370	10317
255.433	11251
255.496	13650
255.558	17674
255.621	16075
255.683	11688
255.746	11663
255.809	9229
255.871	8819
255.934	9058
255.996	9962
256.059	9064
256.121	15017
256.184	41236
256.246	29813
256.309	28022
256.371	14232
256.434	10719
256.496	7636
256.559	8849
256.621	16287
256.684	17067
256.746	31508
256.809	16283
256.871	13353
256.934	15119
256.996	21667
257.059	19178
257.121	9788
257.183	11724
257.246	10834
257.308	9355
257.371	14980
257.433	40819
257.495	56428
257.558	59854
257.620	38462
257.683	17923
257.745	19623
257.807	10992
257.870	11303
257.932	10373
257.994	15585
258.056	15087
258.119	15796
258.181	39694
258.243	22297
258.306	12491
258.368	38671
258.430	35657
258.492	41928
258.555	54721
258.617	14811
258.679	15399
258.741	34293
258.803	17709
258.866	8630
258.928	9808
258.990	11674
259.052	13869
259.114	21464
259.177	11882
259.239	17117
259.301	51608
259.363	32408
259.425	12586
259.487	10928
259.549	14275
259.611	22643
259.674	13031
259.736	38382
259.798	71444
259.860	109176
259.922	130880
259.984	44151
260.046	17069
260.108	11571
260.170	9720
260.232	8628
260.294	10807
260.356	11932
260.418	45773
260.480	74831
260.542	38066
260.604	65833
260.666	85486
260.728	24637
260.790	20261
260.852	16063
260.914	15509
260.976	15890
261.038	66135
261.100	131784
261.161	72769
261.223	25990
261.285	38710
261.347	55072
261.409	19019
261.471	15424
261.533	9707
261.595	9152
261.656	24520
261.718	63541
261.780	30567
261.842	19657
261.904	29962
261.966	35277
262.027	15483
262.089	28480
262.151	22450
262.213	11850
262.274	38150
262.336	29234
262.398	13316
262.460	25316
262.521	55639
262.583	17956
262.645	12332
262.706	15392
262.768	52393
262.830	24547
262.892	15881
262.953	15492
263.015	60844
263.077	152027
263.138	79637
263.200	66608
263.261	23051
263.323	13577
263.385	10234
263.446	12661
263.508	35379
263.569	25326
263.631	11876
263.693	9847
263.754	8674
263.816	7389
263.877	7641
263.939	8533
264.000	33510
264.062	92704
264.123	35799
264.185	14514
264.246	12127
264.308	41164
264.369	121505
264.431	38471
264.492	20513
264.554	46251
264.615	113264
264.677	38491
264.738	19604
264.800	14109
264.861	18772
264.922	16655
264.984	8805
265.045	7519
265.107	11302
265.168	17222
265.229	16204
265.291	8456
265.352	8109
265.413	10104
265.475	7314
265.536	12209
265.597	17567
265.659	18364
265.720	8823
265.781	6009
265.843	5035
265.904	6959
265.965	25127
266.026	22469
266.088	20863
266.149	35922
266.210	15427
266.271	9448
266.333	10544
266.394	10456
266.455	8271
266.516	7330
266.577	21999
266.639	41049
266.700	13139
266.761	9299
266.822	8540
266.883	32715
266.944	21495
267.005	10119
267.067	6826
267.128	6991
267.189	5705
267.250	7883
267.311	7564
267.372	6009
267.433	6572
267.494	6922
267.555	6560
267.616	5766
267.677	6846
267.738	7556
267.799	20267
267.860	51069
267.921	44571
267.982	30929
268.043	13687
268.104	14083
268.165	11205
268.226	8765
268.287	8436
268.348	11382
268.409	15537
268.470	12181
268.531	6328
268.592	5714
268.653	7013
268.714	12679
268.775	17063
268.836	44323
268.896	43903
268.957	25455
269.018	12860
269.079	8941
269.140	8501
269.201	9010
269.262	7625
269.322	6903
269.383	11536
269.444	15615
269.505	23904
269.565	30793
269.626	18615
269.687	12532
269.748	9626
269.809	14848
269.869	25226
269.930	10160
269.991	8166
270.051	9530
270.112	8809
270.173	11195
270.234	6970
270.294	6909
270.355	8205
270.416	6083
270.476	8270
270.537	27257
270.598	51524
270.658	22651
270.719	12430
270.779	19519
270.840	17777
270.901	11072
270.961	12922
271.022	14383
271.082	24651
271.143	25980
271.203	10578
271.264	8621
271.325	13414
271.385	38541
271.446	22303
271.506	15400
271.567	14930
271.627	11853
271.688	15392
271.748	32556
271.809	120707
271.869	170377
271.930	51801
271.990	74880
272.050	134781
272.111	37760
272.171	21972
272.232	23161
272.292	91807
272.352	50515
272.413	46453
272.473	52959
272.534	42279
272.594	31027
272.654	33932
272.715	59742
272.775	29048
272.835	24033
272.896	12923
272.956	13729
273.016	28644
273.077	34771
273.137	22314
273.197	16762
273.257	87425
273.318	137442
273.378	52810
273.438	54372
273.498	125516
273.559	45765
273.619	60345
273.679	129116
273.739	48354
273.799	23825
273.860	53596
273.920	115175
273.980	34191
274.040	22742
274.100	31513
274.160	171526
274.221	141605
274.281	93014
274.341	107093
274.401	80763
274.461	34499
274.521	24041
274.581	83970
274.641	111231
274.701	45556
274.761	21626
274.821	53818
274.882	162588
274.942	140349
275.002	90731
275.062	37505
275.122	21367
275.182	15626
275.242	21856
275.302	41072
275.362	42351
275.421	25652
275.481	60118
275.541	135833
275.601	92564
275.661	63023
275.721	65053
275.781	45027
275.841	16219
275.901	19403
275.961	17595
276.021	13217
276.081	31307
276.140	87539
276.200	39601
276.260	31741
276.320	16402
276.380	24463
276.440	18225
276.499	11955
276.559	9842
276.619	21641
276.679	51866
276.738	38266
276.798	19111
276.858	23070
276.918	18225
276.978	11305
277.037	11241
277.097	18391
277.157	71921
277.216	31338
277.276	17645
277.336	12318
277.395	14649
277.455	14590
277.515	11667
277.574	17902
277.634	22844
277.694	14540
277.753	58799
277.813	44485
277.873	25196
277.932	51302
277.992	22218
278.051	18830
278.111	27307
278.171	16812
278.230	22142
278.290	18600
278.349	14454
278.409	11830
278.468	8875
278.528	9019
278.587	8369
278.647	11049
278.706	40606
278.766	122493
278.825	32918
278.885	19919
278.944	19317
279.004	12991
279.063	13352
279.122	16297
279.182	13193
279.241	10867
279.301	11040
279.360	21798
279.419	113040
279.479	204124
279.538	152507
279.598	38341
279.657	25993
279.716	56824
279.776	108712
279.835	38091
279.894	19470
279.953	16774
280.013	41696
280.072	77092
280.131	37170
280.191	182727
280.250	166357
280.309	43847
280.368	48634
280.428	54384
280.487	31707
280.546	30201
280.605	36506
280.664	56411
280.724	19006
280.783	15984
280.842	19342
280.901	16197
280.960	16910
281.019	14065
281.079	9920
281.138	9850
281.197	16289
281.256	80430
281.315	59904
281.374	15608
281.433	11503
281.492	11083
281.551	8808
281.611	9145
281.670	15486
281.729	20805
281.788	10723
281.847	9781
281.906	11101
281.965	9730
282.024	10076
282.083	8714
282.142	7006
282.201	10065
282.260	42627
282.319	29147
282.378	11148
282.436	17052
282.495	70881
282.554	39534
282.613	13497
282.672	12019
282.731	21006
282.790	20881
282.849	17377
282.908	8888
282.967	7612
283.025	8517
283.084	12249
283.143	47215
283.202	86855
283.261	23927
283.319	14502
283.378	13309
283.437	13975
283.496	25395
283.555	18936
283.613	12391
283.672	9970
283.731	27461
283.790	33517
283.848	10364
283.907	10700
283.966	17544
284.024	19055
284.083	16314
284.142	43033
284.201	20030
284.259	22308
284.318	87270
284.376	67812
284.435	20159
284.494	30045
284.552	22048
284.611	13408
284.670	11742
284.728	11035
284.787	14939
284.845	16474
284.904	12342
284.962	12832
285.021	24329
285.079	80015
285.138	339474
285.197	280696
285.255	81087
285.314	47880
285.372	31586
285.431	20178
285.489	18145
285.547	13729
285.606	12651
285.664	10019
285.723	11825
285.781	15214
285.840	14280
285.898	9378
285.957	11091
286.015	8492
286.073	8845
286.132	13629
286.190	25625
286.248	16528
286.307	27343
286.365	23518
286.423	10874
286.482	8058
286.540	8940
286.598	17703
286.657	13738
286.715	12856
286.773	16751
286.832	27544
286.890	40681
286.948	16227
287.006	13492
287.064	9332
287.123	10099
287.181	19368
287.239	12727
287.297	14513
287.356	41133
287.414	25207
287.472	15787
287.530	10782
287.588	10754
287.646	26382
287.704	46448
287.763	15550
287.821	13842
287.879	12208
287.937	12342
287.995	19083
288.053	74176
288.111	258967
288.169	97543
288.227	31599
288.285	24924
288.343	46204
288.401	34240
288.459	16541
288.517	13447
288.575	14187
288.633	11391
288.691	12121
288.749	12612
288.807	15150
288.865	17199
288.923	12880
288.981	12384
289.039	19601
289.097	21448
289.155	18321
289.213	24374
289.271	21008
289.329	18198
289.386	27398
289.444	28078
289.502	14504
289.560	11741
289.618	9916
289.676	9069
289.734	8960
289.791	10505
289.849	15280
289.907	20824
289.965	10145
290.022	9707
290.080	14614
290.138	17950
290.196	12483
290.253	11324
290.311	9675
290.369	10570
290.427	8816
290.484	14527
290.542	20423
290.600	19523
290.657	14299
290.715	17124
290.773	14103
290.830	27863
290.888	20305
290.946	21953
291.003	19314
291.061	19229
291.118	65130
291.176	132216
291.234	37363
291.291	18407
291.349	16353
291.406	18667
291.464	16223
291.521	11508
291.579	9906
291.636	9677
291.694	13393
291.751	30412
291.809	19612
291.866	12411
291.924	13219
291.981	18573
292.039	17853
292.096	12356
292.154	12870
292.211	18512
292.268	39338
292.326	58234
292.383	44240
292.441	29020
292.498	23571
292.555	22253
292.613	23416
292.670	17202
292.727	30245
292.785	90833
292.842	105684
292.899	57908
292.957	23492
293.014	21870
293.071	19198
293.129	14442
293.186	13596
293.243	24155
293.300	53003
293.358	27201
293.415	15388
293.472	13307
293.529	19639
293.586	55882
293.644	164725
293.701	99500
293.758	42584
293.815	29839
293.872	28415
293.929	21555
293.987	21601
294.044	46681
294.101	114471
294.158	159577
294.215	59944
294.272	31178
294.329	24873
294.386	29324
294.443	26021
294.500	20785
294.558	16002
294.615	19621
294.672	50228
294.729	205908
294.786	235777
294.843	87042
294.900	51679
294.957	45021
295.014	34247
295.070	23826
295.127	21344
295.184	19253
295.241	20247
295.298	69212
295.355	128225
295.412	56720
295.469	37760
295.526	115589
295.583	192195
295.640	130396
295.696	129070
295.753	52292
295.810	31913
295.867	30690
295.924	53378
295.981	46624
296.037	25085
296.094	20722
296.151	17556
296.208	19892
296.265	18100
296.321	16913
296.378	20846
296.435	62232
296.492	126360
296.548	89558
296.605	149137
296.662	222161
296.718	87009
296.775	48970
296.832	45748
296.888	87508
296.945	142338
297.002	116029
297.058	44778
297.115	30936
297.172	39389
297.228	137663
297.285	237874
297.341	82414
297.398	40097
297.454	34427
297.511	25283
297.568	27667
297.624	24045
297.681	21944
297.737	19118
297.794	14928
297.850	16058
297.907	15481
297.963	16700
298.020	27565
298.076	79670
298.133	71517
298.189	35617
298.245	77515
298.302	195585
298.358	102182
298.415	53815
298.471	44773
298.527	34105
298.584	29177
298.640	42309
298.697	59089
298.753	32650
298.809	21790
298.866	17471
298.922	20153
298.978	30146
299.035	26447
299.091	23315
299.147	21089
299.203	16389
299.260	17297
299.316	35904
299.372	148655
299.428	137431
299.485	51887
299.541	32521
299.597	28091
299.653	22893
299.710	21980
299.766	18896
299.822	31104
299.878	104433
299.934	110700
299.990	117462
300.046	212301
300.103	99429
300.159	46675
300.215	58149
300.271	60108
300.327	31763
300.383	22159
300.439	20159
300.495	20040
300.551	20122
300.607	39732
300.663	88765
300.719	104707
300.775	135793
300.831	75316
300.887	101415
300.943	78053
300.999	35288
301.055	29211
301.111	31642
301.167	23720
301.223	20079
301.279	18348
301.335	16986
301.391	17271
301.447	18829
301.503	24705
301.559	42183
301.614	40730
301.670	64746
301.726	82321
301.782	52150
301.838	82351
301.894	74296
301.949	140751
302.005	397028
302.061	371545
302.117	157073
302.173	70736
302.228	48955
302.284	47526
302.340	83456
302.396	67202
302.451	57007
302.507	144276
302.563	158543
302.618	87608
302.674	41322
302.730	29025
302.785	23177
302.841	24687
302.897	36750
302.952	57000
303.008	45967
303.064	60541
303.119	66110
303.175	35731
303.230	23058
303.286	21843
303.341	20643
303.397	19446
303.453	18235
303.508	19005
303.564	21969
303.619	44385
303.675	133002
303.730	104528
303.786	45872
303.841	28925
303.897	25327
303.952	37880
304.008	49548
304.063	44587
304.118	81620
304.174	80179
304.229	66831
304.285	41991
304.340	28753
304.372	27985
304.395	27510
304.451	28494
304.463	27749
304.506	25421
304.554	26134
304.562	26336
304.617	44421
304.644	75579
304.672	108294
304.728	148491
304.735	138722
304.783	75130
304.825	48474
304.838	40562
304.894	29025
304.916	26690
304.949	23797
305.004	23313
305.006	23165
305.059	21093
305.097	18940
305.115	17988
305.170	17480
305.188	18350
305.225	20484
305.278	28317
305.280	28714
305.336	29123
305.369	25050
305.391	22272
305.446	26217
305.459	26932
305.501	29753
305.550	35347
305.556	36269
305.612	54611
305.640	85644
305.667	115367
305.722	134414
305.731	128302
305.777	94707
305.821	116987
305.832	123506
305.887	125894
305.912	104093
305.942	74526
305.997	54099
306.002	52335
306.053	36498
306.092	27990
306.108	24816
306.163	19553
306.183	18595
306.218	17692
306.273	18691
306.273	18651
306.328	18135
306.364	17165
306.383	16654
306.438	18617
306.454	22857
306.493	34377
306.545	103911
306.548	108893
306.603	155073
306.635	146068
306.658	136606
306.713	95594
306.725	86036
306.768	52032
306.816	33746
306.823	31653
306.878	24633
306.906	22435
306.933	21061
306.988	19105
306.997	19794
307.043	23737
307.087	35610
307.098	39049
307.152	75288
307.177	85761
307.207	98296
307.262	106824
307.268	102882
307.317	63171
307.358	48252
307.372	44219
307.427	77493
307.448	99260
307.482	137783
307.536	118495
307.538	116705
307.591	58712
307.629	39394
307.646	32430
307.701	29976
307.719	38114
307.756	59722
307.809	115643
307.810	116800
307.865	84603
307.900	61827
307.920	45885
307.975	26369
307.990	23911
308.029	22431
308.080	32927
308.084	34333
308.139	88681
308.170	99073
308.194	103361
308.248	65927
308.261	64942
308.303	59126
308.351	48933
308.358	47535
308.412	29559
308.441	24596
308.467	20883
308.522	15797
308.531	15435
308.576	15145
308.621	17531
308.631	18555
308.686	41877
308.712	68231
308.740	100654
308.795	94510
308.802	91830
308.849	55210
308.892	38028
308.904	35368
308.959	28553
308.982	26459
309.013	24410
309.068	30331
309.072	31417
309.122	48472
309.162	77858
309.177	90705
309.231	153276
309.253	145531
309.286	115455
309.340	63237
309.343	61927
309.395	34395
309.433	22359
309.449	20206
309.504	16153
309.523	15479
309.558	15130
309.613	18534
309.613	18576
309.667	24107
309.703	23184
309.722	21376
309.776	17148
309.793	16479
309.830	16936
309.883	27117
309.885	27821
309.939	68461
309.973	83258
309.994	85910
310.048	71661
310.063	67893
310.102	45821
310.153	27336
310.157	26982
310.211	23514
310.243	21001
310.265	19488
310.320	19500
310.333	18887
310.374	17788
310.423	17695
310.428	17706
310.483	18865
310.513	20333
310.537	21814
310.591	25151
310.603	25101
310.646	22880
310.693	20008
310.700	19234
310.754	14161
310.783	11894
310.808	11047
310.862	9985
310.873	9971
310.917	11591
310.963	13895
310.971	14399
311.025	18462
311.053	19209
311.079	17869
311.133	15489
311.143	15189
311.188	14069
311.233	12836
311.242	12611
311.296	11882
311.323	11872
311.350	13072
311.404	14721
311.413	14981
311.458	12358
311.503	10134
311.512	10112
311.567	10597
311.593	10954
311.621	12832
311.675	16626
311.683	17315
311.729	22280
311.772	26412
311.783	25775
311.837	22617
311.862	21750
311.891	25345
311.945	31950
311.952	32873
311.999	26011
312.042	20140
312.053	18854
312.107	12901
312.132	10221
312.222	13898
312.311	25217
312.401	17743
312.491	16303
312.581	20273
312.671	11292
312.760	11402
312.850	14632
312.940	14894
313.030	16432
313.119	14706
313.209	9895
313.299	11089
313.389	12836
313.478	11119
313.568	10304
313.658	9347
313.747	7512
313.837	10240
313.927	12026
314.016	14023
314.106	21802
314.195	23417
314.285	16717
314.375	19279
314.464	13461
314.554	11083
314.643	12267
314.733	16402
314.823	16943
314.912	9707
315.002	8896
315.091	11293
315.181	16673
315.270	16384
315.360	15810
315.449	15893
315.539	16223
315.628	13360
315.718	13533
315.807	13131
315.896	12705
315.986	13192
316.075	29432
316.165	47654
316.254	39532
316.344	12542
316.433	8366
316.522	9245
316.612	10142
316.701	10140
316.790	26734
316.880	34053
316.969	8706
317.058	8927
317.148	8606
317.237	9169
317.326	8197
317.415	7115
317.505	10959
317.594	9411
317.683	7216
317.772	10131
317.862	13319
317.951	20258
318.040	16983
318.129	12384
318.219	13452
318.308	35357
318.397	53766
318.486	37052
318.575	57184
318.664	66253
318.754	14783
318.843	12880
318.932	10418
319.021	23242
319.110	53059
319.199	91272
319.288	38718
319.377	17726
319.466	9026
319.555	9845
319.644	22919
319.733	23841
319.822	16930
319.911	51919
320.000	99906
320.089	26826
320.178	21832
320.267	29901
320.356	32542
320.445	21733
320.534	21461
320.623	15662
320.712	16347
320.801	12761
320.890	12987
320.979	15260
321.068	19661
321.157	29045
321.245	25940
321.334	36824
321.423	58298
321.512	22228
321.601	24421
321.690	43656
321.779	33187
321.867	28673
321.956	33681
322.045	19453
322.134	36539
322.222	58370
322.311	51774
322.400	29596
322.489	27206
322.577	61601
322.666	30016
322.755	28397
322.843	45801
322.932	52870
323.021	21574
323.110	20031
323.198	21428
323.287	24592
323.375	51245
323.464	79391
323.553	38081
323.641	80409
323.730	28925
323.819	33353
323.907	74503
323.996	27753
324.084	16616
324.173	52602
324.261	25307
324.350	19704
324.438	16850
324.527	10240
324.615	11698
324.704	16376
324.792	29864
324.881	31051
324.969	11247
325.058	12485
325.146	31644
325.235	47839
325.323	39844
325.412	37360
325.500	14157
325.588	8191
325.677	8202
325.765	9015
325.853	7704
325.942	8535
326.030	12849
326.118	26584
326.207	20668
326.295	9723
326.383	9180
326.472	12932
326.560	16966
326.648	8105
326.737	7974
326.825	7370
326.913	7425
327.001	9910
327.090	21817
327.178	22753
327.266	9751
327.354	11731
327.442	10768
327.531	7280
327.619	10216
327.707	10283
327.795	17729
327.883	24028
327.971	11654
328.060	7785
328.148	7891
328.236	12675
328.324	7020
328.412	7929
328.500	8963
328.588	12474
328.676	27496
328.764	21115
328.852	12046
328.940	7327
329.028	7327
329.116	16443
329.204	34793
329.292	11537
329.380	5715
329.468	9584
329.556	7567
329.644	7730
329.732	8517
329.820	8639
329.908	13395
329.996	8135
330.084	5297
330.172	7666
330.259	6861
330.347	6607
330.435	6344
330.523	15385
330.611	36205
330.699	23349
330.787	21714
330.874	38062
330.962	38482
331.050	9692
331.138	5330
331.226	10785
331.313	12860
331.401	46744
331.489	38736
331.577	12638
331.664	7433
331.752	16433
331.840	15621
331.927	6077
332.015	6830
332.103	19778
332.190	29234
332.278	55407
332.366	26994
332.453	13541
332.541	10290
332.629	13954
332.716	11119
332.804	9010
332.891	35373
332.979	29449
333.066	7306
333.154	13862
333.242	12410
333.329	7201
333.417	13659
333.504	37309
333.592	12881
333.679	6904
333.767	7009
333.854	6351
333.942	14649
334.029	36328
334.117	57765
334.204	87932
334.291	19216
334.379	15574
334.466	8171
334.554	8055
334.641	15430
334.728	14109
334.816	42969
334.903	131421
334.990	48134
335.078	9990
335.165	8901
335.252	14270
335.340	19315
335.427	71606
335.514	38436
335.602	9740
335.689	8948
335.776	24339
335.863	22479
335.951	11602
336.038	54504
336.125	111784
336.212	30224
336.299	8022
336.387	5397
336.474	5052
336.561	8682
336.648	10281
336.735	8296
336.822	9032
336.910	13953
336.997	52076
337.084	90942
337.171	84657
337.258	79557
337.345	26668
337.432	9068
337.519	8414
337.606	12528
337.693	61522
337.780	65121
337.867	31781
337.954	38373
338.041	33140
338.128	12512
338.215	25543
338.302	42211
338.389	61353
338.476	24982
338.563	74325
338.650	29982
338.737	31889
338.824	22488
338.911	7943
338.998	10796
339.085	12167
339.171	12005
339.258	23517
339.345	12091
339.432	33248
339.519	11982
339.606	4153
339.692	5229
339.779	6280
339.866	13591
339.953	11362
340.040	6233
340.126	7603
340.213	8975
340.300	7626
340.387	10501
340.473	10195
340.560	5943
340.647	13996
340.733	28169
340.820	7296
340.907	5079
340.993	5780
341.080	4942
341.167	6664
341.253	10860
341.340	10698
341.426	4899
341.513	5575
341.600	6199
341.686	6819
341.773	12430
341.859	8442
341.946	3975
342.032	2639
342.119	3243
342.205	7038
342.292	7266
342.378	8941
342.465	8527
342.551	7056
342.638	19268
342.724	21136
342.811	9781
342.897	4742
342.984	2900
343.070	3514
343.156	3784
343.243	3545
343.329	4001
343.416	3078
343.502	3749
343.588	3615
343.675	4281
343.761	4534
343.847	5600
343.934	16810
344.020	82217
344.106	72288
344.193	12453
344.279	13483
344.365	48899
344.451	31069
344.538	11211
344.624	4718
344.710	5343
344.796	3433
344.882	3172
344.969	5100
345.055	5596
345.141	7098
345.227	9475
345.313	4425
345.399	4170
345.486	4013
345.572	6111
345.658	8752
345.744	4981
345.830	4778
345.916	5111
346.002	5867
346.088	13889
346.174	14139
346.260	5045
346.346	3417
346.432	5462
346.518	27056
346.604	31308
346.690	8341
346.776	4746
346.862	4786
346.948	3665
347.034	3947
347.120	3945
347.206	4200
347.292	4232
347.378	5275
347.464	24294
347.549	46015
347.635	42260
347.721	25938
347.807	5255
347.893	5707
347.979	8361
348.065	13215
348.150	5734
348.236	4011
348.322	2749
348.408	3268
348.493	6441
348.579	5304
348.665	2028
348.751	2329
348.836	2476
348.922	9862
349.008	42305
349.094	34678
349.179	4833
349.265	4549
349.351	4324
349.436	3582
349.522	8441
349.608	6805
349.693	16198
349.779	29692
349.864	9559
349.950	4969
350.036	3813
350.121	2547
350.207	1532
350.292	2719
350.378	4988
350.463	15374
350.549	6802
350.634	10409
350.720	6646
350.805	3107
350.891	2266
350.976	5399
351.062	10925
351.147	5809
351.233	4226
351.318	18390
351.404	16254
351.489	3464
351.574	3128
351.660	4166
351.745	2828
351.830	3000
351.916	3363
352.001	8479
352.086	25901
352.172	12275
352.257	3763
352.342	5323
352.428	7693
352.513	16732
352.598	46172
352.684	14810
352.769	5649
352.854	2658
352.939	6236
353.024	4974
353.110	4429
353.195	6992
353.280	12175
353.365	6539
353.450	5052
353.536	7333
353.621	12290
353.706	7127
353.791	5463
353.876	2788
353.961	4705
354.046	15061
354.131	18336
354.216	14863
354.302	4304
354.387	3542
354.472	4249
354.557	5062
354.642	8119
354.727	9131
354.812	4018
354.897	2952
354.982	2195
355.067	2885
355.152	1733
355.237	4595
355.321	8120
355.406	18379
355.491	26553
355.576	9440
355.661	13304
355.746	12545
355.831	34036
355.916	9135
356.001	3300
356.085	2561
356.170	3067
356.255	2537
356.340	4282
356.425	15281
356.509	59675
356.594	20115
356.679	4846
356.764	5620
356.849	10948
356.933	63324
357.018	87161
357.103	16091
357.187	9141
357.272	6131
357.357	11466
357.441	8503
357.526	6241
357.611	4169
357.695	4306
357.780	5732
357.865	6757
357.949	8244
358.034	52888
358.118	91856
358.203	17827
358.288	5193
358.372	8238
358.457	37018
358.541	52293
358.626	33900
358.710	28583
358.795	8971
358.879	10511
358.964	4782
359.048	1393
359.133	1877
359.217	2245
359.302	4547
359.386	4976
359.470	6212
359.555	7261
359.639	4934
359.724	2634
359.808	9677
359.892	8258
359.977	2674
360.061	1899
360.145	3452
360.230	6200
360.314	9158
360.398	7892
360.483	13613
360.567	15147
360.651	22297
360.735	10293
360.820	46110
360.904	46530
360.988	35329
361.072	10569
361.157	5255
361.241	5069
361.325	4582
361.409	5288
361.493	3597
361.577	2624
361.662	5609
361.746	17940
361.830	63143
361.914	30536
361.998	5917
362.082	10844
362.166	13830
362.250	9332
362.334	8164
362.418	7857
362.502	7004
362.586	3810
362.671	2990
362.754	1803
362.839	2315
362.922	4099
363.006	15918
363.090	65638
363.174	40276
363.258	9147
363.342	8757
363.426	23546
363.510	83486
363.594	28331
363.678	7024
363.762	11571
363.846	7884
363.929	4367
364.013	12283
364.097	13195
364.181	44369
364.265	74653
364.349	19631
364.432	18868
364.516	11044
364.600	16189
364.684	25086
364.767	57683
364.851	17000
364.935	14557
365.019	8850
365.102	12259
365.186	9640
365.270	51878
365.353	75026
365.437	27426
365.521	7465
365.604	3339
365.688	6746
365.771	24991
365.855	10301
365.939	9155
366.022	17677
366.106	5954
366.189	4713
366.273	3185
366.357	3128
366.440	1868
366.524	1587
366.607	1967
366.691	3900
366.774	5405
366.858	21952
366.941	12355
367.024	5762
367.108	21416
367.191	13838
367.275	2772
367.358	2104
367.442	2603
367.525	2411
367.608	4002
367.692	8371
367.775	7573
367.858	7001
367.942	32429
368.025	16715
368.108	5030
368.192	10087
368.275	12283
368.358	10051
368.442	32745
368.525	42745
368.608	16890
368.691	36726
368.775	23973
368.858	9814
368.941	25154
369.024	13270
369.107	3406
369.190	7255
369.274	4557
369.357	13090
369.440	13172
369.523	8189
369.606	3524
369.689	6148
369.772	4686
369.855	2959
369.939	3551
370.022	8139
370.105	9136
370.188	11624
370.271	12384
370.354	21579
370.437	27757
370.520	43590
370.603	18282
370.686	15549
370.769	27262
370.852	36444
370.935	39256
371.018	11872
371.100	2849
371.183	1931
371.266	2127
371.349	1197
371.432	2312
371.515	4939
371.598	8845
371.681	22822
371.763	14097
371.846	12084
371.929	74119
372.012	53618
372.095	16233
372.177	33480
372.260	33997
372.343	11605
372.426	38099
372.508	23831
372.591	6262
372.674	27075
372.757	35539
372.839	12381
372.922	49355
373.005	29910
373.087	6157
373.170	11287
373.253	29327
373.335	37647
373.418	82764
373.500	69659
373.583	25342
373.666	73426
373.748	31677
373.831	11164
373.913	8413
373.996	22830
374.078	66219
374.161	23341
374.243	22551
374.326	35959
374.408	13639
374.491	64399
374.573	67410
374.656	13934
374.738	34732
374.821	61036
374.903	85688
374.985	30813
375.068	6121
375.150	12579
375.233	69797
375.315	55305
375.397	12339
375.480	3637
375.562	3502
375.644	8289
375.727	36385
375.809	69962
375.891	53955
375.973	20691
376.056	31555
376.138	28641
376.220	7976
376.302	38063
376.385	35911
376.467	10574
376.549	12059
376.631	27781
376.713	37252
376.795	5208
376.878	2513
376.960	3132
377.042	6620
377.124	26705
377.206	7892
377.288	1341
377.370	1981
377.452	2063
377.534	2550
377.616	2683
377.699	1286
377.781	2255
377.863	3287
377.945	1485
378.027	1427
378.109	1871
378.190	2208
378.272	2033
378.354	1464
378.436	2303
378.518	19302
378.600	29354
378.682	15360
378.764	27131
378.846	11698
378.928	12579
379.010	7660
379.091	2066
379.173	2304
379.255	2998
379.337	4781
379.419	25049
379.501	28413
379.582	6998
379.664	5398
379.746	15730
379.828	30220
379.909	34019
379.991	11613
380.073	4575
380.155	4133
380.236	2016
380.318	3047
380.400	3489
380.481	10199
380.563	8060
380.645	9716
380.726	7314
380.808	4893
380.889	2583
380.971	2359
381.053	2547
381.134	4869
381.216	18248
381.297	24179
381.379	9770
381.460	19421
381.542	58196
381.623	18422
381.705	8412
381.786	11303
381.868	7758
381.949	42084
382.031	68012
382.112	23016
382.193	10741
382.275	9419
382.356	28024
382.438	36587
382.519	57748
382.600	39379
382.682	30840
382.763	57519
382.844	19545
382.926	10294
383.007	4102
383.088	5630
383.170	18750
383.251	17697
383.332	40530
383.413	43168
383.495	7252
383.576	7273
383.657	11033
383.738	18334
383.820	23446
383.901	13074
383.982	50262
384.063	61659
384.144	14071
384.225	6214
384.306	6080
384.388	3171
384.469	4972
384.550	7227
384.631	11443
384.712	5108
384.793	3456
384.874	7303
384.955	28573
385.036	14777
385.117	3989
385.198	8336
385.279	16170
385.360	11923
385.441	7136
385.522	25266
385.603	42388
385.684	13091
385.765	17367
385.846	16913
385.927	62290
386.008	33850
386.089	6090
386.169	5808
386.250	9815
386.331	6005
386.412	10563
386.493	27770
386.574	24416
386.654	13876
386.735	14122
386.816	17213
386.897	11523
386.977	6709
387.058	3760
387.139	11480
387.220	28877
387.300	16374
387.381	11004
387.462	21217
387.542	14808
387.623	5511
387.704	20504
387.784	54293
387.865	25288
387.946	5628
388.026	3756
388.107	15775
388.187	47520
388.268	37731
388.349	8698
388.429	5469
388.510	16663
388.590	50941
388.671	32022
388.751	18085
388.832	21426
388.912	6035
388.993	3643
389.073	2832
389.154	2451
389.234	3088
389.314	5869
389.395	4563
389.475	28016
389.556	22573
389.636	5548
389.716	9214
389.797	10110
389.877	21531
389.957	31661
390.038	22237
390.118	8634
390.198	19777
390.279	23671
390.359	14521
390.439	37466
390.519	11664
390.600	13762
390.680	4841
390.760	2723
390.840	1656
390.920	2819
391.001	2685
391.081	6770
391.161	3258
391.241	5533
391.321	16270
391.401	19862
391.481	5350
391.562	1456
391.642	4835
391.722	4186
391.802	5991
391.882	5268
391.962	23302
392.042	16235
392.122	13713
392.202	20064
392.282	22613
392.362	20558
392.442	22555
392.522	6790
392.602	7326
392.682	14507
392.762	27708
392.842	10657
392.921	37765
393.001	39499
393.081	9046
393.161	10201
393.241	45055
393.321	129107
393.401	45519
393.480	8867
393.560	4047
393.640	2868
393.720	1770
393.800	1155
393.879	1203
393.959	1985
394.039	2002
394.119	2124
394.198	3295
394.278	13142
394.358	44980
394.437	12653
394.517	2050
394.597	2404
394.676	16824
394.756	41954
394.836	46129
394.915	9833
394.995	2966
395.075	2780
395.154	1620
395.234	3361
395.313	1678
395.393	910
395.472	5707
395.552	38373
395.631	37865
395.711	28858
395.790	52819
395.870	10256
395.949	3452
396.029	18253
396.108	59874
396.188	28471
396.267	22714
396.346	19267
396.426	13971
396.505	4995
396.585	6241
396.664	10420
396.743	52528
396.823	95036
396.902	38749
396.981	7188
397.061	2794
397.140	1473
397.219	1216
397.298	3652
397.378	1773
397.457	1830
397.536	1566
397.615	102
397.694	3510
397.774	2139
397.853	1112
397.932	1506
398.011	4449
398.090	36066
398.169	46720
398.249	13696
398.328	4270
398.407	4280
398.486	3939
398.565	2746
398.644	241
398.723	1295
398.802	3542
398.881	33683
398.960	44956
399.039	6559
399.118	624
399.197	2313
399.276	2596
399.355	1108
399.434	1640
399.513	2506
399.592	1388
399.671	6413
399.750	25836
399.829	59559
399.908	14166
399.986	2026
400.065	402
400.144	911
400.223	5309
400.302	3531
400.380	5057
400.459	20623
400.538	11508
400.617	2715
400.696	4181
400.774	11260
400.853	25661
400.932	12498
401.011	3183
401.089	563
401.168	1521
401.247	4431
401.325	6332
401.404	4306
401.483	5114
401.561	5024
401.640	4523
401.718	7707
401.797	2613
401.876	672
401.954	809
402.033	2282
402.111	8222
402.190	4669
402.268	2575
402.347	11719
402.425	27186
402.504	6213
402.582	8436
402.661	4290
402.739	2337
402.818	1617
402.896	3495
402.974	20727
403.053	23615
403.131	6336
403.210	13301
403.288	15105
403.366	12809
403.445	9640
403.523	4723
403.601	2042
403.680	-722
403.758	562
403.836	442
403.915	757
403.993	1103
404.071	3322
404.149	479
404.228	381
404.306	1835
404.384	3141
404.462	17138
404.540	50770
404.618	10579
404.697	709
404.775	1128
404.853	606
404.931	-512
405.009	235
405.087	119
405.165	406
405.243	-176
405.321	1360
405.399	3598
405.478	8134
405.556	1852
405.634	932
405.712	3019
405.790	4081
405.868	1910
405.945	8375
406.023	5637
406.101	65
406.179	3647
406.257	20362
406.335	40252
406.413	14238
406.491	6924
406.569	1078
406.647	2401
406.724	2560
406.802	2175
406.880	2123
406.958	1799
407.036	7058
407.113	35234
407.191	12093
407.269	1302
407.347	1275
407.424	903
407.502	740
407.580	3698
407.658	6941
407.735	18318
407.813	18934
407.891	4812
407.968	2140
408.046	527
408.124	2002
408.201	8856
408.279	1491
408.356	499
408.434	2043
408.512	495
408.589	415
408.667	-401
408.744	-384
408.822	-337
408.899	229
408.977	1700
409.054	228
409.132	1278
409.209	4609
409.287	829
409.364	211
409.441	534
409.519	2717
409.596	255
409.674	171
409.751	741
409.828	2381
409.906	6120
409.983	1217
410.060	615
410.138	1246
410.215	312
410.292	523
410.370	646
410.447	5380
410.524	1810
410.601	241
410.678	1682
410.756	910
410.833	-321
410.910	5162
410.987	2411
411.064	5500
411.142	14275
411.219	10605
411.296	1908
411.373	1722
411.450	6486
411.527	4679
411.604	2657
411.681	199
411.758	2608
411.835	2653
411.913	521
411.990	1149
412.067	1786
412.144	4857
412.221	3851
412.298	10456
412.374	1774
412.451	1423
412.528	696
412.605	1135
412.682	6695
412.759	8200
412.836	1899
412.913	397
412.990	1160
413.067	4784
413.143	19977
413.220	8270
413.297	823
413.374	6436
413.451	2415
413.527	615
413.604	2040
413.681	3540
413.758	789
413.834	-293
413.911	460
413.988	75
414.065	141
414.141	1213
414.218	5834
414.295	19272
414.371	15368
414.448	959
414.524	332
414.601	447
414.678	646
414.754	880
414.831	-100
414.907	1977
414.984	3085
415.060	5306
415.137	1051
415.213	1167
415.290	1536
415.366	3442
415.443	2740
415.519	938
415.596	552
415.672	2535
415.749	1282
415.825	846
415.902	3529
415.978	1660
416.054	779
416.131	-420
416.207	-1398
416.283	976
416.360	1257
416.436	669
416.512	409
416.589	792
416.665	747
416.741	353
416.817	152
416.894	1517
416.970	864
417.046	3080
417.122	1925
417.198	1861
417.275	892
417.351	182
417.427	1432
417.503	1331
417.579	-112
417.655	1781
417.731	1257
417.808	-358
417.884	170
417.960	306
418.036	267
418.112	4778
418.188	1385
418.264	1332
418.340	828
418.416	829
418.492	3522
418.568	10323
418.644	8149
418.720	6965
418.796	3604
418.872	492
418.947	334
419.023	940
419.099	4063
419.175	-86
419.251	-150
419.327	-154
419.403	580
419.478	1299
419.554	659
419.630	260
419.706	1541
419.782	6715
419.857	7309
419.933	2318
420.009	2394
420.085	5737
420.160	14716
420.236	3806
420.312	3288
420.387	898
420.463	481
420.539	1224
420.614	37
420.690	625
420.766	-595
420.841	795
420.917	262
420.992	2282
421.068	-242
421.143	912
421.219	-879
421.294	681
421.370	22
421.445	3831
421.521	5269
421.596	2472
421.672	1027
421.747	523
421.823	280
421.898	2287
421.974	1113
422.049	807
422.124	1003
422.200	2439
422.275	2107
422.350	3923
422.426	5579
422.501	17275
422.576	76421
422.652	88884
422.727	23967
422.802	4887
422.878	2333
422.953	1232
423.028	-220
423.103	517
423.178	1026
423.254	2005
423.329	5040
423.404	203
423.479	3990
423.554	7061
423.630	1528
423.705	4316
423.780	2576
423.855	2477
423.930	22
424.005	407
424.080	-152
424.155	-661
424.230	-528
424.305	492
424.380	12
424.455	959
424.530	805
424.605	-30
424.680	503
424.755	1237
424.830	624
424.905	3790
424.980	14711
425.055	12036
425.130	2167
425.204	840
425.279	-269
425.354	795
425.429	-57
425.504	2104
425.579	2522
425.653	694
425.728	449
425.803	2018
425.878	1925
425.952	10869
426.027	13693
426.102	4782
426.177	3245
426.251	12133
426.326	2814
426.401	353
426.475	2222
426.550	2080
426.625	982
426.699	1025
426.774	1103
426.848	1490
426.923	1941
426.998	5931
427.072	24369
427.147	26858
427.221	6017
427.296	2542
427.370	10385
427.445	9051
427.519	2147
427.594	5193
427.668	2575
427.743	2532
427.817	2962
427.892	547
427.966	1558
428.040	2765
428.115	6405
428.189	17251
428.263	14919
428.338	3808
428.412	6193
428.486	12173
428.561	19058
428.635	15039
428.709	17949
428.784	12812
428.858	30244
428.932	14316
429.006	19797
429.080	16413
429.155	3027
429.229	1001
429.303	5580
429.377	9698
429.451	7597
429.526	19151
429.600	3896
429.674	1786
429.748	13248
429.822	41330
429.896	32092
429.970	46044
430.044	56186
430.118	20251
430.192	22048
430.266	8241
430.340	1210
430.414	4459
430.488	29583
430.562	39780
430.636	12067
430.710	33632
430.784	18125
430.858	2901
430.932	931
431.006	1330
431.080	540
431.153	884
431.227	1380
431.301	1434
431.375	14961
431.449	20325
431.523	4032
431.596	159
431.670	208
431.744	5238
431.818	15224
431.891	3098
431.965	347
432.039	2244
432.112	5298
432.186	1435
432.260	8
432.333	668
432.407	4891
432.481	25815
432.554	25139
432.628	5622
432.702	-143
432.775	-776
432.849	-700
432.922	1189
432.996	-811
433.069	-380
433.143	-282
433.216	731
433.290	-297
433.363	-187
433.437	597
433.510	-829
433.584	463
433.657	1679
433.730	1756
433.804	191
433.877	108
433.951	571
434.024	788
434.097	-530
434.171	-481
434.244	456
434.317	282
434.391	176
434.464	-364
434.537	1651
434.610	93
434.684	-229
434.757	-219
434.830	-1241
434.903	-623
434.977	-36
435.050	14
435.123	-59
435.196	2226
435.269	1855
435.342	81
435.415	-105
435.489	-451
435.562	-158
435.635	-603
435.708	55
435.781	-108
435.854	-239
435.927	-74
436.000	182
436.073	922
436.146	194
436.219	325
436.292	-694
436.365	-1280
436.438	41
436.511	-12
436.584	-600
436.657	-481
436.729	571
436.802	390
436.875	2084
436.948	1264
437.021	-360
437.094	66
437.166	46
437.239	-112
437.312	75
437.385	-304
437.457	661
437.530	3239
437.603	821
437.676	-175
437.748	147
437.821	8185
437.894	12333
437.966	1880
438.039	449
438.112	-280
438.184	2123
438.257	24312
438.330	31082
438.402	16174
438.475	4504
438.547	-85
438.620	125
438.692	330
438.765	1253
438.837	760
438.910	5532
438.982	4294
439.055	-206
439.127	-380
439.200	-520
439.272	1428
439.345	5437
439.417	8588
439.489	7539
439.562	153
439.634	459
439.707	-357
439.779	-790
439.851	369
439.923	1523
439.996	3079
440.068	1547
440.140	-853
440.213	-318
440.285	1744
440.357	17193
440.429	29949
440.502	6503
440.574	2611
440.646	4741
440.718	9432
440.790	11177
440.862	2148
440.935	-48
441.007	-226
441.079	88
441.151	-810
441.223	-120
441.295	-374
441.367	2252
441.439	13930
441.511	6601
441.583	3413
441.655	7427
441.727	3802
441.799	68
441.871	-1089
441.943	-803
442.015	-255
442.087	4268
442.159	3688
442.231	4311
442.303	1271
442.374	953
442.446	5043
442.518	10455
442.590	9067
442.662	19609
442.734	4740
442.805	495
442.877	-480
442.949	4089
443.021	2516
443.092	1004
443.164	511
443.236	1444
443.308	6149
443.379	10578
443.451	16854
443.523	10280
443.594	3719
443.666	2110
443.737	1165
443.809	783
443.881	-315
443.952	2800
444.024	2588
444.095	2387
444.167	2188
444.238	2273
444.310	3925
444.381	3729
444.453	-43
444.524	-332
444.596	-415
444.667	469
444.739	1352
444.810	7965
444.882	15161
444.953	5358
445.024	13050
445.096	6212
445.167	2297
445.238	12673
445.310	23125
445.381	21219
445.452	34349
445.524	18570
445.595	6275
445.666	19439
445.737	12868
445.809	2306
445.880	2198
445.951	4188
446.022	1680
446.094	2914
446.165	2776
446.236	1995
446.307	4024
446.378	1689
446.449	1254
446.520	7187
446.591	3933
446.663	504
446.734	753
446.805	3910
446.876	1329
446.947	267
447.018	2778
447.089	5894
447.160	686
447.231	-325
447.302	-394
447.373	214
447.444	3101
447.514	2129
447.585	668
447.656	71
447.727	-734
447.798	222
447.869	596
447.940	2624
448.010	4093
448.081	12016
448.152	4942
448.223	3199
448.294	870
448.364	770
448.435	459
448.506	507
448.577	-232
448.647	-260
448.718	-465
448.789	2122
448.859	5842
448.930	2187
449.001	-18
449.071	276
449.142	-416
449.213	1397
449.283	-145
449.354	739
449.424	2759
449.495	2529
449.565	6905
449.636	2113
449.706	300
449.777	-221
449.847	-362
449.918	-949
449.988	-604
450.059	2848
450.129	1110
450.200	-156
450.270	-440
450.340	1341
450.411	-230
450.481	-589
450.551	528
450.622	211
450.692	-47
450.762	858
450.833	835
450.903	324
450.973	-374
451.043	643
451.114	1104
451.184	10525
451.254	14323
451.324	1833
451.395	-257
451.465	174
451.535	-67
451.605	261
451.675	3811
451.745	20401
451.815	10124
451.885	470
451.956	52
452.026	-118
452.096	671
452.166	5822
452.236	19952
452.306	5043
452.376	608
452.446	1372
452.516	620
452.586	2753
452.656	13470
452.725	10724
452.795	4214
452.865	1880
452.935	656
453.005	1168
453.075	2150
453.145	3219
453.215	19311
453.284	23364
453.354	27443
453.424	47086
453.494	62179
453.564	59011
453.633	9757
453.703	1441
453.773	-80
453.843	771
453.895	169
453.912	-113
453.976	601
453.982	593
454.052	313
454.057	326
454.121	-72
454.139	310
454.191	1899
454.220	3523
454.261	4250
454.301	6759
454.330	5446
454.382	11529
454.400	14058
454.463	10006
454.469	9740
454.539	4703
454.544	4983
454.608	10292
454.625	13674
454.678	24376
454.707	32844
454.748	33202
454.788	43109
454.817	40742
454.869	23490
454.887	21198
454.950	12854
454.956	12865
455.026	23197
455.031	25142
455.095	26215
455.112	30081
455.165	30332
455.193	26686
455.234	29106
455.274	25891
455.303	24115
455.355	30794
455.373	27996
455.436	24831
455.442	23676
455.512	19784
455.517	17907
455.581	6597
455.598	5931
455.650	3838
455.679	3705
455.720	3547
455.760	3940
455.789	4526
455.841	5716
455.858	5354
455.922	4593
455.928	4624
455.997	4464
456.003	4524
456.066	10457
456.084	12775
456.136	26161
456.165	33932
456.205	35832
456.245	39620
456.274	28889
456.326	8147
456.343	7409
456.407	3919
456.412	3742
456.482	2853
456.488	2873
456.551	2694
456.569	2721
456.620	3233
456.650	3293
456.689	3190
456.730	3431
456.758	4187
456.811	5895
456.827	8862
456.892	21245
456.897	23579
456.966	61959
456.973	66665
457.035	106363
457.054	119752
457.104	56413
457.134	17845
457.173	13184
457.215	5830
457.242	5001
457.296	4552
457.311	4462
457.377	5163
457.380	5176
457.449	5939
457.457	6053
457.518	7746
457.538	8511
457.587	9251
457.619	9600
457.656	11383
457.699	13242
457.725	12052
457.780	10403
457.794	11122
457.861	14210
457.863	14224
457.932	16464
457.941	16953
458.001	17165
458.022	16965
458.070	11447
458.103	7877
458.138	8497
458.183	8709
458.207	8956
458.264	10285
458.276	11296
458.344	16942
458.345	17017
458.414	32436
458.425	35105
458.483	26718
458.506	23946
458.551	17036
458.586	9962
458.620	8851
458.667	7692
458.689	8769
458.747	12017
458.758	13208
458.826	21778
458.828	21950
458.895	13995
458.908	12661
458.964	12569
458.989	12222
459.033	13211
459.069	13992
459.101	14492
459.150	15602
459.170	16745
459.230	20138
459.239	19515
459.307	14135
459.311	13910
459.376	11488
459.391	10612
459.444	9663
459.471	9328
459.513	9231
459.552	9281
459.582	10573
459.632	12584
459.650	13860
459.713	18496
459.719	18633
459.787	20123
459.793	20266
459.856	12730
459.873	10523
459.924	10032
459.954	9445
459.993	11222
460.034	13396
460.061	16234
460.114	22056
460.130	20727
460.195	14473
460.198	14313
460.267	10632
460.275	10191
460.335	11903
460.355	12460
460.404	16920
460.436	19987
460.472	30540
460.516	43159
460.540	47485
460.596	57738
460.609	51289
460.676	17345
460.677	17407
460.745	17470
460.757	17412
460.814	14614
460.837	13925
460.882	15217
460.917	16545
460.950	17744
460.997	18836
461.019	16952
461.077	11416
461.087	11774
461.155	14685
461.158	14732
461.224	16002
461.238	16282
461.292	18578
461.318	19780
461.360	31042
461.398	40761
461.428	73964
461.478	129367
461.496	170241
461.558	308381
461.565	292450
461.633	112193
461.638	97208
461.701	44711
461.719	27169
461.769	26254
461.799	27700
461.837	22743
461.879	17798
461.905	19676
461.959	22809
461.973	29850
462.039	61496
462.042	65368
462.110	156780
462.119	168808
462.178	131647
462.199	118286
462.246	61813
462.279	19900
462.314	20620
462.359	20015
462.382	18097
462.439	15037
462.450	15075
462.518	15260
462.519	15202
462.586	18416
462.599	19033
462.654	34652
462.679	41615
462.722	70306
462.759	94731
462.790	75473
462.839	44586
462.858	38058
462.919	16110
462.926	16153
462.993	14184
462.999	14074
463.061	16455
463.078	17019
463.129	18638
463.158	19408
463.197	21479
463.238	23872
463.265	27902
463.318	35294
463.333	34797
463.398	31849
463.401	32007
463.468	33106
463.478	33040
463.536	49522
463.558	55365
463.604	81284
463.637	99584
463.672	135578
463.717	182910
463.739	235344
463.797	367805
463.807	340883
463.875	151758
463.877	146014
463.943	47780
463.957	25656
464.010	20783
464.036	18933
464.078	19789
464.116	21094
464.146	23885
464.196	28231
464.213	31434
464.275	42355
464.281	44913
464.349	74661
464.355	77238
464.416	44379
464.435	34057
464.484	30904
464.515	28363
464.551	30879
464.594	33584
464.619	30939
464.674	24756
464.686	26335
464.754	33807
464.754	34119
464.821	57717
464.833	61548
464.889	39358
464.913	29644
464.956	24180
464.992	19085
465.024	19704
465.072	20633
465.091	21658
465.152	24427
465.159	25857
465.226	38086
465.231	38777
465.294	63237
465.311	69543
465.361	108855
465.390	130886
465.429	209032
465.470	291502
465.496	237537
465.549	123359
465.563	106281
465.629	22458
465.631	22481
465.698	19323
465.708	18894
465.765	18681
465.788	18549
465.833	18231
465.867	17877
465.900	18620
465.947	19369
465.967	19577
466.026	19824
466.035	20001
466.102	20556
466.106	20480
466.169	20596
466.185	20470
466.236	22354
466.265	23273
466.304	27357
466.344	31309
466.371	39673
466.423	55682
466.438	74833
466.503	159116
466.505	167070
466.572	381903
466.582	411773
466.639	253363
466.662	189670
466.707	104586
466.741	37778
466.774	34238
466.820	28697
466.841	28600
466.900	28016
466.908	27847
466.975	25278
466.979	24991
467.042	28620
467.058	29365
467.109	33429
467.138	35441
467.176	36490
467.217	37191
467.243	42407
467.296	52285
467.310	54933
467.375	65596
467.377	65220
467.455	31946
467.534	36026
467.613	42909
467.692	57544
467.772	62105
467.851	66043
467.930	176849
468.009	479071
468.088	241379
468.167	27594
468.246	30543
468.326	32793
468.405	28152
468.484	34143
468.563	40598
468.642	41954
468.721	38146
468.800	39558
468.879	84031
468.958	180927
469.037	81376
469.116	30469
469.195	34434
469.274	27601
469.353	23103
469.432	28866
469.511	42601
469.590	54842
469.669	117219
469.748	140658
469.827	31996
469.905	27269
469.984	22496
470.063	24848
470.142	30060
470.221	27140
470.300	26611
470.378	27968
470.457	32623
470.536	51512
470.615	50423
470.694	48739
470.772	79262
470.851	146002
470.930	55687
471.008	21249
471.087	19526
471.166	20480
471.245	26484
471.323	33377
471.402	32685
471.480	21211
471.559	22914
471.638	22876
471.716	20930
471.795	22676
471.873	22371
471.952	29148
472.031	53639
472.109	92700
472.188	57135
472.266	21505
472.345	20599
472.423	19696
472.502	23532
472.580	35069
472.659	31594
472.737	30431
472.815	27520
472.894	44551
472.972	63915
473.051	28871
473.129	38975
473.207	54583
473.286	39605
473.364	35367
473.443	47449
473.521	76496
473.599	32779
473.677	21520
473.756	26183
473.834	26191
473.912	32825
473.991	63760
474.069	152767
474.147	178435
474.225	26771
474.303	23120
474.382	27472
474.460	28119
474.538	32497
474.616	41369
474.694	24476
474.772	19429
474.851	20650
474.929	21864
475.007	23718
475.085	23780
475.163	32136
475.241	52921
475.319	32806
475.397	31801
475.475	49803
475.553	129966
475.631	380567
475.709	399155
475.787	407576
475.865	50566
475.943	32771
476.021	46795
476.099	55209
476.177	39202
476.255	42231
476.333	39829
476.410	53027
476.488	65610
476.566	32601
476.644	32292
476.722	34137
476.800	41548
476.877	36566
476.955	34987
477.033	32588
477.111	32485
477.189	27964
477.266	28258
477.344	29754
477.422	33260
477.499	34408
477.577	42163
477.655	82774
477.732	51259
477.810	53911
477.888	44757
477.965	37678
478.043	43550
478.121	41827
478.198	64505
478.276	29106
478.353	26553
478.431	28731
478.508	39745
478.586	29560
478.664	28820
478.741	38070
478.819	48433
478.896	30503
478.974	41736
479.051	80919
479.128	78220
479.206	24286
479.283	24123
479.361	29850
479.438	57301
479.516	51908
479.593	47597
479.670	63105
479.748	73377
479.825	145448
479.902	48999
479.980	29964
480.057	30406
480.134	34206
480.211	45187
480.289	103487
480.366	229535
480.443	96179
480.520	39851
480.598	49533
480.675	65902
480.752	45994
480.829	34897
480.906	49342
480.984	56850
481.061	60506
481.138	36339
481.215	27671
481.292	28331
481.369	30584
481.446	31515
481.523	30353
481.600	33612
481.677	42729
481.754	67826
481.831	145771
481.908	206659
481.985	39097
482.062	32333
482.139	52744
482.216	71960
482.293	34958
482.370	42497
482.447	37393
482.524	34132
482.601	45868
482.678	25958
482.755	23687
482.832	25207
482.908	28351
482.985	39993
483.062	49141
483.139	32316
483.216	25350
483.293	28552
483.369	36992
483.446	63317
483.523	38415
483.600	33894
483.676	41341
483.753	60682
483.830	141625
483.906	452969
483.983	261987
484.060	40525
484.136	40929
484.213	43584
484.290	38505
484.366	29219
484.443	34813
484.519	41847
484.596	51945
484.673	92064
484.749	59248
484.826	32753
484.902	37161
484.979	55103
485.055	39504
485.132	33809
485.208	42531
485.285	63710
485.361	157058
485.437	424613
485.514	135005
485.590	41782
485.667	39469
485.743	65438
485.819	130236
485.896	48389
485.972	31052
486.049	32592
486.125	37931
486.201	62208
486.277	86376
486.354	61211
486.430	46879
486.506	51324
486.583	105193
486.659	279793
486.735	154911
486.811	260010
486.887	376070
486.964	312476
487.040	261267
487.116	106156
487.192	41923
487.268	58176
487.344	69860
487.420	73149
487.497	41838
487.573	69202
487.649	169926
487.725	102352
487.801	39366
487.877	55606
487.953	96200
488.029	99736
488.105	60743
488.181	62934
488.257	164634
488.333	553016
488.409	294263
488.485	51981
488.561	41775
488.637	43967
488.712	64745
488.788	81302
488.864	191877
488.940	480195
489.016	486378
489.092	74964
489.168	58310
489.243	40100
489.319	27791
489.395	27082
489.471	30876
489.547	34146
489.622	42238
489.698	73914
489.774	241273
489.849	512826
489.925	84534
490.001	34855
490.076	48643
490.152	88213
490.228	70433
490.303	32000
490.379	24830
490.455	22579
490.530	27028
490.606	33224
490.681	40630
490.757	49239
490.833	55013
490.908	67822
490.984	74763
491.059	61812
491.135	163226
491.210	432327
491.286	95058
491.361	60766
491.436	40861
491.512	43394
491.587	63760
491.663	127880
491.738	358027
491.814	414333
491.889	794102
491.964	317445
492.040	192719
492.115	40450
492.190	39630
492.266	52944
492.341	55943
492.416	62327
492.491	42755
492.567	49092
492.642	140614
492.717	135525
492.792	28446
492.868	28056
492.943	23784
493.018	25388
493.093	33226
493.168	67848
493.243	154714
493.318	59935
493.394	24703
493.469	26675
493.544	40258
493.619	97512
493.694	155060
493.769	77056
493.844	36905
493.919	30971
493.994	42257
494.069	27499
494.144	24079
494.219	21981
494.294	24281
494.369	22892
494.444	32666
494.519	38428
494.594	29773
494.669	40646
494.744	24842
494.818	25566
494.893	26082
494.968	22039
495.043	24347
495.118	28899
495.193	32693
495.267	44331
495.342	66275
495.417	90808
495.492	222449
495.566	885601
495.641	908629
495.716	84864
495.791	48144
495.865	38380
495.940	35468
496.015	35767
496.089	39041
496.164	36221
496.239	44787
496.313	72868
496.388	60718
496.462	82911
496.537	47000
496.612	53897
496.686	83671
496.761	59071
496.835	42392
496.910	40746
496.984	35164
497.059	46279
497.133	89942
497.208	70078
497.282	60055
497.357	141405
497.431	107175
497.505	55893
497.580	98290
497.654	199079
497.729	141813
497.803	136289
497.877	263104
497.952	973139
498.026	2835879
498.100	521104
498.175	141960
498.249	109643
498.323	76532
498.397	98779
498.472	59949
498.546	60757
498.620	81973
498.694	152359
498.768	317200
498.843	400984
498.917	1613824
498.991	1734775
499.065	101369
499.139	47474
499.213	56429
499.287	68546
499.362	67616
499.436	66593
499.510	117331
499.584	180528
499.658	207962
499.732	722314
499.806	2072749
499.880	362560
499.954	273048
500.028	167987
500.102	89826
500.176	62839
500.250	69134
500.324	108838
500.397	221231
500.471	494879
500.545	1403417
500.619	879391
500.693	77245
500.767	82610
500.841	105894
500.914	69829
500.988	98388
501.062	190036
501.136	349349
501.210	875720
501.283	1820497
501.357	354191
501.431	387635
501.505	361010
501.578	65640
501.652	84538
501.726	127898
501.799	350623
501.873	649679
501.947	104070
502.020	137472
502.094	462095
502.167	573449
502.241	161776
502.315	509144
502.388	509111
502.462	190045
502.535	58960
502.609	57466
502.682	46760
502.756	31366
502.829	34276
502.903	35001
502.976	43640
503.050	42403
503.123	46581
503.196	64959
503.270	98091
503.343	231360
503.417	927025
503.490	1202623
503.563	297596
503.637	323585
503.710	631836
503.783	288431
503.857	638270
503.930	166075
504.003	117220
504.076	68883
504.150	46748
504.223	75115
504.296	47165
504.369	42350
504.443	35688
504.516	25785
504.589	26558
504.662	42389
504.735	42424
504.808	77213
504.881	64310
504.954	36447
505.028	66218
505.101	81234
505.174	85754
505.247	39072
505.320	29899
505.393	23609
505.466	19747
505.539	22847
505.612	25009
505.685	27447
505.758	26695
505.831	25101
505.904	30720
505.977	40074
506.049	91167
506.122	69258
506.195	103866
506.268	407551
506.341	669919
506.414	100421
506.487	67103
506.559	33941
506.632	37787
506.705	72992
506.778	71825
506.851	32862
506.923	38801
506.996	88693
507.069	54473
507.141	30990
507.214	27616
507.287	51676
507.360	50868
507.432	23030
507.505	27451
507.577	19835
507.650	23578
507.723	43980
507.795	55754
507.868	24442
507.940	17731
508.013	19781
508.086	19206
508.158	31720
508.231	29462
508.303	24551
508.376	34052
508.448	28791
508.520	62417
508.593	69668
508.665	17255
508.738	18251
508.810	17417
508.883	23981
508.955	27648
509.027	16654
509.100	15779
509.172	15507
509.244	14256
509.317	16767
509.389	18669
509.461	21060
509.534	33877
509.606	30233
509.678	38442
509.750	43135
509.822	19325
509.895	16713
509.967	15804
510.039	15915
510.111	18890
510.183	24304
510.255	16876
510.328	17446
510.400	20863
510.472	18566
510.544	26569
510.616	49485
510.688	24068
510.760	31807
510.832	42160
510.904	43394
510.976	24464
511.048	20600
511.120	38192
511.192	112008
511.264	40498
511.336	13696
511.408	16260
511.480	16599
511.552	16301
511.624	17600
511.695	20711
511.767	31586
511.839	87151
511.911	188670
511.983	34041
512.055	27660
512.126	19839
512.198	29002
512.270	34698
512.342	42072
512.414	39139
512.485	26774
512.557	34839
512.629	32242
512.700	27340
512.772	54330
512.844	21834
512.915	16910
512.987	24800
513.059	26611
513.130	45575
513.202	90066
513.273	51410
513.345	19679
513.416	17469
513.488	22593
513.560	39675
513.631	44555
513.703	51383
513.774	164455
513.845	108534
513.917	20893
513.988	23161
514.060	33426
514.131	44759
514.203	25061
514.274	26534
514.345	71017
514.417	150284
514.488	35230
514.560	68174
514.631	99389
514.702	34653
514.773	20454
514.845	18751
514.916	26632
514.987	38505
515.059	96337
515.130	47126
515.201	23344
515.272	35608
515.343	15708
515.414	14325
515.486	13930
515.557	14846
515.628	13584
515.699	17870
515.770	22120
515.841	22608
515.912	20148
515.983	23739
516.055	49240
516.126	62575
516.197	29451
516.268	24555
516.339	34818
516.410	50282
516.481	78229
516.552	238777
516.622	468004
516.693	70260
516.764	81331
516.835	54493
516.906	63992
516.977	118765
517.048	184748
517.119	357634
517.190	401287
517.260	434788
517.331	40742
517.402	28474
517.473	28892
517.544	27547
517.614	27148
517.685	27767
517.756	31090
517.827	31287
517.897	33089
517.968	40579
518.039	50224
518.109	85043
518.180	289624
518.250	383041
518.321	52282
518.392	41531
518.462	69168
518.533	49950
518.603	48803
518.674	92670
518.745	170084
518.815	66900
518.886	56380
518.956	100921
519.027	191102
519.097	366529
519.168	638594
519.238	109921
519.309	75015
519.379	82459
519.449	44462
519.520	27789
519.590	23557
519.660	26652
519.731	33045
519.801	25263
519.871	27461
519.942	42903
520.012	45975
520.082	48692
520.153	33124
520.223	26040
520.293	31364
520.363	29139
520.434	54760
520.504	54861
520.574	39794
520.644	67751
520.714	89031
520.784	108955
520.855	399466
520.925	585081
520.995	57459
521.065	40244
521.135	34902
521.205	27842
521.275	24702
521.345	38554
521.415	46759
521.485	52786
521.555	37904
521.625	41925
521.695	32813
521.765	34363
521.835	64314
521.905	30975
521.975	28542
522.045	36425
522.115	72681
522.185	95561
522.254	190682
522.324	285975
522.394	125023
522.464	96912
522.534	270346
522.603	261844
522.673	38733
522.743	33847
522.813	40512
522.883	44318
522.952	35555
523.022	44454
523.092	98028
523.161	292304
523.231	65839
523.301	22233
523.370	22981
523.440	20936
523.509	17245
523.579	19489
523.649	24334
523.718	49659
523.788	23439
523.857	19332
523.927	24632
523.996	23564
524.066	24409
524.135	31093
524.205	21575
524.274	21247
524.344	21332
524.413	24697
524.483	38408
524.552	47364
524.621	39424
524.691	22283
524.760	20621
524.830	19747
524.899	31569
524.968	35343
525.038	40450
525.107	37340
525.176	21682
525.245	25362
525.315	21630
525.384	27910
525.453	44639
525.522	22049
525.591	21649
525.661	21761
525.730	20427
525.799	28420
525.868	46627
525.937	36282
526.006	65035
526.076	101004
526.145	63271
526.214	83677
526.283	85461
526.352	86613
526.421	197706
526.490	190690
526.559	119449
526.628	64131
526.697	110493
526.766	327306
526.835	697862
526.904	388994
526.973	63683
527.042	29435
527.110	24891
527.179	39632
527.248	22706
527.317	20079
527.386	18292
527.455	18531
527.523	15247
527.592	16283
527.661	15281
527.730	17634
527.799	19001
527.867	18958
527.936	25095
528.005	46133
528.074	66768
528.142	54377
528.211	128923
528.280	57939
528.348	21745
528.417	13905
528.485	14533
528.554	15287
528.623	14273
528.691	19451
528.760	22945
528.828	16724
528.897	13608
528.965	13393
529.034	13252
529.102	12163
529.171	14198
529.239	16339
529.308	17308
529.376	21229
529.445	40445
529.513	27202
529.581	59654
529.650	38654
529.718	44216
529.786	16883
529.855	19318
529.923	15474
529.992	17410
530.060	32380
530.128	35076
530.196	14148
530.265	11674
530.333	10917
530.401	12331
530.469	10804
530.537	13066
530.606	17487
530.674	13801
530.742	12041
530.810	13327
530.878	11651
530.946	14286
531.014	12300
531.083	14645
531.151	15231
531.219	15146
531.287	13793
531.355	12644
531.423	14396
531.491	16929
531.559	16860
531.627	13078
531.695	13438
531.763	14348
531.831	14193
531.898	14991
531.966	17492
532.034	19623
532.102	23546
532.170	35387
532.238	89537
532.306	146492
532.374	33792
532.441	32315
532.509	44045
532.577	92620
532.645	341401
532.712	283688
532.780	37582
532.848	18161
532.916	17030
532.983	16558
533.051	15694
533.119	17194
533.186	17791
533.254	13592
533.322	13481
533.389	13619
533.457	18130
533.524	30914
533.592	25383
533.659	17313
533.727	17618
533.794	26580
533.862	57763
533.930	49090
533.997	52151
534.064	16534
534.132	14202
534.199	15219
534.267	14628
534.334	14614
534.402	12772
534.469	11632
534.536	12307
534.604	14206
534.671	15917
534.738	25018
534.806	58591
534.873	30794
534.940	28850
535.008	30611
535.075	13006
535.142	13635
535.209	17962
535.276	12021
535.344	11472
535.411	11652
535.478	11495
535.545	12503
535.612	13128
535.679	12968
535.747	13482
535.814	14006
535.881	13375
535.948	15594
536.015	15489
536.082	15546
536.149	18205
536.216	22057
536.283	31589
536.350	54281
536.417	35380
536.484	31272
536.551	48376
536.618	68345
536.685	36701
536.752	40005
536.818	86501
536.885	101506
536.952	99102
537.019	266495
537.086	56274
537.153	16205
537.219	19609
537.286	14986
537.353	13275
537.420	13822
537.487	13945
537.553	15223
537.620	15925
537.687	13778
537.753	13723
537.820	17014
537.887	17881
537.953	23843
538.020	24307
538.087	30735
538.153	67967
538.220	98957
538.286	24026
538.353	16337
538.419	12961
538.486	12318
538.553	14268
538.619	14251
538.685	15996
538.752	25186
538.818	34004
538.885	29793
538.951	20675
539.018	22542
539.084	21147
539.150	32219
539.217	38476
539.283	17749
539.350	20125
539.416	25132
539.482	40303
539.549	117686
539.615	111704
539.681	20456
539.747	17677
539.814	18280
539.880	25966
539.946	28472
540.012	23487
540.078	24918
540.145	32050
540.211	58994
540.277	121051
540.343	66257
540.409	110321
540.475	128426
540.541	21214
540.607	16666
540.673	18118
540.740	24510
540.806	44772
540.872	42154
540.937	50700
541.004	34669
541.069	17428
541.135	19533
541.201	22843
541.267	29342
541.333	57900
541.399	83181
541.465	25587
541.531	15544
541.597	15084
541.663	15713
541.728	19069
541.794	18995
541.860	15039
541.926	15939
541.992	16681
542.057	20751
542.123	32134
542.189	49042
542.255	104478
542.320	61744
542.386	19644
542.452	19549
542.517	21120
542.583	18527
542.648	24590
542.714	36776
542.780	85833
542.845	165506
542.911	34587
542.976	14826
543.042	17023
543.107	18826
543.173	23403
543.238	29113
543.304	78732
543.369	47978
543.435	15368
543.500	15260
543.566	17165
543.631	11691
543.697	14919
543.762	12664
543.827	11400
543.893	11913
543.958	11792
544.023	11883
544.089	13357
544.154	13800
544.219	16152
544.284	23946
544.350	40477
544.415	39041
544.480	47827
544.545	135647
544.610	73063
544.676	20356
544.741	26132
544.806	23887
544.871	18241
544.936	19152
545.001	22065
545.066	23483
545.132	25545
545.197	29959
545.262	37951
545.327	44434
545.392	94994
545.457	102471
545.522	26250
545.587	20860
545.652	17365
545.717	18539
545.781	19295
545.846	20295
545.911	27787
545.976	24860
546.041	22384
546.106	27915
546.171	41291
546.236	31950
546.300	21189
546.365	18740
546.430	21910
546.495	24694
546.559	22241
546.624	17180
546.689	18186
546.754	18225
546.818	18207
546.883	21648
546.948	28178
547.012	31354
547.077	24412
547.142	31009
547.206	33391
547.271	46776
547.335	39322
547.400	23719
547.464	32235
547.529	44196
547.594	41767
547.658	56234
547.722	26388
547.787	21915
547.852	23812
547.916	29473
547.980	45965
548.045	61118
548.109	28062
548.174	19928
548.238	19047
548.302	18048
548.367	18909
548.431	20847
548.495	22296
548.560	26167
548.624	32895
548.688	49342
548.752	33301
548.817	33730
548.881	65535
548.945	35918
549.009	22528
549.073	20637
549.138	18914
549.202	19838
549.266	20588
549.330	20427
549.394	18800
549.458	20870
549.522	21659
549.586	29991
549.650	34581
549.715	23928
549.779	19639
549.843	22296
549.907	24088
549.971	27158
550.034	31826
550.098	25684
550.162	28312
550.226	45483
550.290	50827
550.354	24305
550.418	25718
550.482	26730
550.546	39386
550.609	28122
550.673	24371
550.737	25417
550.801	28044
550.865	30352
550.928	38610
550.992	50863
551.056	82399
551.120	178061
551.183	99998
551.247	91219
551.311	235330
551.374	98667
551.438	24130
551.502	22922
551.565	20234
551.629	21189
551.692	22409
551.756	20307
551.819	21323
551.883	19803
551.946	19829
552.010	19892
552.073	19095
552.137	19423
552.200	19752
552.264	19969
552.327	18867
552.391	19359
552.454	20619
552.517	21235
552.581	20169
552.644	23282
552.708	25467
552.771	24379
552.834	20525
552.897	25916
552.961	26459
553.024	19921
553.087	19731
553.151	21703
553.214	21118
553.277	20138
553.340	22160
553.403	28381
553.466	24236
553.530	18996
553.593	20088
553.656	20264
553.719	19762
553.782	20329
553.845	18370
553.908	16668
553.971	19160
554.034	18039
554.097	18666
554.160	20196
554.223	22067
554.286	20765
554.349	19670
554.412	18276
554.475	19477
554.538	23920
554.601	19367
554.664	17057
554.727	17007
554.789	16061
554.852	15456
554.915	16200
554.978	17777
555.041	15254
555.104	16188
555.166	18195
555.229	18106
555.292	17570
555.354	22605
555.417	18453
555.480	14942
555.542	14040
555.605	16760
555.668	17703
555.730	16512
555.793	16199
555.856	16228
555.918	17648
555.981	17231
556.043	17112
556.106	19887
556.168	23614
556.231	24387
556.293	23309
556.356	29810
556.418	60176
556.481	32104
556.543	17840
556.606	16496
556.668	20740
556.730	22320
556.793	31695
556.855	43628
556.918	20683
556.980	20169
557.042	23627
557.104	39312
557.167	67551
557.229	27581
557.291	17278
557.354	16744
557.416	19744
557.478	29285
557.540	19691
557.602	14685
557.664	14600
557.727	17672
557.789	19109
557.851	17249
557.913	17398
557.975	23602
558.037	36840
558.099	41918
558.161	22911
558.223	21290
558.285	23193
558.347	27512
558.409	36465
558.471	49333
558.533	98922
558.595	86494
558.657	65138
558.719	161177
558.781	173597
558.843	42843
558.905	43205
558.966	19957
559.028	20193
559.090	22389
559.152	27326
559.214	37455
559.275	77240
559.337	128391
559.399	32519
559.461	20494
559.522	23225
559.584	31646
559.646	52251
559.707	106693
559.769	69121
559.831	27782
559.892	28532
559.954	38965
560.015	52885
560.077	32779
560.139	49693
560.200	44939
560.262	20310
560.323	20242
560.385	19002
560.446	18942
560.508	18345
560.569	17086
560.631	16861
560.692	17091
560.753	18420
560.815	17174
560.876	17208
560.937	17885
560.999	18707
561.060	19812
561.122	20853
561.183	23471
561.244	27865
561.305	34552
561.367	51809
561.428	121189
561.489	72838
561.550	20906
561.612	18949
561.673	18577
561.734	18735
561.795	17482
561.856	17239
561.917	18576
561.978	16385
562.039	17736
562.101	18998
562.162	18801
562.223	21817
562.284	27403
562.345	37345
562.406	21576
562.467	18172
562.528	16924
562.589	17981
562.649	24633
562.710	17692
562.771	20538
562.832	23954
562.893	21949
562.954	20532
563.015	18403
563.076	17849
563.136	17681
563.197	17262
563.258	20377
563.319	19281
563.380	18245
563.440	22636
563.501	21346
563.562	20401
563.622	21085
563.683	20898
563.744	20863
563.804	18053
563.865	18109
563.926	19999
563.986	20261
564.047	22936
564.107	25461
564.168	29577
564.229	45083
564.289	89056
564.350	39355
564.410	18528
564.471	18025
564.531	17679
564.591	19504
564.652	22078
564.712	32959
564.773	29911
564.833	18513
564.893	16256
564.954	17391
565.014	16006
565.074	16166
565.135	16966
565.195	14035
565.255	17712
565.316	18038
565.376	20417
565.436	20854
565.496	17148
565.557	17385
565.617	19277
565.677	20250
565.737	29893
565.797	26421
565.857	19458
565.917	23752
565.978	27301
566.038	43988
566.098	74223
566.158	50557
566.218	25733
566.278	17692
566.338	16249
566.398	16510
566.458	16601
566.518	16507
566.578	17092
566.638	18852
566.698	18902
566.757	17560
566.817	17866
566.877	18732
566.937	21009
566.997	21852
567.057	17904
567.116	19624
567.176	23088
567.236	24733
567.296	22520
567.355	26196
567.415	46775
567.475	28842
567.535	15381
567.594	16231
567.654	16146
567.714	16983
567.773	19081
567.833	20398
567.892	23000
567.952	16005
568.012	15495
568.071	15256
568.131	16648
568.190	18036
568.250	16881
568.309	16690
568.369	15246
568.428	15437
568.488	18126
568.547	19641
568.607	18850
568.666	20814
568.725	25372
568.785	29312
568.844	34555
568.903	17332
568.963	15166
569.022	14786
569.081	13848
569.141	12624
569.200	13925
569.259	15246
569.318	13821
569.378	14850
569.437	12983
569.496	14535
569.555	13821
569.614	14948
569.673	18412
569.732	26696
569.792	16262
569.851	14521
569.910	14767
569.969	16596
570.028	20685
570.087	21446
570.146	27975
570.205	24910
570.264	23646
570.323	15379
570.382	16624
570.441	17452
570.500	18815
570.559	20538
570.618	20013
570.676	21175
570.735	19559
570.794	20020
570.853	18951
570.912	15831
570.971	14863
571.029	19907
571.088	22610
571.147	15671
571.206	17781
571.264	22352
571.323	20946
571.382	29241
571.440	22739
571.499	19151
571.558	19308
571.616	14418
571.675	14990
571.733	13450
571.792	12620
571.851	13766
571.909	17281
571.968	15122
572.026	12489
572.085	11323
572.143	10840
572.202	12354
572.260	11873
572.319	12196
572.377	11567
572.435	14822
572.494	14592
572.552	21544
572.611	24107
572.669	14422
572.727	11233
572.786	11503
572.844	11787
572.902	12547
572.960	13113
573.019	14192
573.077	12404
573.135	10980
573.193	10583
573.251	11696
573.310	12721
573.368	11624
573.426	11238
573.484	12091
573.542	12684
573.600	15206
573.658	13265
573.716	14789
573.774	18764
573.832	26449
573.891	19437
573.948	13156
574.006	13097
574.064	11188
574.122	10087
574.180	11052
574.238	12144
574.296	10671
574.354	9411
574.412	9171
574.470	9423
574.528	9480
574.585	10069
574.643	9957
574.701	9798
574.759	9528
574.817	9112
574.874	9194
574.932	9430
574.990	10775
575.047	11694
575.105	12242
575.163	13080
575.221	13482
575.278	9042
575.336	10435
575.393	9799
575.451	9449
575.509	11426
575.566	13032
575.624	10917
575.681	9893
575.739	11028
575.796	11313
575.854	11450
575.911	13552
575.969	15514
576.026	17847
576.083	22693
576.141	24306
576.198	22370
576.256	15379
576.313	13754
576.370	15264
576.428	17507
576.485	20994
576.542	19744
576.599	13065
576.657	12569
576.714	12219
576.771	11905
576.828	12213
576.886	12024
576.943	11903
577.000	12986
577.057	13792
577.114	15163
577.171	15794
577.228	18957
577.286	23617
577.343	18429
577.400	14376
577.457	11567
577.514	11228
577.571	11812
577.628	10534
577.685	9710
577.742	10792
577.799	10112
577.855	10902
577.912	10699
577.969	13891
578.026	11558
578.083	11616
578.140	10717
578.197	12534
578.254	13407
578.310	15378
578.367	18042
578.424	23260
578.481	26015
578.537	17714
578.594	11153
578.651	11043
578.707	10562
578.764	9243
578.821	9870
578.877	11681
578.934	10386
578.991	11814
579.047	10246
579.104	8810
579.160	9345
579.217	9333
579.273	9856
579.330	8969
579.387	8188
579.443	8932
579.499	9559
579.556	10105
579.612	11404
579.669	11523
579.725	9893
579.782	9426
579.838	9471
579.894	9474
579.951	10436
580.007	9894
580.063	12041
580.120	12603
580.176	12791
580.232	14346
580.288	18545
580.345	23196
580.401	16681
580.457	13873
580.513	12650
580.569	12284
580.619	11542
580.625	11481
580.682	11389
580.692	11395
580.738	11656
580.765	11096
580.794	10569
580.838	10948
580.850	11095
580.906	10228
580.911	10152
580.962	9761
580.984	9849
581.018	10045
581.057	11094
581.074	11620
581.130	11655
581.130	11690
581.186	10810
581.203	10747
581.242	10772
581.276	10601
581.298	10534
581.349	11181
581.354	11275
581.410	11284
581.422	11374
581.466	11883
581.494	11753
581.522	11698
581.567	11726
581.577	11776
581.633	9690
581.640	9584
581.689	9038
581.713	9464
581.745	10112
581.786	9863
581.801	9785
581.857	9267
581.859	9277
581.912	10101
581.932	9808
581.968	9320
582.004	9328
582.024	9353
582.077	9516
582.080	9551
582.135	10886
582.150	10584
582.191	9835
582.223	11107
582.247	12074
582.296	10828
582.302	10689
582.358	9825
582.368	9768
582.414	9744
582.441	9583
582.469	9372
582.514	9262
582.525	9273
582.581	9755
582.587	9693
582.636	9240
582.659	9002
582.692	8758
582.732	9656
582.747	10004
582.803	9947
582.805	9892
582.858	9159
582.877	9395
582.914	9731
582.950	9308
582.969	9130
583.023	9586
583.025	9628
583.080	10963
583.095	10838
583.135	10428
583.168	9852
583.191	9508
583.240	8904
583.246	8842
583.302	8982
583.313	9055
583.357	9407
583.385	9253
583.412	9157
583.458	8725
583.468	8637
583.523	9008
583.531	8979
583.578	8941
583.603	8908
583.634	8938
583.676	10245
583.689	10642
583.744	9686
583.748	9643
583.799	9383
583.820	9226
583.854	8997
583.893	8896
583.910	8781
583.965	9130
583.965	9127
584.020	10338
584.038	9887
584.075	8967
584.110	8671
584.130	8451
584.183	7938
584.185	7929
584.240	8350
584.255	8624
584.296	9329
584.328	9118
584.351	8950
584.400	9130
584.406	9152
584.461	8857
584.472	8839
584.516	8941
584.545	9019
584.571	8986
584.617	8776
584.626	8800
584.681	8947
584.689	8856
584.736	8314
584.762	8503
584.791	8743
584.834	8924
584.846	8890
584.900	9446
584.906	9384
584.955	9473
584.978	9735
585.010	9844
585.051	9285
585.065	9174
585.120	10034
585.123	10032
585.175	9873
585.195	10022
585.230	10450
585.267	11501
585.284	11831
585.339	11202
585.340	11200
585.394	11960
585.412	12685
585.449	14232
585.484	15455
585.503	16158
585.556	18229
585.558	18314
585.613	27916
585.628	29093
585.667	32931
585.700	23048
585.722	16548
585.772	14276
585.777	13842
585.831	11490
585.845	11099
585.886	11283
585.917	10693
585.941	10246
585.989	9921
585.995	9919
586.050	10821
586.061	11162
586.104	12474
586.133	12401
586.159	12402
586.205	12169
586.213	12106
586.268	13180
586.277	13367
586.322	14307
586.349	15167
586.377	16069
586.421	17607
586.431	17951
586.486	22462
586.493	24665
586.540	40034
586.565	32490
586.595	24656
586.637	18979
586.649	16139
586.703	13488
586.709	13225
586.758	11511
586.781	10527
586.812	10167
586.853	10345
586.866	10299
586.921	9873
586.925	9840
586.975	9903
586.996	9959
587.029	10041
587.068	10611
587.083	10794
587.138	10327
587.140	10328
587.192	10586
587.212	10872
587.246	11366
587.284	11489
587.300	11336
587.355	10558
587.356	10557
587.409	11314
587.427	11430
587.463	11480
587.499	11823
587.517	12002
587.571	11973
587.571	11972
587.625	12154
587.643	12385
587.679	12730
587.715	12366
587.733	12313
587.786	12296
587.787	12286
587.841	12085
587.858	12292
587.895	13275
587.930	13695
587.949	13772
588.001	12617
588.003	12579
588.057	13021
588.073	13192
588.111	13493
588.145	13732
588.165	13903
588.217	14246
588.219	14292
588.273	15869
588.288	16232
588.327	16832
588.360	17589
588.381	18423
588.431	20828
588.435	20970
588.489	24122
588.503	25264
588.542	28057
588.575	31164
588.596	33385
588.646	41461
588.650	42018
588.704	52809
588.718	56413
588.757	68237
588.789	81532
588.811	96128
588.861	162531
588.865	170509
588.919	240501
588.932	235718
588.972	218020
589.004	237257
589.026	183662
589.075	79501
589.080	76861
589.133	45424
589.147	37722
589.187	35125
589.218	34742
589.241	36488
589.290	41228
589.294	41656
589.348	48909
589.361	52022
589.401	64867
589.433	86225
589.455	110933
589.504	163229
589.508	170807
589.562	196353
589.576	211849
589.615	144649
589.647	100743
589.669	78260
589.718	27734
589.722	27326
589.776	22814
589.790	22286
589.829	24020
589.861	21471
589.883	20832
589.932	20710
589.936	20295
589.989	15863
590.004	14718
590.043	14294
590.075	13819
590.096	13577
590.146	13366
590.149	13361
590.203	13363
590.218	13328
590.256	13643
590.289	13564
590.309	13415
590.360	13519
590.362	13512
590.416	13346
590.431	13282
590.469	13288
590.503	13349
590.522	13448
590.574	13337
590.575	13323
590.629	12997
590.645	12886
590.682	12724
590.716	12628
590.735	12688
590.787	12750
590.788	12754
590.841	12829
590.859	12836
590.894	12823
590.930	12806
590.947	12737
591.000	12388
591.001	12385
591.053	12167
591.072	12102
591.106	12191
591.143	12259
591.159	12506
591.212	13195
591.214	13229
591.265	13970
591.285	14241
591.318	13784
591.356	12953
591.371	12991
591.424	13355
591.427	13379
591.477	12929
591.498	12733
591.530	12763
591.569	12818
591.583	12760
591.636	12562
591.640	12540
591.689	12521
591.711	12723
591.741	13385
591.782	13961
591.794	13957
591.847	13818
591.853	13825
591.900	12992
591.924	12629
591.953	12825
591.995	13129
592.005	13223
592.058	13777
592.066	13914
592.111	14870
592.137	15231
592.164	15524
592.208	16048
592.216	15795
592.269	14314
592.279	14028
592.322	13873
592.350	13773
592.374	13425
592.421	12753
592.427	12791
592.479	13136
592.491	13218
592.532	13146
592.562	13047
592.585	12921
592.633	12553
592.704	12095
592.775	13426
592.846	12959
592.916	12436
592.987	12613
593.058	12393
593.128	12816
593.199	12708
593.270	12074
593.341	12483
593.411	12136
593.482	11947
593.553	11489
593.623	13052
593.694	12666
593.764	13440
593.835	12230
593.906	12198
593.976	11740
594.047	11823
594.117	13802
594.188	14191
594.258	11659
594.329	11508
594.399	11839
594.470	11072
594.540	10958
594.611	11171
594.681	11835
594.751	11824
594.822	12748
594.892	12496
594.963	13141
595.033	12692
595.103	13793
595.174	13483
595.244	16906
595.314	19910
595.384	13961
595.455	13413
595.525	13871
595.595	13628
595.665	14053
595.736	13298
595.806	13839
595.876	13603
595.946	13193
596.016	12560
596.087	13153
596.157	13205
596.227	12446
596.297	13459
596.367	13882
596.437	15710
596.507	16654
596.577	19679
596.647	14594
596.717	13309
596.787	14075
596.857	13138
596.927	13533
596.997	13206
597.067	12992
597.137	13800
597.207	13219
597.277	12868
597.347	13698
597.417	13627
597.487	13446
597.557	14524
597.626	13683
597.696	14783
597.766	16777
597.836	19021
597.906	15258
597.975	12805
598.045	12630
598.115	12964
598.185	12971
598.254	14004
598.324	13805
598.394	13813
598.464	13871
598.533	13242
598.603	12275
598.672	12510
598.742	12922
598.812	12031
598.881	13669
598.951	13241
599.020	12021
599.090	13799
599.159	13279
599.229	12374
599.299	11796
599.368	12397
599.437	12046
599.507	11963
599.576	13054
599.646	12289
599.715	13521
599.785	13453
599.854	12422
599.924	13285
599.993	12942
600.062	12070
600.132	12103
600.201	12656
600.270	13029
600.340	12469
600.409	12646
600.478	12850
600.547	12093
600.617	13175
600.686	12269
600.755	11252
600.824	10348
600.894	11423
600.963	10957
601.032	10660
601.101	10666
601.170	10294
601.239	10411
601.308	10664
601.378	11090
601.447	10335
601.516	10616
601.585	10091
601.654	10575
601.723	10781
601.792	9978
601.861	9915
601.930	10543
601.999	9844
602.068	10121
602.137	9724
602.206	10028
602.275	10040
602.343	11182
602.412	11275
602.481	10038
602.550	10285
602.619	9824
602.688	10632
602.756	10458
602.825	10447
602.894	9805
602.963	10969
603.032	10753
603.100	10648
603.169	10155
603.238	11100
603.307	10656
603.375	10199
603.444	10207
603.513	10487
603.581	10235
603.650	10514
603.719	9911
603.787	9776
603.856	10203
603.924	10752
603.993	10703
604.061	10242
604.130	10014
604.198	10139
604.267	10444
604.335	9836
604.404	10426
604.472	10270
604.541	11305
604.609	10900
604.678	10771
604.746	10290
604.815	10713
604.883	9983
604.951	10972
605.020	10586
605.088	11013
605.156	11648
605.225	10857
605.293	10786
605.361	11436
605.429	10926
605.498	10476
605.566	11730
605.634	11553
605.702	12499
605.771	13069
605.839	11859
605.907	12422
605.975	11743
606.043	11342
606.111	12159
606.180	11866
606.248	11308
606.316	11546
606.384	11167
606.452	12939
606.520	12456
606.588	11941
606.656	11475
606.724	11182
606.792	10916
606.860	10055
606.928	9716
606.996	9617
607.064	8435
607.132	9338
607.200	9690
607.267	9232
607.335	9881
607.403	10324
607.471	10409
607.539	9298
607.607	9550
607.674	9096
607.742	9789
607.810	9504
607.878	9272
607.946	8800
608.013	9431
608.081	9577
608.149	9011
608.216	9403
608.284	9770
608.352	9105
608.419	9287
608.487	10888
608.555	10365
608.622	9259
608.690	9560
608.757	9534
608.825	9600
608.893	10935
608.960	11374
609.028	12034
609.095	12727
609.163	10090
609.230	9278
609.298	9111
609.365	8361
609.432	9378
609.500	10270
609.567	9940
609.635	11140
609.702	12023
609.769	11158
609.837	10331
609.904	8425
609.971	8401
610.039	8807
610.106	9285
610.173	10993
610.241	17384
610.308	12996
610.375	9548
610.442	7491
610.509	7493
610.577	8235
610.644	8297
610.711	8109
610.778	9621
610.845	9642
610.912	9233
610.980	9254
611.047	9634
611.114	8609
611.181	9450
611.248	8145
611.315	10078
611.382	9433
611.449	9334
611.516	9917
611.583	9695
611.650	9599
611.717	9664
611.784	9470
611.851	10152
611.918	10134
611.984	10916
612.051	13708
612.118	19503
612.185	32541
612.252	23105
612.319	11630
612.386	10285
612.452	11480
612.519	11013
612.586	13527
612.653	10945
612.719	10780
612.786	10162
612.853	9594
612.919	8846
612.986	9228
613.053	8855
613.120	8440
613.186	7550
613.253	8760
613.319	8316
613.386	8751
613.453	7919
613.519	8477
613.586	8304
613.652	10122
613.719	9054
613.785	8870
613.852	8375
613.918	7768
613.985	8444
614.051	8153
614.118	9728
614.184	8176
614.250	7904
614.317	8128
614.383	8007
614.449	8307
614.516	8362
614.582	7971
614.648	8817
614.715	8156
614.781	8301
614.847	9110
614.914	8846
614.980	9306
615.046	8352
615.112	7930
615.179	7916
615.245	8359
615.311	8656
615.377	8645
615.443	8155
615.509	8747
615.575	8393
615.642	8547
615.708	9378
615.774	9747
615.840	12052
615.906	12068
615.972	12927
616.038	15489
616.104	25047
616.170	41267
616.236	35157
616.302	15374
616.368	12211
616.434	11128
616.500	10781
616.565	11869
616.631	11235
616.697	11382
616.763	11993
616.829	12934
616.895	15301
616.961	14608
617.026	11473
617.092	9673
617.158	10324
617.224	10239
617.289	10844
617.355	10105
617.421	11015
617.487	11400
617.552	10272
617.618	9881
617.684	9469
617.749	11334
617.815	8795
617.880	8922
617.946	9434
618.012	9557
618.077	9878
618.143	9666
618.208	9987
618.274	9678
618.339	9990
618.405	9316
618.470	9412
618.536	10387
618.601	11561
618.667	10823
618.732	10248
618.798	9884
618.863	9849
618.928	9395
618.994	10536
619.059	11811
619.124	11314
619.190	10465
619.255	9993
619.320	10424
619.386	10265
619.451	7945
619.516	9435
619.581	8637
619.647	9723
619.712	9203
619.777	9413
619.842	9682
619.907	9299
619.972	9378
620.038	9678
620.103	9644
620.168	8272
620.233	9184
620.298	9173
620.363	8648
620.428	9651
620.493	8141
620.558	9364
620.623	9170
620.688	8957
620.753	9025
620.818	8463
620.883	9561
620.948	9788
621.013	8943
621.078	9931
621.143	8769
621.207	11345
621.272	9624
621.337	11541
621.402	11686
621.467	13425
621.532	14960
621.596	13221
621.661	11307
621.726	10410
621.791	10901
621.855	11108
621.920	11677
621.985	11429
622.049	12302
622.114	11993
622.179	11382
622.243	12544
622.308	12419
622.373	13316
622.437	13359
622.502	12199
622.566	11636
622.631	12229
622.695	13034
622.760	12345
622.824	11310
622.889	11476
622.953	12904
623.018	13272
623.082	13259
623.147	11031
623.211	11415
623.276	11642
623.340	11752
623.404	10807
623.469	11249
623.533	10747
623.597	10106
623.662	10789
623.726	9815
623.790	9881
623.854	9610
623.919	9607
623.983	9585
624.047	9915
624.111	10422
624.176	9554
624.240	10324
624.304	11153
624.368	10036
624.432	9573
624.496	10346
624.560	10466
624.625	9994
624.689	9954
624.753	9894
624.817	9795
624.881	8990
624.945	9272
625.009	9026
625.073	8883
625.137	9131
625.201	9404
625.265	9798
625.329	8623
625.393	8891
625.456	9320
625.520	9512
625.584	10552
625.648	10820
625.712	14586
625.776	23393
625.839	25694
625.903	14828
625.967	8453
626.031	13332
626.095	16507
626.158	10311
626.222	7602
626.286	7371
626.349	6943
626.413	6868
626.477	7708
626.540	7684
626.604	6957
626.668	7574
626.731	7001
626.795	7456
626.858	7825
626.922	7386
626.986	8112
627.049	6087
627.113	7183
627.176	6962
627.240	6701
627.303	6717
627.366	6385
627.430	6995
627.493	6760
627.557	7429
627.620	7047
627.684	6821
627.747	7667
627.810	6777
627.874	6108
627.937	6656
628.000	7278
628.064	6543
628.127	5980
628.190	6352
628.253	6506
628.317	6160
628.380	6143
628.443	5381
628.506	5748
628.569	5817
628.632	5457
628.696	6335
628.759	5266
628.822	5337
628.885	5626
628.948	5301
629.011	5353
629.074	4996
629.137	5153
629.200	4673
629.263	4692
629.326	4694
629.389	4842
629.452	5150
629.515	5781
629.578	4893
629.641	5922
629.704	5021
629.767	5148
629.830	4390
629.892	4251
629.955	4211
630.018	5407
630.081	4740
630.144	4962
630.207	3807
630.269	5488
630.332	5042
630.395	5177
630.458	4343
630.520	3327
630.583	4875
630.646	4563
630.708	4146
630.771	4164
630.834	4709
630.896	4076
630.959	3116
631.021	3589
631.084	3717
631.146	4654
631.209	4969
631.272	3413
631.334	4040
631.397	3490
631.459	3156
631.522	3988
631.584	4157
631.646	3527
631.709	3455
631.771	3747
631.834	4068
631.896	3518
631.958	3077
632.021	3999
632.083	3330
632.145	3540
632.208	3091
632.270	3761
632.332	2593
632.395	3281
632.457	3670
632.519	3661
632.581	3489
632.643	2783
632.706	3035
632.768	2968
632.830	3778
632.892	3327
632.954	3810
633.016	3652
633.078	3006
633.141	3035
633.203	3024
633.265	3718
633.327	3177
633.389	2854
633.451	3501
633.513	4348
633.575	2889
633.637	2468
633.698	3110
633.760	3203
633.822	2012
633.884	3627
633.946	3039
634.008	2392
634.070	2145
634.132	2776
634.193	3212
634.255	2533
634.317	2503
634.379	3585
634.441	2958
634.502	1800
634.564	2707
634.626	2327
634.687	2481
634.749	3171
634.811	3262
634.873	2470
634.934	3220
634.996	3060
635.057	2769
635.119	2465
635.181	2935
635.242	2576
635.304	1231
635.365	3519
635.427	2125
635.488	2470
635.550	2225
635.611	3271
635.673	1130
635.734	4252
635.796	2756
635.857	3512
635.918	1809
635.980	3224
636.041	2174
636.102	2309
636.164	2068
636.225	2856
636.286	1318
636.348	3221
636.409	2090
636.470	1240
636.531	2048
636.593	2328
636.654	2821
636.715	1853
636.776	2502
636.838	1498
636.899	2781
636.960	2125
637.021	2063
637.082	2018
637.143	2292
637.204	2049
637.265	1962
637.326	2993
637.387	2549
637.448	1887
637.509	2291
637.570	2991
637.631	2860
637.692	1814
637.753	1399
637.814	1707
637.875	2608
637.936	1727
637.997	1600
638.058	1498
638.119	2771
638.179	2374
638.240	1503
638.301	2900
638.362	1510
638.423	2282
638.483	2666
638.544	1481
638.605	1605
638.666	1474
638.726	2187
638.787	2762
638.848	1591
638.908	1787
638.969	2460
639.030	2058
639.090	1181
639.151	1368
639.211	2441
639.272	2257
639.332	2262
639.393	2417
639.453	1155
639.514	1749
639.574	1994
639.635	1792
639.695	2185
639.756	1466
639.816	2039
639.877	1124
639.937	3148
639.997	2929
640.058	1419
640.118	1518
640.178	1766
640.239	1393
640.299	967
640.359	1232
640.420	1263
640.480	1939
640.540	2266
640.600	1467
640.661	1881
640.721	621
640.781	2505
640.841	-34
640.901	2132
640.961	1984
641.021	1001
641.082	1433
641.142	1846
641.202	1618
641.262	559
641.322	2829
641.382	660
641.442	1617
641.502	1054
641.562	1761
641.622	1494
641.682	1841
641.742	1219
641.802	959
641.861	1541
641.921	965
641.981	2533
642.041	2134
642.101	1739
642.161	1488
642.221	1080
642.280	1358
642.340	468
642.400	1192
642.460	1253
642.519	934
642.579	1759
642.639	1160
642.698	-29
642.758	2611
642.818	840
642.877	602
642.937	1156
642.997	1250
643.056	2001
643.116	-170
643.175	1411
643.235	905
643.294	861
643.354	742
643.414	1015
643.473	2112
643.532	979
643.592	632
643.651	1047
643.711	4027
643.770	5090
643.830	8003
643.889	14498
643.948	5976
644.008	1352
644.067	745
644.126	149
644.186	176
644.245	1618
644.304	597
644.363	3036
644.423	179
644.482	1260
644.541	1425
644.600	-756
644.659	956
644.719	-39
644.778	1740
644.837	920
644.896	2302
644.955	3434
645.014	1341
645.073	1111
645.132	767
645.191	1172
645.250	763
645.309	1698
645.368	754
645.427	1030
645.486	823
645.545	1396
645.604	507
645.663	603
645.722	238
645.781	170
645.840	492
645.898	670
645.957	1455
646.016	771
646.075	1769
646.134	3867
646.192	7834
646.251	10063
646.310	2056
646.369	950
646.427	1020
646.486	354
646.545	227
646.603	1374
646.662	857
646.721	850
646.779	-544
646.838	-175
646.896	1016
646.955	305
647.014	977
647.072	240
647.131	2830
647.189	541
647.248	-76
647.306	940
647.365	324
647.423	-1111
647.481	1688
647.540	-903
647.598	700
647.657	409
647.715	846
647.773	805
647.832	476
647.890	-883
647.948	1024
648.007	2032
648.065	225
648.123	-95
648.181	1943
648.240	-6
648.298	407
648.356	575
648.414	1576
648.472	665
648.531	851
648.589	1439
648.647	530
648.705	736
648.763	-95
648.821	254
648.879	252
648.937	766
648.995	198
649.053	230
649.111	550
649.169	572
649.227	836
649.285	2147
649.343	5297
649.401	3596
649.459	1910
649.516	2308
649.574	-233
649.632	897
649.690	1163
649.748	1197
649.806	-831
649.863	878
649.921	1586
649.979	214
650.037	1017
650.094	-229
650.152	377
650.210	-28
650.268	5
650.325	395
650.383	369
650.440	219
650.498	1117
650.556	928
650.613	492
650.671	733
650.728	320
650.786	308
650.843	-400
650.901	-466
650.958	858
651.016	365
651.073	935
651.131	352
651.188	-282
651.246	352
651.303	-892
651.360	868
651.418	36
651.475	764
651.532	-795
651.590	975
651.647	-284
651.704	953
651.762	-211
651.819	668
651.876	-346
651.933	381
651.990	1137
652.048	-887
652.105	-240
652.162	875
652.219	-107
652.276	-40
652.333	848
652.390	-965
652.448	316
652.505	432
652.562	195
652.619	-15
652.676	53
652.733	525
652.790	812
652.847	-250
652.904	657
652.961	-685
653.017	531
653.074	719
653.131	148
653.188	-275
653.245	636
653.302	-474
653.359	-174
653.415	483
653.472	-343
653.529	-43
653.586	318
653.642	-45
653.699	1091
653.756	-153
653.813	-721
653.869	168
653.926	-754
653.983	-611
654.039	560
654.096	-480
654.152	1543
654.209	-588
654.266	996
654.322	333
654.379	918
654.435	619
654.492	-224
654.548	917
654.605	774
654.661	1032
654.717	486
654.774	388
654.830	193
654.887	-3
654.943	427
655.000	330
655.056	1107
655.112	112
655.168	506
655.225	307
655.281	619
655.337	91
655.394	1491
655.450	1753
655.506	1523
655.562	649
655.618	1751
655.675	-76
655.731	482
655.787	-68
655.843	502
655.899	-101
655.955	580
656.011	179
656.067	-685
656.123	674
656.179	12
656.235	311
656.291	-1041
656.347	904
656.403	-165
656.459	51
656.515	514
656.571	946
656.627	139
656.683	-71
656.739	889
656.795	929
656.850	-749
656.906	50
656.962	1156
657.018	374
657.074	-275
657.129	-106
657.185	829
657.241	516
657.297	327
657.352	575
657.408	146
657.464	1341
657.519	8
657.575	-779
657.630	213
657.686	293
657.742	-519
657.797	124
657.853	-113
657.908	1240
657.964	-642
658.019	501
658.075	-43
658.130	736
658.186	-386
658.241	756
658.297	-406
658.352	-365
658.407	130
658.463	-280
658.518	-300
658.573	679
658.629	-445
658.684	465
658.739	158
658.795	-524
658.850	-91
658.905	-388
658.960	481
659.016	-612
659.071	-289
659.126	128
659.181	-449
659.236	1397
659.291	1224
659.346	-135
659.401	386
659.457	1020
659.512	-373
659.567	638
659.622	61
659.677	97
659.732	-552
659.787	-334
659.842	242
659.897	304
659.952	230
660.007	790
660.061	157
660.116	-519
660.171	-532
660.226	126
660.281	1036
660.336	-1096
660.391	2
660.445	273
660.500	-85
660.555	703
660.610	-1170
660.664	209
660.719	-63
660.774	-149
660.828	40
660.883	449
660.938	841
660.992	-1028
661.047	-332
661.101	-253
661.156	367
661.211	-399
661.265	74
661.320	212
661.374	-313
661.429	516
661.483	462
661.538	-469
661.592	-105
661.647	-586
661.701	360
661.755	-220
661.810	-420
661.864	-429
661.919	-349
661.973	344
662.027	-762
662.081	-827
662.136	-117
662.190	47
662.244	66
662.299	41
662.353	904
662.407	86
662.461	-184
662.515	336
662.569	-499
662.624	1319
662.678	-779
662.732	159
662.786	364
662.840	721
662.894	988
662.948	336
663.002	-125
663.056	-456
663.110	-404
663.164	375
663.218	330
663.272	-1
663.326	254
663.380	-108
663.434	692
663.488	-401
663.542	-182
663.595	-185
663.649	-168
663.703	439
663.757	84
663.811	-92
663.864	486
663.918	673
663.972	224
664.026	341
664.079	-288
664.133	997
664.187	119
664.240	-115
664.294	201
664.348	805
664.401	595
664.455	-304
664.508	-164
664.562	309
664.615	-246
664.669	-710
664.722	391
664.776	-480
664.829	354
664.883	-518
664.936	24
664.990	-55
665.043	1104
665.097	818
665.150	1785
665.203	188
665.257	62
665.310	634
665.363	539
665.417	264
665.470	-391
665.523	-237
665.576	443
665.630	-240
665.683	504
665.736	445
665.789	1461
665.842	-487
665.895	491
665.949	297
666.002	207
666.055	538
666.108	955
666.161	-8
666.214	163
666.267	669
666.320	593
666.373	461
666.426	537
666.479	146
666.532	56
666.585	779
666.638	918
666.691	197
666.744	1198
666.796	362
666.849	486
666.902	527
666.955	-46
667.008	-348
667.060	175
667.113	-491
667.166	-15
667.219	494
667.271	439
667.324	274
667.377	-206
667.430	141
667.482	-26
667.535	1245
667.587	1165
667.640	920
667.693	278
667.745	161
667.798	1567
667.850	378
667.903	-22
667.955	-33
668.008	388
668.060	952
668.113	305
668.165	807
668.218	1187
668.270	1456
668.322	588
668.375	284
668.427	939
668.479	932
668.532	861
668.584	859
668.636	1387
668.689	984
668.741	-167
668.793	953
668.845	438
668.898	1229
668.950	728
669.002	1881
669.054	96
669.106	1257
669.158	645
669.211	157
669.263	1069
669.315	876
669.367	700
669.419	696
669.471	1638
669.523	302
669.575	522
669.627	291
669.679	802
669.731	123
669.783	830
669.835	510
669.886	921
669.938	-23
669.990	481
670.042	-257
670.094	296
670.146	478
670.197	-260
670.249	1220
670.301	359
670.353	402
670.404	869
670.456	-90
670.508	1070
670.560	1082
670.611	1521
670.663	2287
670.715	4993
670.766	7878
670.818	5465
670.869	922
670.921	166
670.972	189
671.024	19
671.075	-86
671.127	280
671.178	83
671.230	8
671.281	198
671.333	410
671.384	165
671.436	1536
671.487	2029
671.538	1234
671.590	886
671.641	699
671.692	1122
671.744	1732
671.795	2222
671.846	830
671.897	318
671.949	549
672.000	1140
672.051	331
672.102	1739
672.153	450
672.204	633
672.256	900
672.307	893
672.358	813
672.409	1483
672.460	994
672.511	476
672.562	1205
672.613	1352
672.664	752
672.715	553
672.766	501
672.817	163
672.868	791
672.919	788
672.970	619
673.021	1023
673.071	4
673.122	1211
673.173	906
673.224	-45
673.275	685
673.326	-253
673.376	588
673.427	-1166
673.478	343
673.528	1404
673.579	444
673.630	-364
673.680	805
673.731	-117
673.782	485
673.832	71
673.883	702
673.934	26
673.984	289
674.035	326
674.085	395
674.136	473
674.186	463
674.237	47
674.287	94
674.338	1386
674.388	369
674.438	-28
674.489	168
674.539	502
674.589	479
674.640	673
674.690	799
674.740	-30
674.791	756
674.841	432
674.891	632
674.942	695
674.992	556
675.042	-160
675.092	77
675.142	227
675.193	418
675.243	-63
675.293	474
675.343	123
675.393	-602
675.443	970
675.493	217
675.543	-515
675.593	103
675.643	80
675.693	418
675.743	222
675.793	-282
675.843	-840
675.893	-368
675.943	192
675.993	-271
676.043	-42
676.093	943
676.142	-243
676.192	-205
676.242	238
676.292	-161
676.341	447
676.391	-598
676.441	276
676.491	-324
676.540	293
676.590	-77
676.640	390
676.689	-166
676.739	-604
676.789	-358
676.838	-858
676.888	-547
676.937	-903
676.987	-127
677.037	-369
677.086	-264
677.136	-683
677.185	-1180
677.235	11
677.284	-680
677.333	-752
677.383	-751
677.432	-617
677.482	-665
677.531	-732
677.580	-608
677.630	-642
677.679	-752
677.728	-883
677.778	-572
677.827	-586
677.876	725
677.925	-865
677.975	-568
678.024	-572
678.073	-878
678.122	-167
678.171	-914
678.220	-197
678.269	-116
678.319	-78
678.368	-446
678.417	-135
678.466	499
678.515	420
678.564	-26
678.613	376
678.662	-716
678.711	980
678.760	-307
678.809	-242
678.857	-607
678.906	103
678.955	-273
679.004	514
679.053	-227
679.102	-944
679.151	-218
679.199	-102
679.248	-57
679.297	0
679.346	-94
679.394	-439
679.443	502
679.492	-240
679.540	-506
679.589	-99
679.638	-504
679.686	-404
679.735	63
679.784	-1543
679.832	374
679.881	-385
679.929	-8
679.978	-877
680.026	-208
680.075	-416
680.123	-1207
680.172	-436
680.220	-161
680.268	-374
680.317	-698
680.365	-843
680.414	-681
680.462	-577
680.510	121
680.559	-487
680.607	-16
680.655	-170
680.703	-577
680.752	-247
680.800	-659
680.848	-730
680.896	-281
680.945	-931
680.993	-694
681.041	-748
681.089	110
681.137	159
681.185	-275
681.233	-737
681.281	-378
681.308	-1085
681.329	-1685
681.377	-680
681.425	321
681.430	223
681.473	-1024
681.521	223
681.552	265
681.569	240
681.617	-682
681.665	384
681.674	419
681.713	398
681.761	514
681.796	-94
681.809	-357
681.857	144
681.904	-425
681.918	-210
681.952	248
682.000	476
682.039	534
682.048	525
682.096	-298
682.143	1082
682.161	946
682.191	610
682.239	728
682.283	860
682.286	849
682.334	984
682.382	30
682.405	465
682.430	859
682.477	1341
682.525	826
682.527	826
682.572	339
682.620	1146
682.648	1182
682.667	1175
682.715	1675
682.763	1755
682.770	1643
682.810	958
682.857	1529
682.892	1595
682.905	1585
682.952	2254
683.000	1043
683.014	1017
683.047	948
683.095	2161
683.135	1709
683.142	1604
683.190	1762
683.237	1128
683.257	1441
683.284	1861
683.332	1693
683.379	1946
683.379	1960
683.426	1680
683.473	1588
683.501	2075
683.521	2487
683.568	1757
683.615	2286
683.622	2237
683.662	1716
683.709	2005
683.744	2067
683.757	2140
683.804	1532
683.851	2142
683.865	2396
683.898	2839
683.945	2793
683.987	2468
683.992	2422
684.039	2889
684.086	2335
684.109	2672
684.133	3011
684.180	2843
684.227	2854
684.230	2850
684.274	2760
684.321	2801
684.352	2965
684.368	3002
684.415	2685
684.462	2571
684.473	2538
684.509	2506
684.556	2828
684.595	3449
684.603	3563
684.649	2783
684.696	3488
684.716	3502
684.743	3580
684.790	3602
684.837	3458
684.838	3470
684.883	3775
684.930	3694
684.959	4337
684.977	4789
685.023	4490
685.070	3852
685.081	4039
685.117	4353
685.164	4399
685.202	4427
685.210	4500
685.257	4638
685.303	5348
685.324	5333
685.350	5141
685.396	4647
685.443	5154
685.445	5129
685.490	4986
685.536	5087
685.566	5659
685.583	5912
685.629	4853
685.675	5112
685.688	5039
685.722	4827
685.768	4599
685.809	5171
685.815	5271
685.861	5677
685.908	5759
685.930	5713
685.954	5785
686.000	5727
686.047	6004
686.052	6034
686.093	6690
686.139	6789
686.173	7563
686.185	7631
686.232	7181
686.278	6474
686.294	6496
686.324	6473
686.370	5513
686.416	5403
686.416	5425
686.463	5281
686.509	6134
686.537	5695
686.555	5458
686.601	5835
686.647	5566
686.658	5579
686.693	5575
686.739	6030
686.779	5603
686.785	5575
686.831	5786
686.877	5754
686.900	5774
686.923	5812
686.969	5870
687.015	6433
687.022	6395
687.061	6236
687.107	6279
687.143	6080
687.153	6087
687.199	6415
687.245	5576
687.264	5685
687.291	5833
687.336	6013
687.382	6349
687.385	6314
687.428	6598
687.474	7074
687.506	7552
687.520	7483
687.565	6783
687.611	6020
687.627	5744
687.657	5754
687.702	5692
687.748	6663
687.748	6640
687.794	6919
687.839	6511
687.869	6878
687.885	6989
687.931	6525
687.976	5984
687.990	5847
688.022	5857
688.067	6073
688.111	6418
688.113	6459
688.158	6097
688.204	6594
688.233	6619
688.249	6615
688.295	6421
688.340	6707
688.354	6774
688.386	7321
688.431	7347
688.474	7561
688.477	7576
688.522	7302
688.567	7202
688.595	6768
688.613	6787
688.658	6896
688.703	7323
688.716	7313
688.749	7104
688.794	7654
688.837	6978
688.839	6995
688.884	7464
688.930	7256
688.958	7319
688.975	7295
689.020	7070
689.065	6828
689.079	6791
689.110	7218
689.155	7409
689.200	7653
689.201	7684
689.246	7743
689.291	6627
689.321	6330
689.336	6490
689.381	6923
689.426	7229
689.442	7168
689.471	6971
689.516	7352
689.561	7291
689.562	7246
689.606	6960
689.651	6779
689.683	6411
689.696	6440
689.741	7212
689.785	7286
689.804	7475
689.830	7743
689.875	7550
689.920	7653
689.925	7668
689.965	7818
690.010	7234
690.046	7075
690.054	7178
690.099	7548
690.144	7705
690.166	7620
690.189	7410
690.233	7284
690.278	7285
690.287	7135
690.323	7015
690.367	7483
690.408	7541
690.412	7587
690.457	7495
690.501	7889
690.528	7858
690.546	7901
690.590	7726
690.635	7584
690.649	7743
690.680	7932
690.724	7297
690.769	7165
690.770	7120
690.813	7722
690.857	7613
690.890	8033
690.902	8045
690.946	7700
690.991	7234
691.011	7197
691.035	7560
691.080	7843
691.124	8041
691.132	8144
691.168	8786
691.213	8444
691.252	8660
691.257	8759
691.301	8863
691.346	9193
691.373	9184
691.390	8963
691.434	8605
691.478	7899
691.493	7756
691.522	7839
691.567	7925
691.611	7705
691.614	7643
691.655	7950
691.699	8420
691.734	8539
691.743	8571
691.787	8589
691.831	8902
691.855	8821
691.875	8852
691.919	8958
691.964	9014
691.975	9042
692.008	9673
692.052	9843
692.096	10376
692.096	10318
692.139	10538
692.183	10062
692.216	9849
692.227	9884
692.271	9711
692.315	9724
692.337	9743
692.359	9942
692.403	9839
692.447	10058
692.457	9961
692.490	10046
692.534	10562
692.577	10620
692.578	10681
692.622	10670
692.666	10763
692.698	10673
692.709	10596
692.753	9938
692.797	9673
692.818	9401
692.840	9392
692.884	9322
692.928	9094
692.938	9008
692.971	9465
693.015	9917
693.059	10571
693.059	10511
693.102	10151
693.146	9821
693.179	9569
693.189	9692
693.233	9913
693.276	10155
693.299	10364
693.320	10631
693.363	10345
693.407	10682
693.420	10713
693.450	10858
693.493	10610
693.537	10564
693.540	10499
693.580	10497
693.624	10523
693.660	10246
693.667	10279
693.710	10219
693.753	10305
693.780	10261
693.797	10392
693.840	10368
693.883	10548
693.901	10427
693.926	10198
693.970	9885
694.013	9821
694.021	9758
694.056	9795
694.099	9214
694.141	8799
694.142	8873
694.185	9630
694.229	9928
694.261	10319
694.272	10450
694.315	10859
694.358	10819
694.381	10879
694.401	10959
694.444	10903
694.487	10729
694.501	10679
694.530	10629
694.573	10431
694.616	10058
694.621	9958
694.659	10255
694.702	10429
694.741	10621
694.745	10640
694.787	10071
694.830	9186
694.862	8702
694.873	8891
694.916	9373
694.959	9420
694.982	9680
695.002	9803
695.044	9541
695.087	9314
695.102	9233
695.130	9531
695.172	9869
695.215	10073
695.222	10054
695.258	10251
695.301	10410
695.342	10455
695.343	10525
695.386	10608
695.428	10649
695.462	10633
695.471	10591
695.514	10160
695.556	9570
695.582	9288
695.599	9464
695.641	9710
695.684	9765
695.701	9768
695.726	9791
695.769	9805
695.811	9631
695.821	9549
695.854	9724
695.896	9987
695.938	9962
695.941	9913
695.981	9915
696.023	9627
696.061	9478
696.065	9562
696.108	9692
696.150	9712
696.181	9807
696.192	9980
696.235	10206
696.277	10550
696.301	10625
696.319	10522
696.361	10247
696.404	9872
696.421	9651
696.446	9577
696.488	9466
696.530	9201
696.541	9088
696.572	9541
696.614	10091
696.656	10636
696.660	10606
696.698	10396
696.740	10178
696.780	9988
696.783	10039
696.825	9702
696.867	9439
696.900	9011
696.909	9075
696.951	9213
696.992	9410
697.020	9393
697.034	9425
697.076	9295
697.118	9361
697.139	9276
697.160	9477
697.202	9754
697.244	10052
697.259	10092
697.286	10178
697.327	10176
697.369	10193
697.379	10137
697.411	10050
697.453	9846
697.494	9541
697.499	9451
697.536	9908
697.578	10372
697.618	10780
697.620	10833
697.661	10247
697.703	9717
697.738	9207
697.744	9338
697.786	9859
697.828	10242
697.858	10487
697.869	10643
697.911	10907
697.952	11192
697.977	11295
697.994	11239
698.035	10877
698.077	10564
698.097	10328
698.118	10299
698.160	10111
698.201	9909
698.216	9768
698.243	10060
698.284	10444
698.325	10796
698.336	10812
698.367	10764
698.408	10615
698.449	10435
698.455	10342
698.491	9974
698.532	9419
698.573	8900
698.575	8816
698.614	9159
698.656	9443
698.694	9640
698.697	9715
698.738	9862
698.779	10014
698.814	10060
698.820	10164
698.862	10405
698.903	10653
698.933	10748
698.944	10921
698.985	11342
699.026	11747
699.053	11944
699.067	11889
699.172	10875
699.292	11510
699.411	10237
699.530	10376
699.650	12392
699.769	12739
699.889	10326
700.008	11504
700.127	9515
700.246	10498
700.366	9594
700.485	11872
700.604	10822
700.723	10022
700.843	11758
700.962	10806
701.081	10949
701.200	10709
701.319	8837
701.438	8487
701.557	8919
701.676	9888
701.796	9089
701.915	9059
702.034	8164
702.153	8122
702.272	9012
702.391	9973
702.509	8924
702.628	9295
702.747	8406
702.866	9185
702.985	7354
703.104	8892
703.223	7970
703.342	7679
703.460	8274
703.579	10069
703.698	10019
703.817	10604
703.935	18867
704.054	9795
704.173	7964
704.292	7890
704.410	7236
704.529	7829
704.648	6498
704.766	7450
704.885	7371
705.003	7526
705.122	9166
705.240	9062
705.359	11885
705.477	19956
705.596	17395
705.714	13597
705.833	11515
705.951	12846
706.070	14870
706.188	15408
706.307	14102
706.425	14925
706.543	15208
706.662	15161
706.780	14214
706.898	16924
707.016	16375
707.135	13716
707.253	12726
707.371	12135
707.489	12328
707.608	13415
707.726	11934
707.844	13988
707.962	12257
708.080	11833
708.198	11267
708.316	11529
708.434	11479
708.552	12184
708.670	13213
708.788	22556
708.906	21302
709.024	19044
709.142	15742
709.260	16484
709.378	17111
709.496	18029
709.614	17856
709.732	17201
709.850	16904
709.968	17091
710.085	16252
710.203	16742
710.321	16291
710.439	17467
710.556	16240
710.674	16552
710.792	15541
710.910	17283
711.027	18120
711.145	16202
711.263	15002
711.380	15904
711.498	15646
711.615	17468
711.733	15102
711.851	15167
711.968	14443
712.086	14296
712.203	14210
712.321	14699
712.438	17293
712.555	27598
712.673	27847
712.790	21981
712.908	20124
713.025	21784
713.142	25614
713.260	23192
713.377	21712
713.494	21832
713.612	21640
713.729	21468
713.846	23351
713.963	23635
714.081	20438
714.198	20169
714.315	19998
714.432	21546
714.549	19943
714.666	23297
714.783	47953
714.901	69983
715.018	21253
715.135	18199
715.252	17134
715.369	17507
715.486	16876
715.603	16644
715.720	17215
715.837	16913
715.953	19904
716.070	19265
716.187	17754
716.304	16739
716.421	17227
716.538	18280
716.655	16636
716.771	17479
716.888	15745
717.005	17345
717.122	14720
717.238	15720
717.355	14325
717.472	16013
717.589	13818
717.705	15221
717.822	15055
717.938	14025
718.055	14327
718.172	15497
718.288	13354
718.405	13078
718.521	12802
718.638	15297
718.754	18801
718.871	19854
718.987	20320
719.104	17615
719.220	13263
719.336	13087
719.453	11613
719.569	13494
719.685	13075
719.802	17268
719.918	14838
720.034	14992
720.151	19230
720.267	35699
720.383	17176
720.499	13666
720.616	15168
720.732	17611
720.848	26773
720.964	62974
721.080	31329
721.196	13278
721.312	12607
721.428	13961
721.544	14877
721.660	23633
721.776	14269
721.892	10746
722.008	12104
722.124	10778
722.240	10338
722.356	12114
722.472	10716
722.588	11144
722.704	10698
722.820	10790
722.936	10780
723.051	10781
723.167	11479
723.283	9720
723.399	10947
723.515	9297
723.630	10070
723.746	9922
723.862	10331
723.977	9707
724.093	10291
724.209	10025
724.324	11226
724.440	22694
724.555	37293
724.671	10298
724.786	9910
724.902	9529
725.017	10824
725.133	21407
725.248	32400
725.364	11443
725.479	10248
725.595	8384
725.710	8487
725.826	8651
725.941	8366
726.056	8777
726.172	8372
726.287	8438
726.402	7442
726.517	7126
726.633	8913
726.748	8683
726.863	7909
726.978	9086
727.093	7992
727.208	8931
727.324	7570
727.439	9347
727.554	8222
727.669	6442
727.784	7729
727.899	8010
728.014	7049
728.129	9947
728.244	7268
728.359	6792
728.474	6690
728.589	7203
728.704	6543
728.819	7311
728.934	6287
729.049	7221
729.163	7189
729.278	6526
729.393	5713
729.508	6342
729.622	6237
729.737	6411
729.852	5450
729.967	7688
730.081	7111
730.196	5791
730.311	5700
730.425	5913
730.540	5351
730.655	6521
730.769	6038
730.884	5556
730.998	4933
731.113	6544
731.227	5247
731.342	5748
731.456	5556
731.571	7541
731.685	6252
731.800	8598
731.914	8534
732.028	5498
732.143	5689
732.257	5659
732.371	4844
732.486	6910
732.600	13736
732.714	14158
732.829	4690
732.943	5913
733.057	5112
733.171	6764
733.285	5949
733.399	5324
733.514	4908
733.628	5011
733.742	4319
733.856	5082
733.970	5074
734.084	4473
734.198	4830
734.312	6367
734.426	10307
734.540	19043
734.654	4903
734.768	4436
734.882	5164
734.996	4710
735.109	4719
735.223	6549
735.337	4534
735.451	5188
735.565	4134
735.679	7155
735.792	15346
735.906	7955
736.020	4952
736.134	5349
736.247	5905
736.361	7999
736.475	12807
736.588	4851
736.702	5282
736.815	4496
736.929	3858
737.043	3976
737.156	3450
737.270	3236
737.383	4417
737.497	3678
737.610	2981
737.723	4242
737.837	2998
737.950	3886
738.064	3223
738.177	3902
738.290	3632
738.404	3964
738.517	3171
738.630	4354
738.744	3292
738.857	4176
738.970	4234
739.083	3863
739.197	2763
739.310	3150
739.423	2997
739.536	3387
739.649	2178
739.762	4085
739.875	2703
739.988	3087
740.102	3139
740.215	3832
740.328	3362
740.441	2878
740.553	2587
740.667	3867
740.779	2592
740.892	2790
741.005	2601
741.118	4413
741.231	3918
741.344	3040
741.457	2688
741.569	2812
741.682	2891
741.795	3045
741.908	2892
742.020	1973
742.133	1728
742.246	3493
742.358	2886
742.471	3626
742.584	2626
742.696	3220
742.809	2785
742.922	2734
743.034	1985
743.147	3174
743.259	2788
743.372	3230
743.484	2184
743.597	2986
743.709	2596
743.822	2582
743.934	2809
744.046	5129
744.159	5461
744.271	3240
744.383	2446
744.496	3651
744.608	3985
744.720	3036
744.832	2193
744.945	2843
745.057	2361
745.169	2685
745.281	1841
745.393	2663
745.506	1733
745.618	2638
745.730	1926
745.842	2148
745.954	1468
746.066	2781
746.178	2224
746.290	2231
746.402	2825
746.514	2250
746.626	1667
746.738	1914
746.850	2405
746.962	2525
747.074	2651
747.185	2169
747.297	1570
747.409	1961
747.521	2571
747.633	2437
747.744	1520
747.856	1709
747.968	1252
748.080	1820
748.191	1919
748.303	2458
748.414	1712
748.526	2126
748.638	1462
748.749	3014
748.861	3236
748.972	4943
749.084	3008
749.195	3338
749.307	2931
749.418	2679
749.530	5049
749.641	4599
749.753	1737
749.864	2657
749.975	2020
750.087	2184
750.198	951
750.310	1857
750.421	1587
750.532	1779
750.643	2532
750.755	1721
750.866	2082
750.977	3228
751.088	4704
751.199	5997
751.310	1808
751.422	2312
751.533	1160
751.644	1569
751.755	2154
751.866	1658
751.977	1981
752.088	2659
752.199	1484
752.310	2785
752.421	1349
752.532	1580
752.643	1494
752.753	2558
752.864	1965
752.975	1811
753.086	2069
753.197	2947
753.308	855
753.418	2737
753.529	1475
753.640	1318
753.751	760
753.861	1991
753.972	1417
754.083	1908
754.193	1754
754.304	1955
754.415	1834
754.525	994
754.636	1706
754.746	1621
754.857	1882
754.967	1465
755.078	2193
755.188	1566
755.299	2599
755.409	1336
755.520	1377
755.630	1733
755.740	1586
755.851	1731
755.961	1584
756.071	1376
756.182	1033
756.292	1459
756.402	1253
756.512	1913
756.623	2101
756.733	2025
756.843	1638
756.953	2675
757.063	635
757.173	1814
757.283	1500
757.393	1458
757.504	1364
757.614	1401
757.724	1046
757.834	2228
757.944	1719
758.053	2301
758.164	1342
758.273	2007
758.383	1655
758.493	2427
758.603	1294
758.713	2968
758.823	1685
758.932	1825
759.042	2498
759.152	2361
759.262	1813
759.372	2021
759.481	1616
759.591	1643
759.701	1379
759.810	3164
759.920	2062
760.029	2160
760.139	2834
760.249	1669
760.358	1230
760.468	2036
760.577	1176
760.687	2225
760.796	1526
760.906	2140
761.015	1519
761.124	1910
761.234	2104
761.343	2070
761.453	2026
761.562	2941
761.671	2166
761.781	2392
761.890	2277
761.999	1641
762.108	2438
762.218	2055
762.327	1661
762.436	2828
762.545	2322
762.654	1664
762.763	1868
762.872	2941
762.982	1605
763.091	3180
763.200	2182
763.309	1993
763.418	1680
763.527	3127
763.635	1044
763.744	2178
763.853	2362
763.962	2862
764.071	1950
764.180	2553
764.289	2128
764.398	2252
764.506	2292
764.615	2963
764.724	1614
764.833	3211
764.941	1201
765.050	2950
765.159	2354
765.268	2730
765.376	2867
765.485	4345
765.593	3979
765.702	3053
765.810	2530
765.919	4774
766.028	6287
766.136	10975
766.245	22631
766.353	66677
766.461	253842
766.570	244652
766.678	28882
766.787	10097
766.895	6977
767.003	5660
767.112	4876
767.220	4640
767.328	4724
767.437	4707
767.545	2963
767.653	3116
767.761	3065
767.870	3432
767.978	2917
768.086	2977
768.194	3271
768.302	3352
768.410	1798
768.518	3214
768.626	3075
768.734	3519
768.842	2841
768.950	3718
769.058	3381
769.166	2688
769.274	4065
769.382	5515
769.490	5549
769.598	10894
769.706	23940
769.813	89564
769.921	241103
770.029	64425
770.137	7936
770.245	5768
770.352	4083
770.460	3979
770.568	4477
770.675	3888
770.783	3559
770.891	2660
770.998	2605
771.106	3196
771.213	2719
771.321	3372
771.428	2828
771.536	3640
771.643	3289
771.751	2947
771.858	3215
771.966	3512
772.073	2721
772.181	3352
772.288	3117
772.395	3766
772.503	2724
772.610	3458
772.717	2996
772.825	2826
772.932	1831
773.039	2692
773.146	3012
773.253	3208
773.361	2339
773.468	3548
773.575	2711
773.682	3068
773.789	2492
773.896	2518
774.003	2979
774.110	3092
774.217	2871
774.324	3624
774.431	2408
774.538	2580
774.645	3119
774.752	2754
774.859	3066
774.966	3084
775.073	3194
775.179	4115
775.286	2815
775.393	2623
775.500	2272
775.607	3130
775.713	3091
775.820	2805
775.927	3547
776.033	3236
776.140	2604
776.247	3156
776.353	2497
776.460	3665
776.566	3201
776.673	3534
776.779	3026
776.886	2710
776.992	2609
777.099	3323
777.205	4136
777.312	3174
777.418	4386
777.524	4056
777.631	3479
777.737	2054
777.843	2911
777.950	3642
778.056	3004
778.162	2876
778.268	3301
778.375	3136
778.481	2821
778.587	3310
778.693	1975
778.799	2520
778.906	1833
779.012	2544
779.118	3211
779.224	3308
779.330	2921
779.436	2638
779.542	2542
779.648	2846
779.754	1919
779.860	3319
779.966	3611
780.071	5123
780.177	1763
780.283	2712
780.389	1350
780.495	2782
780.601	1995
780.706	2721
780.812	1885
780.918	2188
781.024	1815
781.129	2386
781.235	2179
781.341	1924
781.446	2249
781.552	1524
781.657	2061
781.763	2158
781.869	1874
781.974	3074
782.080	2241
782.185	2138
782.291	1383
782.396	2209
782.501	2488
782.607	1698
782.712	1671
782.818	3066
782.923	2341
783.028	3004
783.134	2089
783.239	3010
783.344	2754
783.449	2528
783.555	2521
783.660	2378
783.765	1505
783.870	1784
783.975	2053
784.080	2136
784.185	1488
784.291	2478
784.396	2327
784.501	2039
784.606	1815
784.711	2023
784.816	1302
784.921	1906
785.026	1664
785.130	1455
785.235	1713
785.340	2338
785.445	1825
785.550	1970
785.655	1816
785.760	1850
785.864	1699
785.969	2095
786.074	1703
786.178	1954
786.283	2059
786.388	1152
786.492	1986
786.597	1706
786.702	1983
786.806	1942
786.911	1881
787.015	2689
787.120	1645
787.224	2314
787.329	1657
787.433	1620
787.538	1387
787.642	3159
787.747	1444
787.851	1196
787.955	1080
788.060	1402
788.164	1661
788.268	1264
788.372	477
788.477	1950
788.581	1586
788.685	1568
788.789	1186
788.894	2028
788.998	2167
789.102	2281
789.206	1755
789.310	1301
789.414	987
789.518	1938
789.622	1566
789.726	1666
789.830	471
789.934	1195
790.038	1410
790.142	2234
790.246	1203
790.350	1827
790.454	1433
790.557	1477
790.661	1481
790.765	1498
790.869	1244
790.973	1486
791.076	1524
791.180	1783
791.284	827
791.388	2164
791.491	1031
791.595	1841
791.698	484
791.802	2240
791.906	1381
792.009	1718
792.113	1207
792.216	890
792.320	1550
792.423	1626
792.527	418
792.630	2362
792.733	1775
792.837	857
792.940	1790
793.043	1808
793.147	753
793.250	1580
793.353	1710
793.457	860
793.560	1449
793.663	1649
793.766	3080
793.869	1785
793.973	534
794.076	356
794.179	1344
794.282	1969
794.385	1909
794.488	2790
794.591	2078
794.694	3228
794.797	2670
794.900	2793
795.003	2833
795.106	1476
795.209	656
795.312	770
795.415	554
795.517	1519
795.620	1378
795.723	738
795.826	1315
795.929	238
796.031	1858
796.134	2773
796.237	1263
796.339	1423
796.442	969
796.545	1150
796.647	423
796.750	1569
796.852	557
796.955	1078
797.057	446
797.160	1138
797.262	67
797.365	1741
797.467	505
797.570	1186
797.672	950
797.775	2078
797.877	3816
797.979	4677
798.082	186
798.184	725
798.286	736
798.388	-145
798.491	743
798.593	840
798.695	254
798.797	1632
798.899	1004
799.001	533
799.104	-155
799.206	750
799.308	1581
799.410	1950
799.512	2243
799.614	2080
799.716	2725
799.818	2618
799.920	1345
800.021	2532
800.123	284
800.225	886
800.327	260
800.429	996
800.531	871
800.633	1484
800.734	1048
800.836	277
800.938	-759
801.039	450
801.141	-66
801.243	534
801.344	487
801.446	411
801.548	314
801.649	1394
801.751	53
801.852	772
801.954	691
802.055	1168
802.157	207
802.258	1158
802.360	128
802.461	3328
802.563	1986
802.664	1015
802.765	739
802.867	1827
802.968	-714
803.069	2065
803.170	-439
803.272	705
803.373	425
803.474	-478
803.575	-37
803.676	-186
803.777	466
803.879	-410
803.980	-34
804.081	425
804.182	-237
804.283	702
804.384	-735
804.485	568
804.586	940
804.687	1400
804.788	-356
804.888	-406
804.989	-139
805.090	958
805.191	-769
805.292	849
805.393	88
805.493	-224
805.594	-354
805.695	-358
805.796	1434
805.896	608
805.997	-544
806.098	-484
806.198	-258
806.299	514
806.399	-251
806.500	1417
806.601	18
806.701	1376
806.802	854
806.902	2164
807.002	568
807.103	583
807.203	51
807.304	-225
807.404	405
807.504	457
807.605	-510
807.705	586
807.805	833
807.906	305
808.006	104
808.106	587
808.206	552
808.306	439
808.406	352
808.507	1481
808.607	241
808.707	730
808.807	394
808.907	-164
809.007	307
809.107	495
809.207	204
809.307	460
809.407	-61
809.507	672
809.607	-344
809.706	833
809.806	-55
809.906	-10
810.006	262
810.106	466
810.205	346
810.305	-1049
810.405	1537
810.505	52
810.604	-389
810.704	-472
810.804	-38
810.903	721
811.003	-709
811.102	468
811.202	197
811.301	1492
811.401	-892
811.500	-58
811.600	908
811.699	561
811.799	-870
811.898	123
811.997	13
812.097	121
812.196	-467
812.295	158
812.395	-442
812.494	752
812.593	-345
812.692	-33
812.792	-612
812.891	-346
812.990	-180
813.089	321
813.188	49
813.287	649
813.386	666
813.485	-270
813.584	-1080
813.683	754
813.782	-1084
813.881	754
813.980	-704
814.079	-56
814.178	-144
814.277	356
814.376	-652
814.475	206
814.574	123
814.672	-126
814.771	-569
814.870	660
814.969	-304
815.067	344
815.166	-377
815.265	264
815.363	-455
815.462	640
815.560	11
815.659	1188
815.758	-357
815.856	-267
815.955	468
816.053	-819
816.152	466
816.250	-143
816.348	-372
816.447	467
816.545	42
816.644	1297
816.742	135
816.840	113
816.938	-735
817.037	1426
817.135	308
817.233	986
817.331	63
817.430	121
817.528	879
817.626	-560
817.724	591
817.822	-192
817.920	635
818.018	1253
818.116	1614
818.214	4959
818.312	14579
818.410	13266
818.508	2049
818.606	888
818.704	237
818.802	756
818.900	794
818.997	428
819.095	358
819.193	2256
819.291	4549
819.389	10936
819.486	32401
819.584	19404
819.682	2687
819.779	1182
819.877	1032
819.975	1128
820.072	-57
820.170	1103
820.267	840
820.365	629
820.462	168
820.560	299
820.657	-30
820.755	1016
820.852	331
820.949	642
821.047	532
821.144	-350
821.241	448
821.339	671
821.436	231
821.533	1295
821.631	1179
821.728	1158
821.825	-11
821.922	1344
822.019	4280
822.116	2894
822.214	251
822.311	756
822.408	-346
822.505	1083
822.602	-93
822.699	-504
822.796	57
822.893	-431
822.990	406
823.086	1015
823.183	-10
823.280	472
823.377	-178
823.474	594
823.571	-613
823.667	806
823.764	-330
823.861	-776
823.958	-756
824.054	874
824.151	764
824.248	-834
824.344	-71
824.441	17
824.537	-200
824.634	901
824.731	151
824.827	1025
824.924	-282
825.020	-37
825.116	28
825.213	453
825.309	-513
825.406	-243
825.502	-391
825.598	187
825.695	-65
825.791	69
825.887	-46
825.983	-50
826.080	-414
826.176	209
826.272	-288
826.368	567
826.464	-1233
826.560	398
826.656	-884
826.753	975
826.849	-872
826.945	1122
827.041	-1081
827.137	69
827.233	665
827.328	1010
827.424	134
827.520	908
827.616	-730
827.712	-319
827.808	260
827.904	-477
827.999	775
828.095	-256
828.191	-131
828.287	-8
828.382	-1108
828.478	798
828.574	-368
828.669	109
828.765	577
828.860	-231
828.956	-158
829.051	-499
829.147	-46
829.242	-488
829.338	-1359
829.433	1092
829.529	399
829.624	506
829.720	-1166
829.815	-114
829.910	-526
830.005	426
830.101	-376
830.196	219
830.291	-70
830.386	784
830.482	1382
830.577	1756
830.672	370
830.767	1656
830.862	-293
830.957	608
831.052	-469
831.147	1255
831.242	983
831.337	583
831.432	-1080
831.527	461
831.622	-281
831.717	-214
831.812	-482
831.907	118
832.002	438
832.097	-101
832.191	-788
832.286	602
832.381	-98
832.476	921
832.570	1231
832.665	6081
832.760	3708
832.854	475
832.949	-157
833.044	17
833.138	815
833.233	2003
833.327	1037
833.422	1745
833.516	-69
833.611	17
833.705	772
833.799	703
833.894	-93
833.988	1716
834.083	-736
834.177	182
834.271	-458
834.365	29
834.460	233
834.554	-662
834.648	-169
834.742	-238
834.836	955
834.931	229
835.025	550
835.119	950
835.213	78
835.307	877
835.401	-574
835.495	345
835.589	-124
835.683	247
835.777	-153
835.871	595
835.965	-20
836.059	869
836.152	1803
836.246	2808
836.340	4656
836.434	7204
836.528	1489
836.621	945
836.715	138
836.809	-42
836.902	655
836.996	77
837.090	-412
837.183	272
837.277	-455
837.370	1150
837.464	874
837.557	1014
837.651	3203
837.744	10314
837.838	6706
837.931	1798
838.025	2053
838.118	6163
838.211	15100
838.305	13163
838.398	1583
838.491	1360
838.584	2001
838.678	3972
838.771	7412
838.864	3802
838.957	460
839.050	1422
839.144	238
839.237	714
839.330	362
839.423	1387
839.516	1450
839.609	5110
839.702	6677
839.795	1791
839.888	238
839.981	236
840.073	-599
840.166	196
840.259	134
840.352	521
840.445	6
840.538	141
840.630	1040
840.723	610
840.816	786
840.909	1188
841.001	2470
841.094	5157
841.186	13360
841.279	8665
841.372	714
841.464	856
841.557	1092
841.649	2789
841.742	1782
841.834	988
841.927	42
842.019	176
842.111	1316
842.204	1377
842.296	2120
842.388	4743
842.481	6676
842.573	16220
842.665	22057
842.758	5109
842.850	-77
842.942	787
843.034	1904
843.126	3440
843.218	7356
843.310	14252
843.402	33451
843.495	69681
843.587	41339
843.679	6964
843.771	2486
843.862	6177
843.954	3669
844.046	1753
844.138	388
844.230	1214
844.322	526
844.414	1638
844.505	355
844.597	965
844.689	1430
844.781	1638
844.872	1367
844.964	2609
845.056	4135
845.147	3778
845.239	111
845.331	1391
845.422	-59
845.514	698
845.605	939
845.697	2366
845.788	195
845.880	1223
845.971	-601
846.063	978
846.154	633
846.245	232
846.337	421
846.428	1511
846.519	1665
846.610	2524
846.702	4326
846.793	7296
846.884	5268
846.975	200
847.066	701
847.158	936
847.249	336
847.340	1191
847.431	-567
847.522	1170
847.613	-252
847.704	798
847.795	711
847.886	351
847.977	-613
848.068	424
848.158	232
848.249	1472
848.340	243
848.431	811
848.522	179
848.612	500
848.703	-225
848.794	1132
848.885	-108
848.975	-41
849.066	579
849.157	871
849.247	26
849.338	1745
849.428	2029
849.519	4357
849.609	5315
849.700	10102
849.790	16701
849.881	7548
849.971	443
850.061	548
850.152	45
850.242	290
850.332	-381
850.423	122
850.513	-37
850.603	330
850.693	-64
850.784	580
850.874	1052
850.964	375
851.054	-259
851.144	542
851.234	313
851.324	1677
851.414	1792
851.505	1522
851.595	2210
851.684	3036
851.774	6920
851.864	4468
851.954	-403
852.044	786
852.134	-289
852.224	532
852.314	397
852.403	660
852.493	-297
852.583	822
852.673	-688
852.762	520
852.852	-442
852.942	698
853.031	-459
853.121	139
853.210	146
853.300	1419
853.389	-120
853.479	854
853.568	861
853.658	2635
853.747	3802
853.837	8027
853.926	18025
854.015	33857
854.105	59361
854.194	111400
854.283	47023
854.373	5550
854.462	1965
854.551	1622
854.640	2184
854.729	3818
854.819	3596
854.908	853
854.997	1447
855.086	158
855.175	-234
855.264	-207
855.353	469
855.442	1091
855.531	12
855.620	44
855.709	-236
855.798	1135
855.887	840
855.975	126
856.064	182
856.153	702
856.242	-572
856.331	-164
856.419	-27
856.508	20
856.597	546
856.685	572
856.774	-248
856.863	684
856.951	1227
857.040	615
857.128	-737
857.217	801
857.305	-749
857.394	544
857.482	-41
857.571	-288
857.659	757
857.747	954
857.836	14
857.924	-31
858.012	-1019
858.101	381
858.189	-46
858.277	185
858.365	-515
858.454	1309
858.542	68
858.630	550
858.718	-88
858.806	137
858.894	-127
858.982	492
859.070	701
859.158	823
859.246	-424
859.334	1496
859.422	640
859.510	1282
859.598	745
859.686	562
859.773	848
859.861	1099
859.949	411
860.037	-20
860.125	511
860.212	409
860.300	230
860.388	870
860.475	33
860.563	240
860.651	305
860.738	324
860.826	7
860.913	285
861.001	-158
861.088	809
861.176	1104
861.263	1058
861.350	-691
861.438	55
861.525	183
861.612	1137
861.700	1506
861.787	509
861.874	303
861.962	657
862.049	540
862.136	443
862.223	-188
862.310	250
862.397	40
862.484	561
862.572	243
862.659	926
862.746	175
862.833	507
862.920	942
863.007	709
863.094	-1191
863.180	751
863.267	-538
863.354	382
863.441	-59
863.528	279
863.615	241
863.701	1041
863.788	290
863.875	226
863.961	297
864.048	259
864.135	389
864.221	401
864.308	279
864.395	352
864.481	-243
864.568	241
864.654	-8
864.741	121
864.827	-176
864.914	303
865.000	358
865.086	646
865.173	-89
865.259	886
865.345	48
865.432	1188
865.518	875
865.604	1407
865.690	1585
865.776	4166
865.863	9090
865.949	18572
866.035	26765
866.121	53247
866.207	65914
866.293	18128
866.379	2714
866.465	913
866.551	1484
866.637	1411
866.723	-81
866.809	798
866.895	855
866.981	725
867.066	240
867.152	2767
867.238	2062
867.324	3892
867.409	5481
867.495	9104
867.581	2719
867.667	778
867.752	769
867.838	1764
867.923	1009
868.009	2340
868.094	2196
868.180	2840
868.266	5691
868.351	3466
868.436	1426
868.522	1712
868.607	3264
868.693	5113
868.778	11340
868.863	10579
868.949	1828
869.034	1131
869.119	1437
869.204	1463
869.290	350
869.375	-105
869.460	307
869.545	-350
869.630	341
869.715	1026
869.800	-249
869.885	488
869.970	-196
870.055	518
870.140	585
870.225	317
870.310	-14
870.395	508
870.480	-188
870.565	600
870.650	-84
870.734	68
870.819	-121
870.904	984
870.989	-192
871.073	660
871.158	-171
871.243	451
871.327	250
871.412	-883
871.496	-644
871.581	-350
871.665	-913
871.750	970
871.834	-102
871.919	184
872.003	-255
872.088	764
872.172	-164
872.257	212
872.341	-485
872.425	81
872.509	-848
872.594	255
872.678	-217
872.762	661
872.846	-216
872.930	48
873.015	-541
873.099	516
873.183	-296
873.267	1139
873.351	1217
873.435	1991
873.519	570
873.603	239
873.687	118
873.771	390
873.855	-1021
873.938	-1097
874.022	-1290
874.106	148
874.190	-693
874.274	-282
874.358	-1286
874.383	-998
874.441	-328
874.490	-373
874.525	-410
874.598	-206
874.609	-178
874.692	292
874.705	218
874.776	-201
874.813	15
874.859	272
874.920	419
874.943	462
875.027	-919
875.028	-901
875.110	161
875.135	113
875.194	-35
875.243	214
875.277	395
875.350	-287
875.361	-394
875.444	506
875.457	371
875.527	-285
875.565	252
875.611	858
875.672	265
875.694	77
875.778	330
875.780	337
875.861	313
875.887	428
875.944	668
875.994	362
876.027	198
876.101	729
876.111	788
876.194	273
876.209	449
876.277	1261
876.316	1374
876.360	1511
876.423	1118
876.443	974
876.526	898
876.530	921
876.610	1355
876.637	1053
876.693	481
876.745	327
876.776	141
876.852	386
876.859	419
876.942	306
876.959	194
877.025	-285
877.066	-104
877.108	112
877.173	631
877.190	762
877.273	703
877.280	631
877.356	-108
877.387	70
877.439	340
877.494	225
877.522	117
877.601	388
877.605	419
877.688	686
877.708	821
877.770	862
877.815	535
877.853	406
877.922	663
877.936	652
878.018	1222
878.029	1125
878.101	756
878.136	531
878.184	73
878.242	-169
878.266	-196
878.349	392
878.349	395
878.431	809
878.456	790
878.514	646
878.563	488
878.596	404
878.670	633
878.679	693
878.761	735
878.776	779
878.844	697
878.883	739
878.926	914
878.990	820
879.008	755
879.091	1021
879.097	989
879.173	813
879.203	1297
879.255	2072
879.310	1759
879.338	1682
879.417	1672
879.420	1643
879.502	1419
879.523	1389
879.584	1539
879.630	1192
879.667	896
879.736	595
879.749	545
879.831	1340
879.843	1277
879.913	826
879.949	955
879.995	1247
880.056	1122
880.077	1072
880.159	433
880.162	449
880.241	1037
880.269	1088
880.323	1236
880.375	1234
880.405	1242
880.482	1801
880.487	1837
880.569	2142
880.588	2115
880.651	2449
880.694	2755
880.733	2876
880.801	2520
880.815	2279
880.896	1943
880.907	1825
880.978	1567
881.013	1586
881.060	1767
881.120	1236
881.142	968
881.224	958
881.226	953
881.305	1313
881.332	1230
881.387	914
881.438	1163
881.469	1377
881.545	1229
881.550	1218
881.632	1403
881.651	1433
881.713	1619
881.757	1732
881.795	1700
881.863	1477
881.876	1494
881.958	1255
881.969	1383
882.039	2303
882.075	2538
882.121	2896
882.181	3013
882.202	2911
882.284	3048
882.287	3096
882.365	5732
882.393	5751
882.446	6573
882.499	7896
882.528	6772
882.605	4069
882.609	4021
882.690	2650
882.711	2155
882.771	1897
882.817	2110
882.853	1848
882.923	807
882.934	859
883.015	1632
883.029	1743
883.096	1370
883.135	1168
883.177	1316
883.241	1600
883.258	1630
883.339	1929
883.347	1853
883.420	1875
883.453	2312
883.501	2240
883.558	1643
883.583	1484
883.663	1488
883.664	1480
883.744	1755
883.770	1916
883.825	2647
883.876	2819
883.906	2706
883.981	2716
883.987	2655
884.068	1489
884.087	1298
884.149	1321
884.193	1114
884.230	1098
884.298	1432
884.310	1502
884.391	1593
884.404	1607
884.472	1842
884.510	1928
884.552	1646
884.615	1532
884.633	1740
884.714	2338
884.721	2385
884.794	2196
884.826	2014
884.875	2199
884.932	2497
884.956	2352
885.036	1948
885.037	1933
885.117	2175
885.143	2109
885.197	1898
885.248	2086
885.278	2163
885.354	1979
885.358	1994
885.439	2344
885.459	2382
885.519	2594
885.565	2742
885.599	2627
885.670	2281
885.680	2377
885.760	3295
885.775	3391
885.840	2440
885.881	2046
885.921	2649
885.986	3333
886.001	3374
886.081	3843
886.091	3845
886.161	3727
886.196	3705
886.241	3501
886.302	3205
886.322	3349
886.402	4050
886.407	4067
886.482	3668
886.512	3546
886.562	3844
886.617	4080
886.642	4298
886.722	4853
886.722	4839
886.802	6495
886.828	7072
886.882	6163
886.933	4989
886.962	4572
887.038	3703
887.042	3714
887.122	3649
887.143	3583
887.202	3922
887.248	4118
887.281	4208
887.353	4649
887.361	4646
887.441	4061
887.458	3955
887.521	3989
887.563	3955
887.601	4199
887.668	4743
887.680	4704
887.760	4108
887.773	4019
887.840	4375
887.878	4450
887.919	4040
887.983	3528
887.999	3611
888.079	3893
888.088	3911
888.158	3558
888.193	3298
888.238	3483
888.297	3787
888.317	3678
888.397	3179
888.402	3127
888.476	3975
888.507	4323
888.556	4050
888.612	3693
888.635	3833
888.715	4217
888.717	4209
888.794	3817
888.821	3647
888.873	4168
888.926	4670
888.953	4509
889.031	3961
889.032	3971
889.111	3602
889.135	3474
889.190	3460
889.240	3465
889.270	3764
889.345	4367
889.349	4367
889.428	4044
889.449	3940
889.507	4347
889.554	4640
889.586	4464
889.658	4011
889.665	4024
889.744	4011
889.763	3994
889.824	3947
889.867	3889
889.903	4159
889.972	4651
890.076	4048
890.181	3922
890.285	3841
890.390	4956
890.494	3760
890.599	4451
890.703	3953
890.807	3866
890.912	4676
891.016	4577
891.120	4331
891.224	3756
891.329	3662
891.433	4324
891.537	4646
891.641	4616
891.745	4294
891.849	4854
891.953	2945
892.058	4327
892.162	4399
892.266	4652
892.370	3897
892.474	3632
892.578	4584
892.682	4636
892.786	4612
892.889	5406
892.993	3823
893.097	3832
893.201	3913
893.305	4652
893.409	3741
893.512	4348
893.616	2743
893.720	3933
893.824	4530
893.927	4486
894.031	3862
894.135	3238
894.238	4763
894.342	3687
894.445	4027
894.549	5145
894.652	5688
894.756	5567
894.859	3922
894.963	3627
895.066	3904
895.170	3874
895.273	4331
895.377	4760
895.480	3879
895.583	5045
895.687	4087
895.790	3575
895.893	3695
895.997	4610
896.100	4098
896.203	3353
896.306	3361
896.409	4104
896.513	3701
896.616	3919
896.719	3621
896.822	4292
896.925	3353
897.028	4320
897.131	3967
897.234	3721
897.337	3521
897.440	3622
897.543	3842
897.646	4440
897.749	3459
897.852	4542
897.954	4911
898.057	3822
898.160	3606
898.263	2967
898.366	3401
898.468	3580
898.571	4409
898.674	4596
898.776	3448
898.879	5012
898.982	6573
899.084	8857
899.187	3916
899.290	3737
899.392	3309
899.495	3740
899.597	2575
899.700	3427
899.802	4777
899.904	5797
900.007	9705
900.109	11020
900.212	3821
900.314	3725
900.416	2966
900.519	3292
900.621	3579
900.723	3416
900.826	3388
900.928	3391
901.030	2898
901.132	3593
901.234	3249
901.336	5293
901.439	3614
901.541	2728
901.643	3720
901.745	4174
901.847	2788
901.949	3564
902.051	3791
902.153	3054
902.255	3494
902.357	4175
902.459	4244
902.560	4692
902.662	5622
902.764	9213
902.866	10938
902.968	4668
903.070	4168
903.171	3710
903.273	3036
903.375	3111
903.477	3666
903.578	3919
903.680	2935
903.781	3843
903.883	3869
903.985	3582
904.086	3304
904.188	4074
904.289	3417
904.391	3454
904.492	3866
904.594	4304
904.695	4482
904.796	4180
904.898	3239
904.999	3189
905.100	3766
905.202	4494
905.303	3599
905.404	3668
905.506	2614
905.607	2931
905.708	3108
905.809	3915
905.910	2948
906.012	3295
906.113	4256
906.214	4387
906.315	3639
906.416	3911
906.517	3539
906.618	3544
906.719	2808
906.820	3739
906.921	2704
907.022	2950
907.123	2833
907.224	2355
907.325	2852
907.425	3887
907.526	3404
907.627	2466
907.728	2372
907.828	3206
907.929	3734
908.030	3261
908.131	3337
908.231	3377
908.332	3817
908.433	3357
908.533	2618
908.634	3703
908.734	4876
908.835	6863
908.935	7775
909.036	8108
909.136	13526
909.237	9450
909.337	2826
909.438	3479
909.538	2880
909.638	3654
909.739	2921
909.839	2812
909.939	3457
910.040	3928
910.140	3562
910.240	3805
910.340	2549
910.440	3475
910.541	2776
910.641	3424
910.741	3089
910.841	3430
910.941	3601
911.041	3591
911.141	3084
911.241	4112
911.341	2711
911.441	3441
911.541	2362
911.641	3333
911.741	2948
911.841	3406
911.941	4478
912.040	4170
912.140	2389
912.240	3773
912.340	3814
912.440	4976
912.539	3551
912.639	2865
912.739	3177
912.838	3361
912.938	2808
913.038	2840
913.137	3345
913.237	2784
913.336	2318
913.436	2645
913.535	2666
913.635	3235
913.734	2528
913.834	2960
913.933	2675
914.033	2742
914.132	2419
914.231	2932
914.331	2227
914.430	3057
914.529	3628
914.629	2737
914.728	2598
914.827	3467
914.926	3009
915.025	2868
915.125	2259
915.224	2169
915.323	2932
915.422	2832
915.521	2374
915.620	3072
915.719	2610
915.818	2671
915.917	1773
916.016	1726
916.115	2070
916.214	2492
916.313	1485
916.412	2727
916.510	2025
916.609	2788
916.708	3488
916.807	5098
916.906	5099
917.004	2355
917.103	2810
917.202	2614
917.301	1784
917.399	3334
917.498	2344
917.596	2631
917.695	2645
917.794	2086
917.892	1840
917.991	3105
918.089	2967
918.188	2546
918.286	2313
918.384	2255
918.483	2367
918.581	1813
918.680	2389
918.778	3037
918.876	3047
918.975	3107
919.073	2489
919.171	3061
919.269	2398
919.368	2111
919.466	1947
919.564	2592
919.662	2482
919.760	2093
919.858	2277
919.956	2862
920.054	2625
920.153	2656
920.251	2397
920.349	3044
920.446	2630
920.544	2474
920.642	2359
920.740	3786
920.838	3412
920.936	2820
921.034	3460
921.132	3496
921.229	3012
921.327	3240
921.425	3345
921.523	3956
921.620	2568
921.718	2910
921.816	2563
921.913	3396
922.011	2903
922.109	3182
922.206	2898
922.304	3369
922.401	2927
922.499	3757
922.596	2538
922.694	2633
922.791	2395
922.888	3348
922.986	3616
923.083	3485
923.181	3862
923.278	4408
923.375	4600
923.473	4098
923.570	3765
923.667	3568
923.764	3192
923.861	2927
923.959	2779
924.056	4016
924.153	3919
924.250	3099
924.347	3628
924.444	3378
924.541	4125
924.638	5949
924.735	7229
924.832	4390
924.929	3880
925.026	3572
925.123	3227
925.220	3896
925.317	3906
925.414	3720
925.510	4343
925.607	3550
925.704	3839
925.801	4966
925.897	7102
925.994	5994
926.091	4795
926.187	4166
926.284	4670
926.381	5496
926.477	5244
926.574	4499
926.670	5482
926.767	6865
926.863	3937
926.960	4663
927.056	3405
927.153	3453
927.249	3179
927.346	3404
927.442	2608
927.538	3703
927.635	3709
927.731	3602
927.827	3041
927.924	3445
928.020	3152
928.116	2541
928.212	3021
928.308	4608
928.404	2770
928.501	3001
928.597	4658
928.693	4415
928.789	2872
928.885	3187
928.981	2560
929.077	3453
929.173	3406
929.269	3238
929.365	2390
929.461	2901
929.557	2833
929.652	3270
929.748	3063
929.844	3086
929.940	3478
930.036	2840
930.131	2688
930.227	2590
930.323	2954
930.419	3304
930.514	2625
930.610	3658
930.705	2234
930.801	3395
930.897	3445
930.992	3843
931.088	2307
931.183	3113
931.279	4157
931.374	4360
931.470	3863
931.565	3365
931.660	2375
931.756	2816
931.851	2288
931.946	2865
932.042	3506
932.137	3453
932.232	2614
932.327	2582
932.423	2982
932.518	3086
932.613	2333
932.708	3124
932.803	2152
932.898	2240
932.994	3309
933.089	2701
933.184	1866
933.279	2672
933.374	2230
933.469	3141
933.563	2884
933.658	3048
933.753	1941
933.848	2961
933.943	3079
934.038	2986
934.133	2404
934.227	2953
934.322	2573
934.417	3276
934.512	2635
934.606	3444
934.701	1699
934.796	2186
934.890	2530
934.985	4237
935.079	2647
935.174	3211
935.269	3464
935.363	2523
935.458	2583
935.552	2205
935.646	2178
935.741	1450
935.835	2744
935.930	2245
936.024	2905
936.118	2523
936.213	2613
936.307	3158
936.401	2587
936.496	2596
936.590	2484
936.684	2495
936.778	2085
936.872	2507
936.966	2196
937.060	2946
937.155	1835
937.249	3513
937.343	2879
937.437	3098
937.531	1882
937.625	2967
937.719	2099
937.813	1625
937.906	1857
938.000	2237
938.094	2823
938.188	3051
938.282	2754
938.376	2045
938.469	1804
938.563	2461
938.657	2482
938.751	6154
938.844	6159
938.938	3675
939.032	2441
939.125	3725
939.219	2818
939.312	5447
939.406	10337
939.500	5775
939.593	3837
939.686	2240
939.780	2447
939.873	1843
939.967	2506
940.060	3836
940.154	2706
940.247	3054
940.340	2247
940.434	3498
940.527	1987
940.620	1685
940.713	2467
940.806	2270
940.900	2824
940.993	2367
941.086	3195
941.179	3196
941.272	2965
941.365	2564
941.458	2758
941.551	5137
941.644	2940
941.737	2229
941.830	1740
941.923	1386
942.016	2420
942.109	2261
942.202	1609
942.295	1632
942.388	1069
942.480	2192
942.573	2051
942.666	2154
942.759	1605
942.851	1839
942.944	1995
943.037	3704
943.129	1805
943.222	2360
943.315	3096
943.407	2095
943.500	1820
943.592	1960
943.685	2978
943.777	2101
943.870	1735
943.962	2734
944.055	1719
944.147	1815
944.239	1665
944.332	1990
944.424	2352
944.516	2609
944.609	1485
944.701	1805
944.793	1935
944.885	1570
944.977	1621
945.070	1801
945.162	1060
945.254	2517
945.346	2982
945.438	3374
945.530	2684
945.622	2596
945.714	2473
945.806	2711
945.898	1735
945.990	2820
946.082	2742
946.174	2536
946.266	1939
946.358	2195
946.449	2241
946.541	2166
946.633	2683
946.725	3041
946.816	1260
946.908	1449
947.000	1794
947.091	1144
947.183	1680
947.275	1962
947.366	1309
947.458	1868
947.549	1783
947.641	2296
947.732	1747
947.824	2055
947.915	1123
948.007	1485
948.098	2173
948.190	1317
948.281	1623
948.372	2019
948.464	1697
948.555	2719
948.646	1442
948.737	1986
948.829	1816
948.920	1796
949.011	1473
949.102	1138
949.193	1677
949.284	1892
949.376	1459
949.467	1120
949.558	507
949.649	1975
949.740	811
949.831	1418
949.922	661
950.013	3076
950.104	1068
950.194	1118
950.285	1550
950.376	2336
950.467	2268
950.558	2852
950.649	5255
950.739	5871
950.830	4245
950.921	4396
951.011	4679
951.102	4054
951.193	4677
951.283	5435
951.374	3087
951.464	1987
951.555	1671
951.646	2484
951.736	1553
951.826	1331
951.917	1760
952.007	1285
952.098	1412
952.188	1815
952.279	1742
952.369	2422
952.459	1276
952.549	2356
952.640	1781
952.730	1927
952.820	497
952.910	1973
953.001	2176
953.091	2341
953.181	1245
953.271	1668
953.361	1245
953.451	2066
953.541	1198
953.631	1779
953.721	2124
953.811	1456
953.901	554
953.991	1412
954.081	953
954.171	1613
954.261	1323
954.350	2076
954.440	2931
954.530	4680
954.620	13059
954.710	16747
954.799	4031
954.889	1610
954.979	1835
955.068	2150
955.158	1506
955.248	1942
955.337	1662
955.427	1483
955.516	1878
955.606	2198
955.695	1286
955.785	1748
955.874	1455
955.964	1370
956.053	1027
956.142	737
956.232	1541
956.321	1931
956.410	1094
956.500	2085
956.589	979
956.678	2236
956.767	1327
956.856	1479
956.946	1670
957.035	2553
957.124	2334
957.213	1323
957.302	1164
957.391	625
957.480	1028
957.569	1890
957.658	1551
957.747	1886
957.836	931
957.925	1100
958.014	713
958.103	1486
958.192	1141
958.280	950
958.369	865
958.458	1668
958.547	954
958.635	854
958.724	2016
958.813	1404
958.901	2328
958.990	1574
959.079	1849
959.167	1937
959.256	1321
959.344	1783
959.433	453
959.521	2104
959.610	1464
959.698	2884
959.787	1983
959.875	6213
959.964	15959
960.052	21087
960.140	6133
960.228	2277
960.317	1917
960.405	1985
960.493	1780
960.581	1197
960.670	1230
960.758	1902
960.846	960
960.934	788
961.022	939
961.110	1981
961.198	1899
961.286	1364
961.374	1226
961.462	1083
961.550	1601
961.638	1239
961.726	799
961.814	1655
961.902	555
961.990	560
962.078	1332
962.165	1454
962.253	646
962.341	516
962.429	1021
962.516	1230
962.604	1129
962.692	1128
962.779	2029
962.867	1742
962.955	699
963.042	1503
963.130	1345
963.217	1697
963.305	1335
963.392	3224
963.480	3489
963.567	6717
963.654	10858
963.742	22730
963.829	59496
963.917	87943
964.004	29705
964.091	4795
964.178	1710
964.266	1960
964.353	1135
964.440	2546
964.527	2917
964.614	4441
964.701	9955
964.789	20015
964.876	11047
964.963	2568
965.050	887
965.137	1776
965.224	1664
965.311	2411
965.398	1682
965.485	1212
965.571	532
965.658	155
965.745	1619
965.832	1643
965.919	391
966.006	1287
966.092	1177
966.179	1801
966.266	1994
966.352	1090
966.439	1357
966.526	1558
966.612	1205
966.699	538
966.786	1126
966.872	1169
966.959	1650
967.045	835
967.132	2408
967.218	2654
967.304	4868
967.391	8850
967.477	19199
967.564	48579
967.650	55527
967.736	16077
967.822	2952
967.909	2158
967.995	1216
968.081	1494
968.167	571
968.254	1097
968.340	746
968.426	848
968.512	1589
968.598	1603
968.684	1576
968.770	3898
968.856	7524
968.942	13267
969.028	7225
969.114	1306
969.200	593
969.286	834
969.372	355
969.457	929
969.543	331
969.629	-150
969.715	641
969.801	1231
969.886	1039
969.972	960
970.058	1975
970.143	2119
970.229	3600
970.315	3715
970.400	6110
970.486	12943
970.571	32038
970.657	37887
970.742	10793
970.828	2433
970.913	889
970.999	480
971.084	658
971.169	267
971.255	1153
971.340	1118
971.425	1067
971.511	297
971.596	1428
971.681	2274
971.766	2833
971.852	5413
971.937	8252
972.022	6386
972.107	1384
972.192	1032
972.277	1049
972.362	319
972.447	959
972.532	2397
972.617	2764
972.702	5515
972.787	12616
972.872	25837
972.957	19989
973.042	4300
973.126	1129
973.211	1828
973.296	462
973.381	550
973.466	382
973.550	1607
973.635	1044
973.720	1419
973.804	1424
973.889	2883
973.973	3113
974.058	3164
974.143	2441
974.227	4671
974.312	11503
974.396	21090
974.481	14867
974.565	3564
974.649	1715
974.734	2277
974.818	1148
974.902	1170
974.987	782
975.071	15
975.155	182
975.240	1109
975.324	904
975.408	1879
975.492	1004
975.576	707
975.660	577
975.744	103
975.829	648
975.913	1126
975.997	638
976.081	-516
976.165	1217
976.249	259
976.333	920
976.416	1597
976.500	895
976.584	1186
976.668	690
976.752	1073
976.836	1927
976.919	2859
977.003	6932
977.087	11669
977.171	5407
977.254	1091
977.338	577
977.422	1085
977.505	294
977.589	769
977.672	131
977.756	891
977.839	825
977.923	1314
978.006	2459
978.090	3831
978.173	3414
978.257	9718
978.340	19560
978.423	22664
978.507	8345
978.590	2836
978.673	4521
978.756	11159
978.840	13787
978.923	6032
979.006	178
979.089	-307
979.172	1012
979.255	1116
979.338	477
979.422	1084
979.505	284
979.588	989
979.671	96
979.754	1003
979.836	606
979.919	1110
980.002	868
980.085	1075
980.168	165
980.251	1102
980.334	-171
980.416	824
980.499	-677
980.582	536
980.665	419
980.747	1093
980.830	869
980.912	1118
980.995	-112
981.078	1222
981.160	116
981.243	-280
981.325	732
981.408	888
981.490	832
981.573	297
981.655	-335
981.738	1172
981.820	805
981.902	1177
981.984	243
982.067	668
982.149	668
982.231	141
982.314	635
982.396	117
982.478	945
982.560	576
982.642	1091
982.724	385
982.807	273
982.888	415
982.971	342
983.053	880
983.135	2176
983.216	2906
983.298	4030
983.380	1563
983.462	607
983.544	1974
983.626	-360
983.708	612
983.790	369
983.871	835
983.953	189
984.035	666
984.117	737
984.198	1341
984.280	606
984.362	441
984.443	532
984.525	-72
984.606	541
984.688	-498
984.769	219
984.851	1641
984.932	561
985.014	618
985.095	86
985.177	487
985.258	-51
985.339	320
985.421	1083
985.502	149
985.583	-263
985.664	671
985.746	-651
985.827	-1135
985.908	498
985.989	1526
986.070	-284
986.151	646
986.232	803
986.313	626
986.395	568
986.476	828
986.557	657
986.637	760
986.718	-499
986.799	339
986.880	-125
986.961	1536
987.042	-71
987.123	1400
987.204	-22
987.284	-170
987.365	-51
987.446	372
987.526	874
987.607	404
987.688	591
987.768	29
987.849	669
987.930	452
988.010	659
988.091	862
988.171	1124
988.252	315
988.332	-117
988.413	274
988.493	463
988.573	164
988.654	-65
988.734	427
988.814	-212
988.895	1119
988.975	-68
989.055	-47
989.135	651
989.216	364
989.296	-220
989.376	71
989.456	547
989.536	111
989.616	1425
989.696	165
989.776	-134
989.856	601
989.936	-192
990.016	334
990.096	1109
990.176	282
990.256	-248
990.336	203
990.416	-403
990.495	786
990.575	894
990.655	432
990.735	-889
990.814	197
990.894	-230
990.974	736
991.053	-1205
991.133	-140
991.213	-527
991.292	609
991.372	-578
991.451	730
991.531	629
991.610	586
991.690	501
991.769	-56
991.849	-534
991.928	170
992.007	296
992.087	50
992.166	-33
992.245	-380
992.324	-9
992.404	-15
992.483	-763
992.562	871
992.641	704
992.720	1347
992.799	2104
992.879	1628
992.958	-115
993.037	-94
993.116	418
993.195	141
993.274	-346
993.353	-2
993.432	477
993.510	329
993.589	392
993.668	-591
993.747	482
993.826	220
993.904	737
993.983	-222
994.062	-295
994.141	896
994.219	-147
994.298	200
994.377	-303
994.455	-110
994.534	-603
994.612	762
994.691	-1084
994.769	2
994.848	16
994.926	-336
995.005	424
995.083	-762
995.161	-606
995.240	-489
995.318	-516
995.397	-430
995.475	-1301
995.553	200
995.631	-314
995.710	340
995.788	-635
995.866	-427
995.944	239
996.022	-313
996.100	-123
996.178	477
996.256	-1091
996.334	725
996.412	340
996.490	-19
996.568	-1366
996.646	156
996.724	-396
996.802	-286
996.880	-170
996.958	-119
997.036	-360
997.113	-1074
997.191	290
997.269	-464
997.346	-572
997.424	-557
997.502	69
997.579	135
997.657	-799
997.735	386
997.812	-258
997.890	-124
997.967	-316
998.045	436
998.122	-627
998.200	348
998.277	877
998.354	430
998.432	-971
998.509	308
998.586	-744
998.664	-177
998.741	-124
998.818	326
998.896	-379
998.973	42
999.050	-1324
999.127	143
999.204	-1219
999.281	-877
999.358	-812
999.435	541
999.512	-263
999.589	113
999.666	-132
999.743	320
999.820	655
999.897	1188
999.974	875
1000.051	481
1000.128	-813
1000.205	395
1000.281	1322
1000.358	1400
1000.435	666
1000.512	-428
1000.588	-748
1000.665	-922
1000.741	218
1000.818	-80
1000.895	-1509
1000.971	-905
1001.048	-507
1001.124	2
1001.201	484
1001.277	225
1001.354	-383
1001.430	-345
1001.507	450
1001.583	360
1001.659	-1241
1001.736	-986
1001.812	-257
1001.888	242
1001.964	-867
1002.041	-1077
1002.117	-755
1002.193	-16
1002.269	-122
1002.345	-358
1002.421	-928
1002.497	-1066
1002.573	-357
1002.649	-329
1002.725	-275
1002.801	339
1002.877	1131
1002.953	334
1003.029	-885
1003.105	-115
1003.181	245
1003.257	-631
1003.333	604
1003.408	848
1003.484	351
1003.560	665
1003.636	-1357
1003.711	-404
1003.787	-1553
1003.862	-711
1003.938	-919
1004.014	-381
1004.089	-48
1004.165	-494
1004.240	-7
1004.316	-329
1004.391	-1777
1004.467	-190
1004.542	-1054
1004.617	-393
1004.693	-470
1004.768	-482
1004.844	-527
1004.919	412
1004.994	-129
1005.069	293
1005.145	-168
1005.220	-729
1005.295	-575
1005.370	-149
1005.445	-1054
1005.520	104
1005.595	-489
1005.670	362
1005.745	-199
1005.820	1505
1005.895	1668
1005.970	-173
1006.045	-565
1006.120	-359
1006.195	-891
1006.270	-900
1006.345	-926
1006.419	-208
1006.494	-1536
1006.569	-842
1006.644	-905
1006.718	-936
1006.793	-790
1006.868	-1586
1006.942	-742
1007.017	-369
1007.092	-847
1007.166	-859
1007.241	-192
1007.315	-242
1007.390	-613
1007.464	38
1007.539	-2482
1007.613	-580
1007.687	522
1007.762	-63
1007.836	-1060
1007.910	-589
1007.984	-727
1008.059	-665
1008.133	-548
1008.207	-1560
1008.281	-653
1008.356	-1024
1008.430	-842
1008.504	-1611
1008.578	-1342
1008.652	-1239
1008.726	-1075
1008.800	-1535
1008.874	-349
1008.948	-675
1009.022	-1104
1009.096	-366
1009.170	-904
1009.244	-707
1009.317	-958
1009.391	-375
1009.465	-834
1009.539	-1739
1009.613	-1362
1009.686	-167
1009.760	-1625
1009.834	-593
1009.907	-944
1009.981	-1326
1010.054	-516
1010.128	-1342
1010.201	-986
1010.275	-681
1010.349	-1806
1010.422	-877
1010.495	-1476
1010.569	-24
1010.642	-1115
1010.716	659
1010.789	-1061
1010.862	187
1010.936	-536
1011.009	-123
1011.082	-415
1011.155	-1289
1011.229	-253
1011.302	-637
1011.375	-310
1011.448	223
1011.521	-79
1011.594	115
1011.667	-931
1011.740	-134
1011.813	-474
1011.886	-339
1011.959	-1406
1012.032	-543
1012.105	75
1012.178	-520
1012.251	-232
1012.324	-839
1012.396	-505
1012.469	-756
1012.542	-1147
1012.614	-282
1012.687	-1968
1012.760	-1125
1012.833	-1152
1012.905	-1380
1012.978	311
1013.050	-398
1013.123	-1240
1013.195	-571
1013.268	-900
1013.340	-805
1013.413	-811
1013.485	-766
1013.558	-1400
1013.630	-405
1013.702	-1384
1013.775	-704
1013.847	-1069
1013.919	-888
1013.992	-881
1014.064	118
1014.136	-930
1014.208	-1407
1014.280	-978
1014.353	-248
1014.425	-1376
1014.497	-1686
1014.569	-370
1014.641	-450
1014.713	-534
1014.785	-164
1014.857	-914
1014.929	-661
1015.001	-1850
1015.072	-728
1015.144	-1311
1015.216	-776
1015.288	-1746
1015.360	-872
1015.431	-1530
1015.503	-976
1015.575	-1281
1015.647	-1045
1015.718	-1110
1015.790	-568
1015.861	-1436
1015.933	-1508
1016.005	-997
1016.076	-628
1016.148	-1186
1016.219	-738
1016.291	-1094
1016.362	-614
1016.433	-1798
1016.505	-27
1016.576	-1250
1016.647	-826
1016.719	-1184
1016.790	-614
1016.861	-1088
1016.932	-399
1017.004	-1688
1017.075	-1538
1017.146	323
1017.217	-875
1017.288	-2112
1017.359	-1543
1017.430	-217
1017.502	-1104
1017.573	-973
1017.644	-672
1017.714	-910
1017.785	-781
1017.856	-978
1017.927	-772
1017.998	-1464
1018.069	-1069
1018.140	-1208
1018.210	-944
1018.281	-623
1018.352	-1640
1018.423	-1122
1018.493	-1447
1018.564	-908
1018.635	-856
1018.705	-1556
1018.776	-795
1018.846	-838
1018.917	-310
1018.987	-1884
1019.058	-836
1019.128	-1290
1019.199	-1453
1019.269	-1974
1019.340	-1576
1019.410	-1946
1019.480	-714
1019.551	-1529
1019.621	-585
1019.691	-1176
1019.761	-1516
1019.832	-488
1019.902	-1504
1019.972	-1418
1020.042	-196
1020.112	-1284
1020.182	-672
1020.252	-807
1020.322	-1415
1020.392	-1166
1020.462	-1324
1020.532	-1579
1020.602	-1390
1020.672	-1016
1020.742	-1405
1020.812	-598
1020.882	-1142
1020.952	-1481
1021.021	-1356
1021.091	-1191
1021.161	-1133
1021.230	-1826
1021.300	-895
1021.370	-1405
1021.440	-754
1021.509	-908
1021.579	-1056
1021.648	-324
1021.718	-710
1021.787	-1189
1021.857	-1639
1021.926	-872
1021.996	-895
1022.065	-1310
1022.134	-1032
1022.204	-1644
1022.273	-324
1022.342	-2002
1022.412	-778
1022.481	-684
1022.550	-578
1022.619	-983
1022.689	-658
1022.758	-1264
1022.827	-544
1022.896	-1522
1022.965	-906
1023.034	-1285
1023.103	-1075
1023.172	-1032
1023.241	-1292
1023.310	-1227
1023.379	-1037
1023.448	-1832
1023.517	-1440
1023.586	-1581
1023.654	-1736
1023.723	-849
1023.792	-1730
1023.861	-496
1023.929	-1266
1023.998	-1082
1024.067	-914
1024.135	-851
1024.204	-1074
1024.273	-1202
1024.341	-919
1024.410	-1196
1024.478	-382
1024.547	-1127
1024.615	-1119
1024.684	-1064
1024.752	-557
1024.820	-1134
1024.889	-365
1024.957	-1110
1025.026	-1057
1025.094	-704
1025.162	-1118
1025.230	-575
1025.299	-859
1025.367	-1204
1025.435	-1111
1025.503	-1586
1025.571	-948
1025.639	-1955
1025.707	-2010
1025.776	-2002
1025.844	-470
1025.912	-1434
1025.979	-1344
1026.047	-1148
1026.115	-1003
1026.183	-1232
1026.251	-968
1026.319	-1461
1026.387	-1511
1026.454	-1481
1026.522	-1019
1026.590	-821
1026.658	-480
1026.725	-1426
1026.793	-1627
1026.861	-1280
1026.928	-1544
1026.996	-1435
1027.064	-1042
1027.131	-1530
1027.199	-842
1027.266	-1310
1027.334	-185
1027.401	-2274
1027.468	-1434
1027.536	-1298
1027.603	-1453
1027.671	-1534
1027.738	-1354
1027.805	-2014
1027.872	-809
1027.940	-975
1028.007	-1476
1028.074	-396
1028.141	-1007
1028.208	-1819
1028.275	-610
1028.342	-1780
1028.409	-1662
1028.477	-1610
1028.544	-716
1028.610	-2050
1028.678	-2057
1028.744	-330
1028.811	-1491
1028.878	-2096
1028.945	-1556
1029.012	-997
1029.079	-1211
1029.146	-1748
1029.212	-900
1029.279	-1335
1029.346	-1883
1029.412	-1817
1029.479	-890
1029.546	-951
1029.612	-1036
1029.679	-1981
1029.745	-1142
1029.812	-777
1029.878	-1513
1029.945	-2646
1030.011	-786
1030.078	-1926
1030.144	-329
1030.210	-1894
1030.277	-401
1030.343	-1551
1030.409	-2086
1030.476	-1450
1030.542	-1611
1030.608	-1906
1030.674	-1125
1030.740	-1894
1030.807	-1113
1030.873	-2259
1030.939	-1429
1031.005	-1696
1031.071	-1109
1031.137	-2133
1031.203	-399
1031.269	-1391
1031.335	-1378
1031.401	-1414
1031.467	-1655
1031.533	-2117
1031.598	-1335
1031.664	-1130
1031.730	-1299
1031.796	-1150
1031.861	-1424
1031.927	-2009
1031.993	-1386
1032.058	-2198
1032.124	-1729
1032.190	-1861
1032.255	-1031
1032.321	-1824
1032.386	-1715
1032.452	-2375
1032.518	-1898
1032.583	-2026
1032.648	-875
1032.714	-1196
1032.779	-857
1032.844	-2285
1032.910	-1422
1032.975	-1375
1033.040	-1467
1033.106	-1731
1033.171	-1082
1033.236	-2119
1033.301	-934
1033.366	-2172
1033.432	-1348
1033.496	-1620
1033.562	-420
1033.627	-1195
1033.692	-671
1033.757	-1401
1033.822	-1052
1033.887	-1204
1033.952	-2034
1034.016	-1009
1034.081	-1040
1034.146	-2542
1034.211	-1291
1034.276	-1342
1034.340	-704
1034.405	-196
1034.470	-442
1034.535	-1009
1034.599	-235
1034.664	-632
1034.729	-499
1034.793	-1194
1034.858	-783
1034.922	-1576
1034.987	-1102
1035.051	-1325
1035.116	-969
1035.180	-1275
1035.245	-1799
1035.309	-1879
1035.373	-1061
1035.437	-1979
1035.502	-1018
1035.566	-2174
1035.630	-1530
1035.695	-1938
1035.759	186
1035.823	-1637
1035.887	-2124
1035.951	-2019
1036.015	-1097
1036.079	-1664
1036.143	-1214
1036.208	-1725
1036.271	-917
1036.336	-1647
1036.399	-1752
1036.463	-1518
1036.527	-1163
1036.591	-1645
1036.655	-808
1036.719	-1630
1036.783	-1258
1036.846	-1960
1036.910	-1707
1036.974	-1821
1037.037	-1409
1037.101	-1880
1037.165	-1418
1037.228	-2053
1037.292	-1324
1037.355	-1097
1037.419	-426
1037.483	-2226
1037.546	-1283
1037.609	-2032
1037.673	-673
1037.736	-1465
1037.800	-1427
1037.863	-1409
1037.926	-1782
1037.990	-1809
1038.053	-708
1038.116	-2433
1038.179	-831
1038.243	-1324
1038.306	-729
1038.369	-1459
1038.432	-1365
1038.495	-1163
1038.558	-865
1038.621	-1096
1038.684	-82
1038.747	-523
1038.810	-441
1038.873	-1426
1038.936	-1550
1038.999	-1684
1039.062	-1613
1039.125	-1278
1039.188	-1089
1039.250	-826
1039.313	-1921
1039.376	-1988
1039.438	-1057
1039.501	-2573
1039.564	-1198
1039.627	-1768
1039.689	-726
1039.752	-1038
1039.814	-743
1039.877	-1240
1039.939	-474
1040.002	-2347
1040.064	-2287
1040.127	-1372
1040.189	-1451
1040.251	-1920
1040.314	-1685
1040.376	-1659
1040.438	-1325
1040.501	-1708
1040.563	-1687
1040.625	-1903
1040.687	-765
1040.750	-1447
1040.812	-1101
1040.874	-1572
1040.936	-1474
1040.998	-1873
1041.060	-1345
1041.122	-1510
1041.184	-1359
1041.246	-1628
1041.308	-1260
1041.370	-930
1041.432	-721
1041.494	-2026
1041.555	-1234
1041.617	-1683
1041.679	-771
1041.741	-1222
1041.802	-1593
1041.864	-1679
1041.926	-1046
1041.987	-1390
1042.049	-1493
1042.111	-1300
1042.172	-772
1042.234	-463
1042.295	-317
1042.357	-1230
1042.418	-1215
1042.480	-1220
1042.541	-1504
1042.603	-2187
1042.664	-1392
1042.725	-1623
1042.786	-1125
1042.848	-1764
1042.909	-912
1042.970	-1766
1043.031	-693
1043.093	-1076
1043.154	-1308
1043.215	-1318
1043.276	-1032
1043.337	-1209
1043.398	-1446
1043.459	-1560
1043.520	-994
1043.581	-1476
1043.642	-1577
1043.703	-2534
1043.764	-1388
1043.825	-1385
1043.886	-1212
1043.947	-2220
1044.007	-978
1044.068	-1485
1044.129	-1258
1044.189	-910
1044.250	-1037
1044.311	-2143
1044.371	-819
1044.432	-2044
1044.493	-1334
1044.553	-1323
1044.614	-1464
1044.674	-523
1044.735	-1034
1044.795	-1056
1044.856	-913
1044.916	-1466
1044.976	-505
1045.037	-1270
1045.097	-706
1045.157	-124
1045.218	-858
1045.278	-1204
1045.338	-3
1045.398	-283
1045.458	204
1045.519	-932
1045.579	-94
1045.639	-911
1045.699	-1225
1045.759	-1057
1045.819	-843
1045.879	-2076
1045.939	-1654
1045.999	-1633
1046.059	-595
1046.119	-1856
1046.179	-570
1046.238	-924
1046.298	-823
1046.358	-901
1046.418	-848
1046.477	-1545
1046.537	126
1046.597	-724
1046.656	-299
1046.716	-659
1046.776	94
1046.835	-331
1046.895	245
1046.954	-435
1047.014	193
1047.073	-19
1047.133	0
