'Start Wavelength	183.833
'End Wavelength	1047.133
'Gate Delay	5.000
'Gate Width (ms)	1.050
'Laser Output Level	0.000
'X Position	0.000
'Y Position	0.000
'Z Position	0.000
'Grid Point Number	1.000
'Shot Number	100.000
183.833	-244.000
183.903	-83.000
183.973	19
184.042	713
184.112	855
184.182	-159
184.252	9
184.321	-127
184.391	586
184.461	431
184.531	-84
184.600	654
184.670	-772
184.740	239
184.809	571
184.879	241
184.949	782
185.018	874
185.088	736
185.158	652
185.228	64
185.297	831
185.367	-476
185.436	-41
185.506	401
185.576	644
185.645	602
185.715	-185
185.785	-58
185.854	-467
185.924	279
185.993	393
186.063	335
186.133	-85
186.202	355
186.272	-162
186.341	561
186.411	48
186.481	295
186.550	348
186.620	709
186.689	397
186.759	-156
186.828	804
186.898	86
186.967	930
187.037	442
187.106	303
187.176	825
187.246	909
187.315	260
187.385	818
187.454	-56
187.524	306
187.593	622
187.662	1419
187.732	1132
187.801	732
187.871	364
187.940	498
188.010	855
188.079	666
188.149	403
188.218	1179
188.288	1050
188.357	654
188.426	-273
188.496	539
188.565	170
188.635	496
188.704	865
188.773	1090
188.843	759
188.912	190
188.981	1
189.051	293
189.120	6
189.190	484
189.259	540
189.328	497
189.398	141
189.467	271
189.536	799
189.606	935
189.675	849
189.744	211
189.813	1052
189.883	538
189.952	130
190.021	574
190.091	1494
190.160	630
190.229	46
190.298	287
190.368	23
190.437	604
190.506	611
190.575	393
190.645	370
190.714	984
190.783	1135
190.852	708
190.922	537
190.991	1324
191.060	754
191.129	131
191.198	-216
191.268	839
191.337	1747
191.406	182
191.475	421
191.544	867
191.613	174
191.683	621
191.752	498
191.821	888
191.890	467
191.959	13
192.028	526
192.097	633
192.166	406
192.236	442
192.305	534
192.374	191
192.443	327
192.512	676
192.581	1060
192.650	707
192.719	294
192.788	336
192.857	78
192.926	981
192.995	276
193.064	1195
193.133	-178
193.202	867
193.271	901
193.340	155
193.409	420
193.478	586
193.547	344
193.616	931
193.685	429
193.754	125
193.823	771
193.892	354
193.961	231
194.030	161
194.099	293
194.168	853
194.237	972
194.306	-71
194.375	593
194.444	246
194.513	722
194.582	908
194.651	1657
194.720	978
194.788	272
194.857	1116
194.926	743
194.995	1288
195.064	1589
195.133	946
195.202	1817
195.270	1136
195.339	642
195.408	554
195.477	1258
195.546	1355
195.615	809
195.683	1741
195.752	1677
195.821	1449
195.890	2170
195.959	2097
196.027	1705
196.096	1996
196.165	2355
196.234	959
196.303	924
196.371	1494
196.440	1017
196.509	631
196.578	357
196.646	416
196.715	-33
196.784	220
196.853	392
196.921	572
196.990	436
197.059	316
197.127	1015
197.196	108
197.265	-160
197.333	579
197.402	739
197.471	219
197.539	1060
197.608	733
197.677	900
197.745	377
197.814	1430
197.883	262
197.951	1690
198.020	930
198.088	25
198.157	1184
198.226	1380
198.294	648
198.363	654
198.431	38
198.500	1050
198.569	871
198.637	235
198.706	235
198.774	1588
198.843	1573
198.911	505
198.980	62
199.048	1123
199.117	1165
199.185	295
199.254	358
199.322	469
199.391	549
199.459	569
199.528	593
199.596	301
199.665	459
199.733	530
199.802	328
199.870	680
199.939	-349
200.007	1122
200.076	668
200.144	447
200.213	770
200.281	417
200.349	683
200.418	1214
200.486	439
200.555	436
200.623	1223
200.691	575
200.760	906
200.828	894
200.897	495
200.965	651
201.033	473
201.102	-146
201.170	1007
201.238	867
201.307	600
201.375	155
201.443	914
201.512	662
201.580	449
201.648	334
201.716	731
201.785	1181
201.853	903
201.921	1118
201.990	403
202.058	235
202.126	570
202.194	980
202.263	589
202.331	229
202.399	205
202.467	987
202.536	2562
202.604	659
202.672	701
202.740	708
202.808	597
202.877	822
202.945	416
203.013	768
203.081	963
203.149	1108
203.218	248
203.286	1168
203.354	742
203.422	1271
203.490	745
203.558	-6
203.626	811
203.695	783
203.763	429
203.831	693
203.899	296
203.967	356
204.035	866
204.103	284
204.171	587
204.239	812
204.307	865
204.375	233
204.443	-195
204.512	105
204.580	650
204.648	142
204.716	783
204.784	663
204.852	957
204.920	655
204.988	1110
205.056	1190
205.124	1093
205.192	576
205.260	290
205.328	636
205.396	712
205.464	539
205.532	-210
205.600	126
205.667	252
205.735	1058
205.803	1792
205.871	466
205.939	736
206.007	634
206.075	574
206.143	697
206.211	1107
206.279	-355
206.347	628
206.414	690
206.482	270
206.550	723
206.618	1089
206.686	130
206.754	949
206.822	1143
206.889	-647
206.957	483
207.025	353
207.093	-438
207.161	480
207.229	594
207.296	563
207.364	-408
207.432	145
207.500	530
207.567	775
207.635	155
207.703	120
207.771	803
207.839	332
207.906	561
207.974	800
208.042	29
208.109	70
208.177	548
208.245	455
208.313	1152
208.380	1994
208.448	230
208.516	311
208.583	881
208.651	1606
208.719	235
208.786	1018
208.854	394
208.922	-66
208.989	967
209.057	1152
209.125	656
209.192	1211
209.260	386
209.327	2494
209.395	1619
209.463	218
209.530	321
209.598	986
209.665	218
209.733	1163
209.801	944
209.868	987
209.936	975
210.003	438
210.071	885
210.138	1655
210.206	2096
210.273	1302
210.341	664
210.408	276
210.476	415
210.543	1047
210.611	1854
210.678	625
210.746	778
210.813	705
210.881	1398
210.948	953
211.016	1715
211.083	886
211.151	818
211.218	1157
211.285	1324
211.353	1530
211.420	1046
211.488	1697
211.555	314
211.622	655
211.690	1056
211.757	502
211.825	1067
211.892	735
211.959	389
212.027	-148
212.094	760
212.161	561
212.229	1593
212.296	2378
212.363	6957
212.431	2870
212.498	1052
212.565	1157
212.633	851
212.700	971
212.767	380
212.835	663
212.902	215
212.969	92
213.036	1172
213.104	978
213.171	1591
213.238	223
213.305	386
213.373	280
213.440	881
213.507	1340
213.574	781
213.641	743
213.709	-257
213.776	1691
213.843	1996
213.910	2030
213.977	1676
214.045	589
214.112	619
214.179	866
214.246	1323
214.313	1441
214.380	876
214.447	947
214.515	1341
214.582	1344
214.649	1329
214.716	464
214.783	458
214.850	1486
214.917	2206
214.984	1697
215.051	2081
215.118	2489
215.185	1651
215.253	1085
215.320	883
215.387	1288
215.454	1437
215.521	1022
215.588	1339
215.655	697
215.722	1350
215.789	2313
215.856	3546
215.923	2613
215.990	1492
216.057	463
216.124	1398
216.191	1552
216.258	1318
216.325	1614
216.391	2570
216.458	1768
216.525	2913
216.592	5352
216.659	4694
216.726	1819
216.793	1342
216.860	926
216.927	1020
216.994	1574
217.061	1805
217.127	1355
217.194	1426
217.261	2217
217.328	1327
217.395	850
217.462	959
217.529	1440
217.595	1447
217.662	1243
217.729	3291
217.796	3451
217.863	796
217.929	651
217.996	1575
218.063	1087
218.130	608
218.196	1199
218.263	706
218.330	1051
218.397	1317
218.463	713
218.530	939
218.597	3952
218.664	3990
218.730	1239
218.797	1330
218.864	715
218.930	598
218.997	1284
219.064	1775
219.131	3471
219.197	1819
219.264	1053
219.331	661
219.397	837
219.464	1134
219.530	2276
219.597	1857
219.664	639
219.730	761
219.797	1334
219.864	1064
219.930	1994
219.997	4196
220.063	2712
220.130	1807
220.196	757
220.263	880
220.330	664
220.396	2069
220.463	1455
220.529	132
220.596	1106
220.662	89
220.729	4189
220.795	2504
220.862	2897
220.928	2977
220.995	4520
221.061	4872
221.128	3922
221.194	1523
221.261	988
221.327	1455
221.394	980
221.460	766
221.526	971
221.593	4919
221.659	3122
221.726	3332
221.792	2558
221.859	1450
221.925	1586
221.991	1070
222.058	1260
222.124	3178
222.190	2130
222.257	1172
222.323	263
222.390	802
222.456	1613
222.522	1043
222.589	1638
222.655	1947
222.721	1683
222.788	1435
222.854	1628
222.920	2206
222.986	3159
223.053	2165
223.119	1615
223.185	311
223.251	-192
223.318	1094
223.384	865
223.450	482
223.516	823
223.583	532
223.649	181
223.715	328
223.781	1638
223.848	2002
223.914	768
223.980	1264
224.046	763
224.112	90
224.178	475
224.245	255
224.311	814
224.377	733
224.443	111
224.509	877
224.575	-86
224.641	-320
224.708	48
224.774	487
224.840	1351
224.906	578
224.972	-112
225.038	1603
225.104	1310
225.170	1287
225.236	479
225.302	1277
225.368	1187
225.434	218
225.500	1332
225.566	1704
225.632	198
225.699	1010
225.765	1085
225.831	1814
225.897	4669
225.963	3143
226.028	2986
226.094	2017
226.160	1990
226.226	3153
226.292	5844
226.358	5866
226.424	4296
226.490	2586
226.556	1271
226.622	3463
226.688	7167
226.754	4205
226.820	9079
226.886	8001
226.951	2574
227.017	2031
227.083	2631
227.149	4836
227.215	5870
227.281	5112
227.347	2976
227.412	2410
227.478	5455
227.544	6672
227.610	6380
227.676	3237
227.742	1826
227.807	1088
227.873	2486
227.939	6832
228.005	2418
228.070	1263
228.136	566
228.202	1646
228.268	2583
228.333	2884
228.399	2500
228.465	930
228.531	961
228.596	792
228.662	4086
228.728	2727
228.793	1873
228.859	1068
228.925	2800
228.990	2776
229.056	2913
229.122	1540
229.187	2263
229.253	1788
229.319	2400
229.384	3480
229.450	1013
229.516	279
229.581	2145
229.647	1640
229.712	6409
229.778	6370
229.844	4593
229.909	7089
229.975	5656
230.040	2468
230.106	3199
230.171	3282
230.237	6738
230.302	5354
230.368	1864
230.433	1727
230.499	5866
230.564	3024
230.630	1506
230.695	887
230.761	655
230.826	4483
230.892	2742
230.957	693
231.023	772
231.088	793
231.154	1183
231.219	2403
231.285	3716
231.350	1934
231.415	1473
231.481	651
231.546	693
231.612	956
231.677	141
231.742	1983
231.808	813
231.873	487
231.938	3367
232.004	3684
232.069	1700
232.135	1075
232.200	1466
232.265	783
232.330	786
232.396	896
232.461	290
232.526	841
232.592	1549
232.657	3223
232.722	2718
232.788	1373
232.853	829
232.918	1403
232.983	538
233.048	3701
233.114	2185
233.179	3936
233.244	4680
233.309	1234
233.375	1525
233.440	1443
233.505	698
233.570	1482
233.635	1279
233.700	2981
233.766	5076
233.831	3518
233.896	3986
233.961	4067
234.026	3100
234.091	2641
234.156	2804
234.222	3792
234.287	10625
234.352	9967
234.417	6624
234.482	3816
234.547	3439
234.612	3120
234.677	3842
234.742	11037
234.807	7398
234.872	3151
234.937	2751
235.002	2571
235.067	1915
235.132	1227
235.197	1869
235.262	925
235.327	1824
235.392	3101
235.457	3235
235.522	2863
235.587	1486
235.652	1650
235.717	2089
235.782	1659
235.847	5677
235.912	7255
235.977	8165
236.042	2738
236.107	3189
236.172	2944
236.236	1809
236.301	1293
236.366	3509
236.431	6223
236.496	3261
236.561	3348
236.626	13131
236.691	10028
236.755	4982
236.820	5266
236.885	4467
236.950	2221
237.015	4308
237.079	4157
237.144	5217
237.209	12119
237.274	26656
237.339	13622
237.403	6867
237.468	5583
237.533	3003
237.598	2453
237.662	2748
237.727	3474
237.792	4406
237.856	4588
237.921	3257
237.986	5257
238.050	6217
238.115	14725
238.180	12793
238.245	8057
238.309	5948
238.374	5037
238.438	4737
238.503	1934
238.568	2877
238.632	2019
238.697	2290
238.762	5849
238.826	6835
238.891	4755
238.955	4814
239.020	2466
239.085	2924
239.149	2475
239.214	2018
239.278	1604
239.343	1776
239.407	2741
239.472	12824
239.536	9750
239.601	3925
239.665	2224
239.730	3718
239.794	8302
239.859	11583
239.923	5702
239.988	2651
240.052	3086
240.117	2525
240.181	2228
240.246	2107
240.310	2815
240.374	8766
240.439	12973
240.503	5314
240.568	6623
240.632	7887
240.696	4720
240.761	3626
240.825	2413
240.890	2531
240.954	7278
241.018	12973
241.083	7766
241.147	3597
241.211	4387
241.276	8328
241.340	4320
241.404	2818
241.469	3903
241.533	3554
241.597	1979
241.661	2586
241.726	3722
241.790	4265
241.854	3390
241.919	3448
241.983	2471
242.047	4009
242.111	3588
242.175	1060
242.240	3304
242.304	3414
242.368	6156
242.432	3959
242.496	1899
242.561	1826
242.625	2214
242.689	1109
242.753	4193
242.817	3034
242.881	3039
242.946	2709
243.010	4107
243.074	5142
243.138	3512
243.202	4037
243.266	4520
243.330	4097
243.394	8168
243.458	23262
243.522	9928
243.586	5894
243.651	3145
243.715	4107
243.779	5636
243.843	5694
243.907	13619
243.971	11623
244.035	7527
244.099	4471
244.163	7193
244.227	10047
244.291	6926
244.355	5413
244.419	4593
244.483	4088
244.546	2775
244.610	3159
244.674	5592
244.738	6224
244.802	3823
244.866	2603
244.930	1949
244.994	3627
245.058	4081
245.122	4568
245.186	4224
245.249	5622
245.313	6396
245.377	4846
245.441	3463
245.505	5069
245.569	4404
245.632	4281
245.696	11851
245.760	6941
245.824	4224
245.888	3715
245.951	5006
246.015	4901
246.079	6142
246.143	16882
246.207	25500
246.270	12248
246.334	8309
246.398	7907
246.461	13096
246.525	7442
246.589	6897
246.653	7342
246.716	10186
246.780	9285
246.844	10907
246.907	4842
246.971	5216
247.035	5881
247.098	5934
247.162	16580
247.226	33167
247.289	18185
247.353	7227
247.416	13968
247.480	9623
247.544	7289
247.607	11683
247.671	7255
247.734	5551
247.798	6548
247.861	14828
247.925	31864
247.989	13080
248.052	6531
248.116	8336
248.179	13677
248.243	51925
248.306	55145
248.370	35743
248.433	14497
248.497	11616
248.560	17209
248.624	22124
248.687	26886
248.751	55551
248.814	33692
248.877	30288
248.941	41245
249.004	62847
249.068	54581
249.131	23304
249.194	13606
249.258	13577
249.321	11248
249.385	10378
249.448	7908
249.511	10572
249.575	16318
249.638	12116
249.701	7354
249.765	6488
249.828	8149
249.891	7491
249.955	6169
250.018	19303
250.081	28627
250.145	13798
250.208	10141
250.271	9220
250.334	7791
250.398	8377
250.461	9164
250.524	11175
250.587	25328
250.651	40990
250.714	21351
250.777	14866
250.840	7338
250.903	7556
250.967	13093
251.030	29576
251.093	14773
251.156	15590
251.219	12292
251.282	11541
251.345	35510
251.409	33760
251.472	21335
251.535	61737
251.598	45127
251.661	22855
251.724	33874
251.787	30488
251.850	45625
251.913	29162
251.976	18354
252.039	14482
252.103	13173
252.166	28838
252.229	60785
252.292	48507
252.355	69132
252.418	38260
252.481	27418
252.544	18489
252.607	17691
252.670	42706
252.733	38905
252.796	60238
252.858	55813
252.921	42177
252.984	25286
253.047	23136
253.110	14486
253.173	15099
253.236	15405
253.299	19296
253.362	20037
253.425	20815
253.488	32924
253.550	25906
253.613	32618
253.676	35198
253.739	15367
253.802	16777
253.865	16898
253.928	13199
253.990	23232
254.053	34194
254.116	36963
254.179	29035
254.242	13540
254.304	24374
254.367	28209
254.430	26015
254.493	24202
254.555	40721
254.618	29214
254.681	18018
254.743	14135
254.806	12982
254.869	23465
254.932	24575
254.994	12768
255.057	13900
255.120	8304
255.182	8147
255.245	10025
255.308	7350
255.370	5448
255.433	5360
255.496	6269
255.558	7387
255.621	8195
255.683	5811
255.746	5835
255.809	4555
255.871	4821
255.934	4336
255.996	4908
256.059	4652
256.121	6471
256.184	15466
256.246	10874
256.309	10832
256.371	7311
256.434	5353
256.496	3762
256.559	4245
256.621	5966
256.684	8956
256.746	18768
256.809	8807
256.871	7582
256.934	7553
256.996	10618
257.059	7766
257.121	4879
257.183	5270
257.246	5737
257.308	3337
257.371	7932
257.433	24129
257.495	34746
257.558	34458
257.620	20283
257.683	8775
257.745	8582
257.807	5327
257.870	5975
257.932	5650
257.994	7810
258.056	7030
258.119	7932
258.181	18889
258.243	9827
258.306	5933
258.368	18188
258.430	15974
258.492	15663
258.555	19386
258.617	6344
258.679	6666
258.741	17353
258.803	9456
258.866	5304
258.928	5606
258.990	5519
259.052	6603
259.114	8239
259.177	5764
259.239	8821
259.301	28208
259.363	17446
259.425	6823
259.487	6329
259.549	7957
259.611	11030
259.674	6061
259.736	14196
259.798	25775
259.860	40831
259.922	54142
259.984	19817
260.046	7805
260.108	6394
260.170	4900
260.232	4199
260.294	6409
260.356	5084
260.418	20255
260.480	36360
260.542	20651
260.604	27999
260.666	32665
260.728	10211
260.790	9314
260.852	8288
260.914	7925
260.976	7124
261.038	27160
261.100	52994
261.161	27069
261.223	10751
261.285	14960
261.347	20645
261.409	7590
261.471	7495
261.533	4977
261.595	4717
261.656	9393
261.718	25531
261.780	14098
261.842	9870
261.904	13003
261.966	15959
262.027	7071
262.089	10823
262.151	8205
262.213	6758
262.274	17846
262.336	14409
262.398	6506
262.460	9252
262.521	20747
262.583	8266
262.645	5242
262.706	6617
262.768	18853
262.830	10086
262.892	6738
262.953	7282
263.015	25202
263.077	64589
263.138	36069
263.200	31056
263.261	10428
263.323	6606
263.385	5267
263.446	5281
263.508	17316
263.569	12018
263.631	5957
263.693	3931
263.754	4514
263.816	3917
263.877	2488
263.939	4205
264.000	14414
264.062	39097
264.123	15191
264.185	6211
264.246	5485
264.308	17512
264.369	51812
264.431	16166
264.492	8131
264.554	19167
264.615	45791
264.677	15896
264.738	8897
264.800	5120
264.861	8312
264.922	7278
264.984	3714
265.045	3304
265.107	5204
265.168	8799
265.229	8295
265.291	4314
265.352	3603
265.413	4634
265.475	3332
265.536	6188
265.597	6988
265.659	7766
265.720	3537
265.781	2224
265.843	2143
265.904	3608
265.965	14693
266.026	12282
266.088	10362
266.149	16130
266.210	6790
266.271	3786
266.333	3956
266.394	5843
266.455	4180
266.516	2860
266.577	10033
266.639	19963
266.700	6544
266.761	4602
266.822	4006
266.883	15150
266.944	9652
267.005	4941
267.067	2329
267.128	2471
267.189	2089
267.250	4600
267.311	3223
267.372	2976
267.433	3046
267.494	3784
267.555	3286
267.616	1395
267.677	3434
267.738	2298
267.799	8748
267.860	23039
267.921	18858
267.982	14114
268.043	6280
268.104	6244
268.165	4859
268.226	3951
268.287	4342
268.348	5746
268.409	6535
268.470	5196
268.531	3086
268.592	2942
268.653	2244
268.714	4964
268.775	6960
268.836	19790
268.896	21926
268.957	11346
269.018	4996
269.079	3631
269.140	3541
269.201	4262
269.262	3048
269.322	3943
269.383	5011
269.444	8231
269.505	12027
269.565	15138
269.626	9218
269.687	6496
269.748	4884
269.809	7335
269.869	13068
269.930	5386
269.991	3790
270.051	4261
270.112	3470
270.173	4465
270.234	3102
270.294	3307
270.355	4318
270.416	3554
270.476	4435
270.537	13053
270.598	24911
270.658	10839
270.719	5221
270.779	9638
270.840	7614
270.901	5940
270.961	6507
271.022	7594
271.082	12464
271.143	12526
271.203	6056
271.264	4223
271.325	6097
271.385	17242
271.446	9980
271.506	6598
271.567	6685
271.627	5634
271.688	7207
271.748	16395
271.809	55342
271.869	75906
271.930	25631
271.990	32909
272.050	56562
272.111	17912
272.171	10359
272.232	10686
272.292	37237
272.352	22499
272.413	21422
272.473	25762
272.534	21222
272.594	16446
272.654	15939
272.715	28125
272.775	14861
272.835	12938
272.896	6287
272.956	7133
273.016	13395
273.077	17641
273.137	10918
273.197	9372
273.257	40166
273.318	62750
273.378	27588
273.438	25716
273.498	59354
273.559	24301
273.619	28197
273.679	55391
273.739	22704
273.799	12626
273.860	25023
273.920	52421
273.980	16849
274.040	11486
274.100	15823
274.160	77438
274.221	64084
274.281	46253
274.341	47687
274.401	39317
274.461	17171
274.521	12374
274.581	37881
274.641	54139
274.701	23484
274.761	11931
274.821	23882
274.882	75674
274.942	62089
275.002	41500
275.062	19387
275.122	11482
275.182	8754
275.242	11766
275.302	23133
275.362	23748
275.421	14384
275.481	27952
275.541	64374
275.601	45475
275.661	31917
275.721	32942
275.781	22674
275.841	9272
275.901	9968
275.961	10617
276.021	7530
276.081	15499
276.140	47879
276.200	21865
276.260	17384
276.320	9187
276.380	12951
276.440	9862
276.499	6294
276.559	5244
276.619	11497
276.679	29287
276.738	22052
276.798	10824
276.858	13104
276.918	11770
276.978	6569
277.037	6323
277.097	10189
277.157	38244
277.216	16902
277.276	10422
277.336	8614
277.395	8080
277.455	8314
277.515	7706
277.574	16853
277.634	29517
277.694	12000
277.753	44417
277.813	36089
277.873	22930
277.932	60975
277.992	23340
278.051	20498
278.111	30576
278.171	15705
278.230	30493
278.290	21425
278.349	11188
278.409	8459
278.468	6456
278.528	6435
278.587	5828
278.647	6470
278.706	20169
278.766	56216
278.825	18059
278.885	11393
278.944	11988
279.004	13744
279.063	14121
279.122	11722
279.182	9175
279.241	8084
279.301	10362
279.360	18186
279.419	77674
279.479	163211
279.538	138226
279.598	39859
279.657	23808
279.716	44412
279.776	80382
279.835	31155
279.894	16634
279.953	14834
280.013	28453
280.072	53488
280.131	29384
280.191	124820
280.250	133121
280.309	38087
280.368	32227
280.428	33734
280.487	20384
280.546	17989
280.605	21435
280.664	33625
280.724	12643
280.783	8399
280.842	10839
280.901	10095
280.960	9564
281.019	7608
281.079	6032
281.138	5635
281.197	9049
281.256	38974
281.315	31573
281.374	8602
281.433	6849
281.492	6931
281.551	6276
281.611	6287
281.670	8568
281.729	10905
281.788	6042
281.847	5854
281.906	6550
281.965	5461
282.024	5315
282.083	5046
282.142	4359
282.201	6376
282.260	24826
282.319	18079
282.378	7342
282.436	9577
282.495	39984
282.554	24092
282.613	8867
282.672	7091
282.731	11990
282.790	12072
282.849	10421
282.908	5312
282.967	4832
283.025	4967
283.084	7842
283.143	22454
283.202	45098
283.261	14181
283.319	8546
283.378	8018
283.437	8471
283.496	15519
283.555	11913
283.613	8300
283.672	6283
283.731	16795
283.790	20604
283.848	6320
283.907	6451
283.966	11913
284.024	11843
284.083	8439
284.142	20707
284.201	10612
284.259	12921
284.318	49438
284.376	39965
284.435	13406
284.494	19616
284.552	14937
284.611	9783
284.670	9712
284.728	10157
284.787	14709
284.845	14722
284.904	14583
284.962	17073
285.021	31386
285.079	92781
285.138	265401
285.197	260935
285.255	110655
285.314	55880
285.372	34884
285.431	23505
285.489	18085
285.547	14641
285.606	12141
285.664	9332
285.723	9567
285.781	11467
285.840	10262
285.898	7458
285.957	7332
286.015	6095
286.073	5708
286.132	7853
286.190	13462
286.248	9863
286.307	16990
286.365	13703
286.423	6512
286.482	4930
286.540	5246
286.598	10136
286.657	8665
286.715	8031
286.773	9011
286.832	16316
286.890	24828
286.948	10454
287.006	7658
287.064	5907
287.123	6534
287.181	11904
287.239	8235
287.297	9004
287.356	24470
287.414	15778
287.472	10455
287.530	7286
287.588	6477
287.646	14496
287.704	24061
287.763	10079
287.821	8527
287.879	8457
287.937	8737
287.995	15744
288.053	68039
288.111	222024
288.169	101439
288.227	31520
288.285	20228
288.343	26320
288.401	20478
288.459	11163
288.517	9306
288.575	9213
288.633	6354
288.691	7518
288.749	8239
288.807	8263
288.865	9113
288.923	7786
288.981	6597
289.039	9341
289.097	9977
289.155	9059
289.213	11182
289.271	9212
289.329	9590
289.386	16122
289.444	18271
289.502	9590
289.560	6008
289.618	5198
289.676	5526
289.734	5788
289.791	6342
289.849	8312
289.907	11861
289.965	6813
290.022	5328
290.080	8154
290.138	11225
290.196	7474
290.253	6518
290.311	5725
290.369	5777
290.427	4407
290.484	7851
290.542	9622
290.600	8703
290.657	7225
290.715	8619
290.773	7107
290.830	11492
290.888	9294
290.946	10312
291.003	9295
291.061	8650
291.118	32823
291.176	68463
291.234	21854
291.291	8958
291.349	8628
291.406	10390
291.464	8865
291.521	7294
291.579	5391
291.636	5039
291.694	7954
291.751	19220
291.809	13032
291.866	7130
291.924	6683
291.981	10613
292.039	10519
292.096	6663
292.154	7112
292.211	10911
292.268	22650
292.326	30734
292.383	22714
292.441	14338
292.498	14319
292.555	13471
292.613	15158
292.670	10784
292.727	16286
292.785	48568
292.842	62360
292.899	36334
292.957	14049
293.014	11235
293.071	10484
293.129	8166
293.186	8742
293.243	17349
293.300	31148
293.358	15762
293.415	9036
293.472	8140
293.529	12312
293.586	31798
293.644	86754
293.701	56676
293.758	26348
293.815	19159
293.872	25381
293.929	18693
293.987	15664
294.044	27720
294.101	60981
294.158	81636
294.215	33744
294.272	15867
294.329	13877
294.386	17011
294.443	15490
294.500	12031
294.558	9597
294.615	10694
294.672	26884
294.729	102974
294.786	122209
294.843	56808
294.900	38787
294.957	28306
295.014	20827
295.070	14821
295.127	13046
295.184	10507
295.241	12088
295.298	37183
295.355	69291
295.412	34672
295.469	20421
295.526	53646
295.583	92174
295.640	68321
295.696	69292
295.753	30076
295.810	18425
295.867	17788
295.924	31456
295.981	27779
296.037	15558
296.094	11640
296.151	9518
296.208	10059
296.265	9112
296.321	9008
296.378	11903
296.435	34730
296.492	69586
296.548	50885
296.605	78729
296.662	115896
296.718	51063
296.775	26725
296.832	25723
296.888	52334
296.945	80221
297.002	65168
297.058	27961
297.115	18076
297.172	21929
297.228	69256
297.285	122093
297.341	48732
297.398	22614
297.454	17539
297.511	14627
297.568	16586
297.624	13987
297.681	11884
297.737	10505
297.794	8114
297.850	8982
297.907	9266
297.963	9539
298.020	15938
298.076	44846
298.133	42293
298.189	22089
298.245	41757
298.302	97258
298.358	58377
298.415	34508
298.471	30003
298.527	22670
298.584	17541
298.640	26881
298.697	46170
298.753	29460
298.809	15212
298.866	11507
298.922	12591
298.978	18498
299.035	16625
299.091	13233
299.147	13053
299.203	10214
299.260	10318
299.316	19991
299.372	77464
299.428	79014
299.485	33637
299.541	18354
299.597	16410
299.653	15718
299.710	15325
299.766	12304
299.822	17995
299.878	64741
299.934	71718
299.990	70680
300.046	114359
300.103	58026
300.159	30135
300.215	36739
300.271	39888
300.327	22235
300.383	14079
300.439	12314
300.495	11155
300.551	11947
300.607	28362
300.663	61305
300.719	63996
300.775	74947
300.831	49322
300.887	66384
300.943	54263
300.999	24691
301.055	18747
301.111	20603
301.167	15234
301.223	11650
301.279	10080
301.335	9991
301.391	9743
301.447	10499
301.503	14480
301.559	25749
301.614	24614
301.670	37621
301.726	49766
301.782	33221
301.838	52530
301.894	49121
301.949	79501
302.005	212526
302.061	210671
302.117	98519
302.173	42980
302.228	28384
302.284	27419
302.340	48863
302.396	41427
302.451	35942
302.507	83507
302.563	95244
302.618	59061
302.674	27040
302.730	17259
302.785	14333
302.841	14981
302.897	22238
302.952	35501
303.008	31286
303.064	40267
303.119	45554
303.175	26702
303.230	15585
303.286	12476
303.341	11549
303.397	12316
303.453	10880
303.508	10048
303.564	12754
303.619	24275
303.675	69164
303.730	60646
303.786	28974
303.841	16611
303.897	14688
303.952	23567
304.008	32511
304.063	30403
304.118	54298
304.174	55790
304.229	46654
304.285	27159
304.340	19060
304.372	18481
304.395	18118
304.451	19908
304.463	19141
304.506	16637
304.554	16083
304.562	16041
304.617	24613
304.644	40984
304.672	58197
304.728	81919
304.735	77066
304.783	45448
304.825	28623
304.838	23612
304.894	16889
304.916	15258
304.949	13188
305.004	13825
305.006	13752
305.059	12912
305.097	11221
305.115	10453
305.170	9839
305.188	10491
305.225	12005
305.278	15984
305.280	16192
305.336	16940
305.369	15503
305.391	14522
305.446	17801
305.459	18032
305.501	19023
305.550	20206
305.556	20455
305.612	31044
305.640	48883
305.667	66279
305.722	80179
305.731	77146
305.777	59605
305.821	67148
305.832	69634
305.887	70464
305.912	59261
305.942	43742
305.997	30703
306.002	29744
306.053	21456
306.092	15969
306.108	13921
306.163	12137
306.183	11417
306.218	10634
306.273	10436
306.273	10418
306.328	10438
306.364	10330
306.383	10308
306.438	10915
306.454	12853
306.493	18339
306.545	54631
306.548	57273
306.603	84606
306.635	86143
306.658	85231
306.713	63354
306.725	57482
306.768	35970
306.816	21761
306.823	20066
306.878	14935
306.906	13409
306.933	12643
306.988	11580
306.997	11868
307.043	13537
307.087	19376
307.098	21139
307.152	40168
307.177	45682
307.207	52439
307.262	59164
307.268	57377
307.317	37778
307.358	28589
307.372	26234
307.427	41588
307.448	54374
307.482	77603
307.536	76634
307.538	75645
307.591	40949
307.629	26920
307.646	21759
307.701	17655
307.719	21441
307.756	32866
307.809	61434
307.810	62010
307.865	49397
307.900	38356
307.920	30116
307.975	17322
307.990	15621
308.029	14584
308.080	23715
308.084	25023
308.139	68365
308.170	78841
308.194	82796
308.248	56498
308.261	54665
308.303	45629
308.351	36300
308.358	35180
308.412	22138
308.441	17503
308.467	13844
308.522	10272
308.531	9742
308.576	8884
308.621	10729
308.631	11452
308.686	23641
308.712	36671
308.740	53520
308.795	55751
308.802	54724
308.849	34881
308.892	23139
308.904	21346
308.959	18313
308.982	17733
309.013	17860
309.068	24408
309.072	25346
309.122	39533
309.162	61884
309.177	72808
309.231	124812
309.253	122886
309.286	101093
309.340	59888
309.343	58608
309.395	31664
309.433	19559
309.449	17355
309.504	14004
309.523	13671
309.558	14405
309.613	19136
309.613	19189
309.667	26775
309.703	26811
309.722	24877
309.776	18360
309.793	16932
309.830	15545
309.883	21049
309.885	21548
309.939	49919
309.973	61468
309.994	63558
310.048	54526
310.063	51573
310.102	33960
310.153	17638
310.157	17288
310.211	14241
310.243	12752
310.265	12054
310.320	11930
310.333	11735
310.374	11174
310.423	10621
310.428	10609
310.483	10931
310.513	11682
310.537	12329
310.591	14142
310.603	14106
310.646	13197
310.693	11701
310.700	11268
310.754	8398
310.783	7236
310.808	6583
310.862	5560
310.873	5406
310.917	6616
310.963	8372
310.971	8593
311.025	10328
311.053	10651
311.079	9850
311.133	8364
311.143	8125
311.188	7796
311.233	7504
311.242	7413
311.296	7160
311.323	7224
311.350	7637
311.404	8152
311.413	8220
311.458	6774
311.503	5572
311.512	5580
311.567	6014
311.593	6256
311.621	7801
311.675	10927
311.683	11427
311.729	13276
311.772	14843
311.783	14561
311.837	13192
311.862	12880
311.891	15651
311.945	20764
311.952	21468
311.999	16476
312.042	12072
312.053	11375
312.107	8189
312.132	6763
312.222	8199
312.311	15817
312.401	9945
312.491	9631
312.581	12834
312.671	5642
312.760	7391
312.850	8910
312.940	9012
313.030	9511
313.119	8811
313.209	5843
313.299	6274
313.389	7197
313.478	6006
313.568	5518
313.658	5324
313.747	4915
313.837	6012
313.927	7043
314.016	8527
314.106	13130
314.195	14209
314.285	10265
314.375	11890
314.464	7900
314.554	5903
314.643	6897
314.733	9382
314.823	10602
314.912	5310
315.002	5540
315.091	7431
315.181	10271
315.270	9943
315.360	9914
315.449	9195
315.539	9484
315.628	8409
315.718	9181
315.807	9574
315.896	10483
315.986	8870
316.075	20006
316.165	32094
316.254	26066
316.344	7756
316.433	5425
316.522	5590
316.612	6911
316.701	5744
316.790	17743
316.880	22339
316.969	5926
317.058	5053
317.148	5131
317.237	5031
317.326	4679
317.415	3828
317.505	7253
317.594	6087
317.683	5120
317.772	6734
317.862	10586
317.951	16037
318.040	12260
318.129	8087
318.219	7952
318.308	18524
318.397	28715
318.486	21484
318.575	34823
318.664	41839
318.754	8843
318.843	7586
318.932	7152
319.021	14732
319.110	35182
319.199	58541
319.288	27562
319.377	11869
319.466	5204
319.555	5866
319.644	15884
319.733	15795
319.822	9767
319.911	33801
320.000	66068
320.089	17779
320.178	12069
320.267	19014
320.356	20568
320.445	13514
320.534	14523
320.623	9258
320.712	8833
320.801	7249
320.890	7935
320.979	9865
321.068	13618
321.157	21333
321.245	17216
321.334	24533
321.423	41967
321.512	15052
321.601	16809
321.690	29329
321.779	21865
321.867	17537
321.956	24345
322.045	12886
322.134	25522
322.222	41194
322.311	34491
322.400	18553
322.489	18959
322.577	45740
322.666	20267
322.755	20136
322.843	31901
322.932	34012
323.021	14331
323.110	13074
323.198	13919
323.287	16295
323.375	34038
323.464	53390
323.553	24164
323.641	54356
323.730	18799
323.819	21050
323.907	50598
323.996	19149
324.084	11417
324.173	34979
324.261	17001
324.350	12303
324.438	11875
324.527	5705
324.615	7788
324.704	11007
324.792	19311
324.881	20917
324.969	6453
325.058	8025
325.146	20621
325.235	32606
325.323	27092
325.412	25129
325.500	9451
325.588	4618
325.677	5033
325.765	5278
325.853	4922
325.942	5086
326.030	7373
326.118	17511
326.207	12578
326.295	4666
326.383	5562
326.472	8396
326.560	10301
326.648	4330
326.737	4294
326.825	4983
326.913	4952
327.001	6270
327.090	14050
327.178	13775
327.266	5805
327.354	7454
327.442	6167
327.531	4384
327.619	5902
327.707	5903
327.795	10446
327.883	14637
327.971	7365
328.060	4305
328.148	4584
328.236	7683
328.324	4675
328.412	4732
328.500	4979
328.588	9590
328.676	20350
328.764	12790
328.852	6912
328.940	4746
329.028	4471
329.116	10401
329.204	23933
329.292	7742
329.380	3632
329.468	5321
329.556	5126
329.644	4028
329.732	4588
329.820	4913
329.908	8082
329.996	5019
330.084	3103
330.172	4264
330.259	4210
330.347	4198
330.435	3966
330.523	11235
330.611	26566
330.699	15147
330.787	12938
330.874	22900
330.962	24405
331.050	6095
331.138	3181
331.226	6401
331.313	8525
331.401	30702
331.489	25366
331.577	7682
331.664	4271
331.752	9479
331.840	9880
331.927	3927
332.015	4058
332.103	10886
332.190	19047
332.278	37267
332.366	17686
332.453	8711
332.541	6382
332.629	8571
332.716	7433
332.804	5028
332.891	23312
332.979	20427
333.066	4705
333.154	8994
333.242	9136
333.329	4373
333.417	8671
333.504	24969
333.592	8863
333.679	5525
333.767	4652
333.854	3982
333.942	9427
334.029	24502
334.117	36444
334.204	55767
334.291	11370
334.379	9674
334.466	4325
334.554	4405
334.641	10550
334.728	8434
334.816	26455
334.903	88374
334.990	33053
335.078	6620
335.165	4659
335.252	8096
335.340	11179
335.427	46229
335.514	24692
335.602	6166
335.689	5529
335.776	16061
335.863	13572
335.951	6520
336.038	35818
336.125	73856
336.212	19238
336.299	4896
336.387	3812
336.474	2405
336.561	5180
336.648	6453
336.735	5404
336.822	4990
336.910	8397
336.997	35653
337.084	58995
337.171	52171
337.258	52565
337.345	16112
337.432	5108
337.519	4567
337.606	8204
337.693	41585
337.780	43856
337.867	20085
337.954	24951
338.041	22256
338.128	7438
338.215	16544
338.302	27022
338.389	40455
338.476	15098
338.563	48729
338.650	19827
338.737	22436
338.824	14976
338.911	4877
338.998	6725
339.085	6652
339.171	8018
339.258	15531
339.345	7741
339.432	21894
339.519	8806
339.606	2475
339.692	3261
339.779	3795
339.866	7696
339.953	7572
340.040	3565
340.126	4509
340.213	5588
340.300	4387
340.387	6496
340.473	6725
340.560	3704
340.647	9538
340.733	20743
340.820	5730
340.907	3415
340.993	3774
341.080	3157
341.167	4260
341.253	7281
341.340	7404
341.426	2841
341.513	2742
341.600	2879
341.686	4439
341.773	9191
341.859	6375
341.946	1758
342.032	1391
342.119	2532
342.205	4584
342.292	5453
342.378	5123
342.465	6685
342.551	4190
342.638	14338
342.724	16292
342.811	7389
342.897	2701
342.984	1125
343.070	2181
343.156	2789
343.243	1609
343.329	1941
343.416	1613
343.502	2023
343.588	2158
343.675	2417
343.761	3138
343.847	3741
343.934	9598
344.020	51845
344.106	46898
344.193	8580
344.279	9205
344.365	34239
344.451	22341
344.538	7297
344.624	2971
344.710	4269
344.796	1813
344.882	1947
344.969	2450
345.055	3922
345.141	4798
345.227	6614
345.313	3046
345.399	2360
345.486	1827
345.572	3890
345.658	4903
345.744	3745
345.830	3613
345.916	2977
346.002	2953
346.088	9370
346.174	8282
346.260	3029
346.346	1739
346.432	3274
346.518	17676
346.604	20634
346.690	5298
346.776	2700
346.862	2631
346.948	2049
347.034	2593
347.120	2782
347.206	2590
347.292	1848
347.378	2633
347.464	15896
347.549	31377
347.635	29422
347.721	17767
347.807	3138
347.893	3724
347.979	5379
348.065	7607
348.150	2656
348.236	2001
348.322	2506
348.408	2141
348.493	4461
348.579	3020
348.665	1172
348.751	2457
348.836	1689
348.922	6583
349.008	27165
349.094	21915
349.179	3289
349.265	2253
349.351	2294
349.436	1947
349.522	5343
349.608	4873
349.693	11765
349.779	21962
349.864	6386
349.950	3621
350.036	2134
350.121	2158
350.207	1191
350.292	683
350.378	3738
350.463	9442
350.549	3609
350.634	6156
350.720	3807
350.805	1969
350.891	1712
350.976	4036
351.062	6442
351.147	3706
351.233	2773
351.318	14636
351.404	12710
351.489	2251
351.574	1476
351.660	2561
351.745	1701
351.830	1570
351.916	2032
352.001	5446
352.086	19952
352.172	9493
352.257	2770
352.342	3069
352.428	4674
352.513	11600
352.598	34685
352.684	10100
352.769	3410
352.854	2537
352.939	4107
353.024	3014
353.110	3627
353.195	6826
353.280	8942
353.365	5378
353.450	2842
353.536	5367
353.621	8990
353.706	5158
353.791	3517
353.876	1907
353.961	3182
354.046	11167
354.131	14888
354.216	10741
354.302	3045
354.387	1492
354.472	2730
354.557	3278
354.642	4630
354.727	8798
354.812	5255
354.897	1910
354.982	1692
355.067	1139
355.152	1468
355.237	3207
355.321	5484
355.406	14199
355.491	19364
355.576	6896
355.661	9418
355.746	10637
355.831	26254
355.916	6810
356.001	2525
356.085	2239
356.170	2120
356.255	1006
356.340	2619
356.425	9697
356.509	41812
356.594	13182
356.679	2733
356.764	3484
356.849	9240
356.933	47964
357.018	64134
357.103	12219
357.187	6155
357.272	4149
357.357	7821
357.441	4908
357.526	4199
357.611	2413
357.695	2348
357.780	4624
357.865	3444
357.949	5167
358.034	35854
358.118	62473
358.203	12226
358.288	3397
358.372	5958
358.457	27669
358.541	40746
358.626	26722
358.710	22546
358.795	6429
358.879	6916
358.964	3155
359.048	1359
359.133	661
359.217	1094
359.302	2373
359.386	2130
359.470	4204
359.555	4832
359.639	2471
359.724	1373
359.808	5253
359.892	6164
359.977	1641
360.061	2413
360.145	2105
360.230	4317
360.314	6581
360.398	4179
360.483	9268
360.567	12085
360.651	16335
360.735	7532
360.820	33011
360.904	32562
360.988	25427
361.072	7665
361.157	4466
361.241	3155
361.325	3340
361.409	3921
361.493	1775
361.577	1539
361.662	3401
361.746	12227
361.830	43632
361.914	21900
361.998	4457
362.082	7766
362.166	10838
362.250	6238
362.334	5873
362.418	5568
362.502	4240
362.586	2418
362.671	2416
362.754	1327
362.839	1793
362.922	2862
363.006	12844
363.090	45804
363.174	28221
363.258	6347
363.342	6292
363.426	15271
363.510	53572
363.594	17948
363.678	4767
363.762	7521
363.846	4590
363.929	2504
364.013	8382
364.097	8343
364.181	27299
364.265	49764
364.349	14190
364.432	13943
364.516	7516
364.600	10053
364.684	17311
364.767	39302
364.851	11351
364.935	10881
365.019	4861
365.102	9569
365.186	5892
365.270	32758
365.353	47211
365.437	16704
365.521	4610
365.604	1879
365.688	4450
365.771	17283
365.855	6587
365.939	4611
366.022	11513
366.106	3004
366.189	2337
366.273	1772
366.357	918
366.440	943
366.524	942
366.607	1328
366.691	2376
366.774	3636
366.858	14063
366.941	8898
367.024	3663
367.108	14205
367.191	9010
367.275	1692
367.358	186
367.442	1162
367.525	990
367.608	2247
367.692	6004
367.775	4449
367.858	4190
367.942	22211
368.025	10564
368.108	2813
368.192	6814
368.275	8486
368.358	7700
368.442	22742
368.525	29283
368.608	10582
368.691	27061
368.775	16222
368.858	5669
368.941	16290
369.024	8052
369.107	1661
369.190	2827
369.274	2250
369.357	8794
369.440	7461
369.523	3958
369.606	1321
369.689	3799
369.772	2645
369.855	2015
369.939	2267
370.022	5389
370.105	6042
370.188	7329
370.271	6102
370.354	11671
370.437	15262
370.520	29525
370.603	10997
370.686	9517
370.769	20175
370.852	25116
370.935	27258
371.018	7475
371.100	2006
371.183	1655
371.266	826
371.349	640
371.432	1967
371.515	3442
371.598	5517
371.681	15048
371.763	9036
371.846	7494
371.929	45801
372.012	33752
372.095	11021
372.177	22405
372.260	22715
372.343	8045
372.426	24700
372.508	16697
372.591	4382
372.674	20507
372.757	25851
372.839	8222
372.922	31416
373.005	19121
373.087	4779
373.170	7580
373.253	20780
373.335	26028
373.418	55511
373.500	46467
373.583	16060
373.666	46657
373.748	20069
373.831	6550
373.913	5457
373.996	13548
374.078	42451
374.161	15124
374.243	15969
374.326	27466
374.408	9989
374.491	41831
374.573	45092
374.656	9050
374.738	22063
374.821	39202
374.903	58683
374.985	19968
375.068	4215
375.150	7335
375.233	44655
375.315	35105
375.397	8150
375.480	2598
375.562	2264
375.644	4324
375.727	24064
375.809	47665
375.891	37543
375.973	12257
376.056	21079
376.138	19489
376.220	4053
376.302	26146
376.385	25472
376.467	7147
376.549	8692
376.631	19700
376.713	27373
376.795	3399
376.878	1335
376.960	1324
377.042	4979
377.124	16958
377.206	4875
377.288	55
377.370	1009
377.452	1032
377.534	1040
377.616	2037
377.699	525
377.781	379
377.863	1212
377.945	1486
378.027	372
378.109	527
378.190	1619
378.272	434
378.354	702
378.436	870
378.518	12494
378.600	19523
378.682	11109
378.764	20781
378.846	6644
378.928	8033
379.010	5073
379.091	1738
379.173	1203
379.255	1755
379.337	2797
379.419	18130
379.501	20567
379.582	4117
379.664	3329
379.746	11637
379.828	23317
379.909	24687
379.991	7371
380.073	2790
380.155	2025
380.236	1189
380.318	774
380.400	1043
380.481	6479
380.563	5735
380.645	7623
380.726	4822
380.808	2756
380.889	2192
380.971	938
381.053	1910
381.134	2607
381.216	13057
381.297	16930
381.379	6084
381.460	13443
381.542	41752
381.623	13714
381.705	4648
381.786	6000
381.868	4639
381.949	27754
382.031	43550
382.112	15640
382.193	6022
382.275	6614
382.356	20217
382.438	24426
382.519	39573
382.600	26427
382.682	21963
382.763	41760
382.844	19968
382.926	16457
383.007	5019
383.088	10506
383.170	42635
383.251	26882
383.332	30762
383.413	31476
383.495	6305
383.576	5830
383.657	11647
383.738	43258
383.820	51802
383.901	13887
383.982	35718
384.063	46232
384.144	10375
384.225	4266
384.306	3431
384.388	1738
384.469	2503
384.550	3705
384.631	7085
384.712	2730
384.793	1321
384.874	5296
384.955	21444
385.036	9839
385.117	1982
385.198	5365
385.279	8707
385.360	6512
385.441	3401
385.522	13923
385.603	26202
385.684	8314
385.765	9558
385.846	9994
385.927	39770
386.008	21788
386.089	4457
386.169	2853
386.250	5491
386.331	3376
386.412	6125
386.493	20159
386.574	15286
386.654	8261
386.735	7564
386.816	8716
386.897	5900
386.977	2765
387.058	1466
387.139	7834
387.220	20422
387.300	12058
387.381	6354
387.462	10301
387.542	7179
387.623	3008
387.704	13634
387.784	38288
387.865	16291
387.946	2559
388.026	1951
388.107	7509
388.187	27914
388.268	22834
388.349	4688
388.429	2952
388.510	10939
388.590	33306
388.671	21691
388.751	12641
388.832	15404
388.912	2732
388.993	1297
389.073	1164
389.154	1734
389.234	1085
389.314	3967
389.395	2290
389.475	17933
389.556	14811
389.636	3849
389.716	5393
389.797	5667
389.877	14704
389.957	22225
390.038	13885
390.118	4965
390.198	13244
390.279	17637
390.359	9168
390.439	26381
390.519	12120
390.600	10626
390.680	2669
390.760	2270
390.840	1458
390.920	1028
391.001	1220
391.081	4145
391.161	1116
391.241	2336
391.321	10668
391.401	12271
391.481	3040
391.562	610
391.642	2823
391.722	2522
391.802	4206
391.882	3425
391.962	16487
392.042	10858
392.122	9271
392.202	13891
392.282	15325
392.362	13286
392.442	14872
392.522	3900
392.602	3850
392.682	10031
392.762	19440
392.842	6503
392.921	25978
393.001	26370
393.081	6119
393.161	8537
393.241	37808
393.321	97786
393.401	37260
393.480	7860
393.560	3236
393.640	1722
393.720	1107
393.800	28
393.879	676
393.959	1088
394.039	1443
394.119	139
394.198	2011
394.278	12109
394.358	43266
394.437	11317
394.517	1652
394.597	1159
394.676	10729
394.756	28150
394.836	30666
394.915	6615
394.995	1692
395.075	1483
395.154	927
395.234	1722
395.313	682
395.393	-988
395.472	3549
395.552	24382
395.631	25972
395.711	19367
395.790	33145
395.870	6343
395.949	1959
396.029	17004
396.108	55265
396.188	23306
396.267	15845
396.346	12477
396.426	8572
396.505	3426
396.585	4349
396.664	8106
396.743	40622
396.823	72513
396.902	31164
396.981	5534
397.061	3411
397.140	405
397.219	1287
397.298	2410
397.378	930
397.457	1452
397.536	163
397.615	-937
397.694	2582
397.774	1335
397.853	-386
397.932	383
398.011	2549
398.090	22514
398.169	29482
398.249	7991
398.328	2078
398.407	1382
398.486	2072
398.565	2134
398.644	-520
398.723	-342
398.802	1702
398.881	21241
398.960	28623
399.039	3655
399.118	-191
399.197	469
399.276	1197
399.355	45
399.434	1270
399.513	692
399.592	271
399.671	4327
399.750	16054
399.829	37594
399.908	8565
399.986	1232
400.065	-408
400.144	572
400.223	3253
400.302	2126
400.380	2668
400.459	15020
400.538	7734
400.617	1459
400.696	1859
400.774	6543
400.853	16484
400.932	7170
401.011	2164
401.089	24
401.168	539
401.247	1631
401.325	3350
401.404	2703
401.483	2684
401.561	2767
401.640	1884
401.718	4482
401.797	1730
401.876	455
401.954	-215
402.033	984
402.111	4692
402.190	2221
402.268	1392
402.347	7023
402.425	18081
402.504	2439
402.582	4481
402.661	2999
402.739	583
402.818	1056
402.896	1997
402.974	18139
403.053	22006
403.131	3882
403.210	14047
403.288	17363
403.366	14703
403.445	9864
403.523	3719
403.601	467
403.680	-1387
403.758	806
403.836	-513
403.915	-388
403.993	364
404.071	4543
404.149	1200
404.228	-199
404.306	1766
404.384	2018
404.462	11368
404.540	36983
404.618	6648
404.697	814
404.775	526
404.853	491
404.931	-104
405.009	-341
405.087	565
405.165	-685
405.243	-970
405.321	280
405.399	1785
405.478	5203
405.556	1322
405.634	-547
405.712	672
405.790	2828
405.868	1362
405.945	5449
406.023	2441
406.101	-330
406.179	1781
406.257	14227
406.335	28414
406.413	9020
406.491	3789
406.569	-639
406.647	1100
406.724	1911
406.802	586
406.880	-153
406.958	579
407.036	4803
407.113	26374
407.191	8723
407.269	1038
407.347	-96
407.424	159
407.502	-292
407.580	1505
407.658	1713
407.735	5033
407.813	11322
407.891	3500
407.968	280
408.046	332
408.124	977
408.201	5794
408.279	1505
408.356	270
408.434	748
408.512	-105
408.589	-809
408.667	-520
408.744	-261
408.822	-703
408.899	-626
408.977	-389
409.054	-988
409.132	-156
409.209	1236
409.287	-275
409.364	-132
409.441	-417
409.519	395
409.596	295
409.674	-957
409.751	10
409.828	579
409.906	2598
409.983	-153
410.060	155
410.138	558
410.215	-262
410.292	-1005
410.370	-648
410.447	1846
410.524	96
410.601	-114
410.678	726
410.756	525
410.833	-732
410.910	1835
410.987	1573
411.064	1242
411.142	6183
411.219	5626
411.296	837
411.373	426
411.450	3251
411.527	1732
411.604	153
411.681	-415
411.758	1058
411.835	1334
411.913	-51
411.990	236
412.067	728
412.144	2264
412.221	1997
412.298	4898
412.374	-252
412.451	-59
412.528	-382
412.605	199
412.682	3920
412.759	3600
412.836	956
412.913	149
412.990	-173
413.067	3659
413.143	12909
413.220	5509
413.297	301
413.374	2834
413.451	872
413.527	91
413.604	1710
413.681	1382
413.758	612
413.834	-473
413.911	-761
413.988	-726
414.065	326
414.141	228
414.218	3104
414.295	13747
414.371	11337
414.448	270
414.524	-171
414.601	217
414.678	515
414.754	21
414.831	-396
414.907	394
414.984	894
415.060	1875
415.137	-363
415.213	174
415.290	614
415.366	1936
415.443	1397
415.519	-817
415.596	-91
415.672	1124
415.749	929
415.825	219
415.902	996
415.978	1183
416.054	-377
416.131	-1028
416.207	-1806
416.283	430
416.360	483
416.436	-154
416.512	-1057
416.589	129
416.665	-427
416.741	-871
416.817	-779
416.894	-102
416.970	-317
417.046	1495
417.122	1043
417.198	-9
417.275	-503
417.351	-635
417.427	400
417.503	818
417.579	730
417.655	296
417.731	406
417.808	-984
417.884	323
417.960	-505
418.036	-919
418.112	2808
418.188	1203
418.264	302
418.340	577
418.416	-118
418.492	2458
418.568	5377
418.644	5174
418.720	4034
418.796	1387
418.872	-328
418.947	-614
419.023	268
419.099	2277
419.175	-251
419.251	-541
419.327	-1044
419.403	-188
419.478	-610
419.554	91
419.630	-785
419.706	103
419.782	4169
419.857	4944
419.933	889
420.009	1101
420.085	3381
420.160	10488
420.236	3396
420.312	1036
420.387	646
420.463	-436
420.539	634
420.614	110
420.690	513
420.766	-1773
420.841	-243
420.917	-125
420.992	911
421.068	-275
421.143	465
421.219	-1553
421.294	203
421.370	-1387
421.445	416
421.521	21
421.596	524
421.672	100
421.747	-225
421.823	-221
421.898	1085
421.974	-359
422.049	-978
422.124	126
422.200	508
422.275	1722
422.350	1717
422.426	4057
422.501	11101
422.576	41120
422.652	48214
422.727	16026
422.802	4532
422.878	1486
422.953	-90
423.028	-586
423.103	-179
423.178	96
423.254	1113
423.329	2554
423.404	-120
423.479	2709
423.554	4473
423.630	1072
423.705	2013
423.780	1677
423.855	921
423.930	342
424.005	-817
424.080	-15
424.155	-379
424.230	-1145
424.305	-533
424.380	-613
424.455	-66
424.530	-466
424.605	-134
424.680	552
424.755	471
424.830	482
424.905	2399
424.980	10651
425.055	8422
425.130	1036
425.204	393
425.279	-1082
425.354	-150
425.429	-1066
425.504	1289
425.579	519
425.653	-328
425.728	-248
425.803	1531
425.878	1402
425.952	7658
426.027	10358
426.102	1969
426.177	1069
426.251	7149
426.326	1350
426.401	141
426.475	1084
426.550	-345
426.625	568
426.699	-118
426.774	-705
426.848	416
426.923	642
426.998	3416
427.072	17039
427.147	18515
427.221	3407
427.296	1380
427.370	5381
427.445	3978
427.519	996
427.594	2166
427.668	975
427.743	613
427.817	2001
427.892	-999
427.966	213
428.040	1100
428.115	4191
428.189	11023
428.263	10265
428.338	1004
428.412	2494
428.486	7424
428.561	12600
428.635	8989
428.709	11193
428.784	7141
428.858	19997
428.932	9357
429.006	11936
429.080	9983
429.155	1026
429.229	-11
429.303	3473
429.377	6125
429.451	4777
429.526	11514
429.600	2536
429.674	575
429.748	7916
429.822	28608
429.896	21371
429.970	29321
430.044	38599
430.118	13205
430.192	16570
430.266	5179
430.340	131
430.414	1497
430.488	19518
430.562	26332
430.636	8545
430.710	25264
430.784	13473
430.858	1193
430.932	-444
431.006	749
431.080	-856
431.153	-187
431.227	529
431.301	602
431.375	8916
431.449	12698
431.523	1816
431.596	-681
431.670	-517
431.744	3268
431.818	10759
431.891	1410
431.965	-570
432.039	1661
432.112	2351
432.186	941
432.260	-358
432.333	-414
432.407	2431
432.481	17538
432.554	17456
432.628	3522
432.702	-203
432.775	-1583
432.849	-1280
432.922	-14
432.996	-813
433.069	-1297
433.143	-276
433.216	-185
433.290	-131
433.363	-556
433.437	56
433.510	-1149
433.584	166
433.657	-6
433.730	1009
433.804	-227
433.877	-699
433.951	-695
434.024	-138
434.097	-328
434.171	-648
434.244	-1057
434.317	-1149
434.391	-99
434.464	-900
434.537	-79
434.610	-382
434.684	253
434.757	-1194
434.830	-950
434.903	-1152
434.977	-200
435.050	-947
435.123	-624
435.196	658
435.269	166
435.342	-348
435.415	-977
435.489	-705
435.562	-1138
435.635	-387
435.708	-941
435.781	-419
435.854	-343
435.927	-377
436.000	-531
436.073	-35
436.146	-780
436.219	-733
436.292	-1025
436.365	-829
436.438	-1298
436.511	-843
436.584	-554
436.657	-935
436.729	168
436.802	-622
436.875	993
436.948	532
437.021	-1075
437.094	-661
437.166	54
437.239	86
437.312	-1214
437.385	-917
437.457	-58
437.530	1264
437.603	-66
437.676	-630
437.748	-109
437.821	3070
437.894	4594
437.966	-355
438.039	-671
438.112	-514
438.184	1379
438.257	15909
438.330	20689
438.402	7226
438.475	1306
438.547	-386
438.620	-163
438.692	-386
438.765	-136
438.837	-177
438.910	2045
438.982	1613
439.055	-948
439.127	-704
439.200	-1541
439.272	214
439.345	1685
439.417	4114
439.489	2440
439.562	-518
439.634	-285
439.707	-648
439.779	-1194
439.851	-970
439.923	-117
439.996	463
440.068	-129
440.140	-1547
440.213	-1679
440.285	826
440.357	10856
440.429	21506
440.502	3573
440.574	1037
440.646	949
440.718	2725
440.790	3900
440.862	594
440.935	-349
441.007	-375
441.079	-754
441.151	-1275
441.223	-1113
441.295	-1032
441.367	420
441.439	9977
441.511	4303
441.583	1111
441.655	4567
441.727	1220
441.799	-680
441.871	-935
441.943	-929
442.015	-923
442.087	567
442.159	1693
442.231	1455
442.303	522
442.374	51
442.446	4309
442.518	7582
442.590	5045
442.662	13002
442.734	1622
442.805	-336
442.877	-702
442.949	1635
443.021	1176
443.092	247
443.164	-811
443.236	-182
443.308	3443
443.379	8065
443.451	13742
443.523	7657
443.594	2225
443.666	106
443.737	-568
443.809	-196
443.881	-861
443.952	1246
444.024	1144
444.095	222
444.167	1012
444.238	747
444.310	1314
444.381	1165
444.453	-722
444.524	-701
444.596	-728
444.667	-779
444.739	-410
444.810	4694
444.882	8980
444.953	2148
445.024	7404
445.096	4098
445.167	572
445.238	7204
445.310	13943
445.381	16497
445.452	24999
445.524	12866
445.595	4076
445.666	12557
445.737	7616
445.809	587
445.880	350
445.951	1113
446.022	375
446.094	953
446.165	565
446.236	85
446.307	1139
446.378	-214
446.449	173
446.520	4224
446.591	868
446.663	-184
446.734	374
446.805	1272
446.876	265
446.947	-693
447.018	523
447.089	3003
447.160	161
447.231	-1550
447.302	-716
447.373	-397
447.444	-21
447.514	357
447.585	-82
447.656	-983
447.727	-892
447.798	-844
447.869	-604
447.940	479
448.010	2428
448.081	6409
448.152	1576
448.223	1209
448.294	-386
448.364	42
448.435	-589
448.506	-587
448.577	-1559
448.647	-610
448.718	-546
448.789	391
448.859	3389
448.930	1218
449.001	-943
449.071	-859
449.142	-791
449.213	-150
449.283	-1319
449.354	-4
449.424	1067
449.495	279
449.565	4068
449.636	367
449.706	-539
449.777	-747
449.847	-1263
449.918	-1344
449.988	-924
450.059	535
450.129	-175
450.200	-383
450.270	-807
450.340	-312
450.411	-1037
450.481	-1034
450.551	-208
450.622	-658
450.692	-105
450.762	-933
450.833	-1048
450.903	-537
450.973	-1605
451.043	-270
451.114	42
451.184	6308
451.254	8040
451.324	967
451.395	-398
451.465	-481
451.535	-1075
451.605	-722
451.675	1459
451.745	12969
451.815	5644
451.885	-965
451.956	-676
452.026	-525
452.096	-498
452.166	2929
452.236	11649
452.306	1797
452.376	-922
452.446	-572
452.516	-582
452.586	1474
452.656	7663
452.725	5987
452.795	2788
452.865	861
452.935	40
453.005	481
453.075	-72
453.145	1020
453.215	11792
453.284	13546
453.354	15334
453.424	31460
453.494	40847
453.564	39965
453.633	5505
453.703	665
453.773	-858
453.843	-219
453.895	-473
453.912	-649
453.976	-675
453.982	-766
454.052	-630
454.057	-561
454.121	-611
454.139	-264
454.191	1085
454.220	2150
454.261	2350
454.301	4679
454.330	3735
454.382	7157
454.400	8665
454.463	6282
454.469	6127
454.539	3301
454.544	3577
454.608	7648
454.625	9948
454.678	15632
454.707	20948
454.748	18856
454.788	22675
454.817	22920
454.869	13260
454.887	12006
454.950	8653
454.956	8799
455.026	17639
455.031	19268
455.095	20225
455.112	22887
455.165	19629
455.193	15167
455.234	17108
455.274	15406
455.303	16235
455.355	23920
455.373	21609
455.436	19082
455.442	17978
455.512	14066
455.517	12691
455.581	5182
455.598	4667
455.650	3051
455.679	3066
455.720	3169
455.760	3271
455.789	3482
455.841	4567
455.858	4311
455.922	4036
455.928	4039
455.997	3422
456.003	3483
456.066	6602
456.084	7689
456.136	12755
456.165	16131
456.205	16571
456.245	17483
456.274	13231
456.326	5978
456.343	5923
456.407	3240
456.412	3010
456.482	3056
456.488	3092
456.551	2923
456.569	2897
456.620	3162
456.650	3275
456.689	3267
456.730	3413
456.758	3691
456.811	4707
456.827	6042
456.892	11982
456.897	12904
456.966	27754
456.973	29726
457.035	45067
457.054	50095
457.104	25779
457.134	11113
457.173	9046
457.215	5879
457.242	5807
457.296	5895
457.311	5835
457.377	6971
457.380	7000
457.449	7540
457.457	7674
457.518	10464
457.538	11642
457.587	15368
457.619	17692
457.656	23529
457.699	30897
457.725	27915
457.780	21781
457.794	22138
457.861	24624
457.863	24946
457.932	36669
457.941	38627
458.001	42592
458.022	44480
458.070	28401
458.103	16593
458.138	15173
458.183	12965
458.207	14056
458.264	17521
458.276	20318
458.344	37069
458.345	37250
458.414	72399
458.425	78298
458.483	58274
458.506	50753
458.551	31798
458.586	16264
458.620	13912
458.667	10938
458.689	11006
458.747	11577
458.758	12013
458.826	15210
458.828	15278
458.895	12917
458.908	12513
458.964	13611
458.989	14132
459.033	16293
459.069	17988
459.101	18072
459.150	18934
459.170	19966
459.230	21768
459.239	21134
459.307	16919
459.311	16712
459.376	14171
459.391	13431
459.444	12293
459.471	11840
459.513	12003
459.552	12061
459.582	13486
459.632	16087
459.650	16770
459.713	18891
459.719	18990
459.787	20519
459.793	20601
459.856	14671
459.873	13005
459.924	13167
459.954	13115
459.993	16029
460.034	19232
460.061	23000
460.114	30277
460.130	28288
460.195	19992
460.198	19757
460.267	14247
460.275	13546
460.335	14941
460.355	15400
460.404	16785
460.436	17644
460.472	22052
460.516	27377
460.540	29837
460.596	35650
460.609	32777
460.676	16333
460.677	16374
460.745	17342
460.757	17438
460.814	16788
460.837	16571
460.882	19376
460.917	21344
460.950	22445
460.997	23751
461.019	21710
461.077	16459
461.087	16767
461.155	18086
461.158	18083
461.224	18853
461.238	19058
461.292	20235
461.318	20610
461.360	28858
461.398	36354
461.428	61085
461.478	101864
461.496	132959
461.558	238116
461.565	226341
461.633	92848
461.638	81664
461.701	42241
461.719	29444
461.769	29220
461.799	30164
461.837	25667
461.879	21028
461.905	22326
461.959	24694
461.973	30255
462.039	54511
462.042	57570
462.110	129715
462.119	139112
462.178	110816
462.199	100619
462.246	56431
462.279	23668
462.314	25273
462.359	26492
462.382	24570
462.439	20560
462.450	20818
462.518	21968
462.519	21904
462.586	23756
462.599	24037
462.654	36012
462.679	41262
462.722	65055
462.759	85379
462.790	70352
462.839	45888
462.858	40272
462.919	21547
462.926	21683
462.993	20660
462.999	20568
463.061	23490
463.078	24180
463.129	25714
463.158	26445
463.197	27660
463.238	28834
463.265	31631
463.318	36831
463.333	36523
463.398	33981
463.401	34153
463.468	35362
463.478	35302
463.536	50613
463.558	56099
463.604	77658
463.637	92729
463.672	118980
463.717	152945
463.739	195276
463.797	302759
463.807	281559
463.875	131610
463.877	127002
463.943	48148
463.957	30414
464.010	26773
464.036	25335
464.078	26760
464.116	28154
464.146	30878
464.196	35175
464.213	37108
464.275	43371
464.281	45637
464.349	71434
464.355	73646
464.416	46558
464.435	37925
464.484	37660
464.515	37084
464.551	41052
464.594	45277
464.619	41026
464.674	30961
464.686	32287
464.754	38262
464.754	38573
464.821	58114
464.833	61213
464.889	42956
464.913	34943
464.956	30178
464.992	25656
465.024	26997
465.072	28867
465.091	29809
465.152	32145
465.159	33738
465.226	47039
465.231	47762
465.294	70328
465.311	76064
465.361	105766
465.390	122274
465.429	190364
465.470	261970
465.496	215599
465.549	117292
465.563	102480
465.629	29494
465.631	29598
465.698	27749
465.708	27460
465.765	26891
465.788	26451
465.833	25599
465.867	24753
465.900	26006
465.947	27421
465.967	27839
466.026	28499
466.035	28629
466.102	28421
466.106	28255
466.169	29040
466.185	29049
466.236	30718
466.265	31383
466.304	35265
466.344	38936
466.371	46615
466.423	61120
466.438	77706
466.503	150316
466.505	157426
466.572	347976
466.582	374411
466.639	240548
466.662	186475
466.707	110732
466.741	51165
466.774	47015
466.820	40397
466.841	40191
466.900	38933
466.908	39035
466.975	38150
466.979	37888
467.042	41261
467.058	41848
467.109	45281
467.138	46823
467.176	47287
467.217	47236
467.243	52302
467.296	61695
467.310	63925
467.375	72320
467.377	72046
467.455	41504
467.534	44983
467.613	52624
467.692	69708
467.772	72511
467.851	70173
467.930	159509
468.009	415400
468.088	222497
468.167	43728
468.246	48137
468.326	49221
468.405	43595
468.484	44634
468.563	50784
468.642	51773
468.721	46690
468.800	48616
468.879	87136
468.958	173504
469.037	86073
469.116	41111
469.195	44390
469.274	37663
469.353	34887
469.432	39067
469.511	49338
469.590	61572
469.669	112613
469.748	134846
469.827	42084
469.905	40230
469.984	40377
470.063	49501
470.142	71027
470.221	65522
470.300	51669
470.378	43995
470.457	45570
470.536	65145
470.615	63933
470.694	53925
470.772	86849
470.851	146972
470.930	61158
471.008	31945
471.087	30188
471.166	30644
471.245	36075
471.323	42184
471.402	42054
471.480	31855
471.559	32092
471.638	32586
471.716	30187
471.795	31860
471.873	31989
471.952	37432
472.031	56768
472.109	93193
472.188	63656
472.266	31315
472.345	30986
472.423	31392
472.502	37586
472.580	54156
472.659	45017
472.737	42443
472.815	36758
472.894	49713
472.972	65978
473.051	38161
473.129	47350
473.207	62635
473.286	46986
473.364	45941
473.443	62394
473.521	96605
473.599	47309
473.677	34586
473.756	42218
473.834	37239
473.912	42608
473.991	66170
474.069	131461
474.147	152903
474.225	36989
474.303	32359
474.382	37345
474.460	40098
474.538	41248
474.616	47021
474.694	34979
474.772	30140
474.851	30361
474.929	33292
475.007	35409
475.085	39476
475.163	61511
475.241	123190
475.319	58098
475.397	38327
475.475	51633
475.553	112203
475.631	300626
475.709	317223
475.787	324632
475.865	58574
475.943	56763
476.021	95331
476.099	110198
476.177	48932
476.255	47357
476.333	57703
476.410	92171
476.488	110197
476.566	48592
476.644	45674
476.722	45827
476.800	51416
476.877	44457
476.955	46466
477.033	43724
477.111	44901
477.189	39501
477.266	37232
477.344	36339
477.422	42135
477.499	42899
477.577	47947
477.655	80348
477.732	53048
477.810	48190
477.888	45412
477.965	50412
478.043	63458
478.121	91009
478.198	157385
478.276	49483
478.353	37448
478.431	40238
478.508	52625
478.586	41013
478.664	40910
478.741	49902
478.819	61237
478.896	39879
478.974	47455
479.051	76228
479.128	75807
479.206	33999
479.283	33973
479.361	37251
479.438	57440
479.516	55989
479.593	51641
479.670	60264
479.748	70887
479.825	127015
479.902	53986
479.980	37853
480.057	39468
480.134	42307
480.211	48501
480.289	82021
480.366	167411
480.443	90739
480.520	48853
480.598	57387
480.675	69204
480.752	55129
480.829	46651
480.906	54586
480.984	61074
481.061	64004
481.138	46776
481.215	39342
481.292	40867
481.369	42606
481.446	43401
481.523	41712
481.600	44463
481.677	52448
481.754	71074
481.831	136395
481.908	190209
481.985	54979
482.062	59169
482.139	120116
482.216	183041
482.293	55732
482.370	52058
482.447	48828
482.524	46863
482.601	56386
482.678	38420
482.755	35545
482.832	37605
482.908	40430
482.985	51118
483.062	58050
483.139	46696
483.216	39071
483.293	41410
483.369	46561
483.446	67825
483.523	47582
483.600	44070
483.676	52747
483.753	66707
483.830	131783
483.906	375907
483.983	231387
484.060	53297
484.136	52741
484.213	54732
484.290	51418
484.366	42759
484.443	47994
484.519	52844
484.596	59862
484.673	92588
484.749	65061
484.826	45433
484.902	50121
484.979	64157
485.055	50919
485.132	45883
485.208	51530
485.285	68916
485.361	137966
485.437	339256
485.514	123693
485.590	53115
485.667	53972
485.743	83499
485.819	160762
485.896	67390
485.972	43815
486.049	44285
486.125	48016
486.201	68543
486.277	87047
486.354	68015
486.430	51967
486.506	58658
486.583	97881
486.659	232957
486.735	142902
486.811	220087
486.887	339627
486.964	367678
487.040	324991
487.116	137495
487.192	51861
487.268	59674
487.344	81208
487.420	91501
487.497	71639
487.573	140163
487.649	352302
487.725	242270
487.801	76204
487.877	72659
487.953	103606
488.029	107664
488.105	69214
488.181	69094
488.257	141934
488.333	439673
488.409	251756
488.485	63231
488.561	54270
488.637	57611
488.712	80010
488.788	104019
488.864	230269
488.940	567378
489.016	583291
489.092	96731
489.168	65639
489.243	49984
489.319	38727
489.395	38208
489.471	40673
489.547	42670
489.622	48848
489.698	71697
489.774	198187
489.849	414393
489.925	81466
490.001	44494
490.076	57388
490.152	105210
490.228	87825
490.303	42634
490.379	35713
490.455	32512
490.530	36282
490.606	41795
490.681	48314
490.757	57375
490.833	66003
490.908	67322
490.984	63748
491.059	62732
491.135	139277
491.210	353476
491.286	90502
491.361	65601
491.436	51139
491.512	56366
491.587	80455
491.663	153928
491.738	416749
491.814	450307
491.889	901715
491.964	371283
492.040	174891
492.115	49798
492.190	47714
492.266	58397
492.341	65172
492.416	65760
492.491	50692
492.567	54279
492.642	123861
492.717	121006
492.792	35535
492.868	35921
492.943	31392
493.018	32033
493.093	37657
493.168	54905
493.243	78388
493.318	43596
493.394	32439
493.469	34513
493.544	47233
493.619	95983
493.694	150314
493.769	94612
493.844	50605
493.919	38669
493.994	46160
494.069	35777
494.144	31815
494.219	30016
494.294	31817
494.369	32443
494.444	42122
494.519	48341
494.594	36390
494.669	46001
494.744	32382
494.818	34236
494.893	36087
494.968	31380
495.043	33864
495.118	38864
495.193	44017
495.267	57927
495.342	85529
495.417	114826
495.492	264086
495.566	1007030
495.641	1082950
495.716	119183
495.791	62240
495.865	54241
495.940	49440
496.015	47911
496.089	49860
496.164	50107
496.239	56535
496.313	76986
496.388	73303
496.462	102769
496.537	61190
496.612	63587
496.686	86010
496.761	70558
496.835	55279
496.910	54850
496.984	47929
497.059	56798
497.133	92329
497.208	79580
497.282	65620
497.357	125944
497.431	102286
497.505	63448
497.580	93539
497.654	175518
497.729	137071
497.803	123730
497.877	210596
497.952	689307
498.026	1940024
498.100	435283
498.175	164546
498.249	128409
498.323	96043
498.397	121393
498.472	72846
498.546	66109
498.620	82117
498.694	133542
498.768	262991
498.843	305728
498.917	1117870
498.991	1228064
499.065	103726
499.139	57799
499.213	67279
499.287	81445
499.362	69361
499.436	69576
499.510	112398
499.584	163557
499.658	168146
499.732	526114
499.806	1461633
499.880	294202
499.954	240676
500.028	183088
500.102	103109
500.176	72611
500.250	76836
500.324	109837
500.397	224152
500.471	455182
500.545	1032142
500.619	672150
500.693	83718
500.767	89162
500.841	110107
500.914	72438
500.988	106218
501.062	199612
501.136	289997
501.210	682649
501.283	1387524
501.357	312947
501.431	330168
501.505	317781
501.578	70668
501.652	84752
501.726	117555
501.799	291674
501.873	535146
501.947	102371
502.020	131361
502.094	389393
502.167	481241
502.241	147399
502.315	424774
502.388	421927
502.462	173837
502.535	68437
502.609	68896
502.682	58268
502.756	40849
502.829	43210
502.903	41188
502.976	48765
503.050	46885
503.123	51436
503.196	66303
503.270	91687
503.343	192188
503.417	716479
503.490	948414
503.563	259003
503.637	268921
503.710	519716
503.783	259846
503.857	563095
503.930	196517
504.003	206903
504.076	134012
504.150	67086
504.223	84779
504.296	56970
504.369	50048
504.443	44293
504.516	35144
504.589	35951
504.662	51095
504.735	53743
504.808	100020
504.881	84441
504.954	49822
505.028	84275
505.101	77781
505.174	81872
505.247	42530
505.320	37363
505.393	32203
505.466	28385
505.539	31049
505.612	33894
505.685	31715
505.758	33932
505.831	33284
505.904	35951
505.977	42152
506.049	84787
506.122	69182
506.195	95542
506.268	339768
506.341	563832
506.414	98579
506.487	69251
506.559	41057
506.632	45432
506.705	79322
506.778	79201
506.851	40401
506.923	43869
506.996	85591
507.069	55554
507.141	37730
507.214	38202
507.287	62192
507.360	58180
507.432	33026
507.505	34269
507.577	28402
507.650	32152
507.723	54137
507.795	71829
507.868	36719
507.940	25387
508.013	29547
508.086	28540
508.158	44803
508.231	42426
508.303	30141
508.376	38959
508.448	34901
508.520	61542
508.593	69224
508.665	25214
508.738	25967
508.810	24124
508.883	31990
508.955	35757
509.027	24246
509.100	23292
509.172	22010
509.244	21267
509.317	22616
509.389	27104
509.461	28893
509.534	39733
509.606	38850
509.678	47886
509.750	55620
509.822	27430
509.895	23231
509.967	22229
510.039	22845
510.111	24868
510.183	30019
510.255	23320
510.328	24385
510.400	24779
510.472	25978
510.544	39033
510.616	68360
510.688	32745
510.760	37849
510.832	49732
510.904	60992
510.976	31067
511.048	26518
511.120	41032
511.192	100178
511.264	42276
511.336	21057
511.408	21943
511.480	22051
511.552	21280
511.624	25327
511.695	25790
511.767	34158
511.839	71782
511.911	149657
511.983	37209
512.055	33162
512.126	27683
512.198	39563
512.270	44230
512.342	47650
512.414	46455
512.485	33759
512.557	41217
512.629	38442
512.700	27463
512.772	37619
512.844	25209
512.915	24393
512.987	33988
513.059	35945
513.130	55836
513.202	94750
513.273	57570
513.345	29112
513.416	27332
513.488	31393
513.560	46880
513.631	54266
513.703	64335
513.774	194074
513.845	141635
513.917	30847
513.988	31895
514.060	43893
514.131	54486
514.203	34979
514.274	31297
514.345	66950
514.417	132832
514.488	39238
514.560	69690
514.631	100666
514.702	41160
514.773	29684
514.845	27444
514.916	37198
514.987	46925
515.059	97995
515.130	50025
515.201	26024
515.272	29807
515.343	22402
515.414	21768
515.486	21490
515.557	22498
515.628	21704
515.699	24750
515.770	28768
515.841	30297
515.912	28886
515.983	34976
516.055	57005
516.126	71979
516.197	47022
516.268	44987
516.339	61562
516.410	88871
516.481	160940
516.552	521344
516.622	891419
516.693	120830
516.764	107395
516.835	91751
516.906	123349
516.977	229083
517.048	463787
517.119	1352957
517.190	749460
517.260	402767
517.331	60972
517.402	47584
517.473	45534
517.544	43913
517.614	44894
517.685	46026
517.756	54180
517.827	61127
517.897	71361
517.968	103816
518.039	148831
518.109	310387
518.180	1144496
518.250	1614389
518.321	173749
518.392	68811
518.462	76865
518.533	72385
518.603	77610
518.674	127949
518.745	217307
518.815	111571
518.886	80179
518.956	121333
519.027	216623
519.097	357782
519.168	541886
519.238	107729
519.309	87047
519.379	103538
519.449	53729
519.520	39431
519.590	33182
519.660	35477
519.731	44574
519.801	32971
519.871	34344
519.942	46774
520.012	50884
520.082	61797
520.153	42357
520.223	31617
520.293	37632
520.363	33014
520.434	53218
520.504	52507
520.574	42344
520.644	64280
520.714	88485
520.784	101267
520.855	318819
520.925	466649
520.995	54508
521.065	41715
521.135	38272
521.205	33543
521.275	31545
521.345	47728
521.415	58653
521.485	69123
521.555	45797
521.625	49248
521.695	34009
521.765	38662
521.835	66097
521.905	35210
521.975	33489
522.045	38006
522.115	67982
522.185	86535
522.254	157244
522.324	236752
522.394	119347
522.464	97667
522.534	282585
522.603	324943
522.673	47107
522.743	38786
522.813	48406
522.883	53619
522.952	43374
523.022	55405
523.092	117733
523.161	343604
523.231	87850
523.301	30222
523.370	31237
523.440	27352
523.509	23749
523.579	25378
523.649	28378
523.718	49027
523.788	28972
523.857	25637
523.927	31158
523.996	30692
524.066	31269
524.135	39927
524.205	27120
524.274	26432
524.344	27029
524.413	29357
524.483	39844
524.552	46894
524.621	40158
524.691	27177
524.760	26055
524.830	27218
524.899	38835
524.968	42059
525.038	43725
525.107	42418
525.176	27100
525.245	30533
525.315	28262
525.384	33858
525.453	45007
525.522	28669
525.591	28590
525.661	30936
525.730	31084
525.799	42748
525.868	67818
525.937	80200
526.006	174402
526.076	278952
526.145	138721
526.214	134848
526.283	216465
526.352	197551
526.421	434100
526.490	262515
526.559	161045
526.628	93444
526.697	152913
526.766	418771
526.835	937538
526.904	780775
526.973	128742
527.042	43356
527.110	37046
527.179	52626
527.248	33099
527.317	27915
527.386	24922
527.455	24273
527.523	21816
527.592	23295
527.661	22671
527.730	24615
527.799	25215
527.867	24531
527.936	32748
528.005	54371
528.074	77224
528.142	58273
528.211	130362
528.280	68779
528.348	28102
528.417	19613
528.485	20535
528.554	20959
528.623	18537
528.691	23207
528.760	26073
528.828	21682
528.897	18492
528.965	18485
529.034	18557
529.102	17826
529.171	20972
529.239	21200
529.308	22962
529.376	24935
529.445	43575
529.513	30239
529.581	56163
529.650	40566
529.718	42967
529.786	23020
529.855	25369
529.923	21944
529.992	24856
530.060	39736
530.128	46278
530.196	21703
530.265	18488
530.333	17692
530.401	19859
530.469	17365
530.537	20249
530.606	25543
530.674	19915
530.742	19600
530.810	19440
530.878	18232
530.946	20607
531.014	19206
531.083	20710
531.151	20260
531.219	21904
531.287	19778
531.355	19069
531.423	20832
531.491	22686
531.559	22688
531.627	20168
531.695	19484
531.763	20186
531.831	22023
531.898	22488
531.966	25724
532.034	27545
532.102	33635
532.170	45986
532.238	106814
532.306	177487
532.374	46662
532.441	44165
532.509	58237
532.577	114106
532.645	405186
532.712	347378
532.780	48221
532.848	25317
532.916	23153
532.983	21690
533.051	22034
533.119	24884
533.186	24959
533.254	19920
533.322	20416
533.389	20212
533.457	21129
533.524	25578
533.592	25304
533.659	24184
533.727	26070
533.794	35580
533.862	72753
533.930	70021
533.997	72383
534.064	23336
534.132	20446
534.199	21931
534.267	20148
534.334	21409
534.402	19024
534.469	19945
534.536	21976
534.604	25465
534.671	33772
534.738	57632
534.806	160653
534.873	68281
534.940	31682
535.008	32374
535.075	19181
535.142	21165
535.209	23855
535.276	18610
535.344	17516
535.411	16705
535.478	18660
535.545	17537
535.612	18140
535.679	19290
535.747	19431
535.814	19641
535.881	19768
535.948	21501
536.015	21740
536.082	22203
536.149	26072
536.216	29576
536.283	41093
536.350	60199
536.417	45097
536.484	42291
536.551	59563
536.618	72805
536.685	46130
536.752	50131
536.818	93012
536.885	110846
536.952	125957
537.019	331491
537.086	71020
537.153	23448
537.219	25789
537.286	20595
537.353	20441
537.420	18784
537.487	20330
537.553	21835
537.620	24354
537.687	20818
537.753	19479
537.820	24049
537.887	24524
537.953	25764
538.020	29731
538.087	39944
538.153	80196
538.220	103244
538.286	34218
538.353	22782
538.419	18903
538.486	19105
538.553	20637
538.619	18959
538.685	21869
538.752	28641
538.818	36478
538.885	32261
538.951	26312
539.018	28470
539.084	28041
539.150	41148
539.217	49053
539.283	26185
539.350	28311
539.416	34211
539.482	52297
539.549	145794
539.615	141505
539.681	28841
539.747	23817
539.814	25982
539.880	32310
539.946	34305
540.012	31156
540.078	32164
540.145	40457
540.211	73096
540.277	127400
540.343	81090
540.409	145936
540.475	166376
540.541	27173
540.607	23770
540.673	24170
540.740	28486
540.806	45710
540.872	46518
540.937	57931
541.004	41167
541.069	24547
541.135	26828
541.201	30720
541.267	40963
541.333	67538
541.399	84530
541.465	33095
541.531	21108
541.597	20357
541.663	20148
541.728	20759
541.794	21983
541.860	21299
541.926	24132
541.992	24016
542.057	28880
542.123	41495
542.189	61585
542.255	107409
542.320	65960
542.386	26878
542.452	26177
542.517	28200
542.583	25249
542.648	32600
542.714	46864
542.780	101559
542.845	211086
542.911	45961
542.976	20388
543.042	22772
543.107	25723
543.173	30870
543.238	41812
543.304	105162
543.369	64325
543.435	21210
543.500	19993
543.566	21304
543.631	16637
543.697	19190
543.762	16913
543.827	16250
543.893	16878
543.958	17845
544.023	16257
544.089	19340
544.154	20300
544.219	22277
544.284	31064
544.350	48166
544.415	48587
544.480	62989
544.545	173746
544.610	94779
544.676	26500
544.741	30258
544.806	29039
544.871	23253
544.936	26249
545.001	27758
545.066	30255
545.132	31764
545.197	36679
545.262	45792
545.327	59572
545.392	117623
545.457	129631
545.522	32333
545.587	27369
545.652	24411
545.717	25494
545.781	24727
545.846	27112
545.911	34228
545.976	30810
546.041	29453
546.106	35869
546.171	49453
546.236	37848
546.300	28118
546.365	24105
546.430	27926
546.495	31004
546.559	29102
546.624	24223
546.689	26070
546.754	24986
546.818	27241
546.883	29379
546.948	34686
547.012	37156
547.077	32751
547.142	38869
547.206	42299
547.271	54623
547.335	45863
547.400	34665
547.464	42564
547.529	54389
547.594	47882
547.658	56807
547.722	35784
547.787	31666
547.852	32373
547.916	38616
547.980	51588
548.045	63175
548.109	37623
548.174	32620
548.238	30059
548.302	27881
548.367	29633
548.431	30707
548.495	32041
548.560	35631
548.624	41446
548.688	54808
548.752	42691
548.817	42596
548.881	66296
548.945	40630
549.009	30656
549.073	30029
549.138	28308
549.202	31432
549.266	30685
549.330	30018
549.394	30119
549.458	31042
549.522	33944
549.586	46058
549.650	51937
549.715	37386
549.779	34372
549.843	36188
549.907	38549
549.971	41976
550.034	46516
550.098	37383
550.162	39741
550.226	52432
550.290	55711
550.354	36699
550.418	40915
550.482	43899
550.546	60473
550.609	44998
550.673	39391
550.737	41474
550.801	44562
550.865	47261
550.928	56025
550.992	69535
551.056	100970
551.120	181714
551.183	115525
551.247	99081
551.311	208534
551.374	98564
551.438	39731
551.502	37458
551.565	34394
551.629	35300
551.692	34939
551.756	33490
551.819	33350
551.883	32900
551.946	32781
552.010	32607
552.073	31925
552.137	32989
552.200	31503
552.264	31838
552.327	31878
552.391	34203
552.454	33164
552.517	36619
552.581	37149
552.644	44825
552.708	59557
552.771	55671
552.834	38399
552.897	37472
552.961	37859
553.024	32103
553.087	32038
553.151	34308
553.214	32605
553.277	32153
553.340	35284
553.403	40065
553.466	35722
553.530	32624
553.593	33181
553.656	33729
553.719	32162
553.782	31962
553.845	31457
553.908	29199
553.971	31251
554.034	29839
554.097	30817
554.160	31256
554.223	33671
554.286	32515
554.349	31403
554.412	30040
554.475	31197
554.538	33347
554.601	31005
554.664	28909
554.727	28143
554.789	26716
554.852	26730
554.915	26884
554.978	27791
555.041	27563
555.104	27537
555.166	29393
555.229	29163
555.292	27365
555.354	32150
555.417	28020
555.480	24887
555.542	24103
555.605	25743
555.668	26420
555.730	24866
555.793	24491
555.856	25659
555.918	27130
555.981	26310
556.043	26158
556.106	28849
556.168	31377
556.231	33610
556.293	30557
556.356	37992
556.418	60465
556.481	37670
556.543	27190
556.606	25337
556.668	30246
556.730	30994
556.793	41833
556.855	56953
556.918	30193
556.980	28936
557.042	33579
557.104	50482
557.167	81840
557.229	39136
557.291	25108
557.354	25464
557.416	27527
557.478	38112
557.540	27691
557.602	21777
557.664	22732
557.727	26138
557.789	27217
557.851	29132
557.913	33536
557.975	47923
558.037	90078
558.099	106153
558.161	35272
558.223	31498
558.285	33705
558.347	42582
558.409	55628
558.471	76178
558.533	141328
558.595	155258
558.657	167874
558.719	409165
558.781	452241
558.843	115691
558.905	120909
558.966	44411
559.028	40384
559.090	47636
559.152	64152
559.214	95451
559.275	205050
559.337	344857
559.399	78458
559.461	41458
559.522	51617
559.584	69401
559.646	111776
559.707	256985
559.769	168402
559.831	49802
559.892	54754
559.954	85553
560.015	135270
560.077	69634
560.139	111435
560.200	93928
560.262	29926
560.323	28119
560.385	25911
560.446	25122
560.508	24947
560.569	24140
560.631	23642
560.692	23964
560.753	23749
560.815	23363
560.876	23286
560.937	24052
560.999	25276
561.060	25927
561.122	26549
561.183	29615
561.244	36071
561.305	44284
561.367	64160
561.428	139763
561.489	89862
561.550	28597
561.612	25240
561.673	25051
561.734	24613
561.795	24325
561.856	21740
561.917	23482
561.978	22550
562.039	23522
562.101	23869
562.162	24404
562.223	26310
562.284	32978
562.345	43201
562.406	26838
562.467	22623
562.528	22792
562.589	23666
562.649	27998
562.710	23945
562.771	27255
562.832	29464
562.893	28296
562.954	25119
563.015	24736
563.076	22324
563.136	22136
563.197	22963
563.258	25370
563.319	25163
563.380	23865
563.440	27163
563.501	25495
563.562	25326
563.622	26220
563.683	26695
563.744	26279
563.804	23443
563.865	24592
563.926	24334
563.986	25816
564.047	27087
564.107	29458
564.168	32020
564.229	42982
564.289	76884
564.350	37581
564.410	22950
564.471	22532
564.531	22563
564.591	24091
564.652	25737
564.712	33225
564.773	32643
564.833	22811
564.893	22389
564.954	22534
565.014	21208
565.074	20906
565.135	21931
565.195	20194
565.255	22277
565.316	22738
565.376	25019
565.436	26371
565.496	22784
565.557	21988
565.617	25522
565.677	25632
565.737	36026
565.797	34199
565.857	24152
565.917	26992
565.978	31985
566.038	43879
566.098	67798
566.158	51433
566.218	30308
566.278	22756
566.338	22473
566.398	21044
566.458	21863
566.518	20253
566.578	21819
566.638	23416
566.698	23847
566.757	23477
566.817	23176
566.877	23640
566.937	25985
566.997	25525
567.057	23564
567.116	24766
567.176	25696
567.236	28331
567.296	26708
567.355	30218
567.415	43212
567.475	32713
567.535	21419
567.594	21977
567.654	20804
567.714	22989
567.773	24657
567.833	25963
567.892	27389
567.952	23630
568.012	24452
568.071	26227
568.131	30634
568.190	32160
568.250	29210
568.309	28830
568.369	26494
568.428	27232
568.488	28751
568.547	32484
568.607	33004
568.666	38095
568.725	46619
568.785	45624
568.844	46209
568.903	30768
568.963	26559
569.022	24219
569.081	21900
569.141	21484
569.200	20962
569.259	22428
569.318	21649
569.378	21469
569.437	19030
569.496	20267
569.555	19335
569.614	19053
569.673	23224
569.732	28079
569.792	21029
569.851	18971
569.910	20404
569.969	22459
570.028	24347
570.087	24755
570.146	29940
570.205	28068
570.264	25623
570.323	19981
570.382	21150
570.441	23228
570.500	22901
570.559	23635
570.618	23285
570.676	23136
570.735	23946
570.794	24593
570.853	23680
570.912	20226
570.971	19541
571.029	23203
571.088	25786
571.147	20686
571.206	21519
571.264	24251
571.323	23744
571.382	30456
571.440	24693
571.499	22364
571.558	21544
571.616	19014
571.675	18404
571.733	17820
571.792	17180
571.851	17568
571.909	19891
571.968	18522
572.026	16189
572.085	15591
572.143	14782
572.202	15683
572.260	16152
572.319	16302
572.377	16646
572.435	18008
572.494	18036
572.552	22962
572.611	25480
572.669	18916
572.727	16916
572.786	16631
572.844	15482
572.902	15816
572.960	16298
573.019	18035
573.077	16290
573.135	14831
573.193	15373
573.251	15441
573.310	15887
573.368	14957
573.426	15114
573.484	15329
573.542	16079
573.600	17737
573.658	17439
573.716	17949
573.774	21248
573.832	26327
573.891	22530
573.948	16609
574.006	16774
574.064	15394
574.122	14378
574.180	14703
574.238	15423
574.296	13992
574.354	14082
574.412	12836
574.470	13188
574.528	13298
574.585	13946
574.643	13829
574.701	13167
574.759	12775
574.817	13934
574.874	12732
574.932	13182
574.990	13223
575.047	14247
575.105	16653
575.163	16207
575.221	17424
575.278	14191
575.336	13549
575.393	12917
575.451	13286
575.509	15007
575.566	15747
575.624	14535
575.681	13210
575.739	13572
575.796	14795
575.854	15048
575.911	17302
575.969	18353
576.026	18930
576.083	24045
576.141	26106
576.198	26109
576.256	19234
576.313	16233
576.370	17308
576.428	19242
576.485	20172
576.542	20416
576.599	16737
576.657	15419
576.714	15542
576.771	14392
576.828	14789
576.886	14793
576.943	15508
577.000	15805
577.057	16503
577.114	18242
577.171	18515
577.228	20304
577.286	22155
577.343	18943
577.400	16552
577.457	14211
577.514	15188
577.571	14339
577.628	13694
577.685	13250
577.742	14256
577.799	13092
577.855	14744
577.912	14183
577.969	16225
578.026	14793
578.083	13511
578.140	14323
578.197	15269
578.254	15882
578.310	16583
578.367	18520
578.424	22123
578.481	21859
578.537	17344
578.594	14526
578.651	14709
578.707	13112
578.764	13782
578.821	12389
578.877	14222
578.934	13518
578.991	14298
579.047	13770
579.104	13533
579.160	11891
579.217	11994
579.273	12629
579.330	12179
579.387	12628
579.443	12393
579.499	12127
579.556	13337
579.612	14649
579.669	13138
579.725	13828
579.782	12939
579.838	11565
579.894	12991
579.951	13178
580.007	13001
580.063	14366
580.120	14619
580.176	14834
580.232	15412
580.288	18822
580.345	20318
580.401	17181
580.457	16305
580.513	14930
580.569	14159
580.619	14451
580.625	14550
580.682	14988
580.692	14771
580.738	14143
580.765	14103
580.794	14152
580.838	14155
580.850	14228
580.906	13943
580.911	13810
580.962	13060
580.984	13204
581.018	13575
581.057	13684
581.074	13795
581.130	14847
581.130	14906
581.186	14149
581.203	13990
581.242	13795
581.276	13436
581.298	13279
581.349	14347
581.354	14510
581.410	14815
581.422	14633
581.466	14246
581.494	14519
581.522	14834
581.567	14744
581.577	14796
581.633	13231
581.640	13098
581.689	12593
581.713	12684
581.745	12888
581.786	12846
581.801	12891
581.857	12575
581.859	12539
581.912	12828
581.932	12538
581.968	12009
582.004	12335
582.024	12587
582.077	12581
582.080	12627
582.135	13289
582.150	13026
582.191	12399
582.223	13494
582.247	14424
582.296	13588
582.302	13511
582.358	12307
582.368	12331
582.414	12759
582.441	12689
582.469	12601
582.514	12165
582.525	12104
582.581	11928
582.587	11886
582.636	11885
582.659	11980
582.692	12315
582.732	13377
582.747	13743
582.803	12136
582.805	12110
582.858	12749
582.877	12408
582.914	11676
582.950	11986
582.969	12272
583.023	12442
583.025	12477
583.080	13295
583.095	12730
583.135	11444
583.168	11652
583.191	11690
583.240	10951
583.246	10957
583.302	11491
583.313	11706
583.357	12357
583.385	11670
583.412	11014
583.458	10190
583.468	10119
583.523	11269
583.531	11186
583.578	10527
583.603	10755
583.634	11309
583.676	11844
583.689	11969
583.744	11871
583.748	11742
583.799	10396
583.820	10332
583.854	10396
583.893	10463
583.910	10492
583.965	10468
583.965	10459
584.020	11655
584.038	11125
584.075	10217
584.110	10644
584.130	10869
584.183	9875
584.185	9843
584.240	9760
584.255	10000
584.296	10683
584.328	10269
584.351	10047
584.400	9949
584.406	9956
584.461	9520
584.472	9549
584.516	9706
584.545	9860
584.571	9910
584.617	10375
584.626	10543
584.681	10053
584.689	10137
584.736	10631
584.762	10521
584.791	10509
584.834	10457
584.846	10420
584.900	10845
584.906	10890
584.955	11369
584.978	11382
585.010	11366
585.051	11286
585.065	11350
585.120	12291
585.123	12293
585.175	12528
585.195	12910
585.230	13640
585.267	14811
585.284	15249
585.339	16887
585.340	16888
585.394	19942
585.412	21554
585.449	25203
585.484	29290
585.503	31516
585.556	40232
585.558	40611
585.613	67248
585.628	70998
585.667	81230
585.700	51531
585.722	32047
585.772	18609
585.777	17321
585.831	13656
585.845	13247
585.886	13013
585.917	12334
585.941	11653
585.989	11493
585.995	11570
586.050	12066
586.061	12292
586.104	12934
586.133	12918
586.159	12916
586.205	12975
586.213	13026
586.268	13288
586.277	13437
586.322	13688
586.349	14215
586.377	15057
586.421	16830
586.431	17230
586.486	21327
586.493	22982
586.540	34426
586.565	28128
586.595	20869
586.637	16158
586.649	14256
586.703	12139
586.709	11956
586.758	10919
586.781	10400
586.812	10270
586.853	10313
586.866	10248
586.921	10458
586.925	10469
586.975	10343
586.996	10097
587.029	10129
587.068	10692
587.083	10713
587.138	10342
587.140	10350
587.192	10531
587.212	10472
587.246	10895
587.284	11285
587.300	11141
587.355	11059
587.356	11056
587.409	10962
587.427	10980
587.463	11172
587.499	11493
587.517	11461
587.571	11179
587.571	11171
587.625	11920
587.643	12220
587.679	12549
587.715	12435
587.733	12403
587.786	12180
587.787	12160
587.841	12530
587.858	12732
587.895	13242
587.930	13630
587.949	13867
588.001	13376
588.003	13343
588.057	13681
588.073	13992
588.111	14280
588.145	14900
588.165	15644
588.217	17479
588.219	17500
588.273	19403
588.288	19973
588.327	21708
588.360	23521
588.381	24551
588.431	29006
588.435	29236
588.489	36647
588.503	39190
588.542	45581
588.575	53748
588.596	58865
588.646	75617
588.650	76552
588.704	99995
588.718	107901
588.757	129432
588.789	155947
588.811	174549
588.861	250759
588.865	256758
588.919	272604
588.932	247948
588.972	175749
589.004	155457
589.026	117473
589.075	70095
589.080	67665
589.133	49479
589.147	46726
589.187	46801
589.218	50047
589.241	53108
589.290	63895
589.294	64446
589.348	79195
589.361	85441
589.401	103299
589.433	135031
589.455	158834
589.504	192049
589.508	194947
589.562	134094
589.576	130063
589.615	80831
589.647	61946
589.669	48587
589.718	24416
589.722	23840
589.776	19477
589.790	19260
589.829	20002
589.861	17343
589.883	16150
589.932	15283
589.936	14956
589.989	12173
590.004	11557
590.043	11509
590.075	11655
590.096	11276
590.146	10514
590.149	10466
590.203	10509
590.218	10544
590.256	10419
590.289	10017
590.309	9822
590.360	9877
590.362	9831
590.416	9796
590.431	9772
590.469	9435
590.503	9243
590.522	9250
590.574	9371
590.575	9335
590.629	9272
590.645	9280
590.682	8967
590.716	8859
590.735	8786
590.787	8417
590.788	8379
590.841	8032
590.859	7975
590.894	8074
590.930	8236
590.947	8479
591.000	9229
591.001	9268
591.053	8542
591.072	8336
591.106	8270
591.143	8253
591.159	8438
591.212	9285
591.214	9352
591.265	8961
591.285	8819
591.318	8549
591.356	8195
591.371	8118
591.424	8139
591.427	8181
591.477	8166
591.498	8227
591.530	7871
591.569	7449
591.583	7230
591.636	6590
591.640	6583
591.689	7609
591.711	8231
591.741	8296
591.782	8296
591.794	8347
591.847	8619
591.853	8730
591.900	8771
591.924	8809
591.953	8189
591.995	7414
592.005	7384
592.058	7501
592.066	7605
592.111	8525
592.137	8965
592.164	9054
592.208	9365
592.216	9184
592.269	8409
592.279	8302
592.322	7515
592.350	7050
592.374	7135
592.421	7447
592.427	7411
592.479	7475
592.491	7533
592.532	6868
592.562	6397
592.585	6566
592.633	6953
592.704	6405
592.775	7018
592.846	7308
592.916	7153
592.987	7391
593.058	7502
593.128	6486
593.199	7080
593.270	7141
593.341	6271
593.411	6558
593.482	6085
593.553	6861
593.623	5991
593.694	7126
593.764	7407
593.835	6481
593.906	6473
593.976	6478
594.047	6323
594.117	7608
594.188	7982
594.258	6076
594.329	6617
594.399	6809
594.470	7142
594.540	6705
594.611	6376
594.681	6103
594.751	6119
594.822	6229
594.892	6905
594.963	7286
595.033	7462
595.103	6696
595.174	8001
595.244	8445
595.314	10638
595.384	7198
595.455	6385
595.525	6879
595.595	7752
595.665	7837
595.736	7254
595.806	6593
595.876	6321
595.946	7393
596.016	6570
596.087	7898
596.157	6669
596.227	6961
596.297	6848
596.367	7581
596.437	8382
596.507	9061
596.577	10863
596.647	8171
596.717	7263
596.787	6727
596.857	7042
596.927	6955
596.997	7358
597.067	6893
597.137	6904
597.207	7204
597.277	7097
597.347	8155
597.417	7658
597.487	7879
597.557	7293
597.626	7653
597.696	7402
597.766	8827
597.836	10312
597.906	8786
597.975	6741
598.045	6901
598.115	7136
598.185	7305
598.254	6424
598.324	8234
598.394	7287
598.464	7510
598.533	5991
598.603	6663
598.672	7197
598.742	7588
598.812	7160
598.881	7751
598.951	6474
599.020	6980
599.090	6636
599.159	6547
599.229	7687
599.299	6830
599.368	6879
599.437	6498
599.507	6210
599.576	6673
599.646	6600
599.715	6930
599.785	6859
599.854	6792
599.924	6930
599.993	6738
600.062	6347
600.132	6284
600.201	6469
600.270	7511
600.340	7105
600.409	6930
600.478	6856
600.547	7120
600.617	7835
600.686	5975
600.755	5813
600.824	5460
600.894	6770
600.963	6365
601.032	5708
601.101	5954
601.170	5228
601.239	5374
601.308	5632
601.378	5648
601.447	5548
601.516	5435
601.585	5495
601.654	5030
601.723	6061
601.792	5060
601.861	5229
601.930	5259
601.999	5517
602.068	5681
602.137	5233
602.206	5625
602.275	5575
602.343	5853
602.412	6433
602.481	5318
602.550	5226
602.619	5068
602.688	5553
602.756	5746
602.825	4702
602.894	5326
602.963	5544
603.032	5499
603.100	5555
603.169	4818
603.238	6020
603.307	5797
603.375	5061
603.444	5506
603.513	5505
603.581	5902
603.650	5276
603.719	5570
603.787	5348
603.856	5106
603.924	5124
603.993	5391
604.061	5129
604.130	5233
604.198	6513
604.267	5954
604.335	5084
604.404	5907
604.472	6018
604.541	5503
604.609	5493
604.678	5620
604.746	5801
604.815	5540
604.883	6403
604.951	6304
605.020	6784
605.088	5549
605.156	6014
605.225	7359
605.293	5832
605.361	5594
605.429	5586
605.498	5801
605.566	5889
605.634	6015
605.702	6700
605.771	6905
605.839	6623
605.907	6602
605.975	6076
606.043	6601
606.111	6628
606.180	6868
606.248	6072
606.316	6621
606.384	5713
606.452	7647
606.520	7408
606.588	5836
606.656	6270
606.724	6449
606.792	5921
606.860	6254
606.928	5597
606.996	5145
607.064	4585
607.132	5175
607.200	5423
607.267	5446
607.335	4334
607.403	4932
607.471	5215
607.539	5272
607.607	5412
607.674	5280
607.742	4865
607.810	4913
607.878	4419
607.946	4377
608.013	4537
608.081	5621
608.149	5015
608.216	5091
608.284	5337
608.352	4748
608.419	4452
608.487	6534
608.555	4545
608.622	5360
608.690	5284
608.757	5285
608.825	5453
608.893	6343
608.960	5681
609.028	6242
609.095	6984
609.163	5171
609.230	4525
609.298	4519
609.365	4291
609.432	4550
609.500	5636
609.567	5962
609.635	6466
609.702	6516
609.769	6702
609.837	5395
609.904	4869
609.971	3959
610.039	5725
610.106	5782
610.173	6970
610.241	9956
610.308	7731
610.375	4385
610.442	3864
610.509	5125
610.577	5083
610.644	4940
610.711	4841
610.778	5029
610.845	5556
610.912	5311
610.980	5105
611.047	5277
611.114	4690
611.181	4674
611.248	4952
611.315	6169
611.382	5075
611.449	4895
611.516	5604
611.583	5615
611.650	5313
611.717	5235
611.784	5065
611.851	5671
611.918	6458
611.984	6664
612.051	8064
612.118	10794
612.185	18474
612.252	14084
612.319	6822
612.386	6372
612.452	6102
612.519	5877
612.586	6545
612.653	6619
612.719	6025
612.786	5315
612.853	5229
612.919	4667
612.986	5821
613.053	4922
613.120	3928
613.186	4193
613.253	4870
613.319	4736
613.386	4635
613.453	4589
613.519	4939
613.586	4742
613.652	5536
613.719	5772
613.785	5788
613.852	4506
613.918	4210
613.985	5063
614.051	4409
614.118	4843
614.184	4524
614.250	3904
614.317	4512
614.383	3610
614.449	5186
614.516	4861
614.582	5151
614.648	4224
614.715	4578
614.781	4728
614.847	4616
614.914	5077
614.980	5349
615.046	4261
615.112	4911
615.179	5361
615.245	4328
615.311	4450
615.377	4478
615.443	4969
615.509	4761
615.575	5351
615.642	5421
615.708	4833
615.774	4681
615.840	6506
615.906	6422
615.972	7073
616.038	8167
616.104	14018
616.170	22477
616.236	20767
616.302	9068
616.368	6031
616.434	5155
616.500	6509
616.565	5286
616.631	6630
616.697	5411
616.763	5601
616.829	7487
616.895	8319
616.961	7489
617.026	6337
617.092	5540
617.158	5784
617.224	5594
617.289	5129
617.355	5013
617.421	4774
617.487	5411
617.552	5102
617.618	4282
617.684	4038
617.749	6462
617.815	4894
617.880	3578
617.946	4659
618.012	4463
618.077	4609
618.143	4940
618.208	5099
618.274	4777
618.339	5202
618.405	4124
618.470	5324
618.536	4887
618.601	5403
618.667	5259
618.732	4247
618.798	4303
618.863	4630
618.928	5066
618.994	5023
619.059	5476
619.124	5809
619.190	4824
619.255	5074
619.320	4024
619.386	4103
619.451	3589
619.516	4599
619.581	4609
619.647	3868
619.712	4216
619.777	4748
619.842	3979
619.907	4469
619.972	4433
620.038	4757
620.103	4155
620.168	3916
620.233	4262
620.298	3995
620.363	4125
620.428	5104
620.493	4526
620.558	4835
620.623	3939
620.688	4520
620.753	4143
620.818	3991
620.883	4295
620.948	4637
621.013	3988
621.078	4701
621.143	3509
621.207	5619
621.272	4921
621.337	5087
621.402	5267
621.467	6264
621.532	5804
621.596	5749
621.661	5259
621.726	4596
621.791	4543
621.855	5006
621.920	4845
621.985	4192
622.049	5539
622.114	5888
622.179	5240
622.243	5590
622.308	5941
622.373	6762
622.437	6139
622.502	5652
622.566	4992
622.631	5639
622.695	5850
622.760	5384
622.824	5740
622.889	5403
622.953	5517
623.018	7040
623.082	6327
623.147	5486
623.211	4834
623.276	4575
623.340	4629
623.404	4945
623.469	5073
623.533	5677
623.597	4876
623.662	4753
623.726	4327
623.790	4102
623.854	3999
623.919	4683
623.983	4568
624.047	4644
624.111	4858
624.176	4250
624.240	4789
624.304	5549
624.368	4223
624.432	5434
624.496	3982
624.560	4789
624.625	4600
624.689	5060
624.753	4485
624.817	4703
624.881	4298
624.945	4400
625.009	3425
625.073	4546
625.137	3358
625.201	4024
625.265	4986
625.329	4048
625.393	4634
625.456	4397
625.520	3399
625.584	5136
625.648	6109
625.712	7439
625.776	11425
625.839	12501
625.903	6079
625.967	4198
626.031	7076
626.095	8132
626.158	4722
626.222	3159
626.286	3024
626.349	2775
626.413	2762
626.477	3856
626.540	2516
626.604	2515
626.668	3142
626.731	2780
626.795	3300
626.858	3367
626.922	3347
626.986	2506
627.049	3202
627.113	2910
627.176	3201
627.240	2794
627.303	2546
627.366	3189
627.430	3173
627.493	3035
627.557	3194
627.620	3839
627.684	3068
627.747	3075
627.810	1215
627.874	2938
627.937	1665
628.000	3959
628.064	2622
628.127	2030
628.190	2343
628.253	2769
628.317	2267
628.380	2292
628.443	2161
628.506	2369
628.569	2339
628.632	2290
628.696	1854
628.759	2398
628.822	1957
628.885	2377
628.948	2065
629.011	1844
629.074	1683
629.137	1265
629.200	1922
629.263	2352
629.326	1048
629.389	2188
629.452	1788
629.515	2427
629.578	1556
629.641	2021
629.704	1865
629.767	1207
629.830	2058
629.892	2084
629.955	1985
630.018	2443
630.081	1359
630.144	1851
630.207	557
630.269	3203
630.332	2127
630.395	1831
630.458	1706
630.520	896
630.583	1238
630.646	1779
630.708	1419
630.771	1260
630.834	1056
630.896	857
630.959	1158
631.021	1403
631.084	1222
631.146	1557
631.209	1751
631.272	1885
631.334	1150
631.397	1645
631.459	1053
631.522	1940
631.584	766
631.646	1112
631.709	750
631.771	1182
631.834	1175
631.896	1409
631.958	877
632.021	1593
632.083	1037
632.145	1196
632.208	851
632.270	1266
632.332	1106
632.395	665
632.457	2113
632.519	623
632.581	1706
632.643	707
632.706	1817
632.768	144
632.830	694
632.892	1578
632.954	1165
633.016	249
633.078	730
633.141	1014
633.203	1323
633.265	1809
633.327	963
633.389	852
633.451	742
633.513	857
633.575	1772
633.637	937
633.698	1208
633.760	728
633.822	1373
633.884	1283
633.946	955
634.008	954
634.070	906
634.132	802
634.193	465
634.255	1451
634.317	651
634.379	1217
634.441	420
634.502	13
634.564	660
634.626	949
634.687	599
634.749	765
634.811	1111
634.873	480
634.934	962
634.996	803
635.057	749
635.119	-302
635.181	724
635.242	303
635.304	-377
635.365	1575
635.427	289
635.488	341
635.550	-7
635.611	975
635.673	-67
635.734	1552
635.796	463
635.857	1312
635.918	221
635.980	1205
636.041	840
636.102	499
636.164	-106
636.225	951
636.286	-361
636.348	1220
636.409	219
636.470	556
636.531	877
636.593	886
636.654	877
636.715	9
636.776	120
636.838	532
636.899	298
636.960	744
637.021	294
637.082	911
637.143	480
637.204	587
637.265	475
637.326	416
637.387	212
637.448	196
637.509	233
637.570	925
637.631	640
637.692	-422
637.753	-438
637.814	707
637.875	79
637.936	595
637.997	465
638.058	394
638.119	1058
638.179	-1045
638.240	-185
638.301	854
638.362	56
638.423	267
638.483	702
638.544	-45
638.605	618
638.666	-288
638.726	873
638.787	791
638.848	-585
638.908	381
638.969	-266
639.030	-175
639.090	119
639.151	265
639.211	371
639.272	-285
639.332	688
639.393	405
639.453	-113
639.514	-264
639.574	25
639.635	-648
639.695	527
639.756	98
639.816	384
639.877	-625
639.937	609
639.997	484
640.058	162
640.118	409
640.178	347
640.239	670
640.299	-117
640.359	-224
640.420	-168
640.480	17
640.540	574
640.600	76
640.661	259
640.721	-730
640.781	1382
640.841	-810
640.901	174
640.961	327
641.021	-489
641.082	-851
641.142	252
641.202	446
641.262	-1127
641.322	972
641.382	-749
641.442	194
641.502	-165
641.562	224
641.622	-688
641.682	543
641.742	-418
641.802	206
641.861	86
641.921	-82
641.981	-6
642.041	160
642.101	-88
642.161	-1023
642.221	-580
642.280	-285
642.340	211
642.400	-559
642.460	43
642.519	-11
642.579	-248
642.639	634
642.698	-2787
642.758	833
642.818	-217
642.877	-879
642.937	-502
642.997	618
643.056	-178
643.116	-1346
643.175	109
643.235	-54
643.294	-790
643.354	-164
643.414	346
643.473	309
643.532	-936
643.592	-755
643.651	-216
643.711	1285
643.770	2060
643.830	3540
643.889	7703
643.948	2879
644.008	-356
644.067	-457
644.126	-687
644.186	-730
644.245	269
644.304	-1055
644.363	1525
644.423	-1544
644.482	-139
644.541	-236
644.600	-1606
644.659	187
644.719	-992
644.778	131
644.837	-292
644.896	775
644.955	1945
645.014	-227
645.073	-77
645.132	-572
645.191	-294
645.250	-885
645.309	576
645.368	-1340
645.427	238
645.486	-382
645.545	80
645.604	-644
645.663	-159
645.722	-667
645.781	-580
645.840	-431
645.898	-976
645.957	616
646.016	-1144
646.075	411
646.134	1423
646.192	3003
646.251	5032
646.310	333
646.369	-294
646.427	311
646.486	-1547
646.545	-182
646.603	-160
646.662	-156
646.721	-293
646.779	-700
646.838	-1258
646.896	262
646.955	-65
647.014	59
647.072	-576
647.131	518
647.189	-415
647.248	-1316
647.306	609
647.365	19
647.423	-1633
647.481	581
647.540	-1801
647.598	100
647.657	-883
647.715	-13
647.773	-804
647.832	232
647.890	-1423
647.948	-987
648.007	-727
648.065	-694
648.123	-1386
648.181	821
648.240	13
648.298	-977
648.356	-1452
648.414	307
648.472	-518
648.531	278
648.589	-435
648.647	-872
648.705	-1239
648.763	-610
648.821	-830
648.879	-1097
648.937	-752
648.995	-1166
649.053	-900
649.111	77
649.169	-514
649.227	485
649.285	173
649.343	2717
649.401	1465
649.459	160
649.516	315
649.574	-1783
649.632	-489
649.690	-248
649.748	-749
649.806	-1576
649.863	-172
649.921	404
649.979	-491
650.037	355
650.094	-1222
650.152	-628
650.210	-842
650.268	-206
650.325	-1101
650.383	-1009
650.440	-1930
650.498	-155
650.556	-372
650.613	-889
650.671	-346
650.728	-541
650.786	-596
650.843	-26
650.901	-2229
650.958	-123
651.016	-1054
651.073	-327
651.131	-470
651.188	-2195
651.246	-503
651.303	-1901
651.360	-368
651.418	-491
651.475	-595
651.532	-1192
651.590	33
651.647	-1079
651.704	-948
651.762	-876
651.819	-169
651.876	-1355
651.933	-459
651.990	-123
652.048	-2351
652.105	-1154
652.162	-920
652.219	-1561
652.276	-1118
652.333	132
652.390	-2159
652.448	-1273
652.505	-26
652.562	-839
652.619	-1215
652.676	-638
652.733	-412
652.790	-696
652.847	-2326
652.904	-172
652.961	-1518
653.017	-631
653.074	46
653.131	-961
653.188	-1289
653.245	-1508
653.302	-160
653.359	-413
653.415	-923
653.472	-698
653.529	-830
653.586	-1746
653.642	-1396
653.699	11
653.756	-1208
653.813	-806
653.869	-798
653.926	-1322
653.983	-989
654.039	-323
654.096	-1936
654.152	-84
654.209	-1678
654.266	-733
654.322	-1690
654.379	-833
654.435	-752
654.492	-604
654.548	-789
654.605	-472
654.661	-293
654.717	-1208
654.774	-449
654.830	-866
654.887	-1298
654.943	-867
655.000	-676
655.056	-410
655.112	-1427
655.168	-1170
655.225	-619
655.281	-641
655.337	-1282
655.394	-165
655.450	-643
655.506	-305
655.562	-1580
655.618	667
655.675	-1419
655.731	-602
655.787	-1564
655.843	440
655.899	-1963
655.955	-1219
656.011	-791
656.067	-1514
656.123	-1156
656.179	-1072
656.235	-39
656.291	-1684
656.347	488
656.403	-1194
656.459	-571
656.515	-1040
656.571	-978
656.627	-572
656.683	-1198
656.739	-35
656.795	-1503
656.850	-472
656.906	-1440
656.962	-600
657.018	-625
657.074	-1393
657.129	-1247
657.185	-743
657.241	-1209
657.297	-1373
657.352	-385
657.408	-745
657.464	441
657.519	-1100
657.575	-1264
657.630	-1269
657.686	-905
657.742	-1366
657.797	-1390
657.853	-1311
657.908	-336
657.964	-1065
658.019	-845
658.075	-1176
658.130	-649
658.186	-1951
658.241	-777
658.297	-1713
658.352	-429
658.407	-534
658.463	-1226
658.518	-464
658.573	-730
658.629	-1790
658.684	-1130
658.739	107
658.795	-2043
658.850	-596
658.905	-2321
658.960	-370
659.016	-1927
659.071	-1306
659.126	-1300
659.181	-1037
659.236	-286
659.291	-276
659.346	-1042
659.401	-1194
659.457	-1243
659.512	-1842
659.567	-50
659.622	-869
659.677	-1473
659.732	-549
659.787	-682
659.842	-1316
659.897	-914
659.952	-357
660.007	-1227
660.061	-1390
660.116	-836
660.171	-1425
660.226	-1279
660.281	19
660.336	-1240
660.391	60
660.445	-1376
660.500	-730
660.555	-891
660.610	-1400
660.664	-415
660.719	-1314
660.774	-528
660.828	-870
660.883	-741
660.938	-1143
660.992	-1287
661.047	-795
661.101	-519
661.156	-241
661.211	-1759
661.265	-1324
661.320	-1279
661.374	-1334
661.429	-1139
661.483	-285
661.538	-1443
661.592	-1809
661.647	-967
661.701	-490
661.755	-1197
661.810	-560
661.864	-1185
661.919	-1053
661.973	-1392
662.027	-601
662.081	-1151
662.136	-893
662.190	-1285
662.244	-828
662.299	-1022
662.353	-318
662.407	-642
662.461	-1681
662.515	-696
662.569	-1363
662.624	-645
662.678	-1246
662.732	-1081
662.786	-1276
662.840	-430
662.894	-1023
662.948	-1648
663.002	-593
663.056	-943
663.110	-1870
663.164	-910
663.218	-644
663.272	-1172
663.326	-265
663.380	-1488
663.434	-1057
663.488	-1675
663.542	-1573
663.595	-1042
663.649	-1021
663.703	-374
663.757	-979
663.811	-1856
663.864	-558
663.918	-904
663.972	-1037
664.026	-1130
664.079	-1448
664.133	-840
664.187	-1035
664.240	-1120
664.294	-568
664.348	-999
664.401	-601
664.455	-754
664.508	-1031
664.562	-1566
664.615	-1421
664.669	-1512
664.722	-475
664.776	-1661
664.829	-1906
664.883	-1981
664.936	-1543
664.990	-273
665.043	-426
665.097	-1949
665.150	11
665.203	-1658
665.257	-1064
665.310	-1493
665.363	-853
665.417	-1078
665.470	-746
665.523	-704
665.576	-877
665.630	-896
665.683	-1328
665.736	-835
665.789	-21
665.842	-1451
665.895	-1203
665.949	-1202
666.002	-1094
666.055	-1080
666.108	-452
666.161	-1679
666.214	-689
666.267	-1268
666.320	-712
666.373	-1046
666.426	-705
666.479	-1500
666.532	-1417
666.585	-1468
666.638	-1271
666.691	-959
666.744	-351
666.796	-1314
666.849	-864
666.902	-894
666.955	-833
667.008	-1573
667.060	-1052
667.113	-1797
667.166	-1389
667.219	-1105
667.271	-1776
667.324	-1317
667.377	-943
667.430	-494
667.482	-1075
667.535	-831
667.587	-1527
667.640	-780
667.693	-949
667.745	-1741
667.798	-143
667.850	-612
667.903	-1833
667.955	-1901
668.008	-913
668.060	-1247
668.113	-703
668.165	-335
668.218	-894
668.270	-1124
668.322	-1404
668.375	-1017
668.427	63
668.479	-1484
668.532	-494
668.584	-1014
668.636	-544
668.689	-950
668.741	-869
668.793	-1197
668.845	-810
668.898	-906
668.950	-817
669.002	-1467
669.054	-1310
669.106	-1390
669.158	-1091
669.211	-1192
669.263	-1400
669.315	-1042
669.367	-1513
669.419	-1487
669.471	-815
669.523	-1041
669.575	-475
669.627	-1050
669.679	-975
669.731	-867
669.783	-518
669.835	-810
669.886	-925
669.938	-1429
669.990	-644
670.042	-1591
670.094	-1920
670.146	-1903
670.197	-686
670.249	-565
670.301	-1254
670.353	-998
670.404	-1024
670.456	-1899
670.508	-1191
670.560	-1057
670.611	-71
670.663	-244
670.715	1306
670.766	1241
670.818	670
670.869	-1234
670.921	-1500
670.972	-741
671.024	-1542
671.075	-1039
671.127	-1516
671.178	-1694
671.230	-337
671.281	-573
671.333	-601
671.384	-1481
671.436	-529
671.487	-782
671.538	-1007
671.590	-865
671.641	-457
671.692	-841
671.744	-708
671.795	11
671.846	-845
671.897	-1570
671.949	-1412
672.000	-1208
672.051	-895
672.102	-733
672.153	-840
672.204	-1481
672.256	-923
672.307	-1434
672.358	-858
672.409	-611
672.460	-1507
672.511	-1162
672.562	-1406
672.613	-1713
672.664	-1632
672.715	-896
672.766	-451
672.817	-1422
672.868	-1127
672.919	-994
672.970	48
673.021	-1326
673.071	-2215
673.122	-705
673.173	-1357
673.224	-1583
673.275	-1280
673.326	-1600
673.376	-842
673.427	-1570
673.478	-921
673.528	-632
673.579	-1373
673.630	-1714
673.680	-545
673.731	-1600
673.782	-1506
673.832	-916
673.883	-1492
673.934	-1788
673.984	-807
674.035	-1025
674.085	-1180
674.136	11
674.186	-865
674.237	-1037
674.287	-1525
674.338	-1060
674.388	-971
674.438	-1893
674.489	-1095
674.539	-1472
674.589	-1277
674.640	-560
674.690	-767
674.740	-1909
674.791	-1327
674.841	-2009
674.891	-1380
674.942	-953
674.992	-1858
675.042	-1188
675.092	-483
675.142	-1401
675.193	-1846
675.243	-1880
675.293	-1232
675.343	-1299
675.393	-1580
675.443	-707
675.493	-1364
675.543	-1580
675.593	-761
675.643	-1247
675.693	-1086
675.743	-1649
675.793	-907
675.843	-1858
675.893	-915
675.943	-1902
675.993	-1317
676.043	-1768
676.093	-741
676.142	-1408
676.192	-828
676.242	-939
676.292	-1530
676.341	-1473
676.391	-1101
676.441	-1871
676.491	-1986
676.540	-1309
676.590	-1283
676.640	-2148
676.689	-1846
676.739	-1289
676.789	-966
676.838	-1492
676.888	-408
676.937	-1150
676.987	-1376
677.037	-1727
677.086	-2015
677.136	-997
677.185	-1411
677.235	-1237
677.284	-1894
677.333	-1480
677.383	-1494
677.432	-1321
677.482	-794
677.531	-911
677.580	-1317
677.630	-1602
677.679	-1792
677.728	-2494
677.778	-1469
677.827	-1272
677.876	-1290
677.925	-1938
677.975	-1115
678.024	-1204
678.073	-1420
678.122	-2275
678.171	-1031
678.220	-1521
678.269	-454
678.319	-952
678.368	-2123
678.417	-1307
678.466	-1169
678.515	-1305
678.564	-1516
678.613	-1709
678.662	-1528
678.711	-1144
678.760	-1347
678.809	-1677
678.857	-1525
678.906	-1770
678.955	-1024
679.004	-1303
679.053	-1499
679.102	-1974
679.151	-2024
679.199	-1926
679.248	-1653
679.297	-2133
679.346	-1851
679.394	-1769
679.443	-1268
679.492	-1435
679.540	-1337
679.589	-1870
679.638	-1131
679.686	-1452
679.735	-1631
679.784	-1100
679.832	-664
679.881	-2379
679.929	-1185
679.978	-1777
680.026	-2061
680.075	-2034
680.123	-1695
680.172	-1354
680.220	-1539
680.268	-1909
680.317	-1281
680.365	-2313
680.414	-2035
680.462	-1580
680.510	-469
680.559	-1796
680.607	-2054
680.655	-1730
680.703	-1866
680.752	-1903
680.800	-1377
680.848	-1583
680.896	-1264
680.945	-1490
680.993	-1341
681.041	-2139
681.089	-1502
681.137	-1865
681.185	-1948
681.233	-1753
681.281	-1711
681.308	-1647
681.329	-1701
681.377	-1734
681.425	-714
681.430	-621
681.473	-817
681.521	-464
681.552	45
681.569	159
681.617	-687
681.665	-125
681.674	13
681.713	3
681.761	1001
681.796	716
681.809	462
681.857	1626
681.904	729
681.918	1098
681.952	1744
682.000	1509
682.039	1654
682.048	1579
682.096	2054
682.143	2085
682.161	2273
682.191	2284
682.239	2963
682.283	2926
682.286	2836
682.334	2971
682.382	2476
682.405	3292
682.430	3970
682.477	3252
682.525	3157
682.527	3257
682.572	3649
682.620	4341
682.648	4269
682.667	4123
682.715	4703
682.763	4519
682.770	4535
682.810	4244
682.857	4546
682.892	4871
682.905	4861
682.952	5017
683.000	5393
683.014	5498
683.047	5725
683.095	7381
683.135	6920
683.142	6728
683.190	6936
683.237	6650
683.257	6730
683.284	6887
683.332	7045
683.379	7818
683.379	7867
683.426	7626
683.473	7601
683.501	7605
683.521	7526
683.568	8403
683.615	7539
683.622	7716
683.662	8457
683.709	8420
683.744	8368
683.757	8306
683.804	8831
683.851	9181
683.865	9191
683.898	9095
683.945	9534
683.987	9350
683.992	9295
684.039	9833
684.086	9825
684.109	9961
684.133	10167
684.180	11003
684.227	11175
684.230	11223
684.274	11373
684.321	10810
684.352	11004
684.368	11063
684.415	10912
684.462	11230
684.473	11218
684.509	11190
684.556	11686
684.595	11792
684.603	11821
684.649	12203
684.696	12359
684.716	12451
684.743	12487
684.790	12870
684.837	12886
684.838	12898
684.883	13825
684.930	13684
684.959	14481
684.977	15069
685.023	15992
685.070	17109
685.081	17465
685.117	17301
685.164	15598
685.202	15174
685.210	15424
685.257	16656
685.303	18339
685.324	18606
685.350	18159
685.396	17623
685.443	17919
685.445	17895
685.490	18209
685.536	17826
685.566	17694
685.583	17776
685.629	18596
685.675	18809
685.688	19016
685.722	19277
685.768	19016
685.809	18627
685.815	18687
685.861	19163
685.908	19914
685.930	19956
685.954	19904
686.000	20692
686.047	20377
686.052	20385
686.093	21806
686.139	23323
686.173	24337
686.185	24358
686.232	23212
686.278	23286
686.294	22935
686.324	22056
686.370	21559
686.416	20776
686.416	20827
686.463	20922
686.509	20605
686.537	20466
686.555	20524
686.601	20856
686.647	20898
686.658	20715
686.693	20533
686.739	20894
686.779	21402
686.785	21503
686.831	21169
686.877	21037
686.900	20935
686.923	20945
686.969	20849
687.015	21039
687.022	20955
687.061	21226
687.107	21696
687.143	21763
687.153	21840
687.199	22139
687.245	22067
687.264	22326
687.291	22707
687.336	22379
687.382	22437
687.385	22327
687.428	23023
687.474	24672
687.506	25257
687.520	24923
687.565	23743
687.611	22662
687.627	22086
687.657	22108
687.702	22308
687.748	22391
687.748	22312
687.794	22943
687.839	24006
687.869	23866
687.885	23548
687.931	23153
687.976	23113
687.990	22721
688.022	22774
688.067	23596
688.111	23602
688.113	23694
688.158	24042
688.204	25076
688.233	24749
688.249	24440
688.295	24238
688.340	23831
688.354	23796
688.386	25366
688.431	26726
688.474	28113
688.477	28183
688.522	27290
688.567	26407
688.595	25767
688.613	25945
688.658	25804
688.703	26166
688.716	26146
688.749	26370
688.794	25973
688.837	25790
688.839	25912
688.884	26465
688.930	26793
688.958	27182
688.975	27185
689.020	26232
689.065	25122
689.079	24836
689.110	25788
689.155	26750
689.200	28377
689.201	28493
689.246	27336
689.291	25972
689.321	25005
689.336	25187
689.381	25674
689.426	26072
689.442	26233
689.471	26996
689.516	27358
689.561	27742
689.562	27643
689.606	26850
689.651	25668
689.683	24707
689.696	24967
689.741	25697
689.785	26228
689.804	26434
689.830	26688
689.875	26813
689.920	26911
689.925	26783
689.965	26419
690.010	25852
690.046	25603
690.054	25848
690.099	25909
690.144	26269
690.166	26291
690.189	26471
690.233	26637
690.278	26863
690.287	26783
690.323	26633
690.367	25684
690.408	25279
690.412	25462
690.457	26200
690.501	26323
690.528	26913
690.546	27282
690.590	26610
690.635	26379
690.649	26262
690.680	26378
690.724	26342
690.769	25818
690.770	25695
690.813	26619
690.857	26450
690.890	26776
690.902	26934
690.946	26865
690.991	26689
691.011	26397
691.035	26598
691.080	27080
691.124	27005
691.132	26983
691.168	27917
691.213	28391
691.252	29068
691.257	29336
691.301	30168
691.346	31061
691.373	31264
691.390	30949
691.434	29736
691.478	28705
691.493	28271
691.522	28608
691.567	28524
691.611	28757
691.614	28615
691.655	28954
691.699	28873
691.734	29409
691.743	29816
691.787	30062
691.831	30850
691.855	31036
691.875	31473
691.919	31860
691.964	32283
691.975	32248
692.008	33279
692.052	34758
692.096	35874
692.096	35693
692.139	35321
692.183	33947
692.216	33218
692.227	33429
692.271	33343
692.315	33309
692.337	33136
692.359	33500
692.403	33905
692.447	34368
692.457	34248
692.490	33659
692.534	32829
692.577	31422
692.578	31610
692.622	33118
692.666	34868
692.698	35537
692.709	35392
692.753	34354
692.797	33651
692.818	32889
692.840	32677
692.884	32182
692.928	31662
692.938	31302
692.971	32084
693.015	33159
693.059	34196
693.059	34016
693.102	33944
693.146	33460
693.179	33066
693.189	33241
693.233	33157
693.276	32873
693.299	32728
693.320	33335
693.363	33940
693.407	34720
693.420	34774
693.450	35152
693.493	35213
693.537	35537
693.540	35338
693.580	34638
693.624	33774
693.660	33119
693.667	33301
693.710	33185
693.753	32778
693.780	32322
693.797	32589
693.840	32909
693.883	33660
693.901	33592
693.926	33563
693.970	33302
694.013	33058
694.021	32838
694.056	31783
694.099	30046
694.141	28476
694.142	28720
694.185	30633
694.229	33243
694.261	34543
694.272	34533
694.315	34209
694.358	33434
694.381	32959
694.401	33242
694.444	33357
694.487	33434
694.501	33322
694.530	33529
694.573	33345
694.616	33239
694.621	33042
694.659	33172
694.702	33168
694.741	32613
694.745	32684
694.787	31242
694.830	30011
694.862	28794
694.873	29278
694.916	30480
694.959	31589
694.982	32002
695.002	31804
695.044	31040
695.087	30282
695.102	29860
695.130	30819
695.172	31988
695.215	32839
695.222	32831
695.258	33347
695.301	33588
695.342	33682
695.343	33887
695.386	34143
695.428	34053
695.462	34032
695.471	34028
695.514	32775
695.556	31910
695.582	31095
695.599	31520
695.641	32111
695.684	32779
695.701	32825
695.726	32597
695.769	31800
695.811	31082
695.821	30757
695.854	31683
695.896	32583
695.938	33279
695.941	33147
695.981	32783
696.023	31959
696.061	31105
696.065	31259
696.108	30981
696.150	30559
696.181	30222
696.192	30856
696.235	32387
696.277	33851
696.301	34584
696.319	34113
696.361	32529
696.404	30745
696.421	29905
696.446	30129
696.488	30055
696.530	30173
696.541	29980
696.572	30684
696.614	31545
696.656	32261
696.660	32136
696.698	32194
696.740	32064
696.780	31724
696.783	31868
696.825	31010
696.867	30106
696.900	29085
696.909	29419
696.951	30453
696.992	31349
697.020	31668
697.034	31527
697.076	30637
697.118	29822
697.139	29181
697.160	29603
697.202	30145
697.244	30631
697.259	30643
697.286	30891
697.327	31040
697.369	31035
697.379	30870
697.411	30295
697.453	29236
697.494	28151
697.499	27878
697.536	29460
697.578	30885
697.618	32175
697.620	32349
697.661	31495
697.703	30729
697.738	29821
697.744	29994
697.786	29957
697.828	29909
697.858	29670
697.869	30017
697.911	30624
697.952	31194
697.977	31359
697.994	31463
698.035	31211
698.077	31013
698.097	30685
698.118	30595
698.160	30098
698.201	29628
698.216	29243
698.243	29244
698.284	29063
698.325	28795
698.336	28555
698.367	29382
698.408	30245
698.449	31111
698.455	31042
698.491	30521
698.532	29694
698.573	28870
698.575	28657
698.614	29217
698.656	29632
698.694	29836
698.697	30063
698.738	30731
698.779	31393
698.814	31741
698.820	31997
698.862	32378
698.903	32762
698.933	32853
698.944	33165
698.985	33613
699.026	34073
699.053	34169
699.067	34339
699.172	33892
699.292	31475
699.411	29252
699.530	31180
699.650	34731
699.769	35294
699.889	28961
700.008	31295
700.127	28555
700.246	30042
700.366	29578
700.485	31342
700.604	29920
700.723	29580
700.843	30891
700.962	28368
701.081	29935
701.200	31093
701.319	24733
701.438	24979
701.557	26898
701.676	26953
701.796	23883
701.915	25676
702.034	23665
702.153	24344
702.272	25258
702.391	27024
702.509	24699
702.628	24344
702.747	24043
702.866	24913
702.985	22031
703.104	24371
703.223	23808
703.342	22532
703.460	22739
703.579	26274
703.698	26777
703.817	26804
703.935	43041
704.054	25918
704.173	23311
704.292	22062
704.410	20706
704.529	21270
704.648	20654
704.766	20143
704.885	19548
705.003	21607
705.122	25133
705.240	22102
705.359	29845
705.477	57880
705.596	56007
705.714	42644
705.833	34327
705.951	37891
706.070	43104
706.188	43136
706.307	42547
706.425	41619
706.543	45155
706.662	42469
706.780	39875
706.898	44139
707.016	42260
707.135	38245
707.253	37436
707.371	37875
707.489	36284
707.608	37051
707.726	35230
707.844	36924
707.962	36032
708.080	35181
708.198	34539
708.316	32785
708.434	33783
708.552	34972
708.670	37130
708.788	64051
708.906	70290
709.024	54799
709.142	49457
709.260	48134
709.378	52714
709.496	53428
709.614	52261
709.732	52276
709.850	53217
709.968	49439
710.085	49093
710.203	48891
710.321	49107
710.439	48210
710.556	47087
710.674	48587
710.792	45753
710.910	49153
711.027	48990
711.145	46575
711.263	43949
711.380	45268
711.498	45394
711.615	47361
711.733	42544
711.851	42028
711.968	41839
712.086	39867
712.203	40611
712.321	42588
712.438	46627
712.555	74630
712.673	87243
712.790	67228
712.908	58662
713.025	58795
713.142	67978
713.260	67160
713.377	64779
713.494	61936
713.612	62705
713.729	61994
713.846	65544
713.963	67896
714.081	60003
714.198	57240
714.315	58628
714.432	57962
714.549	60384
714.666	63277
714.783	112081
714.901	157063
715.018	58156
715.135	53385
715.252	51697
715.369	51093
715.486	49322
715.603	47718
715.720	48724
715.837	49194
715.953	57648
716.070	54032
716.187	52477
716.304	47877
716.421	48856
716.538	52173
716.655	47365
716.771	49654
716.888	44824
717.005	48067
717.122	42554
717.238	45313
717.355	43159
717.472	45965
717.589	42285
717.705	43324
717.822	41690
717.938	40517
718.055	40801
718.172	42777
718.288	38701
718.405	39242
718.521	37946
718.638	40792
718.754	45893
718.871	50195
718.987	49614
719.104	45258
719.220	35444
719.336	35960
719.453	33963
719.569	37342
719.685	36260
719.802	47373
719.918	41674
720.034	42085
720.151	49568
720.267	86083
720.383	46615
720.499	38102
720.616	40085
720.732	44051
720.848	59336
720.964	119831
721.080	71469
721.196	37473
721.312	36797
721.428	38115
721.544	40516
721.660	54359
721.776	39047
721.892	30054
722.008	33059
722.124	32058
722.240	30460
722.356	31278
722.472	30546
722.588	29331
722.704	29685
722.820	28923
722.936	29142
723.051	28004
723.167	31252
723.283	29048
723.399	30582
723.515	27404
723.630	27646
723.746	26511
723.862	28082
723.977	26148
724.093	28087
724.209	28910
724.324	28502
724.440	49550
724.555	78608
724.671	28311
724.786	26014
724.902	23829
725.017	27662
725.133	44283
725.248	72089
725.364	26783
725.479	27157
725.595	21051
725.710	22123
725.826	22964
725.941	20378
726.056	22822
726.172	21428
726.287	21113
726.402	23692
726.517	18994
726.633	22650
726.748	21940
726.863	18952
726.978	22237
727.093	21788
727.208	23337
727.324	20078
727.439	22139
727.554	20071
727.669	17407
727.784	19882
727.899	19469
728.014	17466
728.129	21584
728.244	20700
728.359	15603
728.474	18551
728.589	18123
728.704	16090
728.819	17517
728.934	18016
729.049	15536
729.163	17583
729.278	16664
729.393	16374
729.508	16401
729.622	15742
729.737	16173
729.852	15133
729.967	18501
730.081	17792
730.196	13797
730.311	14915
730.425	15448
730.540	14171
730.655	14616
730.769	15391
730.884	15511
730.998	12573
731.113	14195
731.227	13221
731.342	12814
731.456	14753
731.571	16708
731.685	15726
731.800	16594
731.914	21960
732.028	12250
732.143	12816
732.257	13511
732.371	12270
732.486	17781
732.600	31499
732.714	32230
732.829	12886
732.943	13222
733.057	12300
733.171	13931
733.285	14215
733.399	11984
733.514	12073
733.628	12420
733.742	10782
733.856	12591
733.970	12356
734.084	10111
734.198	11206
734.312	12359
734.426	22350
734.540	40036
734.654	12970
734.768	10793
734.882	10948
734.996	11011
735.109	10124
735.223	12410
735.337	12545
735.451	10135
735.565	8882
735.679	15347
735.792	31145
735.906	18534
736.020	9236
736.134	11679
736.247	11738
736.361	14496
736.475	27996
736.588	10991
736.702	11705
736.815	8839
736.929	8703
737.043	8696
737.156	8725
737.270	7913
737.383	9040
737.497	8245
737.610	8011
737.723	8700
737.837	7364
737.950	7691
738.064	7810
738.177	7662
738.290	8058
738.404	7410
738.517	7155
738.630	8460
738.744	7810
738.857	8096
738.970	7965
739.083	8155
739.197	8237
739.310	6937
739.423	7176
739.536	8097
739.649	7550
739.762	7300
739.875	6790
739.988	6880
740.102	6968
740.215	7336
740.328	7503
740.441	6522
740.553	6236
740.667	7222
740.779	5887
740.892	7478
741.005	6689
741.118	8352
741.231	7462
741.344	7445
741.457	5943
741.569	6881
741.682	6233
741.795	6958
741.908	6777
742.020	6202
742.133	5983
742.246	6948
742.358	6891
742.471	4708
742.584	5814
742.696	6300
742.809	6109
742.922	5662
743.034	4882
743.147	6309
743.259	5865
743.372	6468
743.484	5109
743.597	6235
743.709	5594
743.822	6460
743.934	6487
744.046	9321
744.159	10186
744.271	5659
744.383	5436
744.496	6347
744.608	7745
744.720	6251
744.832	4533
744.945	4873
745.057	5536
745.169	4995
745.281	4011
745.393	5788
745.506	5570
745.618	5750
745.730	4913
745.842	4782
745.954	4404
746.066	5556
746.178	5200
746.290	4631
746.402	4540
746.514	5417
746.626	4140
746.738	4184
746.850	4475
746.962	4791
747.074	5242
747.185	5697
747.297	4864
747.409	4038
747.521	5247
747.633	4838
747.744	4848
747.856	4464
747.968	4059
748.080	4573
748.191	4371
748.303	4680
748.414	3820
748.526	4373
748.638	4162
748.749	4245
748.861	4994
748.972	9049
749.084	6909
749.195	4986
749.307	5052
749.418	4741
749.530	8030
749.641	9460
749.753	5187
749.864	4164
749.975	4276
750.087	4320
750.198	3696
750.310	3933
750.421	3863
750.532	3691
750.643	4229
750.755	4409
750.866	4307
750.977	5488
751.088	7378
751.199	10379
751.310	4149
751.422	4051
751.533	3146
751.644	3650
751.755	4097
751.866	4014
751.977	3914
752.088	4096
752.199	2934
752.310	3612
752.421	3620
752.532	3461
752.643	4544
752.753	3417
752.864	3581
752.975	3351
753.086	3694
753.197	4060
753.308	3168
753.418	4165
753.529	3565
753.640	4016
753.751	3071
753.861	3995
753.972	3481
754.083	3821
754.193	2184
754.304	3924
754.415	3652
754.525	3985
754.636	4002
754.746	4240
754.857	3040
754.967	2793
755.078	2790
755.188	3077
755.299	2760
755.409	3575
755.520	3731
755.630	2801
755.740	3269
755.851	3299
755.961	2355
756.071	3004
756.182	3360
756.292	2980
756.402	2219
756.512	2606
756.623	3707
756.733	2739
756.843	3967
756.953	3687
757.063	3032
757.173	3626
757.283	2717
757.393	2991
757.504	2326
757.614	2585
757.724	2653
757.834	3807
757.944	3532
758.053	4029
758.164	3928
758.273	3328
758.383	3310
758.493	3873
758.603	3487
758.713	5087
758.823	3695
758.932	4090
759.042	5187
759.152	5056
759.262	2985
759.372	5196
759.481	3377
759.591	4797
759.701	4204
759.810	5151
759.920	4734
760.029	4298
760.139	5200
760.249	4021
760.358	4369
760.468	3426
760.577	3817
760.687	3464
760.796	4365
760.906	4203
761.015	4519
761.124	5005
761.234	4002
761.343	4583
761.453	6158
761.562	5321
761.671	3951
761.781	4833
761.890	4931
761.999	4470
762.108	5174
762.218	4062
762.327	3971
762.436	4750
762.545	3913
762.654	4107
762.763	4547
762.872	6694
762.982	5626
763.091	4797
763.200	5425
763.309	4322
763.418	4579
763.527	5340
763.635	4687
763.744	5908
763.853	5009
763.962	6659
764.071	4998
764.180	5891
764.289	5434
764.398	4839
764.506	4983
764.615	5065
764.724	4727
764.833	4812
764.941	4239
765.050	5330
765.159	5379
765.268	5313
765.376	5413
765.485	8230
765.593	6343
765.702	5520
765.810	4888
765.919	5237
766.028	5849
766.136	7565
766.245	9687
766.353	21340
766.461	72722
766.570	116712
766.678	19305
766.787	9669
766.895	7488
767.003	6959
767.112	7238
767.220	7705
767.328	8264
767.437	7101
767.545	7083
767.653	7508
767.761	7323
767.870	6447
767.978	7636
768.086	6615
768.194	7342
768.302	7944
768.410	6491
768.518	7047
768.626	6654
768.734	6831
768.842	6609
768.950	6947
769.058	6675
769.166	6529
769.274	6666
769.382	6866
769.490	7309
769.598	7571
769.706	10281
769.813	24415
769.921	81576
770.029	40030
770.137	8466
770.245	7420
770.352	6878
770.460	6890
770.568	8889
770.675	6944
770.783	7902
770.891	7023
770.998	6608
771.106	7640
771.213	7840
771.321	8023
771.428	6816
771.536	6532
771.643	7339
771.751	6971
771.858	6958
771.966	7399
772.073	7073
772.181	6544
772.288	6599
772.395	6997
772.503	5753
772.610	6332
772.717	5390
772.825	6788
772.932	6029
773.039	6402
773.146	6688
773.253	6194
773.361	6348
773.468	6430
773.575	5145
773.682	5531
773.789	6630
773.896	5804
774.003	6092
774.110	6613
774.217	6030
774.324	6926
774.431	6496
774.538	5912
774.645	7516
774.752	7186
774.859	7417
774.966	8195
775.073	8543
775.179	8101
775.286	6693
775.393	8034
775.500	6772
775.607	7395
775.713	7514
775.820	6836
775.927	6997
776.033	7625
776.140	6870
776.247	7713
776.353	6933
776.460	6665
776.566	6698
776.673	7932
776.779	6879
776.886	6016
776.992	7372
777.099	6402
777.205	6905
777.312	5451
777.418	6165
777.524	6626
777.631	6260
777.737	6271
777.843	6385
777.950	6210
778.056	6824
778.162	7568
778.268	5830
778.375	8409
778.481	7256
778.587	6304
778.693	6804
778.799	6673
778.906	6485
779.012	7057
779.118	6644
779.224	7064
779.330	6466
779.436	5487
779.542	5139
779.648	6713
779.754	5819
779.860	6455
779.966	5821
780.071	7328
780.177	5543
780.283	5398
780.389	5699
780.495	6029
780.601	5136
780.706	5655
780.812	6012
780.918	5570
781.024	4863
781.129	5705
781.235	5821
781.341	5379
781.446	4771
781.552	5943
781.657	4703
781.763	4871
781.869	4935
781.974	5185
782.080	5818
782.185	5356
782.291	4992
782.396	6045
782.501	4254
782.607	5993
782.712	6015
782.818	6336
782.923	6448
783.028	5892
783.134	6653
783.239	7242
783.344	6692
783.449	6617
783.555	6007
783.660	5562
783.765	6082
783.870	5056
783.975	5904
784.080	5634
784.185	5214
784.291	5712
784.396	5517
784.501	4545
784.606	4827
784.711	5247
784.816	5890
784.921	5505
785.026	5202
785.130	4770
785.235	5403
785.340	5535
785.445	5403
785.550	5110
785.655	4634
785.760	4992
785.864	4605
785.969	4370
786.074	3709
786.178	4747
786.283	4824
786.388	4770
786.492	4610
786.597	4740
786.702	5203
786.806	2521
786.911	4237
787.015	4734
787.120	4269
787.224	4034
787.329	4409
787.433	3902
787.538	3550
787.642	4875
787.747	3631
787.851	4149
787.955	3993
788.060	4017
788.164	4141
788.268	3626
788.372	3233
788.477	3990
788.581	4180
788.685	3093
788.789	3369
788.894	3766
788.998	2255
789.102	3969
789.206	3625
789.310	3491
789.414	3444
789.518	3481
789.622	3103
789.726	3795
789.830	4518
789.934	3380
790.038	5259
790.142	4029
790.246	3204
790.350	4450
790.454	4698
790.557	4831
790.661	4706
790.765	5097
790.869	4304
790.973	4006
791.076	4839
791.180	4372
791.284	3506
791.388	4474
791.491	3731
791.595	4198
791.698	2879
791.802	4022
791.906	3850
792.009	3909
792.113	3611
792.216	3789
792.320	4054
792.423	4167
792.527	3742
792.630	3917
792.733	4151
792.837	3393
792.940	3666
793.043	3635
793.147	2671
793.250	2176
793.353	3646
793.457	1936
793.560	3232
793.663	4029
793.766	5557
793.869	4014
793.973	2967
794.076	3091
794.179	3658
794.282	3888
794.385	5295
794.488	5441
794.591	3689
794.694	4982
794.797	4753
794.900	5961
795.003	6778
795.106	3129
795.209	3759
795.312	2516
795.415	2590
795.517	3352
795.620	2451
795.723	2075
795.826	2540
795.929	2155
796.031	3545
796.134	4810
796.237	4986
796.339	3754
796.442	2632
796.545	2045
796.647	2336
796.750	3347
796.852	2135
796.955	3205
797.057	2252
797.160	2464
797.262	1360
797.365	3290
797.467	2870
797.570	2552
797.672	2533
797.775	4219
797.877	8631
797.979	9957
798.082	2230
798.184	2042
798.286	2452
798.388	2000
798.491	1533
798.593	1591
798.695	2032
798.797	3507
798.899	3138
799.001	2131
799.104	2222
799.206	2727
799.308	3043
799.410	3179
799.512	3267
799.614	4104
799.716	5956
799.818	4428
799.920	4041
800.021	3555
800.123	2299
800.225	3124
800.327	2429
800.429	3133
800.531	2325
800.633	2660
800.734	2005
800.836	2361
800.938	1596
801.039	2362
801.141	1533
801.243	1755
801.344	2299
801.446	1747
801.548	1760
801.649	1651
801.751	1272
801.852	1607
801.954	1877
802.055	2177
802.157	1783
802.258	2505
802.360	1521
802.461	6071
802.563	5144
802.664	2590
802.765	2357
802.867	2113
802.968	970
803.069	3070
803.170	1308
803.272	1703
803.373	2630
803.474	2281
803.575	1761
803.676	854
803.777	2193
803.879	1818
803.980	1959
804.081	1671
804.182	918
804.283	2437
804.384	1256
804.485	1664
804.586	2002
804.687	3684
804.788	1909
804.888	1317
804.989	1568
805.090	1637
805.191	496
805.292	1847
805.393	1311
805.493	2265
805.594	650
805.695	619
805.796	1300
805.896	1818
805.997	710
806.098	1259
806.198	1021
806.299	632
806.399	1284
806.500	878
806.601	1509
806.701	2474
806.802	3383
806.902	4536
807.002	2227
807.103	1415
807.203	2184
807.304	1680
807.404	1123
807.504	1859
807.605	-302
807.705	541
807.805	1571
807.906	922
808.006	1445
808.106	1878
808.206	551
808.306	1221
808.406	2441
808.507	1566
808.607	1679
808.707	1071
808.807	901
808.907	12
809.007	361
809.107	667
809.207	235
809.307	1572
809.407	770
809.507	1023
809.607	450
809.706	571
809.806	1126
809.906	1650
810.006	1404
810.106	1622
810.205	974
810.305	741
810.405	1929
810.505	1168
810.604	613
810.704	1593
810.804	90
810.903	1384
811.003	229
811.102	651
811.202	450
811.301	598
811.401	583
811.500	277
811.600	845
811.699	1604
811.799	-706
811.898	1049
811.997	727
812.097	1460
812.196	-383
812.295	492
812.395	654
812.494	453
812.593	551
812.692	350
812.792	752
812.891	1354
812.990	-384
813.089	959
813.188	702
813.287	913
813.386	980
813.485	289
813.584	420
813.683	903
813.782	305
813.881	631
813.980	873
814.079	606
814.178	121
814.277	692
814.376	304
814.475	845
814.574	1004
814.672	744
814.771	79
814.870	1604
814.969	491
815.067	79
815.166	608
815.265	927
815.363	632
815.462	497
815.560	315
815.659	1089
815.758	143
815.856	617
815.955	264
816.053	771
816.152	216
816.250	237
816.348	622
816.447	753
816.545	432
816.644	2066
816.742	1040
816.840	736
816.938	260
817.037	1156
817.135	1045
817.233	1578
817.331	1070
817.430	352
817.528	697
817.626	1063
817.724	794
817.822	679
817.920	1614
818.018	944
818.116	2977
818.214	6440
818.312	17001
818.410	17097
818.508	2943
818.606	1099
818.704	1079
818.802	1712
818.900	791
818.997	1116
819.095	1110
819.193	1518
819.291	5627
819.389	13584
819.486	37298
819.584	26109
819.682	5463
819.779	1487
819.877	1694
819.975	1860
820.072	773
820.170	1510
820.267	1120
820.365	722
820.462	381
820.560	864
820.657	889
820.755	994
820.852	840
820.949	1573
821.047	1022
821.144	273
821.241	340
821.339	359
821.436	873
821.533	1900
821.631	1088
821.728	700
821.825	851
821.922	2339
822.019	4341
822.116	3471
822.214	1340
822.311	984
822.408	728
822.505	345
822.602	1561
822.699	872
822.796	829
822.893	343
822.990	466
823.086	870
823.183	1216
823.280	619
823.377	61
823.474	503
823.571	1012
823.667	704
823.764	-27
823.861	-389
823.958	-33
824.054	1197
824.151	761
824.248	306
824.344	1323
824.441	147
824.537	57
824.634	987
824.731	947
824.827	952
824.924	510
825.020	678
825.116	-108
825.213	271
825.309	627
825.406	155
825.502	795
825.598	141
825.695	-7
825.791	761
825.887	650
825.983	13
826.080	873
826.176	718
826.272	188
826.368	965
826.464	-522
826.560	-2
826.656	571
826.753	1054
826.849	184
826.945	447
827.041	807
827.137	327
827.233	952
827.328	1083
827.424	749
827.520	1573
827.616	-282
827.712	98
827.808	1370
827.904	394
827.999	1483
828.095	384
828.191	344
828.287	1172
828.382	887
828.478	1416
828.574	-86
828.669	282
828.765	1054
828.860	-424
828.956	1136
829.051	366
829.147	1585
829.242	857
829.338	331
829.433	1042
829.529	-440
829.624	1281
829.720	357
829.815	713
829.910	527
830.005	536
830.101	155
830.196	1302
830.291	844
830.386	605
830.482	1199
830.577	1460
830.672	610
830.767	2045
830.862	362
830.957	1634
831.052	496
831.147	1764
831.242	1181
831.337	1699
831.432	379
831.527	45
831.622	447
831.717	304
831.812	407
831.907	889
832.002	302
832.097	-23
832.191	50
832.286	1155
832.381	492
832.476	938
832.570	2121
832.665	6144
832.760	6763
832.854	1204
832.949	468
833.044	54
833.138	1149
833.233	2322
833.327	287
833.422	1817
833.516	1353
833.611	1882
833.705	750
833.799	715
833.894	628
833.988	1220
834.083	394
834.177	358
834.271	809
834.365	669
834.460	1611
834.554	434
834.648	1242
834.742	612
834.836	743
834.931	847
835.025	298
835.119	1381
835.213	557
835.307	1848
835.401	1253
835.495	1800
835.589	391
835.683	1081
835.777	-249
835.871	1232
835.965	822
836.059	1096
836.152	1961
836.246	3316
836.340	6121
836.434	9361
836.528	2011
836.621	985
836.715	523
836.809	1161
836.902	1345
836.996	249
837.090	-288
837.183	814
837.277	576
837.370	1112
837.464	1280
837.557	1837
837.651	4961
837.744	9900
837.838	9837
837.931	3225
838.025	2805
838.118	7051
838.211	16323
838.305	17702
838.398	3931
838.491	1292
838.584	3051
838.678	3976
838.771	8336
838.864	4728
838.957	1146
839.050	1786
839.144	457
839.237	885
839.330	515
839.423	1928
839.516	3306
839.609	4581
839.702	9357
839.795	3182
839.888	584
839.981	1596
840.073	711
840.166	944
840.259	630
840.352	1319
840.445	1218
840.538	437
840.630	1351
840.723	355
840.816	928
840.909	1431
841.001	3686
841.094	5968
841.186	12685
841.279	11741
841.372	3369
841.464	1181
841.557	1523
841.649	2240
841.742	2931
841.834	1624
841.927	1613
842.019	565
842.111	1501
842.204	1834
842.296	2374
842.388	5434
842.481	7832
842.573	16293
842.665	25930
842.758	7573
842.850	963
842.942	1422
843.034	1777
843.126	3892
843.218	7162
843.310	15223
843.402	34875
843.495	68908
843.587	50892
843.679	10689
843.771	3078
843.862	5481
843.954	4511
844.046	2526
844.138	831
844.230	1129
844.322	829
844.414	1161
844.505	1504
844.597	1229
844.689	894
844.781	841
844.872	1154
844.964	1628
845.056	4492
845.147	3187
845.239	1552
845.331	1518
845.422	85
845.514	1494
845.605	1311
845.697	1314
845.788	1710
845.880	1831
845.971	574
846.063	598
846.154	1604
846.245	1108
846.337	1183
846.428	1962
846.519	1767
846.610	3896
846.702	4615
846.793	8611
846.884	6875
846.975	1800
847.066	843
847.158	203
847.249	1516
847.340	1614
847.431	480
847.522	2586
847.613	617
847.704	1079
847.795	1246
847.886	1190
847.977	1364
848.068	1150
848.158	1053
848.249	1682
848.340	1211
848.431	406
848.522	863
848.612	657
848.703	427
848.794	1386
848.885	299
848.975	739
849.066	1174
849.157	1014
849.247	768
849.338	1623
849.428	2687
849.519	4440
849.609	6771
849.700	9957
849.790	15388
849.881	6825
849.971	1415
850.061	816
850.152	1989
850.242	1556
850.332	543
850.423	1781
850.513	811
850.603	1372
850.693	1873
850.784	971
850.874	1542
850.964	898
851.054	750
851.144	1349
851.234	1681
851.324	2139
851.414	2627
851.505	2684
851.595	2134
851.684	4276
851.774	6290
851.864	5816
851.954	2464
852.044	556
852.134	1406
852.224	1691
852.314	1181
852.403	1196
852.493	1165
852.583	1383
852.673	224
852.762	1200
852.852	598
852.942	965
853.031	1703
853.121	1521
853.210	767
853.300	1089
853.389	504
853.479	1209
853.568	1807
853.658	1401
853.747	4504
853.837	7656
853.926	15746
854.015	28226
854.105	51268
854.194	91297
854.283	39061
854.373	6672
854.462	2730
854.551	2994
854.640	2636
854.729	3819
854.819	4335
854.908	2329
854.997	1023
855.086	1307
855.175	1038
855.264	1728
855.353	517
855.442	1496
855.531	800
855.620	1139
855.709	845
855.798	1123
855.887	1233
855.975	602
856.064	904
856.153	1497
856.242	677
856.331	626
856.419	751
856.508	885
856.597	974
856.685	1317
856.774	1097
856.863	2303
856.951	1334
857.040	1514
857.128	1407
857.217	951
857.305	1224
857.394	1774
857.482	798
857.571	1634
857.659	325
857.747	789
857.836	602
857.924	1089
858.012	1047
858.101	530
858.189	1179
858.277	1226
858.365	886
858.454	1782
858.542	822
858.630	1062
858.718	1282
858.806	615
858.894	675
858.982	1805
859.070	1420
859.158	1353
859.246	662
859.334	1451
859.422	1039
859.510	1598
859.598	799
859.686	941
859.773	1784
859.861	1186
859.949	1008
860.037	852
860.125	580
860.212	777
860.300	1038
860.388	839
860.475	578
860.563	880
860.651	796
860.738	1031
860.826	405
860.913	181
861.001	879
861.088	1928
861.176	1269
861.263	1677
861.350	858
861.438	728
861.525	1384
861.612	1008
861.700	998
861.787	1101
861.874	539
861.962	986
862.049	-32
862.136	871
862.223	438
862.310	507
862.397	523
862.484	358
862.572	557
862.659	173
862.746	1321
862.833	435
862.920	1004
863.007	801
863.094	762
863.180	632
863.267	850
863.354	-53
863.441	601
863.528	842
863.615	618
863.701	985
863.788	523
863.875	1100
863.961	489
864.048	272
864.135	1012
864.221	1057
864.308	-592
864.395	862
864.481	1430
864.568	958
864.654	167
864.741	1268
864.827	497
864.914	1794
865.000	1091
865.086	1350
865.173	1253
865.259	1611
865.345	819
865.432	1660
865.518	1525
865.604	2160
865.690	1707
865.776	5156
865.863	8676
865.949	17351
866.035	23730
866.121	47306
866.207	58020
866.293	17634
866.379	3123
866.465	1750
866.551	1873
866.637	2166
866.723	1499
866.809	1685
866.895	959
866.981	1891
867.066	515
867.152	2858
867.238	1937
867.324	3171
867.409	5924
867.495	8961
867.581	4913
867.667	2503
867.752	1922
867.838	2172
867.923	930
868.009	2446
868.094	1887
868.180	4244
868.266	5457
868.351	3688
868.436	2417
868.522	2455
868.607	4627
868.693	6048
868.778	10541
868.863	12616
868.949	3382
869.034	1765
869.119	2228
869.204	2508
869.290	1140
869.375	1528
869.460	774
869.545	1007
869.630	1185
869.715	863
869.800	1005
869.885	1152
869.970	111
870.055	1214
870.140	837
870.225	365
870.310	3
870.395	620
870.480	-183
870.565	1453
870.650	684
870.734	1189
870.819	80
870.904	1070
870.989	570
871.073	692
871.158	-321
871.243	860
871.327	850
871.412	325
871.496	241
871.581	-213
871.665	336
871.750	1321
871.834	500
871.919	1437
872.003	161
872.088	896
872.172	385
872.257	-45
872.341	980
872.425	840
872.509	358
872.594	296
872.678	953
872.762	404
872.846	661
872.930	1530
873.015	305
873.099	368
873.183	640
873.267	1166
873.351	1715
873.435	1575
873.519	1639
873.603	720
873.687	721
873.771	737
873.855	610
873.938	672
874.022	352
874.106	632
874.190	334
874.274	201
874.358	903
874.383	755
874.441	406
874.490	-322
874.525	-843
874.598	-136
874.609	-33
874.692	563
874.705	666
874.776	1224
874.813	801
874.859	249
874.920	736
874.943	926
875.027	205
875.028	207
875.110	109
875.135	226
875.194	527
875.243	605
875.277	671
875.350	477
875.361	444
875.444	533
875.457	573
875.527	748
875.565	864
875.611	1025
875.672	838
875.694	762
875.778	100
875.780	108
875.861	425
875.887	668
875.944	1094
875.994	823
876.027	685
876.101	1010
876.111	1046
876.194	557
876.209	694
876.277	1334
876.316	1598
876.360	1903
876.423	1804
876.443	1783
876.526	946
876.530	974
876.610	1356
876.637	1054
876.693	579
876.745	536
876.776	427
876.852	506
876.859	529
876.942	725
876.959	663
877.025	332
877.066	154
877.108	10
877.173	128
877.190	145
877.273	649
877.280	647
877.356	740
877.387	730
877.439	603
877.494	544
877.522	579
877.601	1336
877.605	1357
877.688	612
877.708	556
877.770	676
877.815	782
877.853	788
877.922	668
877.936	648
878.018	1044
878.029	1077
878.101	1113
878.136	857
878.184	687
878.242	677
878.266	588
878.349	212
878.349	217
878.431	1155
878.456	1050
878.514	704
878.563	633
878.596	646
878.670	643
878.679	608
878.761	783
878.776	772
878.844	967
878.883	808
878.926	570
878.990	570
879.008	635
879.091	749
879.097	760
879.173	490
879.203	732
879.255	1377
879.310	1351
879.338	1385
879.417	1129
879.420	1102
879.502	758
879.523	905
879.584	1119
879.630	546
879.667	302
879.736	749
879.749	821
879.831	799
879.843	692
879.913	291
879.949	819
879.995	1285
880.056	1324
880.077	1378
880.159	1207
880.162	1225
880.241	1194
880.269	1018
880.323	1205
880.375	1707
880.405	1932
880.482	2581
880.487	2661
880.569	4050
880.588	4266
880.651	5673
880.694	5695
880.733	5712
880.801	5881
880.815	5150
880.896	2401
880.907	1983
880.978	1306
881.013	1040
881.060	1060
881.120	677
881.142	494
881.224	297
881.226	298
881.305	902
881.332	1103
881.387	1161
881.438	871
881.469	782
881.545	797
881.550	823
881.632	1015
881.651	1167
881.713	1359
881.757	1022
881.795	814
881.863	1116
881.876	1136
881.958	888
881.969	952
882.039	1673
882.075	1778
882.121	1888
882.181	2260
882.202	2457
882.284	3006
882.287	3086
882.365	4537
882.393	4007
882.446	4261
882.499	5142
882.528	4292
882.605	2207
882.609	2163
882.690	1446
882.711	1144
882.771	778
882.817	986
882.853	1306
882.923	1003
882.934	945
883.015	947
883.029	996
883.096	1126
883.135	910
883.177	927
883.241	1384
883.258	1530
883.339	1799
883.347	1793
883.420	1239
883.453	1233
883.501	1306
883.558	1278
883.583	1232
883.663	919
883.664	914
883.744	1202
883.770	1214
883.825	1377
883.876	1562
883.906	1460
883.981	1592
883.987	1608
884.068	1393
884.087	1322
884.149	1117
884.193	1096
884.230	1209
884.298	967
884.310	1002
884.391	2005
884.404	2094
884.472	1677
884.510	1400
884.552	1305
884.615	1124
884.633	1205
884.714	1661
884.721	1673
884.794	1250
884.826	1193
884.875	1253
884.932	1284
884.956	1288
885.036	1126
885.037	1120
885.117	1030
885.143	930
885.197	940
885.248	1158
885.278	1162
885.354	1055
885.358	1069
885.439	1211
885.459	1275
885.519	1638
885.565	1812
885.599	1665
885.670	1355
885.680	1352
885.760	1291
885.775	1287
885.840	2111
885.881	2671
885.921	2636
885.986	2239
886.001	2285
886.081	2911
886.091	2933
886.161	2059
886.196	1652
886.241	1799
886.302	2102
886.322	2193
886.402	2555
886.407	2563
886.482	2630
886.512	2704
886.562	2598
886.617	2438
886.642	2627
886.722	2920
886.722	2912
886.802	3234
886.828	3408
886.882	2876
886.933	2269
886.962	2195
887.038	2073
887.042	2095
887.122	2234
887.143	2314
887.202	2634
887.248	2779
887.281	2454
887.353	1733
887.361	1729
887.441	1544
887.458	1538
887.521	2006
887.563	2298
887.601	2343
887.668	2383
887.680	2411
887.760	2497
887.773	2508
887.840	2690
887.878	2713
887.919	2596
887.983	2541
887.999	2546
888.079	2444
888.088	2425
888.158	2496
888.193	2475
888.238	2387
888.297	2354
888.317	2458
888.397	2771
888.402	2781
888.476	2159
888.507	1895
888.556	2074
888.612	2290
888.635	2185
888.715	1706
888.717	1689
888.794	2570
888.821	2875
888.873	2796
888.926	2670
888.953	2564
889.031	2255
889.032	2258
889.111	1985
889.135	1908
889.190	2467
889.240	2913
889.270	2675
889.345	2090
889.349	2120
889.428	2541
889.449	2653
889.507	2667
889.554	2661
889.586	2471
889.658	2015
889.665	2071
889.744	2672
889.763	2804
889.824	2476
889.867	2227
889.903	2232
889.972	2216
890.076	3252
890.181	2059
890.285	2841
890.390	1928
890.494	1923
890.599	1758
890.703	1876
890.807	2041
890.912	2320
891.016	2011
891.120	2515
891.224	2470
891.329	3258
891.433	2409
891.537	2692
891.641	2279
891.745	2446
891.849	1757
891.953	3038
892.058	3095
892.162	2816
892.266	2819
892.370	2586
892.474	1563
892.578	2683
892.682	2138
892.786	2262
892.889	3847
892.993	2050
893.097	1902
893.201	1732
893.305	2921
893.409	2912
893.512	2324
893.616	2453
893.720	1582
893.824	1840
893.927	2417
894.031	2575
894.135	2005
894.238	2613
894.342	2117
894.445	2571
894.549	2875
894.652	3549
894.756	2955
894.859	1896
894.963	1578
895.066	2579
895.170	2400
895.273	1752
895.377	2362
895.480	2653
895.583	2067
895.687	2822
895.790	2000
895.893	2714
895.997	2838
896.100	2284
896.203	2506
896.306	2437
896.409	2243
896.513	1840
896.616	1858
896.719	1800
896.822	1468
896.925	2510
897.028	1780
897.131	2237
897.234	1563
897.337	2438
897.440	1990
897.543	2270
897.646	2285
897.749	2477
897.852	2647
897.954	1826
898.057	1981
898.160	2783
898.263	1872
898.366	2284
898.468	1812
898.571	2377
898.674	2097
898.776	2182
898.879	2269
898.982	3875
899.084	4720
899.187	2590
899.290	1788
899.392	2625
899.495	1755
899.597	2408
899.700	1849
899.802	1735
899.904	1863
900.007	5613
900.109	6329
900.212	2123
900.314	2162
900.416	1202
900.519	1984
900.621	1265
900.723	1611
900.826	1573
900.928	1903
901.030	2268
901.132	1786
901.234	2286
901.336	3170
901.439	2669
901.541	1623
901.643	1241
901.745	2865
901.847	2748
901.949	1600
902.051	1812
902.153	2131
902.255	3220
902.357	2216
902.459	1808
902.560	2875
902.662	2907
902.764	3615
902.866	5555
902.968	2791
903.070	2483
903.171	1512
903.273	1099
903.375	1849
903.477	1913
903.578	1632
903.680	1671
903.781	2717
903.883	2395
903.985	1538
904.086	1793
904.188	1673
904.289	1485
904.391	1771
904.492	1994
904.594	2230
904.695	1719
904.796	1701
904.898	1655
904.999	1009
905.100	1228
905.202	1476
905.303	2230
905.404	2393
905.506	1522
905.607	1240
905.708	1557
905.809	1245
905.910	688
906.012	1434
906.113	1813
906.214	1619
906.315	1184
906.416	1640
906.517	2087
906.618	1450
906.719	2117
906.820	1959
906.921	2686
907.022	1265
907.123	1555
907.224	1270
907.325	2259
907.425	1139
907.526	1453
907.627	1433
907.728	858
907.828	1458
907.929	1992
908.030	1901
908.131	1334
908.231	2007
908.332	712
908.433	1153
908.533	2132
908.634	1755
908.734	2002
908.835	3394
908.935	4163
909.036	4646
909.136	6356
909.237	5456
909.337	1952
909.438	1012
909.538	1518
909.638	2126
909.739	2301
909.839	1400
909.939	2331
910.040	1707
910.140	2219
910.240	2577
910.340	1254
910.440	1557
910.541	1037
910.641	967
910.741	1223
910.841	1309
910.941	1665
911.041	1692
911.141	1990
911.241	1164
911.341	1610
911.441	1293
911.541	1932
911.641	960
911.741	2170
911.841	2504
911.941	2593
912.040	2572
912.140	605
912.240	1584
912.340	2215
912.440	2298
912.539	1967
912.639	1184
912.739	1674
912.838	1563
912.938	1928
913.038	1034
913.137	1452
913.237	1805
913.336	1307
913.436	1427
913.535	1552
913.635	1777
913.734	1304
913.834	1884
913.933	1285
914.033	1116
914.132	1473
914.231	1244
914.331	1005
914.430	857
914.529	3189
914.629	1227
914.728	1227
914.827	1691
914.926	1802
915.025	1380
915.125	1388
915.224	1094
915.323	1781
915.422	1043
915.521	981
915.620	1227
915.719	1385
915.818	1660
915.917	1421
916.016	1766
916.115	2284
916.214	1352
916.313	1353
916.412	1561
916.510	1319
916.609	2238
916.708	1181
916.807	1978
916.906	2666
917.004	1568
917.103	1365
917.202	839
917.301	1215
917.399	1854
917.498	1585
917.596	907
917.695	1693
917.794	1526
917.892	1370
917.991	1399
918.089	1468
918.188	493
918.286	1118
918.384	1447
918.483	1361
918.581	1759
918.680	675
918.778	1441
918.876	902
918.975	1305
919.073	880
919.171	2085
919.269	867
919.368	1155
919.466	691
919.564	1571
919.662	1320
919.760	942
919.858	1323
919.956	1929
920.054	2065
920.153	1172
920.251	1422
920.349	1285
920.446	781
920.544	629
920.642	1288
920.740	1473
920.838	2162
920.936	1772
921.034	2271
921.132	1642
921.229	1607
921.327	1829
921.425	1970
921.523	1195
921.620	1762
921.718	1842
921.816	2489
921.913	1591
922.011	2802
922.109	1845
922.206	1971
922.304	1589
922.401	1859
922.499	2116
922.596	2183
922.694	1327
922.791	1285
922.888	2126
922.986	3469
923.083	2726
923.181	2594
923.278	2412
923.375	3217
923.473	2506
923.570	2568
923.667	3368
923.764	2827
923.861	2768
923.959	2810
924.056	2865
924.153	2930
924.250	2012
924.347	3286
924.444	2619
924.541	2468
924.638	4197
924.735	4028
924.832	2808
924.929	2661
925.026	2353
925.123	2664
925.220	2455
925.317	2942
925.414	2613
925.510	2689
925.607	2866
925.704	2838
925.801	2771
925.897	3831
925.994	4668
926.091	2992
926.187	2974
926.284	3232
926.381	2546
926.477	2893
926.574	2607
926.670	3376
926.767	3329
926.863	2127
926.960	2014
927.056	2888
927.153	2423
927.249	2482
927.346	1742
927.442	1817
927.538	2147
927.635	2114
927.731	2304
927.827	1963
927.924	2464
928.020	2421
928.116	2578
928.212	2085
928.308	2527
928.404	2574
928.501	2048
928.597	2531
928.693	2537
928.789	2596
928.885	2542
928.981	2626
929.077	2326
929.173	2137
929.269	2746
929.365	1942
929.461	2012
929.557	2306
929.652	1503
929.748	1786
929.844	2179
929.940	2464
930.036	1122
930.131	1223
930.227	2437
930.323	1993
930.419	2746
930.514	2080
930.610	1193
930.705	1574
930.801	1433
930.897	2558
930.992	2121
931.088	1923
931.183	2690
931.279	3201
931.374	3630
931.470	2096
931.565	1407
931.660	2776
931.756	1535
931.851	1254
931.946	1541
932.042	1749
932.137	1232
932.232	1716
932.327	1735
932.423	2305
932.518	933
932.613	1847
932.708	1234
932.803	2124
932.898	1535
932.994	2193
933.089	1299
933.184	1282
933.279	1782
933.374	1880
933.469	1673
933.563	2762
933.658	768
933.753	1806
933.848	1699
933.943	1839
934.038	2187
934.133	1290
934.227	1210
934.322	1801
934.417	846
934.512	1589
934.606	1457
934.701	1466
934.796	465
934.890	1823
934.985	2042
935.079	1995
935.174	1721
935.269	901
935.363	1325
935.458	1717
935.552	1253
935.646	1628
935.741	2000
935.835	2039
935.930	2249
936.024	1117
936.118	1469
936.213	975
936.307	2057
936.401	1350
936.496	1404
936.590	1509
936.684	1824
936.778	1508
936.872	876
936.966	1462
937.060	1770
937.155	896
937.249	1990
937.343	1779
937.437	1364
937.531	1414
937.625	1242
937.719	1963
937.813	1511
937.906	1280
938.000	1195
938.094	2563
938.188	2036
938.282	2360
938.376	608
938.469	1623
938.563	759
938.657	1578
938.751	1572
938.844	1540
938.938	2181
939.032	1372
939.125	1340
939.219	1248
939.312	1162
939.406	2333
939.500	2086
939.593	2362
939.686	1037
939.780	1057
939.873	1247
939.967	1514
940.060	1574
940.154	1708
940.247	934
940.340	2129
940.434	1669
940.527	2403
940.620	875
940.713	2100
940.806	747
940.900	1025
940.993	1061
941.086	2220
941.179	922
941.272	1543
941.365	1340
941.458	3663
941.551	2760
941.644	2056
941.737	894
941.830	1417
941.923	1481
942.016	1387
942.109	2037
942.202	1067
942.295	86
942.388	1489
942.480	669
942.573	1073
942.666	744
942.759	915
942.851	1470
942.944	416
943.037	1597
943.129	1409
943.222	375
943.315	1976
943.407	1314
943.500	1267
943.592	857
943.685	1364
943.777	821
943.870	1381
943.962	403
944.055	181
944.147	388
944.239	768
944.332	1173
944.424	852
944.516	1406
944.609	967
944.701	795
944.793	-24
944.885	923
944.977	1160
945.070	1018
945.162	1605
945.254	1315
945.346	2387
945.438	1407
945.530	1808
945.622	1421
945.714	1974
945.806	626
945.898	1484
945.990	2055
946.082	1170
946.174	1403
946.266	895
946.358	944
946.449	384
946.541	544
946.633	1082
946.725	1237
946.816	1034
946.908	1122
947.000	1359
947.091	256
947.183	994
947.275	735
947.366	1177
947.458	608
947.549	-181
947.641	438
947.732	201
947.824	552
947.915	293
948.007	463
948.098	738
948.190	725
948.281	654
948.372	622
948.464	1097
948.555	731
948.646	452
948.737	1243
948.829	1050
948.920	232
949.011	1372
949.102	686
949.193	796
949.284	806
949.376	629
949.467	246
949.558	772
949.649	1159
949.740	805
949.831	183
949.922	1053
950.013	926
950.104	888
950.194	-162
950.285	509
950.376	388
950.467	478
950.558	1065
950.649	2334
950.739	3572
950.830	1941
950.921	2680
951.011	2737
951.102	1188
951.193	2228
951.283	1946
951.374	2031
951.464	990
951.555	938
951.646	876
951.736	1299
951.826	489
951.917	870
952.007	257
952.098	367
952.188	351
952.279	395
952.369	950
952.459	-12
952.549	1666
952.640	-402
952.730	630
952.820	790
952.910	1040
953.001	1445
953.091	401
953.181	688
953.271	487
953.361	939
953.451	884
953.541	528
953.631	55
953.721	1627
953.811	33
953.901	746
953.991	1140
954.081	242
954.171	281
954.261	1252
954.350	1221
954.440	1107
954.530	1627
954.620	5994
954.710	9494
954.799	2610
954.889	-14
954.979	1739
955.068	503
955.158	788
955.248	230
955.337	702
955.427	558
955.516	787
955.606	786
955.695	293
955.785	351
955.874	467
955.964	905
956.053	395
956.142	407
956.232	600
956.321	347
956.410	-308
956.500	-67
956.589	517
956.678	-409
956.767	477
956.856	208
956.946	535
957.035	723
957.124	1280
957.213	-353
957.302	589
957.391	452
957.480	741
957.569	1146
957.658	833
957.747	-30
957.836	-109
957.925	132
958.014	806
958.103	154
958.192	397
958.280	-220
958.369	829
958.458	-17
958.547	522
958.635	395
958.724	1036
958.813	-125
958.901	1264
958.990	734
959.079	740
959.167	500
959.256	1376
959.344	1460
959.433	540
959.521	761
959.610	683
959.698	591
959.787	1329
959.875	2867
959.964	7022
960.052	12315
960.140	3815
960.228	1028
960.317	1039
960.405	-416
960.493	770
960.581	824
960.670	1259
960.758	5
960.846	1379
960.934	-798
961.022	907
961.110	394
961.198	516
961.286	596
961.374	1194
961.462	293
961.550	381
961.638	725
961.726	766
961.814	-202
961.902	55
961.990	-232
962.078	116
962.165	-298
962.253	1502
962.341	-59
962.429	238
962.516	127
962.604	1471
962.692	861
962.779	649
962.867	643
962.955	-282
963.042	533
963.130	720
963.217	1181
963.305	986
963.392	1205
963.480	2613
963.567	3291
963.654	5139
963.742	11793
963.829	29426
963.917	55176
964.004	21188
964.091	2703
964.178	1174
964.266	489
964.353	1540
964.440	441
964.527	1298
964.614	1765
964.701	4252
964.789	10280
964.876	8271
964.963	1680
965.050	407
965.137	349
965.224	879
965.311	643
965.398	1006
965.485	521
965.571	358
965.658	-44
965.745	841
965.832	1079
965.919	533
966.006	339
966.092	590
966.179	469
966.266	2237
966.352	347
966.439	791
966.526	561
966.612	1123
966.699	242
966.786	538
966.872	616
966.959	1135
967.045	410
967.132	725
967.218	1390
967.304	2777
967.391	4220
967.477	8239
967.564	23046
967.650	36780
967.736	11369
967.822	1171
967.909	526
967.995	1027
968.081	890
968.167	338
968.254	1131
968.340	1210
968.426	-300
968.512	858
968.598	-301
968.684	1379
968.770	1559
968.856	3385
968.942	7652
969.028	5885
969.114	937
969.200	715
969.286	743
969.372	925
969.457	-79
969.543	582
969.629	-46
969.715	85
969.801	1482
969.886	1232
969.972	527
970.058	1452
970.143	468
970.229	2472
970.315	1772
970.400	4093
970.486	6393
970.571	15249
970.657	24729
970.742	8100
970.828	1401
970.913	490
970.999	-18
971.084	951
971.169	-28
971.255	84
971.340	598
971.425	-29
971.511	-141
971.596	296
971.681	1170
971.766	824
971.852	2416
971.937	3850
972.022	3792
972.107	1221
972.192	208
972.277	771
972.362	473
972.447	793
972.532	1328
972.617	555
972.702	2726
972.787	4331
972.872	13292
972.957	13914
973.042	2934
973.126	104
973.211	799
973.296	685
973.381	-43
973.466	410
973.550	809
973.635	-87
973.720	-196
973.804	1196
973.889	1878
973.973	2515
974.058	2576
974.143	2183
974.227	1900
974.312	5891
974.396	10423
974.481	10606
974.565	2111
974.649	1105
974.734	1253
974.818	1030
974.902	311
974.987	350
975.071	-207
975.155	853
975.240	451
975.324	-189
975.408	150
975.492	-556
975.576	144
975.660	695
975.744	-183
975.829	-247
975.913	760
975.997	49
976.081	-1177
976.165	725
976.249	378
976.333	782
976.416	54
976.500	1100
976.584	119
976.668	697
976.752	-172
976.836	1207
976.919	1079
977.003	3316
977.087	6145
977.171	4138
977.254	925
977.338	421
977.422	551
977.505	919
977.589	369
977.672	121
977.756	-361
977.839	688
977.923	210
978.006	1495
978.090	1255
978.173	1349
978.257	3895
978.340	9748
978.423	14353
978.507	5905
978.590	992
978.673	2772
978.756	5620
978.840	8322
978.923	3922
979.006	577
979.089	-1325
979.172	448
979.255	-217
979.338	786
979.422	196
979.505	456
979.588	-102
979.671	-389
979.754	-103
979.836	302
979.919	-165
980.002	815
980.085	60
980.168	215
980.251	370
980.334	16
980.416	-204
980.499	-393
980.582	-135
980.665	-592
980.747	18
980.830	875
980.912	287
980.995	-314
981.078	634
981.160	-173
981.243	-794
981.325	71
981.408	294
981.490	-383
981.573	323
981.655	-20
981.738	64
981.820	-420
981.902	-94
981.984	58
982.067	-877
982.149	124
982.231	-825
982.314	153
982.396	-201
982.478	-130
982.560	315
982.642	126
982.724	-169
982.807	704
982.888	391
982.971	420
983.053	-670
983.135	345
983.216	297
983.298	2873
983.380	668
983.462	754
983.544	445
983.626	-409
983.708	-508
983.790	82
983.871	337
983.953	202
984.035	-481
984.117	-72
984.198	-11
984.280	409
984.362	-846
984.443	567
984.525	25
984.606	-333
984.688	37
984.769	-291
984.851	416
984.932	370
985.014	115
985.095	-623
985.177	-113
985.258	-161
985.339	-692
985.421	733
985.502	-480
985.583	-267
985.664	-6
985.746	514
985.827	-1379
985.908	661
985.989	-369
986.070	-292
986.151	-582
986.232	-458
986.313	-306
986.395	199
986.476	-442
986.557	-160
986.637	-325
986.718	-603
986.799	-88
986.880	-173
986.961	-445
987.042	-536
987.123	-117
987.204	-234
987.284	-1823
987.365	-233
987.446	-79
987.526	336
987.607	-398
987.688	651
987.768	-327
987.849	533
987.930	625
988.010	517
988.091	122
988.171	383
988.252	-500
988.332	392
988.413	336
988.493	965
988.573	-326
988.654	216
988.734	-376
988.814	-1050
988.895	326
988.975	447
989.055	1269
989.135	660
989.216	-441
989.296	-395
989.376	-507
989.456	-132
989.536	587
989.616	57
989.696	-652
989.776	-262
989.856	193
989.936	-988
990.016	-611
990.096	-304
990.176	-489
990.256	-295
990.336	-816
990.416	-560
990.495	-175
990.575	-702
990.655	-954
990.735	-557
990.814	27
990.894	204
990.974	-406
991.053	-52
991.133	-615
991.213	-77
991.292	-1084
991.372	-638
991.451	-638
991.531	403
991.610	-96
991.690	290
991.769	-981
991.849	-55
991.928	-159
992.007	-282
992.087	-654
992.166	-671
992.245	792
992.324	296
992.404	-492
992.483	-482
992.562	-155
992.641	-272
992.720	-391
992.799	2055
992.879	673
992.958	-619
993.037	-1200
993.116	-1023
993.195	-757
993.274	-799
993.353	-332
993.432	-60
993.510	-1442
993.589	-85
993.668	-1101
993.747	-973
993.826	-897
993.904	-396
993.983	-1192
994.062	-1218
994.141	-3
994.219	70
994.298	-803
994.377	-592
994.455	-547
994.534	284
994.612	-91
994.691	-842
994.769	-1297
994.848	90
994.926	-732
995.005	-195
995.083	-1225
995.161	37
995.240	-435
995.318	-1063
995.397	-87
995.475	-793
995.553	-406
995.631	-933
995.710	-467
995.788	-305
995.866	-545
995.944	-114
996.022	-869
996.100	-659
996.178	-785
996.256	-1075
996.334	41
996.412	-609
996.490	-287
996.568	-1257
996.646	-1884
996.724	-118
996.802	-1123
996.880	-1275
996.958	-884
997.036	-68
997.113	-940
997.191	-598
997.269	-665
997.346	-946
997.424	-362
997.502	-9
997.579	-766
997.657	-1821
997.735	-364
997.812	-448
997.890	-1421
997.967	-846
998.045	-204
998.122	-544
998.200	-464
998.277	-306
998.354	-581
998.432	-1483
998.509	-80
998.586	-1461
998.664	-780
998.741	103
998.818	-773
998.896	-690
998.973	-521
999.050	-426
999.127	-982
999.204	-736
999.281	-398
999.358	-1031
999.435	-717
999.512	-1264
999.589	-856
999.666	-80
999.743	-16
999.820	-707
999.897	310
999.974	490
1000.051	-1031
1000.128	315
1000.205	-444
1000.281	446
1000.358	-69
1000.435	-569
1000.512	-852
1000.588	-380
1000.665	-1020
1000.741	-1649
1000.818	-948
1000.895	-977
1000.971	-348
1001.048	-243
1001.124	-827
1001.201	24
1001.277	-883
1001.354	-217
1001.430	-1642
1001.507	-933
1001.583	-464
1001.659	-856
1001.736	-1166
1001.812	-699
1001.888	-866
1001.964	-591
1002.041	-1756
1002.117	-399
1002.193	-606
1002.269	-559
1002.345	-1287
1002.421	-553
1002.497	-1502
1002.573	17
1002.649	-443
1002.725	-977
1002.801	-638
1002.877	-34
1002.953	-402
1003.029	-542
1003.105	-1528
1003.181	-1170
1003.257	-1403
1003.333	-818
1003.408	-1117
1003.484	-539
1003.560	-604
1003.636	-1475
1003.711	-1751
1003.787	-1727
1003.862	-1667
1003.938	-883
1004.014	-634
1004.089	-1497
1004.165	-1221
1004.240	-766
1004.316	-1106
1004.391	-1751
1004.467	-209
1004.542	-557
1004.617	-955
1004.693	-938
1004.768	-260
1004.844	-740
1004.919	-425
1004.994	-688
1005.069	-635
1005.145	-510
1005.220	-1270
1005.295	-1508
1005.370	-832
1005.445	-623
1005.520	-30
1005.595	-1724
1005.670	-371
1005.745	-1108
1005.820	342
1005.895	752
1005.970	-1049
1006.045	-1396
1006.120	-709
1006.195	-527
1006.270	-1160
1006.345	-1309
1006.419	-525
1006.494	-1419
1006.569	-2141
1006.644	-890
1006.718	-1689
1006.793	-1105
1006.868	-612
1006.942	-1195
1007.017	-1058
1007.092	-961
1007.166	-800
1007.241	-626
1007.315	-1206
1007.390	-1170
1007.464	-712
1007.539	-1609
1007.613	-423
1007.687	-318
1007.762	-797
1007.836	-1544
1007.910	-848
1007.984	-1092
1008.059	-1388
1008.133	-785
1008.207	-2514
1008.281	-975
1008.356	-1130
1008.430	-822
1008.504	-1356
1008.578	-1474
1008.652	-935
1008.726	-961
1008.800	-2549
1008.874	-1230
1008.948	-641
1009.022	-1450
1009.096	-1574
1009.170	-1821
1009.244	-1905
1009.317	-870
1009.391	-1686
1009.465	-1003
1009.539	-1772
1009.613	-431
1009.686	-1686
1009.760	-1547
1009.834	-1302
1009.907	-1381
1009.981	-2331
1010.054	-748
1010.128	-3059
1010.201	-430
1010.275	-799
1010.349	-1693
1010.422	-1371
1010.495	-857
1010.569	-1678
1010.642	-1533
1010.716	-306
1010.789	-1188
1010.862	-1587
1010.936	-1584
1011.009	-943
1011.082	-788
1011.155	-1424
1011.229	-1185
1011.302	-1471
1011.375	107
1011.448	-1483
1011.521	-1585
1011.594	-1120
1011.667	-2542
1011.740	-1622
1011.813	-1229
1011.886	-1109
1011.959	-1222
1012.032	-1465
1012.105	-912
1012.178	-1785
1012.251	-1154
1012.324	-1203
1012.396	-574
1012.469	-1304
1012.542	-1772
1012.614	-923
1012.687	-1763
1012.760	-1512
1012.833	-760
1012.905	-1485
1012.978	-1191
1013.050	-762
1013.123	-2016
1013.195	-1603
1013.268	-781
1013.340	-1385
1013.413	-1309
1013.485	-1855
1013.558	-2132
1013.630	-1462
1013.702	-693
1013.775	-1869
1013.847	-1189
1013.919	-1561
1013.992	-1987
1014.064	-1080
1014.136	-1695
1014.208	-1615
1014.280	-607
1014.353	-1646
1014.425	-1373
1014.497	-998
1014.569	-1111
1014.641	-1292
1014.713	-323
1014.785	-1968
1014.857	-949
1014.929	-1427
1015.001	-1406
1015.072	-1230
1015.144	-1925
1015.216	-605
1015.288	-1060
1015.360	-1445
1015.431	-2211
1015.503	-1364
1015.575	-2252
1015.647	-1683
1015.718	-2332
1015.790	-2064
1015.861	-889
1015.933	-2035
1016.005	-976
1016.076	-1591
1016.148	-1095
1016.219	-2153
1016.291	-1137
1016.362	-1281
1016.433	-1755
1016.505	-1714
1016.576	-1434
1016.647	-1901
1016.719	-2256
1016.790	-1381
1016.861	-1100
1016.932	-1554
1017.004	-1244
1017.075	-2214
1017.146	-1337
1017.217	-1946
1017.288	-1482
1017.359	-2242
1017.430	-1080
1017.502	-2049
1017.573	-1526
1017.644	-852
1017.714	-1320
1017.785	-1973
1017.856	-1352
1017.927	-2148
1017.998	-1552
1018.069	-1463
1018.140	-1833
1018.210	-1340
1018.281	-1618
1018.352	-1885
1018.423	-1157
1018.493	-1676
1018.564	-1323
1018.635	-1344
1018.705	-1479
1018.776	-1606
1018.846	-1658
1018.917	-1833
1018.987	-1904
1019.058	-2073
1019.128	-1394
1019.199	-1570
1019.269	-1131
1019.340	-751
1019.410	-1844
1019.480	-1370
1019.551	-1495
1019.621	-1479
1019.691	-1325
1019.761	-1798
1019.832	-1681
1019.902	-1882
1019.972	-1403
1020.042	-2024
1020.112	-844
1020.182	-1359
1020.252	-937
1020.322	-1563
1020.392	-1348
1020.462	-1272
1020.532	-1346
1020.602	-1743
1020.672	-1153
1020.742	-2298
1020.812	-1482
1020.882	-1563
1020.952	-1746
1021.021	-1567
1021.091	-932
1021.161	-1685
1021.230	-2253
1021.300	-1323
1021.370	-1632
1021.440	-1471
1021.509	-1013
1021.579	-1065
1021.648	-806
1021.718	-1044
1021.787	-1621
1021.857	-1827
1021.926	-705
1021.996	-1751
1022.065	-1433
1022.134	-2071
1022.204	-1565
1022.273	-1928
1022.342	-1123
1022.412	-1278
1022.481	-1516
1022.550	-2001
1022.619	-1635
1022.689	-1421
1022.758	-1908
1022.827	-1589
1022.896	-2165
1022.965	-1750
1023.034	-1240
1023.103	-1119
1023.172	-1031
1023.241	-1883
1023.310	-1724
1023.379	-1639
1023.448	-1617
1023.517	-1858
1023.586	-782
1023.654	-1744
1023.723	-1696
1023.792	-1959
1023.861	-1302
1023.929	-1303
1023.998	-1776
1024.067	-2112
1024.135	-1135
1024.204	-1407
1024.273	-1125
1024.341	-1614
1024.410	-2538
1024.478	-1006
1024.547	-1585
1024.615	-1850
1024.684	-1969
1024.752	-1793
1024.820	-1275
1024.889	-1860
1024.957	-1804
1025.026	-1480
1025.094	-2027
1025.162	-2039
1025.230	-1456
1025.299	-2047
1025.367	-1748
1025.435	-1413
1025.503	-2159
1025.571	-1970
1025.639	-1072
1025.707	-1719
1025.776	-1237
1025.844	-1631
1025.912	-997
1025.979	-1271
1026.047	-1701
1026.115	-2048
1026.183	-1563
1026.251	-1824
1026.319	-1515
1026.387	-1439
1026.454	-1203
1026.522	-1595
1026.590	-1017
1026.658	-1727
1026.725	-1196
1026.793	-2094
1026.861	-1295
1026.928	-2027
1026.996	-976
1027.064	-1856
1027.131	-1763
1027.199	-1608
1027.266	-1203
1027.334	-1131
1027.401	-1736
1027.468	-2208
1027.536	-1520
1027.603	-1889
1027.671	-1952
1027.738	-1693
1027.805	-1587
1027.872	-814
1027.940	-1527
1028.007	-1608
1028.074	-1044
1028.141	-1708
1028.208	-1475
1028.275	-843
1028.342	-1280
1028.409	-1723
1028.477	-1022
1028.544	-1827
1028.610	-1534
1028.678	-2360
1028.744	-1151
1028.811	-2118
1028.878	-1066
1028.945	-1281
1029.012	-1515
1029.079	-1569
1029.146	-1580
1029.212	-1151
1029.279	-2208
1029.346	-1894
1029.412	-1878
1029.479	-1321
1029.546	-1536
1029.612	-1513
1029.679	-1029
1029.745	-2083
1029.812	-1212
1029.878	-1930
1029.945	-1871
1030.011	-1551
1030.078	-1593
1030.144	-944
1030.210	-1070
1030.277	-1686
1030.343	-1610
1030.409	-2282
1030.476	-1433
1030.542	-1063
1030.608	-1569
1030.674	-1702
1030.740	-1789
1030.807	-1366
1030.873	-1983
1030.939	-2457
1031.005	-1424
1031.071	-1881
1031.137	-1354
1031.203	-1557
1031.269	-1373
1031.335	-1877
1031.401	-444
1031.467	-1063
1031.533	-1301
1031.598	-1641
1031.664	-1687
1031.730	-1365
1031.796	-1086
1031.861	-1434
1031.927	-2147
1031.993	-1957
1032.058	-2415
1032.124	-2121
1032.190	-1958
1032.255	-2127
1032.321	-2031
1032.386	-1954
1032.452	-1524
1032.518	-2230
1032.583	-1483
1032.648	-1233
1032.714	-1236
1032.779	-1179
1032.844	-1453
1032.910	-2182
1032.975	-1322
1033.040	-1481
1033.106	-2078
1033.171	-1372
1033.236	-1923
1033.301	-1773
1033.366	-2112
1033.432	-1991
1033.496	-1089
1033.562	-782
1033.627	-1315
1033.692	-1516
1033.757	-1438
1033.822	-1942
1033.887	-1917
1033.952	-1781
1034.016	-2031
1034.081	-2033
1034.146	-774
1034.211	-1670
1034.276	-1166
1034.340	-1046
1034.405	-1607
1034.470	-416
1034.535	-132
1034.599	-232
1034.664	-324
1034.729	-497
1034.793	-1256
1034.858	-1442
1034.922	-814
1034.987	-1494
1035.051	-1842
1035.116	-1849
1035.180	-1496
1035.245	-1475
1035.309	-1685
1035.373	-877
1035.437	-1511
1035.502	-1896
1035.566	-1775
1035.630	-1905
1035.695	-931
1035.759	-2214
1035.823	-1111
1035.887	-2398
1035.951	-1808
1036.015	-1223
1036.079	-1378
1036.143	-1735
1036.208	-1130
1036.271	-2178
1036.336	-1917
1036.399	-1928
1036.463	-2288
1036.527	-1199
1036.591	-1400
1036.655	-761
1036.719	-712
1036.783	-1285
1036.846	-766
1036.910	-599
1036.974	-1634
1037.037	-2074
1037.101	-1739
1037.165	-1943
1037.228	-1602
1037.292	-1663
1037.355	-1424
1037.419	-2052
1037.483	-1300
1037.546	-1791
1037.609	-1975
1037.673	-2278
1037.736	-2250
1037.800	-1750
1037.863	-1298
1037.926	-2446
1037.990	-1764
1038.053	-1845
1038.116	-1957
1038.179	-601
1038.243	-1147
1038.306	-1943
1038.369	-815
1038.432	-754
1038.495	-1458
1038.558	-1489
1038.621	-1686
1038.684	-1406
1038.747	-1537
1038.810	-1734
1038.873	-1389
1038.936	-1101
1038.999	-1639
1039.062	-2036
1039.125	-1773
1039.188	-1125
1039.250	-1366
1039.313	-1776
1039.376	-1694
1039.438	-1699
1039.501	-1845
1039.564	-2247
1039.627	-1762
1039.689	-2182
1039.752	-1616
1039.814	-2061
1039.877	-1879
1039.939	-1742
1040.002	-1914
1040.064	-2680
1040.127	-2216
1040.189	-1684
1040.251	-2063
1040.314	-1218
1040.376	-1891
1040.438	-1933
1040.501	-1826
1040.563	-1724
1040.625	-1524
1040.687	-1555
1040.750	-1391
1040.812	-1379
1040.874	-1627
1040.936	-2421
1040.998	-857
1041.060	-1759
1041.122	-1629
1041.184	-2409
1041.246	-1287
1041.308	-1838
1041.370	-2201
1041.432	-2769
1041.494	-2334
1041.555	-2046
1041.617	-1105
1041.679	-1304
1041.741	-1709
1041.802	-2084
1041.864	-1780
1041.926	-1779
1041.987	-1967
1042.049	-1573
1042.111	-1953
1042.172	-1837
1042.234	-1774
1042.295	-1462
1042.357	-1590
1042.418	-1566
1042.480	-1912
1042.541	-1576
1042.603	-1592
1042.664	-1629
1042.725	-1242
1042.786	-1544
1042.848	-2450
1042.909	-1975
1042.970	-1858
1043.031	-2634
1043.093	-2097
1043.154	-2759
1043.215	-1974
1043.276	-2090
1043.337	-2169
1043.398	-2343
1043.459	-1424
1043.520	-2844
1043.581	-1375
1043.642	-2059
1043.703	-2435
1043.764	-878
1043.825	-2336
1043.886	-2366
1043.947	-1488
1044.007	-2047
1044.068	-1982
1044.129	-2326
1044.189	-2285
1044.250	-2739
1044.311	-1782
1044.371	-2472
1044.432	-2708
1044.493	-1745
1044.553	-1906
1044.614	-2187
1044.674	-1790
1044.735	-1835
1044.795	-1374
1044.856	-1335
1044.916	-692
1044.976	-1617
1045.037	-2087
1045.097	-1807
1045.157	-1257
1045.218	-1805
1045.278	-1398
1045.338	-2349
1045.398	-1694
1045.458	-1890
1045.519	-1462
1045.579	-721
1045.639	-856
1045.699	-1879
1045.759	-2597
1045.819	-2121
1045.879	-1610
1045.939	-1983
1045.999	-1491
1046.059	-1315
1046.119	-1835
1046.179	-1767
1046.238	-1229
1046.298	-931
1046.358	-1320
1046.418	-1831
1046.477	-1642
1046.537	-1470
1046.597	-1975
1046.656	-810
1046.716	-1067
1046.776	-656
1046.835	-795
1046.895	-1225
1046.954	-434
1047.014	-897
1047.073	124
1047.133	0
