'Start Wavelength	183.907
'End Wavelength	1046.922
'Gate Delay	5.000
'Gate Width (ms)	1.050
'Laser Output Level	0.000
'X Position	0.000
'Y Position	0.000
'Z Position	0.000
'Grid Point Number	1.000
'Shot Number	100.000
183.907	930.000
183.977	379.000
184.047	169
184.116	498
184.186	697
184.256	611
184.325	-330
184.395	-616
184.465	498
184.534	-173
184.604	-165
184.674	891
184.743	429
184.813	584
184.883	480
184.952	-119
185.022	289
185.092	253
185.161	209
185.231	-433
185.301	160
185.370	136
185.440	286
185.509	-9
185.579	-32
185.649	173
185.718	269
185.788	-33
185.857	-43
185.927	12
185.996	74
186.066	172
186.136	82
186.205	-132
186.275	297
186.344	378
186.414	-338
186.483	-1037
186.553	766
186.622	154
186.692	645
186.761	159
186.831	178
186.900	-114
186.970	824
187.039	298
187.109	729
187.178	168
187.248	253
187.317	236
187.387	-263
187.456	570
187.526	432
187.595	130
187.664	441
187.734	353
187.803	680
187.873	-321
187.942	961
188.012	429
188.081	277
188.150	591
188.220	775
188.289	62
188.358	269
188.428	88
188.497	-636
188.567	611
188.636	-392
188.705	-107
188.775	430
188.844	-324
188.913	384
188.983	100
189.052	569
189.121	348
189.191	152
189.260	2
189.329	211
189.399	-591
189.468	-459
189.537	-1312
189.606	465
189.676	-31
189.745	-157
189.814	134
189.883	503
189.953	-758
190.022	415
190.091	-245
190.161	-331
190.230	-284
190.299	-252
190.368	121
190.437	338
190.507	371
190.576	158
190.645	-655
190.714	649
190.783	140
190.853	832
190.922	460
190.991	-14
191.060	-58
191.129	-203
191.198	79
191.268	-96
191.337	-92
191.406	413
191.475	580
191.544	4
191.613	453
191.682	574
191.752	164
191.821	380
191.890	-125
191.959	119
192.028	-298
192.097	42
192.166	-44
192.235	-315
192.304	355
192.373	104
192.442	420
192.511	-407
192.580	-523
192.650	252
192.719	-62
192.788	-61
192.857	-182
192.926	325
192.995	109
193.064	1191
193.133	125
193.202	365
193.271	119
193.340	-754
193.409	222
193.478	292
193.547	79
193.615	750
193.684	408
193.753	486
193.822	142
193.891	-27
193.960	424
194.029	241
194.098	350
194.167	-391
194.236	318
194.305	-75
194.374	-677
194.443	178
194.512	29
194.580	658
194.649	-627
194.718	1077
194.787	141
194.856	-414
194.925	-66
194.994	424
195.062	472
195.131	-123
195.200	165
195.269	-432
195.338	415
195.407	438
195.475	-411
195.544	714
195.613	-676
195.682	916
195.751	-90
195.819	336
195.888	395
195.957	707
196.026	105
196.094	272
196.163	-14
196.232	549
196.301	-90
196.369	330
196.438	216
196.507	514
196.576	-547
196.644	98
196.713	-178
196.782	493
196.850	779
196.919	104
196.988	-168
197.056	144
197.125	-9
197.194	216
197.262	-381
197.331	317
197.400	32
197.468	956
197.537	-180
197.606	194
197.674	986
197.743	1057
197.812	-275
197.880	221
197.949	430
198.017	971
198.086	-640
198.155	273
198.223	699
198.292	867
198.360	-978
198.429	-67
198.497	196
198.566	448
198.635	-378
198.703	117
198.772	386
198.840	341
198.909	827
198.977	256
199.046	-182
199.114	745
199.183	211
199.251	24
199.320	-208
199.388	248
199.457	110
199.525	-247
199.594	-62
199.662	-14
199.731	213
199.799	-92
199.867	676
199.936	219
200.004	416
200.073	191
200.141	-670
200.210	-652
200.278	-351
200.346	454
200.415	967
200.483	-203
200.552	110
200.620	-415
200.688	158
200.757	189
200.825	480
200.893	-42
200.962	-179
201.030	814
201.098	-139
201.167	277
201.235	421
201.303	75
201.372	299
201.440	-139
201.508	-131
201.577	274
201.645	-310
201.713	647
201.781	381
201.850	291
201.918	-742
201.986	705
202.055	585
202.123	-201
202.191	-126
202.259	892
202.327	-376
202.396	261
202.464	-89
202.532	-317
202.600	564
202.669	-239
202.737	-58
202.805	-525
202.873	-379
202.941	447
203.009	301
203.078	-414
203.146	50
203.214	-73
203.282	-112
203.350	284
203.418	-294
203.487	203
203.555	93
203.623	832
203.691	608
203.759	-90
203.827	180
203.895	720
203.963	-54
204.031	-744
204.099	-238
204.168	-259
204.236	418
204.304	-510
204.372	91
204.440	792
204.508	-135
204.576	298
204.644	-36
204.712	73
204.780	-223
204.848	139
204.916	-222
204.984	-630
205.052	-560
205.120	193
205.188	388
205.256	-244
205.324	-649
205.392	-667
205.460	353
205.528	151
205.596	-117
205.664	212
205.732	-367
205.799	259
205.867	873
205.935	-295
206.003	560
206.071	-22
206.139	-29
206.207	665
206.275	-398
206.343	48
206.411	230
206.478	-92
206.546	66
206.614	-64
206.682	-63
206.750	103
206.818	-147
206.885	428
206.953	-552
207.021	147
207.089	211
207.157	-294
207.225	61
207.292	-51
207.360	-122
207.428	-139
207.496	678
207.563	690
207.631	-145
207.699	22
207.767	111
207.834	6
207.902	-1044
207.970	-113
208.038	237
208.105	85
208.173	92
208.241	510
208.309	-178
208.376	482
208.444	262
208.512	-501
208.579	268
208.647	907
208.715	787
208.782	175
208.850	-71
208.918	-653
208.985	-344
209.053	635
209.120	-189
209.188	-227
209.256	-72
209.323	-312
209.391	167
209.459	1945
209.526	138
209.594	-830
209.661	740
209.729	456
209.796	-96
209.864	395
209.932	-957
209.999	1270
210.067	141
210.134	778
210.202	-19
210.269	1302
210.337	381
210.404	-603
210.472	-76
210.539	183
210.607	-169
210.674	-596
210.742	98
210.809	516
210.877	-333
210.944	576
211.012	-849
211.079	1204
211.146	-604
211.214	-59
211.281	-693
211.349	144
211.416	446
211.484	263
211.551	-443
211.618	226
211.686	-106
211.753	416
211.821	608
211.888	-109
211.955	-653
212.023	-19
212.090	-151
212.157	-1367
212.225	-692
212.292	166
212.359	518
212.427	2335
212.494	944
212.561	740
212.629	-333
212.696	-529
212.763	28
212.831	-989
212.898	928
212.965	365
213.032	534
213.100	93
213.167	440
213.234	262
213.301	183
213.369	-454
213.436	456
213.503	-212
213.570	153
213.638	-75
213.705	-360
213.772	318
213.839	-294
213.906	608
213.973	169
214.041	37
214.108	107
214.175	548
214.242	327
214.309	483
214.376	-170
214.444	326
214.511	138
214.578	6
214.645	498
214.712	73
214.779	199
214.846	327
214.913	45
214.980	484
215.048	270
215.115	-122
215.182	785
215.249	816
215.316	66
215.383	471
215.450	-538
215.517	28
215.584	308
215.651	202
215.718	-59
215.785	641
215.852	-105
215.919	172
215.986	768
216.053	365
216.120	599
216.187	1000
216.254	286
216.321	-412
216.388	121
216.455	96
216.522	242
216.589	28
216.656	12
216.722	757
216.789	51
216.856	315
216.923	313
216.990	753
217.057	-236
217.124	593
217.191	660
217.258	-66
217.324	742
217.391	1006
217.458	312
217.525	-115
217.592	-92
217.659	-297
217.725	560
217.792	-48
217.859	666
217.926	-553
217.993	405
218.059	862
218.126	-663
218.193	212
218.260	-630
218.327	-456
218.393	15
218.460	-73
218.527	-610
218.594	379
218.660	-372
218.727	821
218.794	-262
218.860	789
218.927	-517
218.994	-174
219.061	-107
219.127	794
219.194	296
219.261	61
219.327	346
219.394	890
219.461	-534
219.527	-221
219.594	89
219.661	-302
219.727	-871
219.794	522
219.860	-706
219.927	470
219.994	123
220.060	347
220.127	456
220.193	-128
220.260	-432
220.326	458
220.393	353
220.460	603
220.526	95
220.593	-764
220.659	1215
220.726	-79
220.792	1065
220.859	581
220.925	862
220.992	1660
221.058	2100
221.125	1155
221.191	929
221.258	442
221.324	795
221.391	562
221.457	98
221.524	610
221.590	-179
221.657	1536
221.723	430
221.789	319
221.856	662
221.922	-510
221.989	500
222.055	698
222.121	-449
222.188	1577
222.254	50
222.321	-35
222.387	-576
222.453	-596
222.520	-62
222.586	-306
222.652	-190
222.719	-573
222.785	243
222.851	-166
222.918	-543
222.984	304
223.050	-166
223.116	-143
223.183	957
223.249	-425
223.315	-733
223.382	-95
223.448	0
223.514	-127
223.580	334
223.647	240
223.713	-317
223.779	-993
223.845	132
223.911	277
223.978	-540
224.044	-591
224.110	-5
224.176	570
224.242	-100
224.309	-669
224.375	25
224.441	-84
224.507	299
224.573	-687
224.639	214
224.705	-250
224.772	-639
224.838	-817
224.904	-296
224.970	-329
225.036	44
225.102	-667
225.168	153
225.234	110
225.300	97
225.366	-95
225.432	880
225.499	260
225.565	471
225.631	-11
225.697	-194
225.763	103
225.829	-474
225.895	-705
225.961	501
226.027	-259
226.093	27
226.159	912
226.225	755
226.291	1290
226.357	2971
226.423	1369
226.489	424
226.554	674
226.620	255
226.686	-17
226.752	1207
226.818	951
226.884	3675
226.950	3032
227.016	769
227.082	940
227.148	489
227.214	667
227.279	-192
227.345	138
227.411	95
227.477	666
227.543	379
227.609	524
227.674	1159
227.740	460
227.806	-472
227.872	-11
227.938	-345
228.003	852
228.069	-507
228.135	-328
228.201	952
228.267	-425
228.332	537
228.398	-1144
228.464	471
228.530	-12
228.595	-76
228.661	-205
228.727	-899
228.792	1146
228.858	-271
228.924	-1511
228.990	768
229.055	-430
229.121	186
229.187	-484
229.252	-893
229.318	69
229.384	68
229.449	811
229.515	-1251
229.581	-602
229.646	915
229.712	3
229.777	702
229.843	489
229.909	809
229.974	1374
230.040	637
230.105	427
230.171	66
230.236	137
230.302	517
230.368	183
230.433	-347
230.499	602
230.564	992
230.630	-69
230.695	-2
230.761	1358
230.826	-1305
230.892	1289
230.957	-147
231.023	-61
231.088	-281
231.154	147
231.219	121
231.284	-141
231.350	263
231.415	-315
231.481	237
231.546	-343
231.612	407
231.677	103
231.742	-1297
231.808	704
231.873	-827
231.939	-1656
232.004	660
232.069	627
232.135	-617
232.200	-69
232.265	-225
232.331	-202
232.396	-530
232.461	-749
232.527	-455
232.592	-979
232.657	-225
232.723	-103
232.788	507
232.853	783
232.918	723
232.984	-643
233.049	-701
233.114	-215
233.179	-349
233.245	1378
233.310	761
233.375	-762
233.440	323
233.506	337
233.571	-1250
233.636	302
233.701	-97
233.766	126
233.832	636
233.897	83
233.962	-292
234.027	420
234.092	383
234.157	117
234.222	-351
234.288	797
234.353	2351
234.418	2639
234.483	1007
234.548	1141
234.613	-149
234.678	226
234.743	-319
234.808	2602
234.873	102
234.938	1685
235.004	387
235.069	610
235.134	-755
235.199	285
235.264	87
235.329	-499
235.394	191
235.459	301
235.524	-805
235.589	752
235.654	340
235.719	-577
235.784	933
235.849	591
235.913	921
235.978	941
236.043	1549
236.108	1038
236.173	81
236.238	1740
236.303	-11
236.368	131
236.433	1150
236.498	489
236.563	121
236.627	739
236.692	5178
236.757	3831
236.822	1575
236.887	107
236.952	1287
237.017	-242
237.081	1482
237.146	177
237.211	1288
237.276	3788
237.341	8719
237.405	4077
237.470	1267
237.535	1184
237.600	93
237.664	1454
237.729	330
237.794	-137
237.859	1721
237.923	875
237.988	195
238.053	1586
238.118	450
238.182	2155
238.247	3155
238.312	576
238.376	1185
238.441	-34
238.506	1142
238.570	-411
238.635	1197
238.700	599
238.764	-27
238.829	922
238.893	1180
238.958	1098
239.023	489
239.087	136
239.152	683
239.216	51
239.281	460
239.346	558
239.410	339
239.475	358
239.539	3052
239.604	2073
239.668	1324
239.733	241
239.797	-387
239.862	1116
239.926	1323
239.991	1229
240.055	160
240.120	-32
240.184	105
240.249	-448
240.313	474
240.378	84
240.442	1326
240.507	3327
240.571	876
240.635	447
240.700	1301
240.764	516
240.829	251
240.893	-779
240.957	775
241.022	1773
241.086	3451
241.151	1058
241.215	-577
241.279	1337
241.344	921
241.408	915
241.472	173
241.537	1286
241.601	217
241.665	-761
241.730	-293
241.794	1320
241.858	-79
241.922	-286
241.987	461
242.051	-544
242.115	-691
242.179	745
242.244	-223
242.308	25
242.372	92
242.436	-91
242.501	741
242.565	-750
242.629	-503
242.693	1495
242.757	-694
242.822	265
242.886	783
242.950	1192
243.014	-725
243.078	-511
243.142	420
243.206	126
243.271	975
243.335	320
243.399	820
243.463	1538
243.527	5172
243.591	2129
243.655	1360
243.719	-31
243.783	1392
243.847	1487
243.911	1137
243.975	1727
244.040	491
244.104	1993
244.168	973
244.232	345
244.296	1673
244.360	1467
244.424	-289
244.488	981
244.552	1027
244.615	-552
244.679	441
244.743	469
244.807	-479
244.871	386
244.935	651
244.999	-762
245.063	693
245.127	540
245.191	410
245.255	-232
245.319	459
245.383	-342
245.446	1335
245.510	-1139
245.574	815
245.638	885
245.702	-827
245.766	3341
245.829	1409
245.893	-371
245.957	13
246.021	828
246.085	-283
246.149	1071
246.212	2566
246.276	2852
246.340	807
246.404	872
246.467	1610
246.531	160
246.595	1569
246.659	1640
246.722	-552
246.786	1611
246.850	596
246.913	1139
246.977	-798
247.041	1561
247.104	-119
247.168	973
247.232	2315
247.295	4835
247.359	2741
247.423	1382
247.486	1991
247.550	2143
247.614	417
247.677	1832
247.741	561
247.804	1171
247.868	1995
247.932	878
247.995	5000
248.059	985
248.122	811
248.186	2435
248.249	1993
248.313	7872
248.376	7702
248.440	4306
248.503	625
248.567	3030
248.630	1055
248.694	2329
248.757	3579
248.821	8596
248.884	4983
248.948	3837
249.011	6714
249.075	8996
249.138	8401
249.202	3357
249.265	2024
249.328	2842
249.392	820
249.455	593
249.519	450
249.582	1206
249.645	2649
249.709	1728
249.772	610
249.835	634
249.899	1006
249.962	1821
250.025	714
250.089	3101
250.152	4316
250.215	2244
250.279	1141
250.342	1381
250.405	1635
250.468	554
250.532	1559
250.595	2444
250.658	5369
250.721	11034
250.785	3696
250.848	3370
250.911	679
250.974	1489
251.038	2165
251.101	4831
251.164	2285
251.227	3020
251.290	2251
251.354	3616
251.417	8771
251.480	8240
251.543	4554
251.606	16995
251.669	12187
251.732	4880
251.795	5642
251.859	5392
251.922	10919
251.985	7118
252.048	3510
252.111	2352
252.174	1553
252.237	4132
252.300	9828
252.363	8714
252.426	16968
252.489	6131
252.552	4565
252.615	3026
252.678	3239
252.741	6896
252.804	7604
252.867	15032
252.930	10035
252.993	6739
253.056	4474
253.119	3603
253.182	2306
253.245	2414
253.308	3622
253.371	1677
253.434	2537
253.497	4072
253.559	6032
253.622	3795
253.685	3533
253.748	5258
253.811	2281
253.874	3288
253.937	1290
254.000	2169
254.062	3285
254.125	5080
254.188	5527
254.251	3524
254.314	2576
254.376	3124
254.439	4367
254.502	3373
254.565	2910
254.628	6723
254.690	3720
254.753	2274
254.816	2150
254.878	1597
254.941	2674
255.004	4295
255.067	1310
255.129	1741
255.192	1821
255.255	46
255.317	2163
255.380	1459
255.443	264
255.505	557
255.568	69
255.631	526
255.693	1097
255.756	-70
255.819	1740
255.881	698
255.944	1613
256.006	147
256.069	144
256.132	349
256.194	520
256.257	2454
256.319	1459
256.382	2096
256.444	1614
256.507	-382
256.569	91
256.632	439
256.694	1093
256.757	2965
256.819	7479
256.882	2679
256.944	791
257.007	1825
257.069	1007
257.132	1160
257.194	1177
257.257	320
257.319	-134
257.381	16
257.444	2455
257.506	9309
257.569	9912
257.631	5907
257.693	3323
257.756	1883
257.818	199
257.880	492
257.943	1574
258.005	1306
258.067	750
258.130	1097
258.192	1403
258.254	1411
258.317	607
258.379	1629
258.441	2447
258.503	3226
258.566	2989
258.628	5336
258.690	577
258.753	2138
258.815	2410
258.877	922
258.939	1401
259.001	599
259.064	141
259.126	650
259.188	841
259.250	1306
259.312	1612
259.375	2328
259.437	1421
259.499	820
259.561	432
259.623	980
259.685	859
259.747	603
259.809	3005
259.872	5980
259.934	8597
259.996	9218
260.058	3026
260.120	428
260.182	1295
260.244	828
260.306	-56
260.368	1682
260.430	182
260.492	1846
260.554	5087
260.616	1512
260.678	4381
260.740	7248
260.802	976
260.864	1633
260.926	-97
260.988	1648
261.050	-268
261.112	2140
261.174	8258
261.236	6114
261.298	1883
261.359	2878
261.421	4439
261.483	434
261.545	2032
261.607	-269
261.669	1235
261.731	1046
261.793	4343
261.854	1099
261.916	2004
261.978	799
262.040	640
262.102	502
262.164	693
262.225	1419
262.287	512
262.349	1309
262.411	1830
262.472	904
262.534	765
262.596	3961
262.658	470
262.719	-189
262.781	1376
262.843	3622
262.904	929
262.966	1213
263.028	644
263.090	4923
263.151	14257
263.213	5939
263.275	2537
263.336	1031
263.398	1430
263.459	-307
263.521	173
263.583	3064
263.644	1169
263.706	411
263.767	-304
263.829	-11
263.891	683
263.952	124
264.014	-327
264.075	647
264.137	3772
264.198	1931
264.260	-41
264.321	468
264.383	905
264.444	6091
264.506	1085
264.567	662
264.629	2857
264.690	3205
264.752	2344
264.813	1113
264.875	-743
264.936	1547
264.998	253
265.059	395
265.120	-469
265.182	893
265.243	2457
265.305	2819
265.366	523
265.427	601
265.489	1243
265.550	-951
265.611	521
265.673	539
265.734	617
265.795	763
265.857	824
265.918	-772
265.979	1715
266.040	5359
266.102	4457
266.163	1877
266.224	591
266.286	374
266.347	251
266.408	653
266.469	437
266.530	265
266.592	9
266.653	1415
266.714	1991
266.775	791
266.836	711
266.898	87
266.959	901
267.020	833
267.081	741
267.142	97
267.203	82
267.264	-502
267.326	1259
267.387	-558
267.448	-382
267.509	239
267.570	-249
267.631	304
267.692	151
267.753	123
267.814	-458
267.875	1635
267.936	2305
267.997	1583
268.058	751
268.119	37
268.180	415
268.241	-63
268.302	-493
268.363	-399
268.424	445
268.485	785
268.546	-574
268.607	-114
268.668	-619
268.729	645
268.790	1139
268.851	1023
268.912	2188
268.972	2341
269.033	11
269.094	383
269.155	341
269.216	-205
269.277	-355
269.338	376
269.398	853
269.459	-601
269.520	549
269.581	361
269.642	845
269.702	755
269.763	425
269.824	107
269.885	-528
269.945	1298
270.006	119
270.067	56
270.128	30
270.188	-67
270.249	48
270.310	-483
270.370	739
270.431	-152
270.492	-49
270.553	301
270.613	1161
270.674	2948
270.734	975
270.795	1291
270.856	842
270.916	-151
270.977	437
271.038	885
271.098	265
271.159	1455
271.219	350
271.280	730
271.340	-147
271.401	-23
271.462	2289
271.522	625
271.583	919
271.643	538
271.704	605
271.764	801
271.825	1247
271.885	7423
271.946	11242
272.006	2854
272.066	3755
272.127	8065
272.187	1845
272.248	983
272.308	1531
272.369	6240
272.429	3031
272.489	1915
272.550	2674
272.610	2830
272.671	1301
272.731	2132
272.791	2844
272.852	813
272.912	917
272.972	1024
273.033	757
273.093	917
273.153	1586
273.214	765
273.274	814
273.334	3960
273.394	9851
273.455	3424
273.515	2514
273.575	7699
273.635	3697
273.696	4738
273.756	8651
273.816	3413
273.876	2233
273.936	3508
273.997	7839
274.057	1641
274.117	909
274.177	1959
274.237	10090
274.297	10911
274.358	5415
274.418	7425
274.478	5837
274.538	1561
274.598	886
274.658	5247
274.718	7673
274.778	3455
274.838	911
274.898	2977
274.958	10928
275.018	9133
275.078	6089
275.138	2771
275.198	1046
275.258	1266
275.318	1155
275.378	2029
275.438	2124
275.498	1383
275.558	4404
275.618	10761
275.678	7203
275.738	4040
275.798	3011
275.858	2173
275.918	928
275.978	1075
276.038	377
276.098	1592
276.157	1229
276.217	6599
276.277	2510
276.337	1841
276.397	-65
276.457	1366
276.517	312
276.576	914
276.636	-227
276.696	1598
276.756	3551
276.815	2401
276.875	778
276.935	718
276.995	743
277.055	471
277.114	17
277.174	123
277.234	5169
277.293	2717
277.353	609
277.413	189
277.472	-147
277.532	365
277.592	503
277.651	1351
277.711	3723
277.771	1081
277.830	5500
277.890	5618
277.950	2880
278.009	8815
278.069	4260
278.128	2771
278.188	3701
278.248	2038
278.307	3579
278.367	3742
278.426	968
278.486	551
278.545	565
278.605	877
278.664	241
278.724	831
278.783	3859
278.843	10909
278.902	2893
278.962	1045
279.021	1391
279.081	775
279.140	706
279.199	1022
279.259	1352
279.318	696
279.378	1571
279.437	2478
279.496	13403
279.556	31821
279.615	28199
279.675	6082
279.734	2947
279.793	5233
279.853	11630
279.912	4848
279.971	1441
280.031	1493
280.090	3913
280.149	9971
280.208	4615
280.268	21231
280.327	25609
280.386	5603
280.445	5016
280.505	5028
280.564	2430
280.623	1467
280.682	2032
280.742	5073
280.801	816
280.860	1261
280.919	712
280.978	90
281.037	767
281.097	-67
281.156	755
281.215	470
281.274	347
281.333	6962
281.392	6032
281.451	1709
281.510	-119
281.569	-89
281.628	-247
281.688	105
281.747	260
281.806	950
281.865	494
281.924	-62
281.983	615
282.042	52
282.101	30
282.160	1092
282.219	-200
282.278	141
282.337	3459
282.396	3110
282.454	1212
282.513	384
282.572	5327
282.631	3442
282.690	721
282.749	-207
282.808	1278
282.867	694
282.926	791
282.985	95
283.043	284
283.102	-144
283.161	388
283.220	2369
283.279	8236
283.338	2659
283.396	461
283.455	868
283.514	203
283.573	1608
283.631	206
283.690	1055
283.749	916
283.808	1744
283.866	3886
283.925	185
283.984	-198
284.043	997
284.101	795
284.160	228
284.219	2499
284.277	1120
284.336	1585
284.395	8056
284.453	7280
284.512	1884
284.570	2061
284.629	2064
284.688	1457
284.746	1159
284.805	679
284.863	1692
284.922	2857
284.981	2865
285.039	2687
285.098	6661
285.156	18538
285.215	56774
285.273	60075
285.332	25934
285.390	10621
285.449	7403
285.507	3959
285.566	3126
285.624	2530
285.683	2374
285.741	1645
285.799	1220
285.858	710
285.916	715
285.975	272
286.033	497
286.091	394
286.150	456
286.208	413
286.267	1349
286.325	1084
286.383	2019
286.442	1762
286.500	908
286.558	-465
286.616	389
286.675	1624
286.733	761
286.791	526
286.850	1168
286.908	726
286.966	2998
287.024	512
287.083	889
287.141	119
287.199	587
287.257	1975
287.315	1286
287.374	774
287.432	2839
287.490	2091
287.548	1062
287.606	-69
287.664	721
287.723	1462
287.781	3001
287.839	635
287.897	-52
287.955	635
288.013	1619
288.071	4992
288.129	19879
288.187	67512
288.245	34833
288.303	8965
288.361	3674
288.419	3928
288.477	2038
288.535	1629
288.593	1778
288.651	814
288.709	447
288.767	418
288.825	625
288.883	-483
288.941	241
288.999	-547
289.057	739
289.115	-543
289.173	631
289.231	1313
289.289	371
289.346	269
289.404	605
289.462	1800
289.520	2260
289.578	901
289.636	665
289.694	314
289.751	60
289.809	642
289.867	125
289.925	659
289.983	1119
290.040	-341
290.098	-390
290.156	147
290.214	986
290.271	357
290.329	-29
290.387	-559
290.444	279
290.502	-437
290.560	1293
290.617	-13
290.675	741
290.733	236
290.790	1032
290.848	779
290.906	1406
290.963	-13
291.021	1336
291.078	188
291.136	872
291.194	3714
291.251	11056
291.309	3729
291.366	1490
291.424	71
291.481	464
291.539	6
291.596	365
291.654	182
291.711	709
291.769	575
291.826	1937
291.884	1385
291.941	483
291.999	284
292.056	116
292.114	471
292.171	641
292.228	450
292.286	508
292.343	2799
292.401	4288
292.458	2899
292.515	893
292.573	1720
292.630	937
292.687	1224
292.745	516
292.802	1921
292.859	6561
292.917	10003
292.974	7650
293.031	2015
293.089	856
293.146	1237
293.203	347
293.260	566
293.318	1338
293.375	2381
293.432	1334
293.489	497
293.546	340
293.604	1581
293.661	5175
293.718	16664
293.775	9947
293.832	4391
293.889	2183
293.947	2414
294.004	2527
294.061	2301
294.118	4582
294.175	10666
294.232	14602
294.289	5783
294.346	1878
294.403	1118
294.460	1789
294.517	1301
294.574	522
294.631	1607
294.688	2397
294.745	4454
294.802	18308
294.859	23804
294.916	10183
294.973	4541
295.030	3475
295.087	3079
295.144	2410
295.201	1520
295.258	1775
295.315	1477
295.372	6411
295.429	15262
295.486	7250
295.542	3768
295.599	8173
295.656	17487
295.713	12003
295.770	14564
295.827	6259
295.883	2785
295.940	2137
295.997	3699
296.054	4268
296.111	2496
296.167	1362
296.224	1496
296.281	844
296.338	285
296.394	778
296.451	1024
296.508	5477
296.564	12760
296.621	9408
296.678	14142
296.734	23672
296.791	10146
296.848	5404
296.904	3478
296.961	8776
297.018	16006
297.074	14249
297.131	5395
297.187	3498
297.244	4449
297.301	13874
297.357	29324
297.414	13496
297.470	4407
297.527	2433
297.583	1778
297.640	1519
297.696	1599
297.753	1419
297.809	1115
297.866	853
297.922	716
297.979	489
298.035	921
298.092	3037
298.148	8055
298.204	10423
298.261	4347
298.317	7236
298.374	19178
298.430	14593
298.486	5761
298.543	2788
298.599	2141
298.656	1780
298.712	4930
298.768	11002
298.824	8817
298.881	3045
298.937	1249
298.993	1710
299.050	2157
299.106	2717
299.162	1380
299.218	2731
299.275	1287
299.331	1726
299.387	3727
299.443	14543
299.500	19567
299.556	9094
299.612	3098
299.668	2677
299.724	3048
299.780	4699
299.837	3193
299.893	4588
299.949	13323
300.005	18670
300.061	15268
300.117	25594
300.173	15236
300.229	6434
300.285	5447
300.341	7639
300.397	4919
300.453	2457
300.510	1129
300.566	2053
300.622	2047
300.678	7679
300.734	15588
300.790	16368
300.845	19546
300.901	12653
300.957	15009
301.013	13392
301.069	5651
301.125	3807
301.181	2895
301.237	2344
301.293	1889
301.349	1238
301.405	625
301.461	895
301.516	1256
301.572	2128
301.628	3262
301.684	4285
301.740	5933
301.796	10445
301.851	8451
301.907	10527
301.963	12086
302.019	17656
302.074	46974
302.130	55052
302.186	28184
302.242	10115
302.297	5711
302.353	5233
302.409	10580
302.464	11500
302.520	8509
302.576	17164
302.631	23300
302.687	14437
302.743	6463
302.798	2602
302.854	2226
302.910	2884
302.965	2178
303.021	5782
303.076	5469
303.132	6793
303.187	8866
303.243	4774
303.299	2458
303.354	2173
303.410	1427
303.465	1188
303.521	1924
303.576	1956
303.632	2784
303.687	5066
303.743	14539
303.798	16465
303.853	6763
303.909	3297
303.964	1698
304.020	3437
304.075	5836
304.130	5238
304.186	10205
304.241	12233
304.297	9296
304.352	5564
304.358	5333
304.407	3454
304.449	2947
304.463	2778
304.518	2925
304.539	2729
304.573	2410
304.629	2749
304.630	2769
304.684	3769
304.720	8512
304.739	10896
304.794	20132
304.811	17715
304.850	11915
304.902	5654
304.905	5247
304.960	2408
304.992	2444
305.015	2538
305.071	3262
305.083	3171
305.126	2765
305.173	1825
305.181	1666
305.236	1431
305.264	1669
305.292	1953
305.347	2973
305.354	2909
305.402	2454
305.445	2725
305.457	2800
305.512	3644
305.535	3642
305.567	3769
305.622	4202
305.626	4369
305.678	7419
305.716	13580
305.733	15954
305.788	22109
305.807	19883
305.843	15844
305.897	16282
305.898	16275
305.953	19050
305.988	13947
306.008	11024
306.063	7587
306.078	6673
306.118	4342
306.168	3219
306.173	3124
306.228	2361
306.259	2223
306.283	2233
306.338	2663
306.349	2662
306.393	2507
306.440	2708
306.448	2796
306.503	3410
306.530	4256
306.558	6098
306.613	11939
306.620	13119
306.668	18728
306.711	20375
306.723	20375
306.778	16210
306.801	13079
306.833	9767
306.888	5023
306.892	4876
306.943	3325
306.982	3097
306.997	3120
307.052	2793
307.072	3023
307.107	3757
307.162	5433
307.163	5464
307.217	8948
307.253	10882
307.272	11319
307.327	11937
307.343	10911
307.381	8597
307.434	6850
307.436	6938
307.491	12147
307.524	17887
307.546	19598
307.600	19008
307.614	17079
307.655	11461
307.704	6197
307.710	5882
307.765	5716
307.795	7293
307.819	9011
307.874	16013
307.885	16168
307.929	13336
307.975	8614
307.984	8118
308.038	7220
308.065	8209
308.093	11620
308.148	23159
308.156	26662
308.202	46041
308.246	60815
308.257	61964
308.312	40315
308.336	30705
308.366	22495
308.421	14949
308.426	14453
308.475	9699
308.517	6822
308.530	6121
308.585	5208
308.607	5062
308.639	5207
308.694	5505
308.697	5622
308.748	10857
308.787	16583
308.803	16974
308.857	15191
308.877	12860
308.912	9793
308.967	7330
308.967	7315
309.021	7704
309.058	8861
309.076	10146
309.130	16673
309.148	19737
309.185	32881
309.238	58566
309.239	58730
309.293	75615
309.328	70515
309.348	63224
309.402	31640
309.418	24625
309.457	15884
309.508	10100
309.511	9805
309.566	8572
309.598	8412
309.620	8549
309.674	10034
309.688	10559
309.729	10745
309.778	9497
309.783	9402
309.837	7919
309.868	7517
309.892	9317
309.946	15023
309.959	16890
310.001	22645
310.049	28446
310.055	27757
310.109	18048
310.139	11917
310.163	9598
310.218	6248
310.229	5733
310.272	5307
310.319	5435
310.326	5332
310.381	4732
310.409	4316
310.435	4190
310.489	4089
310.499	4061
310.543	4445
310.589	5071
310.598	5208
310.652	5938
310.679	6218
310.706	5469
310.760	3875
310.769	3596
310.814	3383
310.859	3508
310.868	3615
310.923	3933
310.948	4188
310.977	4488
311.031	5111
311.038	5169
311.085	4832
311.128	4529
311.139	4597
311.193	4791
311.218	4827
311.247	4540
311.301	4241
311.308	4175
311.356	4497
311.398	4826
311.410	4666
311.464	3893
311.488	3446
311.518	3298
311.572	3175
311.578	3156
311.626	4670
311.668	6053
311.680	6389
311.734	7726
311.758	8327
311.788	8413
311.842	8509
311.847	8502
311.896	9449
311.937	10260
311.950	10152
312.004	9594
312.027	9314
312.058	7615
312.112	4578
312.117	4275
312.165	4514
312.207	4720
312.297	8554
312.386	7322
312.476	6045
312.566	9049
312.656	5137
312.745	4141
312.835	4966
312.925	5673
313.015	5560
313.104	5996
313.194	3837
313.284	3533
313.374	4713
313.463	3373
313.553	4814
313.643	3347
313.732	4125
313.822	3298
313.912	4677
314.001	5051
314.091	7060
314.180	8982
314.270	6301
314.360	6626
314.449	5704
314.539	3702
314.628	4944
314.718	5559
314.808	7654
314.897	4135
314.987	4674
315.076	4227
315.166	5431
315.255	6994
315.345	6118
315.434	6185
315.524	5516
315.613	6219
315.703	5943
315.792	5813
315.881	7721
315.971	5143
316.060	9355
316.150	17900
316.239	18339
316.328	7571
316.418	4039
316.507	4314
316.597	4931
316.686	4006
316.775	7381
316.865	17328
316.954	4748
317.043	2858
317.133	3987
317.222	3735
317.311	3472
317.400	2009
317.490	5213
317.579	4052
317.668	3915
317.757	4214
317.847	7749
317.936	11569
318.025	11293
318.114	6236
318.203	6393
318.293	11263
318.382	24028
318.471	16000
318.560	19993
318.649	32440
318.738	8548
318.828	5358
318.917	5855
319.006	7202
319.095	18358
319.184	36778
319.273	20637
319.362	9661
319.451	4779
319.540	4249
319.629	8121
319.718	13188
319.807	9500
319.896	13617
319.985	44266
320.074	16914
320.163	7413
320.252	13007
320.341	11719
320.430	10888
320.519	9305
320.608	7617
320.697	7627
320.786	5552
320.875	5922
320.964	6341
321.053	8825
321.142	11748
321.230	13266
321.319	12100
321.408	25924
321.497	13861
321.586	11931
321.675	15968
321.764	16282
321.852	11191
321.941	15681
322.030	10931
322.119	12139
322.207	24324
322.296	25844
322.385	13794
322.474	11379
322.562	26327
322.651	18674
322.740	11070
322.829	18652
322.917	23947
323.006	12452
323.095	9361
323.183	9152
323.272	10940
323.361	15621
323.449	39498
323.538	16564
323.626	32909
323.715	21452
323.804	10913
323.892	31846
323.981	18586
324.069	8489
324.158	18544
324.246	18464
324.335	7258
324.424	11140
324.512	4554
324.601	5901
324.689	6778
324.778	12786
324.866	15628
324.954	5561
325.043	4832
325.131	11128
325.220	20281
325.308	21931
325.397	16307
325.485	10039
325.574	3793
325.662	4089
325.750	3634
325.839	4392
325.927	3595
326.015	5407
326.104	8201
326.192	12303
326.280	4086
326.369	4157
326.457	5155
326.545	7782
326.634	4577
326.722	4293
326.810	3380
326.898	3610
326.987	4703
327.075	7865
327.163	10559
327.251	6118
327.340	4324
327.428	6171
327.516	2615
327.604	3951
327.692	4652
327.781	5534
327.869	8877
327.957	5938
328.045	4442
328.133	3547
328.221	4878
328.309	4181
328.397	2811
328.485	4061
328.574	5225
328.662	12361
328.750	9383
328.838	6588
328.926	4001
329.014	4070
329.102	4934
329.190	15346
329.278	8496
329.366	3023
329.454	3374
329.542	3710
329.630	2086
329.718	3920
329.806	3993
329.893	4595
329.981	3559
330.069	3443
330.157	4411
330.245	10452
330.333	5681
330.421	3396
330.509	4759
330.597	15405
330.684	13221
330.772	7774
330.860	14055
330.948	17704
331.036	7035
331.123	2780
331.211	3209
331.299	5308
331.387	12553
331.475	23071
331.562	6930
331.650	3761
331.738	4508
331.825	7984
331.913	3372
332.001	3257
332.089	4905
332.176	11940
332.264	20785
332.352	17366
332.439	6366
332.527	5371
332.614	3756
332.702	6882
332.790	3091
332.877	9868
332.965	19706
333.052	4554
333.140	3510
333.228	7996
333.315	3012
333.403	4255
333.490	14323
333.578	10667
333.665	4740
333.753	4413
333.840	2734
333.928	4546
334.015	15700
334.103	17753
334.190	45889
334.278	13854
334.365	6785
334.452	5539
334.540	3129
334.627	5093
334.715	7129
334.802	11267
334.889	51307
334.977	45100
335.064	6751
335.151	3835
335.239	5019
335.326	8266
335.413	21960
335.501	31024
335.588	5834
335.675	3869
335.762	7324
335.850	14335
335.937	6138
336.024	13934
336.111	56484
336.199	25957
336.286	5215
336.373	4221
336.460	1980
336.547	3179
336.635	5035
336.722	3809
336.809	3513
336.896	5528
336.983	15175
337.070	37573
337.157	46334
337.245	34892
337.332	24478
337.419	5056
337.506	3543
337.593	5810
337.680	14077
337.767	46098
337.854	12902
337.941	18435
338.028	19858
338.115	7002
338.202	9874
338.289	13064
338.376	34792
338.463	13811
338.550	25289
338.637	27022
338.724	10125
338.811	17650
338.898	3551
338.984	4031
339.071	6057
339.158	4876
339.245	10862
339.332	8397
339.419	12058
339.506	12497
339.593	1312
339.679	2916
339.766	2223
339.853	5177
339.940	6369
340.027	3729
340.113	2804
340.200	3985
340.287	2937
340.374	4060
340.460	5944
340.547	2677
340.634	4843
340.720	14764
340.807	7392
340.894	3097
340.980	3066
341.067	2594
341.154	3198
341.240	3267
341.327	7633
341.414	3172
341.500	1074
341.587	3021
341.674	1623
341.760	6196
341.847	7344
341.933	2785
342.020	1280
342.106	1897
342.193	2773
342.279	3717
342.366	3314
342.452	5663
342.539	2890
342.625	7027
342.712	14276
342.798	6841
342.885	3547
342.971	1661
343.058	1450
343.144	2582
343.230	2864
343.317	2035
343.403	1712
343.490	1613
343.576	762
343.662	1807
343.749	2138
343.835	2747
343.921	4757
344.008	21860
344.094	52251
344.180	12684
344.267	5168
344.353	18045
344.439	23512
344.525	8610
344.612	2940
344.698	2616
344.784	1751
344.870	2206
344.957	1828
345.043	3662
345.129	2350
345.215	4870
345.301	3717
345.387	3000
345.474	1544
345.560	2440
345.646	3000
345.732	3490
345.818	1943
345.904	2205
345.990	2017
346.076	3638
346.162	8217
346.249	3791
346.335	1349
346.421	2083
346.507	5810
346.593	22787
346.679	5806
346.765	3763
346.851	2153
346.937	1970
347.023	2903
347.108	2633
347.194	1532
347.280	2665
347.366	2819
347.452	5636
347.538	24375
347.624	22053
347.710	21946
347.796	4894
347.882	3256
347.967	3114
348.053	5931
348.139	3071
348.225	1126
348.311	1643
348.397	786
348.482	3315
348.568	3682
348.654	1746
348.740	1393
348.825	271
348.911	3401
348.997	12683
349.083	26677
349.168	5359
349.254	1463
349.340	2237
349.425	1529
349.511	2679
349.597	4077
349.682	4760
349.768	17538
349.854	8631
349.939	3748
350.025	1752
350.110	1525
350.196	1343
350.282	-126
350.367	2742
350.453	5082
350.538	5581
350.624	3489
350.709	4086
350.795	1880
350.880	1023
350.966	2447
351.051	4399
351.137	3813
351.222	2771
351.308	5821
351.393	15295
351.479	3417
351.564	1790
351.649	2488
351.735	1919
351.820	865
351.906	2057
351.991	2113
352.076	9156
352.162	14389
352.247	4168
352.332	2166
352.418	3124
352.503	4796
352.588	23109
352.673	18336
352.759	4351
352.844	2086
352.929	3266
353.014	3733
353.100	2849
353.185	4361
353.270	6411
353.355	6287
353.441	2532
353.526	2908
353.611	5533
353.696	5664
353.781	4220
353.866	1889
353.952	2016
354.037	4637
354.122	12100
354.207	9793
354.292	4370
354.377	2109
354.462	2580
354.547	2663
354.632	3754
354.717	5932
354.802	5833
354.887	2377
354.972	1916
355.057	1700
355.142	951
355.227	2121
355.312	3932
355.397	5864
355.482	17183
355.567	8161
355.652	7161
355.737	6215
355.822	18167
355.907	14294
355.991	4160
356.076	732
356.161	1700
356.246	2182
356.331	2392
356.416	4088
356.501	26344
356.585	27229
356.670	3895
356.755	3744
356.840	4583
356.924	18500
357.009	64213
357.094	25570
357.179	5779
357.263	3782
357.348	5375
357.433	5712
357.517	4580
357.602	2767
357.687	2461
357.771	3080
357.856	3472
357.941	3320
358.025	12773
358.110	58465
358.195	28819
358.279	4917
358.364	3395
358.448	13358
358.533	34920
358.617	25909
358.702	25655
358.787	9556
358.871	6046
358.956	5286
359.040	1230
359.125	1464
359.209	1156
359.294	1458
359.378	1807
359.462	3595
359.547	4258
359.631	3497
359.716	1152
359.800	2632
359.885	6554
359.969	1948
360.053	2100
360.138	793
360.222	3291
360.306	4200
360.391	4410
360.475	4993
360.559	9706
360.644	12571
360.728	9756
360.812	14042
360.896	39781
360.981	21407
361.065	14727
361.149	3561
361.233	4332
361.318	2032
361.402	3507
361.486	2585
361.570	2028
361.654	2053
361.739	6094
361.823	23619
361.907	39631
361.991	7096
362.075	3948
362.159	8859
362.243	7586
362.327	4579
362.411	7693
362.495	4942
362.580	2756
362.664	1757
362.748	1305
362.832	1650
362.916	1850
363.000	7637
363.084	27688
363.168	45102
363.252	12029
363.336	5500
363.420	7789
363.503	31423
363.587	39164
363.671	6056
363.755	4179
363.839	6709
363.923	2268
364.007	4941
364.091	6955
364.175	10394
364.258	48401
364.342	25261
364.426	16852
364.510	10093
364.594	10300
364.677	10753
364.761	32042
364.845	24221
364.929	9375
365.013	8493
365.096	6619
365.180	7049
365.264	13028
365.347	50173
365.431	26699
365.515	9168
365.598	2287
365.682	3372
365.766	9231
365.849	12405
365.933	4289
366.017	7841
366.100	7497
366.184	1421
366.267	2715
366.351	1485
366.435	1440
366.518	694
366.602	1614
366.685	2164
366.769	2179
366.852	7986
366.936	13405
367.019	4177
367.103	5930
367.186	14849
367.270	4021
367.353	297
367.436	2155
367.520	1150
367.603	1976
367.687	2993
367.770	6790
367.853	4099
367.937	12223
368.020	19803
368.104	4687
368.187	4851
368.270	8386
368.353	7386
368.437	10712
368.520	30313
368.603	17004
368.687	14441
368.770	27902
368.853	7749
368.936	10647
369.020	14181
369.103	3999
369.186	2712
369.269	3507
369.352	4246
369.436	8514
369.519	5577
369.602	3639
369.685	3950
369.768	2827
369.851	2540
369.934	1233
370.018	2503
370.101	5584
370.184	7380
370.267	6172
370.350	10230
370.433	13927
370.516	21880
370.599	23814
370.682	6612
370.765	16595
370.848	18018
370.931	31001
371.014	16926
371.097	2595
371.180	1946
371.263	2231
371.346	477
371.429	1846
371.511	1035
371.594	4419
371.677	9356
371.760	15710
371.843	6205
371.926	22319
372.009	50700
372.091	19328
372.174	12167
372.257	29554
372.340	11691
372.423	15561
372.505	23222
372.588	7694
372.671	9343
372.754	28992
372.836	14438
372.919	15750
373.002	35212
373.085	8786
373.167	5855
373.250	13261
373.332	27327
373.415	34615
373.498	68077
373.580	27448
373.663	30395
373.746	42464
373.828	10373
373.911	7760
373.993	7049
374.076	31367
374.159	31258
374.241	12087
374.324	27463
374.406	18900
374.489	19177
374.571	59403
374.654	24913
374.736	12652
374.819	36653
374.901	50291
374.983	50154
375.066	10074
375.148	4370
375.231	22943
375.313	50721
375.395	22100
375.478	5013
375.560	2890
375.643	3248
375.725	11354
375.807	43606
375.890	45501
375.972	26123
376.054	13667
376.136	26323
376.219	10471
376.301	11865
376.383	37993
376.465	13582
376.548	9264
376.630	11059
376.712	33019
376.794	14981
376.877	2894
376.959	1140
377.041	2452
377.123	10836
377.205	14295
377.287	1991
377.369	2328
377.452	1953
377.534	1428
377.616	1633
377.698	2326
377.780	328
377.862	2248
377.944	2393
378.026	833
378.108	1915
378.190	1571
378.272	2192
378.354	1316
378.436	963
378.518	5116
378.600	20034
378.682	13188
378.764	17660
378.846	15562
378.928	6971
379.010	7400
379.091	4640
379.173	2129
379.255	1889
379.337	3026
379.419	8642
379.501	27218
379.583	12063
379.664	3836
379.746	5270
379.828	21192
379.910	25338
379.991	22415
380.073	3796
380.155	3676
380.237	1897
380.318	1791
380.400	2127
380.482	4718
380.564	6707
380.645	6921
380.727	6242
380.809	5355
380.890	3249
380.972	1291
381.053	2030
381.135	3643
381.217	5606
381.298	21166
381.380	11890
381.461	8147
381.543	30065
381.624	38254
381.706	8145
381.787	8082
381.869	7103
381.951	12787
382.032	51385
382.113	36792
382.195	9066
382.276	7688
382.358	11345
382.439	30307
382.521	32875
382.602	48439
382.684	22037
382.765	42142
382.846	34032
382.928	21193
383.009	10696
383.090	8561
383.172	21696
383.253	35546
383.334	23210
383.416	43887
383.497	20545
383.578	6016
383.659	9402
383.741	20983
383.822	49890
383.903	28306
383.984	22848
384.066	57760
384.147	36194
384.228	7408
384.309	5240
384.390	3951
384.471	3565
384.553	4166
384.634	6942
384.715	7431
384.796	2855
384.877	3336
384.958	16372
385.039	20139
385.120	7260
385.201	4244
385.282	8444
385.363	10871
385.444	5644
385.525	10137
385.606	28041
385.687	22865
385.768	8198
385.849	10349
385.930	26329
386.011	44489
386.092	12271
386.173	4248
386.254	4582
386.335	6369
386.416	4426
386.496	13633
386.577	22598
386.658	13171
386.739	7800
386.820	11551
386.901	8051
386.981	7023
387.062	3138
387.143	3462
387.224	17941
387.304	21090
387.385	8535
387.466	7774
387.547	13586
387.627	5935
387.708	7373
387.789	31816
387.869	39249
387.950	11348
388.031	2550
388.111	2993
388.192	18721
388.273	31154
388.353	15402
388.434	4620
388.514	5834
388.595	26560
388.676	38295
388.756	19490
388.837	19780
388.917	12000
388.998	2469
389.078	4495
389.159	2260
389.239	1576
389.320	5965
389.400	2115
389.480	10072
389.561	24023
389.641	11669
389.722	4292
389.802	6537
389.883	11185
389.963	24880
390.043	21693
390.124	10022
390.204	10190
390.284	22559
390.365	14345
390.445	22324
390.525	27857
390.605	16665
390.686	10126
390.766	3870
390.846	3362
390.927	1795
391.007	2626
391.087	3825
391.167	4122
391.247	1631
391.328	9253
391.408	14609
391.488	11393
391.568	1103
391.648	3567
391.728	5031
391.808	4499
391.888	4448
391.969	10661
392.049	18647
392.129	12852
392.209	10595
392.289	22565
392.369	14373
392.449	21755
392.529	11508
392.609	6074
392.689	6714
392.769	20625
392.849	18570
392.929	16702
393.009	38496
393.089	22315
393.169	11004
393.248	30037
393.328	120923
393.408	131625
393.488	32825
393.568	10483
393.648	5242
393.728	3899
393.807	1947
393.887	3411
393.967	2595
394.047	3839
394.127	2902
394.206	4693
394.286	12936
394.366	63548
394.446	69506
394.525	13076
394.605	3847
394.685	7075
394.764	24926
394.844	40008
394.924	24961
395.003	6004
395.083	3403
395.163	3640
395.242	2185
395.322	2963
395.402	404
395.481	4115
395.561	11853
395.640	39644
395.720	24599
395.799	38905
395.879	27774
395.958	6755
396.038	17734
396.117	82483
396.197	92644
396.276	33561
396.356	16376
396.435	18126
396.515	9053
396.594	6760
396.673	11527
396.753	36525
396.832	113274
396.912	91442
396.991	24644
397.070	7521
397.150	3239
397.229	3045
397.308	2835
397.388	5453
397.467	3355
397.546	2521
397.625	-239
397.705	3925
397.784	3110
397.863	1908
397.942	1672
398.022	2180
398.101	11246
398.180	40935
398.259	26089
398.338	7289
398.417	3046
398.497	2353
398.576	3037
398.655	1624
398.734	1726
398.813	2170
398.892	10552
398.971	40180
399.050	19795
399.129	1913
399.208	1521
399.287	2325
399.366	417
399.445	1937
399.524	1274
399.603	388
399.682	3160
399.761	10847
399.840	40581
399.919	33342
399.998	4656
400.077	1546
400.156	548
400.235	4493
400.313	1687
400.392	3197
400.471	10276
400.550	18078
400.629	4971
400.708	2675
400.786	3544
400.865	14678
400.944	16186
401.023	7849
401.102	855
401.180	1155
401.259	1470
401.338	3772
401.416	4452
401.495	3316
401.574	4148
401.652	2747
401.731	4124
401.810	2930
401.888	1521
401.967	442
402.046	272
402.124	3120
402.203	4588
402.281	3054
402.360	3685
402.438	18134
402.517	13309
402.596	5056
402.674	4352
402.753	3276
402.831	1840
402.910	2614
402.988	8076
403.066	29370
403.145	17876
403.223	8587
403.302	20979
403.380	16554
403.459	16599
403.537	7741
403.615	3619
403.694	505
403.772	995
403.850	402
403.929	-39
404.007	1125
404.085	3694
404.164	3779
404.242	70
404.320	2024
404.398	2253
404.477	7900
404.555	38815
404.633	34811
404.711	5129
404.789	1425
404.868	945
404.946	1536
405.024	510
405.102	313
405.180	-389
405.258	23
405.336	1236
405.415	667
405.493	5583
405.571	5278
405.649	609
405.727	405
405.805	3731
405.883	2497
405.961	4038
406.039	5989
406.117	1199
406.195	2499
406.273	7532
406.351	36527
406.429	26222
406.507	8149
406.585	2481
406.663	1972
406.740	1640
406.818	1213
406.896	622
406.974	2526
407.052	1644
407.130	21607
407.208	30787
407.285	6411
407.363	409
407.441	847
407.519	722
407.596	1411
407.674	2772
407.752	6897
407.830	14957
407.907	9700
407.985	1902
408.063	1317
408.141	578
408.218	5686
408.296	4291
408.373	2229
408.451	1188
408.529	2215
408.606	-233
408.684	187
408.762	-272
408.839	260
408.917	-340
408.994	436
409.072	211
409.149	447
409.227	2426
409.304	2793
409.382	44
409.459	952
409.537	2263
409.614	1775
409.692	242
409.769	233
409.846	965
409.924	4411
410.001	2809
410.079	1266
410.156	1681
410.233	721
410.311	329
410.388	932
410.465	2222
410.543	3080
410.620	762
410.697	1359
410.775	1230
410.852	-792
410.929	2889
411.006	4987
411.083	2370
411.161	8545
411.238	10597
411.315	6026
411.392	1019
411.469	3561
411.547	4833
411.624	872
411.701	1489
411.778	1180
411.855	2949
411.932	2127
412.009	-10
412.086	2184
412.163	1610
412.240	3028
412.317	4799
412.394	4830
412.471	919
412.548	213
412.625	185
412.702	2128
412.779	6441
412.856	3963
412.933	573
413.010	561
413.087	1489
413.164	11061
413.241	15880
413.318	2984
413.395	2307
413.471	4970
413.548	1330
413.625	1521
413.702	1735
413.779	2710
413.855	498
413.932	339
414.009	-850
414.086	387
414.162	664
414.239	2497
414.316	10846
414.393	22562
414.469	6429
414.546	693
414.623	380
414.699	685
414.776	1361
414.853	569
414.929	1408
415.006	1802
415.082	2715
415.159	2419
415.236	765
415.312	1167
415.389	2472
415.465	2959
415.542	1826
415.618	275
415.695	1859
415.771	2070
415.848	836
415.924	2476
416.000	1796
416.077	2319
416.153	-357
416.230	-630
416.306	23
416.383	1277
416.459	1009
416.535	122
416.612	644
416.688	1028
416.764	101
416.841	-44
416.917	6
416.993	575
417.069	1096
417.146	2115
417.222	722
417.298	804
417.374	-169
417.451	1587
417.527	1372
417.603	1794
417.679	521
417.755	968
417.831	-616
417.908	631
417.984	159
418.060	-121
418.136	3328
418.212	3898
418.288	1008
418.364	1290
418.440	-702
418.516	3501
418.592	5923
418.668	7871
418.744	6795
418.820	5202
418.896	2236
418.972	7
419.048	615
419.124	4918
419.200	1841
419.276	142
419.352	-357
419.428	475
419.504	107
419.579	947
419.655	602
419.731	734
419.807	4540
419.883	8404
419.959	5080
420.034	2573
420.110	2857
420.186	12738
420.262	10376
420.337	3448
420.413	1183
420.489	1452
420.565	1554
420.640	-19
420.716	970
420.792	585
420.867	1639
420.943	616
421.019	1868
421.094	1531
421.170	-10
421.245	-155
421.321	240
421.397	828
421.472	1622
421.548	3485
421.623	2629
421.699	1888
421.774	916
421.850	819
421.925	2300
422.001	2054
422.076	1212
422.152	1665
422.227	2537
422.302	3781
422.378	3377
422.453	8204
422.529	17783
422.604	58769
422.679	112564
422.755	71929
422.830	20909
422.905	7424
422.981	3938
423.056	2587
423.131	1768
423.207	1272
423.282	2130
423.357	4987
423.432	3784
423.508	4159
423.583	6843
423.658	5841
423.733	2336
423.808	2908
423.883	2752
423.959	2468
424.034	361
424.109	1606
424.184	-843
424.259	179
424.334	283
424.409	99
424.484	329
424.559	1603
424.634	390
424.709	1491
424.784	1543
424.859	1249
424.934	2720
425.009	10740
425.084	18163
425.159	7082
425.234	1615
425.309	-214
425.384	670
425.459	-56
425.534	1424
425.609	1815
425.683	750
425.758	1071
425.833	1224
425.908	2081
425.983	5982
426.058	19875
426.132	9303
426.207	3103
426.282	6452
426.357	6955
426.431	951
426.506	2414
426.581	1648
426.655	2176
426.730	-27
426.805	897
426.879	1224
426.954	1798
427.029	3635
427.103	15900
427.178	37787
427.253	18794
427.327	3329
427.402	4562
427.476	10306
427.551	3956
427.625	2994
427.700	4178
427.774	1159
427.849	3338
427.923	1754
427.998	737
428.072	1455
428.147	5665
428.221	11946
428.296	28486
428.370	12934
428.444	3868
428.519	7663
428.593	17144
428.667	14667
428.742	17601
428.816	13700
428.890	25866
428.965	32874
429.039	15952
429.113	20525
429.188	8912
429.262	1831
429.336	3301
429.410	10320
429.485	7967
429.559	14423
429.633	12251
429.707	3204
429.781	6540
429.855	34288
429.930	49056
430.004	35922
430.078	59287
430.152	43312
430.226	33697
430.300	31826
430.374	6377
430.448	3567
430.522	14488
430.596	46414
430.670	27345
430.744	30578
430.818	51399
430.892	12976
430.966	3017
431.040	1333
431.114	247
431.188	665
431.262	772
431.336	1638
431.410	7392
431.484	20918
431.557	12661
431.631	1451
431.705	1320
431.779	4041
431.853	21640
431.927	16726
432.000	2812
432.074	1265
432.148	3583
432.222	2780
432.295	1061
432.369	1063
432.443	3216
432.516	16958
432.590	42054
432.664	18969
432.737	3046
432.811	263
432.885	-228
432.958	-34
433.032	288
433.106	259
433.179	-278
433.253	738
433.326	73
433.400	-277
433.473	528
433.547	213
433.620	582
433.694	2344
433.767	3352
433.841	1399
433.914	521
433.988	387
434.061	1171
434.134	212
434.208	566
434.281	-108
434.355	265
434.428	140
434.501	22
434.575	-27
434.648	758
434.721	-614
434.795	-801
434.868	-317
434.941	-255
435.014	110
435.088	-45
435.161	253
435.234	1364
435.307	3103
435.381	1366
435.454	294
435.527	1810
435.600	464
435.673	1017
435.746	-92
435.819	996
435.892	-498
435.966	1082
436.039	883
436.112	1777
436.185	-141
436.258	-181
436.331	-1071
436.404	205
436.477	-872
436.550	-502
436.623	-334
436.696	-57
436.769	629
436.842	521
436.915	1153
436.987	2498
437.060	827
437.133	286
437.206	-55
437.279	1186
437.352	-99
437.425	327
437.498	-136
437.570	3823
437.643	2482
437.716	490
437.789	534
437.861	4905
437.934	15399
438.007	7877
438.080	806
438.152	1154
438.225	2450
438.298	18574
438.370	59358
438.443	34538
438.516	14133
438.588	2866
438.661	309
438.734	264
438.806	1282
438.879	2382
438.951	3852
439.024	8187
439.096	2571
439.169	1247
439.241	574
439.314	913
439.386	3946
439.459	6776
439.531	10644
439.604	4020
439.676	718
439.749	-328
439.821	-292
439.893	639
439.966	467
440.038	2313
440.110	2308
440.183	1211
440.255	98
440.327	2044
440.400	10441
440.472	44516
440.544	34147
440.617	6844
440.689	4954
440.761	8594
440.833	14084
440.905	8511
440.978	1692
441.050	1455
441.122	864
441.194	473
441.266	123
441.338	101
441.411	1685
441.483	13868
441.555	25144
441.627	9440
441.699	6088
441.771	6093
441.843	1808
441.915	311
441.987	415
442.059	3
442.131	2022
442.203	5162
442.275	4591
442.347	5118
442.419	3339
442.491	13176
442.563	37293
442.635	26642
442.706	22742
442.778	19236
442.850	3163
442.922	1798
442.994	2913
443.066	5444
443.137	3530
443.209	2182
443.281	2151
443.353	7144
443.425	22235
443.496	63406
443.568	72177
443.640	32042
443.711	8344
443.783	4452
443.855	2635
443.926	1995
443.998	1786
444.070	5256
444.141	4270
444.213	4870
444.285	5181
444.356	5806
444.428	6174
444.499	3275
444.571	284
444.642	536
444.714	167
444.785	4046
444.857	6530
444.928	19533
445.000	12334
445.071	13246
445.143	16422
445.214	7580
445.285	10763
445.357	33440
445.428	56106
445.500	113700
445.571	96447
445.642	47182
445.714	27618
445.785	32447
445.856	10350
445.928	6149
445.999	7213
446.070	6657
446.141	4107
446.213	5407
446.284	4105
446.355	4577
446.426	2649
446.497	3109
446.569	5931
446.640	10011
446.711	5226
446.782	2431
446.853	3988
446.924	5201
446.995	2941
447.066	3630
447.138	8580
447.209	4971
447.280	353
447.351	489
447.422	489
447.493	2846
447.564	3375
447.635	4852
447.706	1865
447.777	699
447.847	343
447.918	1237
447.989	3671
448.060	6181
448.131	13747
448.202	13503
448.273	6664
448.344	4771
448.414	940
448.485	1680
448.556	213
448.627	341
448.698	1142
448.768	165
448.839	1424
448.910	6930
448.981	7143
449.051	2426
449.122	679
449.193	842
449.263	774
449.334	1233
449.405	2006
449.475	5631
449.546	5747
449.616	9593
449.687	7681
449.758	2507
449.828	1004
449.899	561
449.969	348
450.040	807
450.110	2067
450.181	4422
450.251	2245
450.322	1729
450.392	1800
450.463	1821
450.533	1355
450.604	1453
450.674	1548
450.744	1310
450.815	1311
450.885	1279
450.955	1167
451.026	1238
451.096	993
451.166	2942
451.237	9195
451.307	25861
451.377	11974
451.447	2541
451.518	604
451.588	1164
451.658	787
451.728	4959
451.799	22415
451.869	30529
451.939	8023
452.009	945
452.079	919
452.149	786
452.219	5682
452.289	27022
452.360	23685
452.430	5192
452.500	2170
452.570	3446
452.640	5089
452.710	18110
452.780	30548
452.850	18699
452.920	14559
452.990	6319
453.060	2278
453.129	4299
453.199	6295
453.269	22332
453.339	53517
453.409	84745
453.479	78905
453.549	125009
453.619	142919
453.688	69200
453.758	10060
453.828	3596
453.898	2884
453.968	2249
454.037	2289
454.087	2139
454.107	2074
454.168	463
454.177	217
454.247	1093
454.249	1097
454.316	953
454.330	1397
454.386	3090
454.411	7090
454.456	13572
454.492	19426
454.525	24718
454.574	13231
454.595	8287
454.655	2900
454.665	2053
454.734	2936
454.736	3082
454.804	7649
454.817	11087
454.873	24670
454.898	27538
454.943	32593
454.979	22596
455.013	13659
455.060	8249
455.082	6094
455.141	5028
455.152	4674
455.221	16900
455.222	17149
455.291	33428
455.303	30093
455.360	15719
455.384	12508
455.430	6779
455.465	9196
455.499	11055
455.546	20936
455.569	25259
455.627	19481
455.638	18593
455.707	3189
455.708	3190
455.777	2019
455.789	2049
455.846	2031
455.869	1981
455.916	2007
455.950	1736
455.985	1340
456.031	2478
456.054	3042
456.112	1923
456.124	1730
456.193	2047
456.193	2037
456.262	2421
456.274	2849
456.332	4850
456.355	5311
456.401	5627
456.436	4755
456.470	3950
456.516	2167
456.540	1388
456.597	1384
456.609	1369
456.678	1520
456.678	1516
456.747	993
456.759	977
456.817	738
456.840	936
456.886	1353
456.920	1081
456.955	900
457.001	1518
457.024	1989
457.082	2993
457.093	3193
457.162	5815
457.163	5841
457.232	7326
457.243	6901
457.301	4145
457.324	2933
457.370	1468
457.405	1562
457.439	1644
457.485	1521
457.508	1534
457.566	2122
457.577	2248
457.646	2707
457.647	2729
457.715	5165
457.727	5521
457.784	7679
457.808	9546
457.853	11595
457.889	13731
457.922	14137
457.969	10271
457.991	10542
458.050	12802
458.060	13117
458.129	20503
458.130	20711
458.198	20096
458.211	18314
458.267	12238
458.292	8737
458.336	4918
458.372	4704
458.405	6156
458.453	8542
458.474	10663
458.533	20574
458.543	21321
458.611	33796
458.614	34015
458.680	24665
458.694	20023
458.749	10315
458.775	7476
458.818	3782
458.855	3059
458.887	2667
458.936	2894
458.955	2827
459.016	2288
459.024	2292
459.093	3431
459.097	3418
459.162	2968
459.177	3166
459.230	3713
459.257	3934
459.299	4395
459.338	4351
459.368	4399
459.418	5392
459.437	5288
459.499	4142
459.505	4142
459.574	2745
459.579	2774
459.643	3058
459.659	2936
459.711	2194
459.740	2270
459.780	2838
459.820	2917
459.849	2906
459.900	3757
459.917	3932
459.981	3539
459.986	3490
460.054	3025
460.061	2927
460.123	2702
460.141	2935
460.191	3612
460.222	3817
460.260	3876
460.302	4800
460.328	4902
460.382	3525
460.397	3417
460.462	2713
460.465	2733
460.534	4144
460.543	4344
460.602	10640
460.623	13223
460.671	20374
460.703	26628
460.739	23892
460.783	18489
460.808	15941
460.864	5646
460.876	4943
460.944	4070
460.945	4045
461.013	3321
461.024	3140
461.081	3203
461.104	3518
461.150	3530
461.184	3398
461.218	3141
461.264	2704
461.286	2913
461.345	3029
461.355	2957
461.423	3497
461.425	3494
461.491	3599
461.505	3710
461.559	7328
461.585	9010
461.628	14892
461.665	21814
461.696	24579
461.745	33462
461.764	31705
461.825	13715
461.832	13256
461.901	5102
461.905	5082
461.969	4155
461.985	3984
462.037	4350
462.065	4451
462.105	4751
462.145	5001
462.173	7145
462.225	11994
462.241	13363
462.305	21353
462.310	20969
462.378	14762
462.385	13143
462.446	6578
462.465	5247
462.514	3788
462.545	3970
462.582	3820
462.625	3787
462.650	3809
462.705	3164
462.718	3113
462.785	3581
462.786	3634
462.854	6602
462.865	7289
462.922	10272
462.945	11487
462.990	9351
463.025	6266
463.058	5462
463.104	4297
463.126	3622
463.184	2695
463.194	2769
463.262	3626
463.264	3673
463.330	4412
463.344	4338
463.398	4613
463.424	4962
463.466	4712
463.504	4675
463.533	4843
463.583	4916
463.601	5245
463.663	5920
463.669	6006
463.737	7552
463.743	7735
463.805	13071
463.823	14538
463.873	22393
463.903	27986
463.940	29619
463.982	32999
464.008	28526
464.062	13370
464.076	12370
464.142	5107
464.144	4963
464.211	3838
464.221	3811
464.279	4101
464.301	4047
464.347	4329
464.381	4908
464.414	5952
464.461	7107
464.482	7071
464.540	8002
464.550	7870
464.617	5264
464.620	5174
464.685	5610
464.699	5797
464.753	6348
464.779	6700
464.820	7062
464.859	7220
464.888	7383
464.938	7757
464.956	7858
465.018	8385
465.023	8227
465.091	5940
465.098	5647
465.158	5367
465.177	5405
465.226	5664
465.257	5797
465.293	5865
465.336	5968
465.361	6558
465.416	7894
465.428	8699
465.495	13231
465.496	13312
465.563	23326
465.575	25228
465.631	30158
465.654	32662
465.698	21563
465.734	10192
465.765	8526
465.813	5974
465.833	5368
465.893	5287
465.900	5315
465.968	5288
465.972	5295
466.035	4833
466.052	4666
466.102	4733
466.131	4804
466.170	5041
466.210	5250
466.237	5470
466.290	5903
466.304	5819
466.369	5295
466.372	5308
466.439	5643
466.449	5663
466.506	6721
466.528	7135
466.573	11317
466.607	14393
466.641	22794
466.687	34635
466.708	37750
466.766	46851
466.775	43104
466.842	14100
466.845	12700
466.909	8681
466.925	7913
466.977	7217
467.004	6977
467.044	7286
467.083	7617
467.111	8137
467.163	9090
467.178	9322
467.242	10241
467.245	10190
467.312	8868
467.321	8685
467.379	8976
467.400	9058
467.446	10081
467.480	10797
467.559	9648
467.638	7500
467.717	7655
467.796	8813
467.875	10077
467.955	9209
468.034	14884
468.113	39898
468.192	57471
468.271	12523
468.350	8386
468.429	11013
468.508	10562
468.588	8575
468.667	7577
468.746	7153
468.825	8064
468.904	7401
468.983	9066
469.062	15656
469.141	19442
469.220	7157
469.299	7120
469.378	7081
469.456	7965
469.535	7826
469.614	7806
469.693	8951
469.772	11756
469.851	18234
469.930	10575
470.009	6960
470.088	6379
470.166	7319
470.245	8786
470.324	9580
470.403	6497
470.482	7118
470.560	6298
470.639	7951
470.718	9102
470.797	7107
470.875	8982
470.954	14060
471.033	14501
471.111	6256
471.190	5627
471.269	5355
471.347	4948
471.426	6695
471.505	7533
471.583	7625
471.662	6781
471.740	6541
471.819	6414
471.898	6535
471.976	5991
472.055	6486
472.133	7265
472.212	11629
472.290	11033
472.369	7063
472.447	6507
472.526	5114
472.604	6274
472.683	6437
472.761	7469
472.839	6289
472.918	5962
472.996	6707
473.075	8265
473.153	8303
473.231	6131
473.310	8004
473.388	7671
473.466	6663
473.545	7240
473.623	10435
473.701	8999
473.780	6255
473.858	5623
473.936	8373
474.014	5904
474.093	7041
474.171	12979
474.249	18798
474.327	10656
474.405	4733
474.484	6192
474.562	5674
474.640	6116
474.718	6847
474.796	5719
474.874	6302
474.952	4629
475.030	4970
475.108	5119
475.187	5813
475.265	7401
475.343	11403
475.421	11855
475.499	6074
475.577	6263
475.655	9975
475.733	23618
475.811	41729
475.889	36963
475.966	22821
476.044	7120
476.122	8523
476.200	10767
476.278	8007
476.356	6734
476.434	7094
476.512	8792
476.590	11125
476.667	9539
476.745	5912
476.823	6488
476.901	6545
476.979	6932
477.056	5951
477.134	6295
477.212	5622
477.290	5623
477.367	5355
477.445	5787
477.523	5431
477.601	5739
477.678	7058
477.756	8304
477.834	9355
477.911	6105
477.989	6828
478.066	5568
478.144	7616
478.222	7774
478.299	12634
478.377	10562
478.454	5945
478.532	5222
478.609	5401
478.687	6385
478.764	4574
478.842	5163
478.919	6875
478.997	6179
479.074	5657
479.152	7762
479.229	10671
479.307	6723
479.384	4664
479.461	4730
479.539	6017
479.616	7380
479.694	6803
479.771	7366
479.848	7756
479.926	10331
480.003	12979
480.080	5673
480.157	5310
480.235	5013
480.312	6264
480.389	7059
480.467	12447
480.544	16795
480.621	7061
480.698	6910
480.775	8605
480.853	8104
480.930	5861
481.007	6041
481.084	7963
481.161	8592
481.238	7601
481.315	5383
481.392	5572
481.470	5582
481.547	5349
481.624	5435
481.701	5858
481.778	5930
481.855	7598
481.932	11671
482.009	22062
482.086	13534
482.163	7329
482.240	9408
482.317	16365
482.393	10418
482.470	6083
482.547	6614
482.624	6376
482.701	6183
482.778	6112
482.855	5408
482.932	4907
483.009	4501
483.085	6481
483.162	8286
483.239	7957
483.316	5898
483.393	6119
483.469	6056
483.546	7396
483.623	7992
483.699	5475
483.776	6491
483.853	6785
483.930	11469
484.006	31822
484.083	55646
484.160	18944
484.236	21584
484.313	17403
484.389	13133
484.466	12397
484.543	11125
484.619	12005
484.696	14160
484.772	15214
484.849	17186
484.925	11669
485.002	12276
485.078	13532
485.155	13822
485.231	10915
485.308	10590
485.384	11596
485.461	16306
485.537	31670
485.614	37365
485.690	12560
485.766	10698
485.843	12480
485.919	16573
485.995	17210
486.072	9754
486.148	10118
486.224	9307
486.301	11161
486.377	14210
486.453	14620
486.530	12550
486.606	16024
486.682	16079
486.758	24939
486.835	30808
486.911	22248
486.987	41153
487.063	36075
487.139	39652
487.215	27275
487.292	13540
487.368	12309
487.444	14873
487.520	19250
487.596	16916
487.672	25295
487.748	67729
487.824	92104
487.900	25458
487.976	14234
488.052	15341
488.128	20524
488.204	13752
488.280	12479
488.356	15342
488.432	36950
488.508	56537
488.584	15788
488.660	9805
488.736	10066
488.812	10197
488.888	13653
488.964	17020
489.039	39892
489.115	59801
489.191	31165
489.267	11602
489.343	10741
489.418	8276
489.494	8671
489.570	6896
489.646	9796
489.722	8332
489.797	9467
489.873	17167
489.949	46161
490.024	33609
490.100	9823
490.176	8415
490.251	11123
490.327	14528
490.403	8014
490.478	7634
490.554	7281
490.629	6843
490.705	7950
490.781	8249
490.856	7620
490.932	9711
491.007	9033
491.083	8938
491.158	9432
491.234	13152
491.309	32967
491.385	31906
491.460	8874
491.536	10148
491.611	7922
491.686	8757
491.762	12185
491.837	26577
491.913	42535
491.988	62082
492.063	69798
492.139	23190
492.214	14600
492.289	6832
492.365	5269
492.440	8619
492.515	9388
492.590	8510
492.666	6391
492.741	11485
492.816	17944
492.891	7520
492.967	6182
493.042	5149
493.117	4773
493.192	5642
493.267	7953
493.342	11852
493.418	14612
493.493	5712
493.568	5395
493.643	5658
493.718	8852
493.793	15130
493.868	14365
493.943	7985
494.018	6526
494.093	6316
494.168	6791
494.243	4506
494.318	5201
494.393	5734
494.468	5033
494.543	5844
494.618	6504
494.693	5658
494.768	5940
494.842	5323
494.917	5305
494.992	5144
495.067	5423
495.142	4258
495.217	5542
495.292	5095
495.366	7273
495.441	8296
495.516	11500
495.591	15186
495.665	54051
495.740	124658
495.815	40813
495.890	9123
495.964	6628
496.039	9036
496.114	7300
496.188	8008
496.263	8761
496.338	6918
496.412	8971
496.487	10830
496.561	8822
496.636	11039
496.710	8477
496.785	9048
496.860	11163
496.934	6821
497.009	7404
497.083	7115
497.158	7984
497.232	10316
497.307	13250
497.381	8787
497.455	13342
497.530	19535
497.604	10223
497.679	12174
497.753	20850
497.827	25355
497.902	20244
497.976	23873
498.050	63746
498.125	260754
498.199	228637
498.273	29267
498.348	18656
498.422	14493
498.496	14371
498.570	13653
498.645	11027
498.719	11123
498.793	16380
498.867	27475
498.941	36268
499.016	104408
499.090	282473
499.164	77398
499.238	10695
499.312	8623
499.386	11826
499.460	10613
499.534	11107
499.609	13732
499.683	22524
499.757	22155
499.831	46543
499.905	190012
499.979	159293
500.053	28085
500.127	26461
500.201	15064
500.275	10943
500.349	9699
500.422	12772
500.496	17995
500.570	38814
500.644	101989
500.718	189023
500.792	34897
500.866	12446
500.940	16457
501.013	13449
501.087	12253
501.161	20083
501.235	27341
501.309	66240
501.382	182211
501.456	139436
501.530	32353
501.603	61771
501.677	19441
501.751	8802
501.825	12938
501.898	24357
501.972	75139
502.046	40269
502.119	12017
502.193	31682
502.266	82604
502.340	34297
502.413	36168
502.487	70166
502.561	39083
502.634	11079
502.708	8074
502.781	6739
502.855	6785
502.928	5902
503.002	6071
503.075	5442
503.149	6894
503.222	7819
503.295	7550
503.369	11068
503.442	16148
503.516	54993
503.589	143652
503.662	84298
503.736	26531
503.809	67456
503.882	47716
503.956	73741
504.029	62081
504.102	41891
504.175	49661
504.249	15004
504.322	10503
504.395	10369
504.468	6815
504.542	6825
504.615	4787
504.688	4666
504.761	4471
504.834	7629
504.907	7207
504.980	12015
505.053	6312
505.127	6236
505.200	10551
505.273	12081
505.346	6021
505.419	4807
505.492	4639
505.565	3935
505.638	4468
505.711	3672
505.784	3347
505.857	4280
505.930	5767
506.003	3393
506.076	7054
506.149	8171
506.221	9335
506.294	10614
506.367	26089
506.440	96221
506.513	43662
506.586	11193
506.659	5250
506.731	5400
506.804	6135
506.877	9544
506.950	6314
507.022	4917
507.095	6081
507.168	9783
507.241	5390
507.313	3178
507.386	4205
507.459	8201
507.531	4012
507.604	3125
507.677	3867
507.749	1543
507.822	5515
507.894	9591
507.967	10593
508.040	5137
508.112	5365
508.185	5735
508.257	3084
508.330	8367
508.402	4433
508.475	5741
508.547	5475
508.620	6311
508.692	11546
508.765	6604
508.837	4594
508.909	4432
508.982	4013
509.054	5398
509.127	3369
509.199	3929
509.271	2511
509.344	3038
509.416	4283
509.488	3679
509.560	4323
509.633	3539
509.705	4577
509.777	4861
509.849	8140
509.922	4201
509.994	4141
510.066	5294
510.138	2723
510.210	9917
510.283	6458
510.355	6468
510.427	5776
510.499	5687
510.571	3998
510.643	4989
510.715	9882
510.787	6745
510.859	6010
510.931	7016
511.003	9419
511.076	7939
511.148	5110
511.219	3879
511.291	11561
511.363	13647
511.435	4506
511.507	2899
511.579	5525
511.651	4783
511.723	4291
511.795	4111
511.867	4929
511.939	6882
512.010	18688
512.082	12576
512.154	4059
512.226	5344
512.298	7026
512.369	9394
512.441	8426
512.513	8253
512.585	4827
512.656	7318
512.728	6479
512.800	4993
512.871	6069
512.943	6114
513.015	3654
513.086	5079
513.158	4883
513.230	5510
513.301	8907
513.373	11073
513.444	4751
513.516	4622
513.588	4768
513.659	5626
513.731	6932
513.802	5783
513.874	14497
513.945	23132
514.016	6029
514.088	5648
514.159	4820
514.231	7425
514.302	8465
514.374	5785
514.445	6370
514.516	20498
514.588	11906
514.659	8073
514.730	16576
514.802	10775
514.873	4465
514.944	7545
515.016	6498
515.087	6826
515.158	10808
515.229	15550
515.301	4499
515.372	7584
515.443	3334
515.514	4363
515.585	2827
515.656	4490
515.728	4987
515.799	3711
515.870	5376
515.941	5414
516.012	4272
516.083	6796
516.154	6230
516.225	11404
516.296	9383
516.367	7046
516.438	7235
516.509	9750
516.580	12732
516.651	37276
516.722	126790
516.793	50881
516.864	14368
516.935	14047
517.006	16081
517.077	21705
517.148	44602
517.219	121383
517.289	169683
517.360	97439
517.431	30873
517.502	8116
517.573	8320
517.643	8251
517.714	7405
517.785	8351
517.856	8028
517.926	11263
517.997	11832
518.068	12744
518.138	17399
518.209	23102
518.280	77415
518.350	276796
518.421	77621
518.492	14552
518.562	11601
518.633	13594
518.703	11146
518.774	24379
518.845	60811
518.915	50498
518.986	17393
519.056	14460
519.127	23344
519.197	36545
519.268	97542
519.338	56204
519.408	13942
519.479	14479
519.549	10476
519.620	8581
519.690	5823
519.760	6091
519.831	5800
519.901	5802
519.971	6242
520.042	6620
520.112	7772
520.182	8560
520.253	8603
520.323	5367
520.393	4964
520.463	9081
520.534	4037
520.604	12102
520.674	8597
520.744	9815
520.814	12415
520.885	13671
520.955	29516
521.025	115638
521.095	35295
521.165	8574
521.235	6117
521.305	5542
521.375	5252
521.445	6402
521.515	7170
521.585	9489
521.655	6597
521.725	7955
521.795	7348
521.865	2640
521.935	11939
522.005	8265
522.075	4689
522.145	5977
522.215	7485
522.285	12879
522.355	16614
522.424	35309
522.494	26052
522.564	11418
522.634	19919
522.704	55991
522.774	16674
522.843	6508
522.913	5379
522.983	7060
523.053	4871
523.122	6656
523.192	8578
523.262	30910
523.331	24716
523.401	6604
523.471	3555
523.540	4738
523.610	3250
523.680	4315
523.749	4227
523.819	7511
523.888	6394
523.958	4279
524.027	4802
524.097	5413
524.166	3891
524.236	3884
524.305	7115
524.375	3970
524.444	2909
524.514	5737
524.583	4588
524.653	6152
524.722	8955
524.791	3838
524.861	5231
524.930	2975
524.999	3412
525.069	7439
525.138	6741
525.207	7437
525.277	5476
525.346	3852
525.415	4654
525.484	4763
525.554	6234
525.623	7196
525.692	5887
525.761	6509
525.830	7359
525.900	8128
525.969	12960
526.038	19845
526.107	36637
526.176	109440
526.245	75259
526.314	28315
526.383	58782
526.452	68501
526.522	131067
526.591	113279
526.660	35373
526.729	19610
526.797	22718
526.867	40450
526.935	170424
527.004	294984
527.073	125293
527.142	13725
527.211	7465
527.280	7694
527.349	7452
527.418	3148
527.487	6118
527.555	2837
527.624	2546
527.693	2405
527.762	3879
527.831	2015
527.899	4125
527.968	3821
528.037	2691
528.106	5110
528.174	10141
528.243	8154
528.312	12774
528.380	15528
528.449	4663
528.518	4561
528.586	2096
528.655	4470
528.723	3686
528.792	2744
528.861	1820
528.929	2836
528.998	4489
529.066	2584
529.135	2511
529.203	2456
529.272	935
529.340	3004
529.409	4547
529.477	2753
529.545	4685
529.614	6912
529.682	4729
529.751	6944
529.819	8213
529.887	4168
529.956	2400
530.024	4232
530.092	2059
530.161	4576
530.229	6426
530.297	2705
530.365	3509
530.434	2581
530.502	938
530.570	3101
530.638	726
530.707	3206
530.775	4096
530.843	1930
530.911	2302
530.979	3157
531.047	2632
531.115	3880
531.183	2859
531.252	3704
531.320	3108
531.388	1958
531.456	2905
531.524	1010
531.592	3432
531.660	4729
531.728	1037
531.796	2789
531.864	2702
531.932	2700
532.000	1906
532.067	2613
532.135	2918
532.203	5107
532.271	4118
532.339	7613
532.407	23449
532.475	11194
532.542	5627
532.610	6581
532.678	8135
532.746	38765
532.814	91241
532.881	18880
532.949	5152
533.017	3373
533.084	3477
533.152	3159
533.220	2724
533.287	2880
533.355	2660
533.423	3664
533.490	1748
533.558	2684
533.625	2769
533.693	3088
533.761	3142
533.828	3666
533.896	2411
533.963	8651
534.031	8179
534.098	13349
534.166	4782
534.233	2573
534.300	4239
534.368	4146
534.435	3238
534.503	3459
534.570	3490
534.637	3530
534.705	4816
534.772	6276
534.840	11314
534.907	51529
534.974	50547
535.041	6603
535.109	7164
535.176	3141
535.243	3877
535.310	3342
535.378	2758
535.445	3506
535.512	2128
535.579	3687
535.646	2632
535.714	4271
535.781	3929
535.848	4077
535.915	4728
535.982	3357
536.049	2567
536.116	5207
536.183	3424
536.250	3639
536.317	3387
536.384	4506
536.451	7286
536.518	8132
536.585	4228
536.652	7953
536.719	11411
536.786	7271
536.853	5858
536.920	10570
536.987	15013
537.053	13354
537.120	49925
537.187	34892
537.254	4461
537.321	3174
537.388	4694
537.454	2371
537.521	2763
537.588	2964
537.654	4996
537.721	4421
537.788	4949
537.855	2879
537.921	3628
537.988	4506
538.055	5211
538.121	4052
538.188	4572
538.254	6500
538.321	14076
538.388	8498
538.454	3837
538.521	3397
538.587	2776
538.654	3466
538.720	3322
538.787	3982
538.853	4289
538.920	6139
538.986	5778
539.053	5093
539.119	5224
539.185	4219
539.252	6484
539.318	8510
539.385	5560
539.451	3900
539.517	4781
539.583	5977
539.650	15209
539.716	35768
539.782	9147
539.849	4229
539.915	4632
539.981	4886
540.047	5377
540.114	4956
540.180	6142
540.246	4603
540.312	7170
540.378	15938
540.444	15625
540.510	14913
540.576	38330
540.643	9844
540.709	2526
540.775	3649
540.841	3702
540.907	6827
540.973	9596
541.039	8038
541.105	8590
541.171	4458
541.237	3381
541.303	4667
541.369	6603
541.435	7738
541.500	12875
541.566	6929
541.632	4109
541.698	3539
541.764	4701
541.830	3623
541.896	3235
541.961	5510
542.027	3479
542.093	4824
542.159	4178
542.224	4726
542.290	7123
542.356	12266
542.421	15200
542.487	7327
542.553	4630
542.618	5625
542.684	4544
542.750	4422
542.815	7514
542.881	10934
542.947	35727
543.012	22255
543.078	3996
543.143	3411
543.209	4663
543.274	4009
543.340	5921
543.405	13720
543.471	19645
543.536	5018
543.602	4527
543.667	2848
543.732	4452
543.798	3657
543.863	4063
543.928	2549
543.994	2531
544.059	3956
544.124	4326
544.190	4101
544.255	5294
544.320	5037
544.386	3666
544.451	7084
544.516	8005
544.581	7319
544.646	22331
544.712	32446
544.777	6395
544.842	6102
544.907	6527
544.972	5848
545.037	4818
545.102	6604
545.168	6121
545.233	6517
545.298	7688
545.363	7734
545.428	7925
545.493	15626
545.558	28890
545.623	12121
545.688	6139
545.753	6074
545.818	5172
545.883	6411
545.947	5595
546.012	6972
546.077	6678
546.142	7988
546.207	6193
546.272	8610
546.337	8064
546.401	7814
546.466	6525
546.531	5152
546.596	7844
546.661	7270
546.725	7403
546.790	6472
546.855	7507
546.919	6613
546.984	8165
547.049	8359
547.113	11108
547.178	9687
547.243	11904
547.307	13031
547.372	14008
547.436	15743
547.501	11866
547.565	13518
547.630	14938
547.695	13741
547.759	17609
547.823	13380
547.888	11572
547.952	12847
548.017	13153
548.081	15200
548.146	19356
548.210	16683
548.274	13530
548.339	12897
548.403	12358
548.468	11273
548.532	10990
548.596	11665
548.660	11508
548.725	13532
548.789	15654
548.853	16698
548.917	13934
548.982	17871
549.046	17694
549.110	11330
549.174	12074
549.238	12473
549.303	11666
549.367	13817
549.431	13072
549.495	12407
549.559	11336
549.623	14969
549.687	15003
549.751	18862
549.815	17320
549.879	17848
549.943	14958
550.007	18300
550.071	17168
550.135	18921
550.199	16064
550.263	15829
550.327	16353
550.391	21314
550.455	16661
550.519	16377
550.582	18914
550.646	20964
550.710	21643
550.774	20258
550.838	19936
550.901	20174
550.965	22192
551.029	23634
551.093	26361
551.156	33071
551.220	53668
551.284	59956
551.347	33707
551.411	51975
551.475	52759
551.538	23356
551.602	19141
551.666	18708
551.729	15571
551.793	17331
551.856	16625
551.920	15851
551.983	16875
552.047	14866
552.110	15747
552.174	16409
552.237	16885
552.301	14906
552.364	15183
552.428	14403
552.491	14492
552.554	15690
552.618	14307
552.681	16198
552.745	14777
552.808	18888
552.871	20696
552.934	17512
552.998	15365
553.061	16312
553.124	15346
553.187	14453
553.251	15482
553.314	15361
553.377	14775
553.440	16424
553.503	19297
553.567	18827
553.630	15628
553.693	16020
553.756	16287
553.819	15379
553.882	15019
553.945	14778
554.008	14603
554.071	15517
554.134	16016
554.197	13934
554.260	12653
554.323	15810
554.386	15536
554.449	15071
554.512	15347
554.575	13499
554.638	15171
554.701	13916
554.764	14735
554.827	14449
554.889	13093
554.952	11843
555.015	12555
555.078	12034
555.141	12789
555.203	12602
555.266	12480
555.329	12616
555.391	12205
555.454	12713
555.517	12585
555.580	11638
555.642	11263
555.705	10399
555.768	11679
555.830	11141
555.893	11210
555.955	10530
556.018	10653
556.080	10386
556.143	10867
556.206	10723
556.268	11028
556.330	12033
556.393	11463
556.455	11372
556.518	16777
556.580	16432
556.643	9245
556.705	10062
556.767	8504
556.830	10362
556.892	11380
556.955	15228
557.017	11485
557.079	9817
557.142	9984
557.204	11145
557.266	19588
557.328	15078
557.391	7981
557.453	8025
557.515	9406
557.577	10837
557.639	9823
557.701	9703
557.764	8365
557.826	9979
557.888	10955
557.950	10648
558.012	11836
558.074	16004
558.136	32945
558.198	72334
558.260	22551
558.322	11867
558.384	13410
558.446	16594
558.508	18635
558.570	23945
558.632	33718
558.694	47371
558.756	54517
558.818	156118
558.880	331331
558.942	83355
559.003	80471
559.065	33762
559.127	17705
559.189	19179
559.251	22105
559.312	31740
559.374	72560
559.436	225458
559.498	84930
559.559	19931
559.621	18366
559.683	23953
559.744	39093
559.806	115886
559.868	142075
559.929	26786
559.991	21401
560.052	30313
560.114	78483
560.176	43351
560.237	45933
560.299	66987
560.360	14832
560.422	9664
560.483	10489
560.545	9327
560.606	8094
560.667	8402
560.729	8594
560.790	8728
560.852	8049
560.913	7646
560.974	8375
561.036	8474
561.097	8845
561.158	8799
561.220	9175
561.281	8752
561.342	9412
561.403	11263
561.465	12194
561.526	27245
561.587	32207
561.648	9875
561.709	7710
561.771	9158
561.832	8397
561.893	8978
561.954	7783
562.015	7816
562.076	8674
562.137	8101
562.198	8860
562.259	8827
562.320	7582
562.381	9372
562.442	13868
562.503	10809
562.564	8714
562.625	8462
562.686	8718
562.747	10687
562.808	9101
562.869	8794
562.930	11615
562.991	10730
563.051	9962
563.112	8786
563.173	8627
563.234	7785
563.294	8044
563.355	7744
563.416	8827
563.477	8237
563.537	9293
563.598	9860
563.659	8180
563.720	8977
563.780	8556
563.841	9242
563.901	8839
563.962	8623
564.023	8826
564.083	9288
564.144	10162
564.204	9861
564.265	9929
564.325	12818
564.386	25987
564.446	21710
564.507	9094
564.567	8722
564.628	8835
564.688	8384
564.749	7355
564.809	11660
564.869	14148
564.930	8722
564.990	8612
565.050	8199
565.111	8179
565.171	8261
565.231	7813
565.292	8946
565.352	7725
565.412	8956
565.472	8414
565.532	8468
565.593	8358
565.653	8131
565.713	9143
565.773	9836
565.833	10653
565.893	13410
565.953	8594
566.013	9149
566.074	10762
566.134	14552
566.194	24959
566.254	23020
566.314	13931
566.374	8910
566.434	9760
566.494	9328
566.554	8141
566.614	8774
566.673	8409
566.733	10498
566.793	10923
566.853	10586
566.913	9703
566.973	9884
567.033	11732
567.092	11745
567.152	9695
567.212	10670
567.272	11483
567.331	11865
567.391	11917
567.451	13159
567.511	18977
567.570	17809
567.630	10170
567.690	9702
567.749	10091
567.809	9700
567.868	10540
567.928	11249
567.988	13560
568.047	13184
568.107	12664
568.166	14590
568.226	18590
568.285	24612
568.345	20121
568.404	17047
568.464	15886
568.523	14449
568.582	15619
568.642	16787
568.701	18802
568.761	26449
568.820	36567
568.879	35373
568.939	30520
568.998	20708
569.057	15603
569.116	13707
569.176	12469
569.235	11245
569.294	10379
569.353	10941
569.413	11580
569.472	11313
569.531	9363
569.590	9437
569.649	9886
569.708	8976
569.767	11365
569.827	15517
569.886	12183
569.945	8696
570.004	10014
570.063	9831
570.122	10117
570.181	11638
570.240	13176
570.299	14992
570.358	15181
570.417	10506
570.475	9580
570.534	10175
570.593	9857
570.652	11553
570.711	12256
570.770	10187
570.829	12747
570.887	10782
570.946	10208
571.005	8944
571.064	9427
571.122	11258
571.181	12720
571.240	10780
571.299	9410
571.357	12113
571.416	12686
571.475	14309
571.533	14652
571.592	11392
571.650	11570
571.709	9485
571.768	9175
571.826	9223
571.885	8296
571.943	8436
572.002	9902
572.060	10427
572.119	9309
572.177	8215
572.236	7426
572.294	8610
572.352	9110
572.411	8411
572.469	8105
572.528	9062
572.586	9779
572.644	12210
572.703	17119
572.761	12064
572.819	9246
572.877	8637
572.936	8144
572.994	8142
573.052	8922
573.110	10080
573.169	9848
573.227	7762
573.285	7862
573.343	8144
573.401	9282
573.459	8962
573.517	8732
573.576	9266
573.634	9420
573.692	10472
573.750	8196
573.808	9339
573.866	11133
573.924	14160
573.982	12898
574.040	9496
574.098	8931
574.155	9461
574.213	8471
574.271	8195
574.329	8414
574.387	8191
574.445	7179
574.503	7123
574.560	7427
574.618	7669
574.676	7355
574.734	7485
574.792	8095
574.849	7601
574.907	7683
574.965	7131
575.022	6249
575.080	7320
575.138	7256
575.195	8503
575.253	8712
575.311	9246
575.368	7296
575.426	7768
575.483	8174
575.541	8843
575.598	7040
575.656	7721
575.713	8043
575.771	8336
575.828	8231
575.886	9103
575.943	9339
576.001	9275
576.058	9277
576.115	10523
576.173	12413
576.230	15173
576.287	13899
576.345	11952
576.402	10066
576.459	10431
576.517	10271
576.574	12841
576.631	13496
576.688	11023
576.746	9985
576.803	9272
576.860	8683
576.917	9508
576.974	9579
577.031	9741
577.089	9133
577.146	9757
577.203	9712
577.260	12167
577.317	11143
577.374	13833
577.431	13003
577.488	10753
577.545	8857
577.602	9400
577.659	8672
577.716	8717
577.773	7782
577.830	7796
577.886	8826
577.943	9171
578.000	9243
578.057	11089
578.114	10015
578.171	9126
578.227	8384
578.284	8939
578.341	9662
578.398	10327
578.454	11012
578.511	14121
578.568	16801
578.625	12580
578.681	9799
578.738	9089
578.794	8643
578.851	9058
578.908	8488
578.964	9295
579.021	8279
579.077	8649
579.134	9074
579.190	8304
579.247	8422
579.303	9810
579.360	8801
579.416	8206
579.473	9368
579.529	7889
579.586	8481
579.642	8670
579.698	9030
579.755	10178
579.811	8685
579.867	8769
579.924	7419
579.980	8453
580.036	8886
580.093	8210
580.149	9008
580.205	9543
580.261	9480
580.317	10468
580.374	12086
580.430	14522
580.486	13648
580.542	11085
580.598	10000
580.619	10217
580.654	10598
580.692	10203
580.710	10008
580.765	9258
580.767	9233
580.823	9948
580.838	9750
580.879	9220
580.911	8944
580.935	8754
580.984	9082
580.991	9124
581.047	10332
581.057	10392
581.103	10653
581.130	10602
581.159	10517
581.203	10649
581.215	10692
581.270	10732
581.276	10757
581.326	10856
581.349	10913
581.382	11047
581.422	10539
581.438	10319
581.494	11844
581.494	11847
581.550	11652
581.567	11623
581.606	11528
581.640	11970
581.661	12204
581.713	12016
581.717	12015
581.773	11259
581.786	11475
581.829	12021
581.859	11998
581.885	12003
581.932	11255
581.940	11108
581.996	12658
582.004	12480
582.052	11335
582.077	11034
582.107	10753
582.150	11541
582.163	11767
582.219	12309
582.223	12275
582.274	11953
582.296	12506
582.330	13242
582.368	13392
582.386	13465
582.441	12106
582.441	12098
582.497	11654
582.514	11733
582.552	12055
582.587	12072
582.608	12071
582.659	11280
582.663	11202
582.719	12782
582.732	12805
582.774	13099
582.805	12816
582.830	12429
582.877	12818
582.885	12883
582.941	12116
582.950	12283
582.996	13145
583.023	13228
583.052	13487
583.095	13844
583.107	13901
583.162	13731
583.168	13814
583.218	14451
583.240	14355
583.273	14149
583.313	13478
583.328	13261
583.384	14025
583.385	14005
583.439	13217
583.458	13361
583.494	13669
583.531	13687
583.549	13863
583.603	14163
583.605	14158
583.660	14448
583.676	14496
583.715	14912
583.748	14992
583.770	15109
583.820	16417
583.825	16483
583.881	15777
583.893	15596
583.936	15411
583.965	15465
583.991	15457
584.038	15542
584.046	15576
584.101	16470
584.110	16410
584.156	15883
584.183	15390
584.211	14858
584.255	15217
584.266	15374
584.321	15306
584.328	15353
584.376	15978
584.400	16203
584.431	16318
584.472	15826
584.486	15755
584.541	15838
584.545	15858
584.596	16322
584.617	16537
584.651	17476
584.689	18609
584.706	18673
584.761	18340
584.762	18317
584.816	18594
584.834	18882
584.871	18996
584.906	19190
584.926	19482
584.978	19666
584.980	19701
585.035	20435
585.051	20709
585.090	21515
585.123	22483
585.145	23074
585.195	23645
585.200	23688
585.254	23973
585.267	24010
585.309	24364
585.340	25408
585.364	26482
585.412	27960
585.419	28152
585.473	30084
585.484	30840
585.528	35410
585.556	39449
585.583	44732
585.628	58782
585.637	62839
585.692	107352
585.700	115631
585.747	150792
585.772	121626
585.801	78264
585.845	40116
585.856	33992
585.910	27300
585.917	26970
585.965	26889
585.989	26109
586.019	25292
586.061	25701
586.074	25877
586.128	26785
586.133	26753
586.183	27992
586.205	28901
586.237	30178
586.277	31299
586.292	31301
586.346	30491
586.349	30431
586.401	31125
586.421	31506
586.455	33722
586.493	36570
586.509	41208
586.564	59242
586.565	59740
586.618	94058
586.637	99340
586.672	75496
586.709	46441
586.727	40059
586.781	31736
586.781	31784
586.835	29458
586.853	29003
586.889	29075
586.925	28799
586.944	29034
586.996	30431
586.998	30521
587.052	30785
587.068	30753
587.106	30976
587.140	31493
587.161	31756
587.212	31724
587.215	31834
587.269	33102
587.284	33421
587.323	33513
587.356	32766
587.377	32699
587.427	33287
587.431	33381
587.485	33808
587.499	33704
587.539	34276
587.571	34766
587.593	35274
587.643	36667
587.648	36916
587.702	37843
587.715	38273
587.755	39716
587.786	40315
587.810	39825
587.858	37846
587.864	38101
587.917	41321
587.930	41895
587.971	44842
588.001	47087
588.025	46897
588.073	44965
588.079	44967
588.133	45188
588.145	45149
588.187	46786
588.217	48314
588.241	49930
588.288	53071
588.295	53601
588.348	57359
588.360	58301
588.402	63077
588.431	66699
588.456	70306
588.503	78175
588.510	79415
588.564	89393
588.575	91841
588.617	101875
588.646	109738
588.671	119624
588.718	142848
588.725	148885
588.778	203420
588.789	217218
588.832	331908
588.861	421478
588.886	555424
588.932	820073
588.939	836463
588.993	886720
589.004	888156
589.047	617610
589.075	417011
589.100	325780
589.147	187085
589.154	179350
589.207	140656
589.218	134222
589.261	128243
589.290	127366
589.314	132329
589.361	146739
589.368	153211
589.421	215415
589.433	231410
589.475	386961
589.504	508457
589.528	621122
589.576	815790
589.582	791440
589.635	499922
589.647	432055
589.689	253503
589.718	146004
589.742	125286
589.790	95902
589.795	96067
589.849	101914
589.861	103891
589.902	112064
589.932	115906
589.955	100182
590.004	64915
590.009	64209
590.062	58677
590.075	57083
590.115	54637
590.146	52790
590.168	52746
590.218	52300
590.222	52582
590.275	54755
590.289	55143
590.328	54998
590.360	54542
590.381	53832
590.431	51306
590.435	51481
590.488	52233
590.503	52369
590.541	52648
590.574	52492
590.594	52434
590.645	51569
590.647	51691
590.700	50706
590.716	50268
590.753	49900
590.787	49240
590.806	49493
590.859	49726
590.859	49882
590.912	49421
590.930	49180
590.965	49909
591.001	50190
591.018	50010
591.071	49162
591.072	48995
591.124	51177
591.143	51828
591.177	52150
591.214	52110
591.230	52600
591.283	53652
591.285	53512
591.336	56678
591.356	57714
591.389	56327
591.427	54055
591.442	53950
591.495	52915
591.498	52655
591.547	52626
591.569	52422
591.600	52378
591.640	51803
591.653	52470
591.706	54570
591.711	54612
591.759	60393
591.782	63056
591.811	66809
591.853	71746
591.864	69832
591.917	58407
591.924	56579
591.969	55865
591.995	55168
592.022	56893
592.066	59253
592.075	61170
592.127	71609
592.137	73330
592.180	82959
592.208	88560
592.233	79670
592.279	61753
592.285	61470
592.338	57459
592.350	56331
592.390	55748
592.421	54967
592.443	55372
592.491	55635
592.495	55928
592.548	57160
592.562	57298
592.600	57646
592.633	57544
592.653	57183
592.704	55393
592.705	55737
592.775	56915
592.846	56746
592.916	57831
592.987	59650
593.058	58425
593.128	57108
593.199	57005
593.270	53749
593.341	53461
593.411	53890
593.482	53240
593.553	55143
593.623	52851
593.694	56755
593.764	64538
593.835	55559
593.906	54723
593.976	55790
594.047	59666
594.117	74087
594.188	75861
594.258	54232
594.329	52914
594.399	53604
594.470	52008
594.540	51233
594.611	51734
594.681	51943
594.751	55276
594.822	55924
594.892	58396
594.963	62495
595.033	59680
595.103	60560
595.174	67696
595.244	102611
595.314	126226
595.384	62032
595.455	59827
595.525	61212
595.595	60994
595.665	62056
595.736	60878
595.806	60582
595.876	59558
595.946	60061
596.016	57587
596.087	60379
596.157	60555
596.227	59239
596.297	63028
596.367	64310
596.437	71466
596.507	98439
596.577	121619
596.647	69020
596.717	60668
596.787	60265
596.857	59743
596.927	59884
596.997	60301
597.067	59428
597.137	62477
597.207	61267
597.277	61779
597.347	62580
597.417	60589
597.487	60319
597.557	65182
597.626	63779
597.696	70925
597.766	87692
597.836	117714
597.906	71179
597.975	60924
598.045	58459
598.115	59240
598.185	58810
598.254	62008
598.324	63394
598.394	60420
598.464	62874
598.533	61191
598.603	57711
598.672	59676
598.742	59038
598.812	57668
598.881	59281
598.951	58107
599.020	56522
599.090	55193
599.159	57728
599.229	55703
599.299	54230
599.368	57176
599.437	54670
599.507	57117
599.576	59241
599.646	56046
599.715	55756
599.785	57244
599.854	63658
599.924	73295
599.993	65758
600.062	58242
600.132	58073
600.201	59319
600.270	61901
600.340	58790
600.409	57445
600.478	59472
600.547	58572
600.617	61077
600.686	58019
600.755	56034
600.824	56891
600.894	56233
600.963	53025
601.032	52332
601.101	53285
601.170	52195
601.239	53905
601.308	56006
601.378	53650
601.447	52804
601.516	50182
601.585	52121
601.654	55174
601.723	52112
601.792	52927
601.861	51102
601.930	52202
601.999	53752
602.068	49672
602.137	55075
602.206	52753
602.275	50833
602.343	55702
602.412	53983
602.481	50139
602.550	49390
602.619	48816
602.688	51621
602.756	51495
602.825	49054
602.894	49419
602.963	51870
603.032	52962
603.100	49306
603.169	48108
603.238	51431
603.307	49140
603.375	46055
603.444	49630
603.513	49866
603.581	48444
603.650	47892
603.719	49167
603.787	49214
603.856	51297
603.924	52947
603.993	52920
604.061	49365
604.130	50245
604.198	51291
604.267	50725
604.335	51123
604.404	49890
604.472	49060
604.541	50292
604.609	50836
604.678	48322
604.746	49390
604.815	51360
604.883	52010
604.951	52305
605.020	50059
605.088	53645
605.156	54857
605.225	52825
605.293	51553
605.361	53679
605.429	51121
605.498	53022
605.566	53559
605.634	53660
605.702	56912
605.771	57708
605.839	55729
605.907	55523
605.975	54284
606.043	53337
606.111	53355
606.180	52856
606.248	52943
606.316	56106
606.384	58695
606.452	73187
606.520	67138
606.588	57247
606.656	53791
606.724	54150
606.792	51571
606.860	49078
606.928	45749
606.996	46539
607.064	45431
607.132	45947
607.200	48433
607.267	49183
607.335	46906
607.403	47819
607.471	48127
607.539	47026
607.607	46623
607.674	45426
607.742	48629
607.810	48313
607.878	44832
607.946	44522
608.013	48397
608.081	51354
608.149	49353
608.216	46376
608.284	49499
608.352	48359
608.419	55122
608.487	81998
608.555	57058
608.622	46078
608.690	47253
608.757	50208
608.825	50896
608.893	53704
608.960	64587
609.028	75678
609.095	86409
609.163	55761
609.230	50830
609.298	47354
609.365	42247
609.432	43715
609.500	47283
609.567	50054
609.635	52868
609.702	54187
609.769	56024
609.837	57786
609.904	47485
609.971	42559
610.039	45188
610.106	56044
610.173	84722
610.241	156088
610.308	92189
610.375	52387
610.442	45102
610.509	43480
610.577	43834
610.644	45748
610.711	43975
610.778	44907
610.845	44583
610.912	48159
610.980	48882
611.047	49905
611.114	52022
611.181	48024
611.248	45887
611.315	48398
611.382	47469
611.449	47317
611.516	49805
611.583	49409
611.650	49756
611.717	49074
611.784	50438
611.851	55095
611.918	62209
611.984	63597
612.051	85174
612.118	146398
612.185	319262
612.252	181561
612.319	63156
612.386	55422
612.452	54482
612.519	62378
612.586	93918
612.653	65652
612.719	51343
612.786	51418
612.853	48122
612.919	46770
612.986	47546
613.053	46436
613.120	43658
613.186	43033
613.253	45294
613.319	44279
613.386	44798
613.453	46863
613.519	52152
613.586	55441
613.652	66680
613.719	58037
613.785	54043
613.852	47260
613.918	43862
613.985	44236
614.051	44309
614.118	46562
614.184	45152
614.250	42556
614.317	42195
614.383	44183
614.449	43393
614.516	44104
614.582	48777
614.648	44713
614.715	43139
614.781	43899
614.847	49712
614.914	52051
614.980	51346
615.046	45529
615.112	43714
615.179	44645
615.245	44959
615.311	45404
615.377	48420
615.443	47667
615.509	48216
615.575	49744
615.642	49255
615.708	52427
615.774	56722
615.840	65023
615.906	71436
615.972	76629
616.038	104531
616.104	190646
616.170	417302
616.236	313784
616.302	96860
616.368	80718
616.434	68846
616.500	68829
616.565	70258
616.631	76557
616.697	68275
616.763	70734
616.829	87710
616.895	126888
616.961	115099
617.026	72036
617.092	60255
617.158	61523
617.224	58663
617.289	59018
617.355	61056
617.421	67091
617.487	66525
617.552	61346
617.618	57540
617.684	58079
617.749	59249
617.815	55646
617.880	54651
617.946	56517
618.012	55361
618.077	54217
618.143	55295
618.208	56090
618.274	58594
618.339	61699
618.405	57260
618.470	59242
618.536	63016
618.601	72782
618.667	69842
618.732	62949
618.798	60446
618.863	60962
618.928	59922
618.994	65162
619.059	69396
619.124	78918
619.190	66944
619.255	61682
619.320	63625
619.386	62414
619.451	59410
619.516	60222
619.581	61245
619.647	62743
619.712	61750
619.777	61124
619.842	63493
619.907	64846
619.972	61280
620.038	62576
620.103	60909
620.168	58381
620.233	59075
620.298	59070
620.363	57428
620.428	58104
620.493	60537
620.558	58222
620.623	57823
620.688	58388
620.753	56624
620.818	58110
620.883	57697
620.948	58105
621.013	58748
621.078	60975
621.143	63107
621.207	65595
621.272	66501
621.337	70620
621.402	80451
621.467	107741
621.532	107512
621.596	86291
621.661	77152
621.726	72107
621.791	72934
621.855	74041
621.920	77316
621.985	84856
622.049	94294
622.114	88641
622.179	79225
622.243	90385
622.308	83636
622.373	84265
622.437	82825
622.502	78540
622.566	78249
622.631	81695
622.695	79721
622.760	80883
622.824	76673
622.889	77262
622.953	82693
623.018	96840
623.082	92948
623.147	78033
623.211	74112
623.276	76881
623.340	72268
623.404	71440
623.469	73156
623.533	72483
623.597	70598
623.662	69747
623.726	71100
623.790	69204
623.854	72481
623.919	71460
623.983	69513
624.047	71206
624.111	67950
624.176	70164
624.240	82575
624.304	85569
624.368	71755
624.432	68567
624.496	69899
624.560	69990
624.625	72845
624.689	67697
624.753	67070
624.817	66564
624.881	65426
624.945	64491
625.009	65585
625.073	63687
625.137	73130
625.201	75538
625.265	71225
625.329	64678
625.393	68126
625.456	65355
625.520	68677
625.584	75255
625.648	91584
625.712	140471
625.776	313462
625.839	329660
625.903	124247
625.967	81283
626.031	136415
626.095	200724
626.158	77103
626.222	56789
626.286	55532
626.349	57707
626.413	55206
626.477	59751
626.540	53950
626.604	57047
626.668	55863
626.731	56140
626.795	62439
626.858	60886
626.922	57484
626.986	54637
627.049	53082
627.113	54612
627.176	51018
627.240	52600
627.303	54035
627.366	54287
627.430	55254
627.493	56579
627.557	59159
627.620	55440
627.684	54959
627.747	55856
627.810	53420
627.874	52603
627.937	50448
628.000	56147
628.064	54083
628.127	48402
628.190	51919
628.253	51559
628.317	48267
628.380	49606
628.443	50743
628.506	52786
628.569	49172
628.632	46722
628.696	46238
628.759	46551
628.822	44485
628.885	45152
628.948	46043
629.011	46278
629.074	45917
629.137	43769
629.200	48009
629.263	52084
629.326	42837
629.389	44573
629.452	46627
629.515	47824
629.578	45435
629.641	48296
629.704	47676
629.767	45535
629.830	42915
629.892	43961
629.955	40557
630.018	44233
630.081	43339
630.144	49241
630.207	42748
630.269	48192
630.332	53403
630.395	44675
630.458	39180
630.520	40700
630.583	39534
630.646	38425
630.708	39769
630.771	40690
630.834	38980
630.896	37293
630.959	37477
631.021	39389
631.084	40371
631.146	45136
631.209	50148
631.272	38261
631.334	36661
631.397	36088
631.459	34951
631.522	36226
631.584	37308
631.646	37937
631.709	37197
631.771	46531
631.834	39187
631.896	36131
631.958	31562
632.021	35741
632.083	35634
632.145	38102
632.208	34314
632.270	36290
632.332	33946
632.395	34815
632.457	37875
632.519	35235
632.581	34328
632.643	34004
632.706	36166
632.768	33628
632.830	34153
632.892	31887
632.954	34653
633.016	35930
633.078	32368
633.141	32407
633.203	34717
633.265	34672
633.327	31910
633.389	31782
633.451	37368
633.513	40298
633.575	43064
633.637	37698
633.698	34627
633.760	34573
633.822	31096
633.884	31599
633.946	31728
634.008	30941
634.070	29916
634.132	30822
634.193	33000
634.255	31647
634.317	30984
634.379	31625
634.441	30570
634.502	31230
634.564	29462
634.626	28370
634.687	28434
634.749	30449
634.811	30183
634.873	26946
634.934	28765
634.996	30578
635.057	29594
635.119	28827
635.181	30077
635.242	29134
635.304	27710
635.365	29933
635.427	28714
635.488	29480
635.550	28170
635.611	28481
635.673	28961
635.734	33773
635.796	30056
635.857	32322
635.918	29270
635.980	31708
636.041	30201
636.102	30053
636.164	29924
636.225	29874
636.286	29389
636.348	29621
636.409	28741
636.470	27094
636.531	29378
636.593	36544
636.654	33970
636.715	25664
636.776	25073
636.838	23812
636.899	29160
636.960	25955
637.021	25212
637.082	25933
637.143	26984
637.204	24235
637.265	24916
637.326	25528
637.387	25084
637.448	23001
637.509	25303
637.570	24285
637.631	24519
637.692	23127
637.753	22406
637.814	25095
637.875	23490
637.936	24431
637.997	23879
638.058	24692
638.119	27228
638.179	24050
638.240	24395
638.301	23450
638.362	24209
638.423	26841
638.483	25288
638.544	22633
638.605	24244
638.666	22666
638.726	24296
638.787	24189
638.848	23238
638.908	23243
638.969	22715
639.030	24334
639.090	21620
639.151	22572
639.211	23826
639.272	27451
639.332	36415
639.393	26168
639.453	22640
639.514	22941
639.574	22478
639.635	21372
639.695	22434
639.756	21472
639.816	22311
639.877	23116
639.937	32312
639.997	35642
640.058	21552
640.118	21225
640.178	21287
640.239	19167
640.299	18937
640.359	20160
640.420	21390
640.480	20623
640.540	19967
640.600	19641
640.661	20584
640.721	20574
640.781	23396
640.841	18356
640.901	21389
640.961	21060
641.021	22068
641.082	21364
641.142	26260
641.202	22012
641.262	18873
641.322	20571
641.382	19271
641.442	21235
641.502	20388
641.562	20791
641.622	19541
641.682	21161
641.742	19468
641.802	20740
641.861	22130
641.921	22435
641.981	23184
642.041	24399
642.101	25820
642.161	19550
642.221	19956
642.280	19442
642.340	18383
642.400	18943
642.460	20153
642.519	19964
642.579	19256
642.639	21603
642.698	17214
642.758	19480
642.818	20288
642.877	19026
642.937	20003
642.997	22335
643.056	26106
643.116	18777
643.175	20418
643.235	18991
643.294	19143
643.354	19505
643.414	19434
643.473	20016
643.532	19202
643.592	22758
643.651	26768
643.711	38351
643.770	61696
643.830	130035
643.889	241382
643.948	58076
644.008	22785
644.067	19484
644.126	17198
644.186	18374
644.245	17900
644.304	16107
644.363	19191
644.423	15398
644.482	17392
644.541	17891
644.600	15151
644.659	18699
644.719	19674
644.778	24463
644.837	26750
644.896	39220
644.955	65819
645.014	29105
645.073	19197
645.132	19447
645.191	19558
645.250	17214
645.309	19629
645.368	18384
645.427	19111
645.486	19247
645.545	25693
645.604	17105
645.663	17870
645.722	18734
645.781	16990
645.840	16990
645.898	18296
645.957	22003
646.016	22672
646.075	34314
646.134	54298
646.192	128454
646.251	161983
646.310	30865
646.369	18756
646.427	17750
646.486	16844
646.545	17005
646.603	16485
646.662	17448
646.721	15420
646.779	14384
646.838	14974
646.896	16506
646.955	16524
647.014	20155
647.072	24714
647.131	44604
647.189	24063
647.248	14541
647.306	15227
647.365	15796
647.423	12502
647.481	15972
647.540	12892
647.598	15407
647.657	13673
647.715	15323
647.773	14574
647.832	16539
647.890	15354
647.948	16350
648.007	16776
648.065	14249
648.123	15593
648.181	16558
648.240	15625
648.298	14789
648.356	15971
648.414	17258
648.472	17427
648.531	17515
648.589	16028
648.647	15567
648.705	15650
648.763	17011
648.821	16033
648.879	14829
648.937	15632
648.995	17071
649.053	16932
649.111	19306
649.169	23748
649.227	29764
649.285	46874
649.343	106621
649.401	55920
649.459	38722
649.516	26461
649.574	14976
649.632	18488
649.690	17489
649.748	19973
649.806	17734
649.863	21237
649.921	35390
649.979	24188
650.037	15295
650.094	14037
650.152	15291
650.210	14038
650.268	14664
650.325	14384
650.383	14260
650.440	12590
650.498	14590
650.556	13979
650.613	13085
650.671	13787
650.728	15736
650.786	16163
650.843	14640
650.901	12519
650.958	13222
651.016	13666
651.073	14022
651.131	12959
651.188	13593
651.246	15579
651.303	13602
651.360	13394
651.418	13957
651.475	14390
651.532	11883
651.590	13682
651.647	12786
651.704	14177
651.762	13770
651.819	13366
651.876	13481
651.933	13336
651.990	13683
652.048	12817
652.105	13995
652.162	12994
652.219	12695
652.276	12299
652.333	13071
652.390	11208
652.448	11969
652.505	12546
652.562	11093
652.619	11148
652.676	13138
652.733	12365
652.790	11105
652.847	10562
652.904	11996
652.961	10945
653.017	10996
653.074	13197
653.131	13124
653.188	11149
653.245	12259
653.302	11277
653.359	11257
653.415	12162
653.472	11604
653.529	11213
653.586	11349
653.642	11452
653.699	11258
653.756	10218
653.813	11915
653.869	11528
653.926	9974
653.983	11765
654.039	11603
654.096	10333
654.152	13547
654.209	10975
654.266	13090
654.322	11286
654.379	14563
654.435	15128
654.492	16042
654.548	22132
654.605	31244
654.661	15938
654.717	13553
654.774	14687
654.830	14166
654.887	13697
654.943	14151
655.000	12916
655.056	14787
655.112	14521
655.168	14104
655.225	14399
655.281	16755
655.337	22488
655.394	38382
655.450	25213
655.506	22665
655.562	39050
655.618	27572
655.675	13313
655.731	13600
655.787	14454
655.843	14010
655.899	12381
655.955	13865
656.011	14260
656.067	13383
656.123	14355
656.179	15956
656.235	16200
656.291	13698
656.347	16831
656.403	14692
656.459	16161
656.515	18128
656.571	17395
656.627	14981
656.683	14617
656.739	14463
656.795	12809
656.850	13899
656.906	14407
656.962	13184
657.018	11207
657.074	12717
657.129	12718
657.185	13311
657.241	15215
657.297	13428
657.352	13307
657.408	12272
657.464	14228
657.519	13327
657.575	11016
657.630	12810
657.686	11692
657.742	12485
657.797	11976
657.853	12314
657.908	14488
657.964	10682
658.019	12243
658.075	13896
658.130	13811
658.186	10375
658.241	11671
658.297	12768
658.352	11627
658.407	11584
658.463	11037
658.518	12908
658.573	12095
658.629	10689
658.684	11339
658.739	10444
658.795	9535
658.850	11766
658.905	11180
658.960	11359
659.016	10871
659.071	11818
659.126	12102
659.181	12388
659.236	17022
659.291	16532
659.346	14144
659.401	13226
659.457	11432
659.512	11763
659.567	12685
659.622	12355
659.677	12438
659.732	12029
659.787	12508
659.842	15816
659.897	21252
659.952	13583
660.007	11943
660.061	12625
660.116	12191
660.171	11982
660.226	11242
660.281	11718
660.336	10554
660.391	11603
660.445	10971
660.500	11884
660.555	12481
660.610	11650
660.664	11339
660.719	12001
660.774	12396
660.828	11725
660.883	12362
660.938	12740
660.992	11978
661.047	12676
661.101	11684
661.156	11767
661.211	10900
661.265	10859
661.320	11543
661.374	11645
661.429	10912
661.483	12375
661.538	11263
661.592	12175
661.647	11084
661.701	11488
661.755	12475
661.810	13707
661.864	12410
661.919	11828
661.973	12519
662.027	11554
662.081	10882
662.136	12438
662.190	13784
662.244	14392
662.299	13173
662.353	12055
662.407	12021
662.461	13113
662.515	13323
662.569	14537
662.624	13732
662.678	13922
662.732	12337
662.786	13321
662.840	13832
662.894	13997
662.948	11529
663.002	12241
663.056	11755
663.110	12153
663.164	11849
663.218	11240
663.272	11781
663.326	12717
663.380	13437
663.434	13160
663.488	13230
663.542	13555
663.595	13808
663.649	12758
663.703	13057
663.757	14448
663.811	12364
663.864	12985
663.918	12105
663.972	12471
664.026	12253
664.079	12630
664.133	12713
664.187	11353
664.240	10975
664.294	11864
664.348	12543
664.401	12975
664.455	11905
664.508	11598
664.562	12690
664.615	12557
664.669	11328
664.722	12510
664.776	11785
664.829	12596
664.883	12847
664.936	14280
664.990	14521
665.043	15042
665.097	17010
665.150	17733
665.203	15671
665.257	14895
665.310	14109
665.363	15110
665.417	14850
665.470	14735
665.523	15187
665.576	14106
665.630	14364
665.683	13867
665.736	15390
665.789	15766
665.842	14269
665.895	15284
665.949	13379
666.002	13136
666.055	14902
666.108	15689
666.161	13664
666.214	15269
666.267	14279
666.320	15608
666.373	14620
666.426	14939
666.479	14809
666.532	16281
666.585	18266
666.638	19734
666.691	17160
666.744	18798
666.796	19512
666.849	15500
666.902	14445
666.955	13524
667.008	12993
667.060	12336
667.113	11982
667.166	12439
667.219	12855
667.271	13740
667.324	12575
667.377	13317
667.430	12373
667.482	13486
667.535	12674
667.587	14772
667.640	14544
667.693	17065
667.745	18318
667.798	19637
667.850	14420
667.903	14994
667.955	15037
668.008	15206
668.060	18778
668.113	18348
668.165	18532
668.218	18619
668.270	16523
668.322	16468
668.375	15184
668.427	15976
668.479	15275
668.532	16120
668.584	16532
668.636	15023
668.689	15622
668.741	15779
668.793	14807
668.845	14989
668.898	15225
668.950	14329
669.002	16486
669.054	15658
669.106	15493
669.158	16606
669.211	15247
669.263	14955
669.315	16225
669.367	15187
669.419	15940
669.471	16736
669.523	14174
669.575	15539
669.627	15406
669.679	14460
669.731	14117
669.783	15358
669.835	13255
669.886	13975
669.938	15409
669.990	14627
670.042	13313
670.094	14048
670.146	13092
670.197	13811
670.249	13499
670.301	14424
670.353	13320
670.404	14622
670.456	14830
670.508	15460
670.560	17574
670.611	21355
670.663	26920
670.715	50715
670.766	65933
670.818	22666
670.869	13945
670.921	13086
670.972	14520
671.024	13934
671.075	14538
671.127	13726
671.178	13465
671.230	14241
671.281	13202
671.333	15178
671.384	16160
671.436	17412
671.487	18698
671.538	17111
671.590	19843
671.641	21956
671.692	23747
671.744	33779
671.795	25479
671.846	17809
671.897	17935
671.949	18808
672.000	16187
672.051	16711
672.102	17309
672.153	16025
672.204	16147
672.256	16548
672.307	16558
672.358	16983
672.409	17471
672.460	15165
672.511	15076
672.562	16894
672.613	15121
672.664	14521
672.715	15812
672.766	16494
672.817	15619
672.868	15134
672.919	14684
672.970	15586
673.021	15483
673.071	13955
673.122	14867
673.173	15284
673.224	14114
673.275	14838
673.326	14089
673.376	14643
673.427	14548
673.478	14632
673.528	14426
673.579	14009
673.630	14418
673.680	15811
673.731	12667
673.782	12817
673.832	14795
673.883	16355
673.934	13953
673.984	14290
674.035	14251
674.085	13465
674.136	16370
674.186	16765
674.237	19622
674.287	27931
674.338	16560
674.388	14991
674.438	13758
674.489	14511
674.539	14473
674.589	15175
674.640	15794
674.690	14419
674.740	16447
674.791	16495
674.841	16225
674.891	15837
674.942	14293
674.992	13568
675.042	12959
675.092	12181
675.142	13395
675.193	13282
675.243	12819
675.293	14096
675.343	14382
675.393	14433
675.443	14642
675.493	13201
675.543	12718
675.593	16089
675.643	12767
675.693	13755
675.743	14770
675.793	12916
675.843	13193
675.893	13741
675.943	12365
675.993	12732
676.043	13187
676.093	13313
676.142	12877
676.192	13844
676.242	12810
676.292	12731
676.341	13791
676.391	13497
676.441	11425
676.491	12986
676.540	11793
676.590	12173
676.640	12582
676.689	12169
676.739	11765
676.789	10961
676.838	12230
676.888	11203
676.937	10931
676.987	11729
677.037	10264
677.086	10375
677.136	11705
677.185	11706
677.235	9348
677.284	11265
677.333	11284
677.383	10216
677.432	9626
677.482	11331
677.531	11343
677.580	11219
677.630	9991
677.679	10306
677.728	12017
677.778	10902
677.827	9565
677.876	10303
677.925	9862
677.975	11748
678.024	10569
678.073	11281
678.122	12702
678.171	12852
678.220	12133
678.269	14708
678.319	12850
678.368	12154
678.417	13361
678.466	13908
678.515	13768
678.564	13771
678.613	12892
678.662	12407
678.711	12727
678.760	12333
678.809	12799
678.857	12091
678.906	12558
678.955	12942
679.004	11981
679.053	12141
679.102	12487
679.151	13073
679.199	11533
679.248	11089
679.297	12243
679.346	12866
679.394	11913
679.443	11589
679.492	10942
679.540	12402
679.589	13109
679.638	11894
679.686	10599
679.735	10763
679.784	12191
679.832	11565
679.881	10947
679.929	10668
679.978	9842
680.026	11011
680.075	10695
680.123	11107
680.172	11100
680.220	9094
680.268	10907
680.317	10438
680.365	10449
680.414	10261
680.462	10591
680.510	11502
680.559	9147
680.607	10293
680.655	10577
680.703	10916
680.752	10152
680.800	9094
680.848	9332
680.896	9298
680.945	10153
680.993	9621
681.041	9780
681.089	8978
681.137	9710
681.185	9443
681.233	9850
681.258	10083
681.281	10243
681.329	9136
681.377	9416
681.380	9560
681.425	11030
681.473	11826
681.502	11336
681.521	10877
681.569	11580
681.617	11665
681.624	11704
681.665	11452
681.713	11762
681.745	11582
681.761	11391
681.809	10991
681.857	11964
681.867	11844
681.904	11219
681.952	11780
681.989	11508
682.000	11345
682.048	12484
682.096	11277
682.111	11536
682.143	11885
682.191	11376
682.233	12977
682.239	13151
682.286	11996
682.334	11802
682.354	11768
682.382	11642
682.430	12320
682.476	12618
682.477	12565
682.525	12059
682.572	13302
682.598	12280
682.620	11354
682.667	12423
682.715	13817
682.720	13852
682.763	13630
682.810	12719
682.841	12709
682.857	12586
682.905	12430
682.952	12868
682.963	13103
683.000	13824
683.047	13444
683.085	13869
683.095	13885
683.142	12828
683.190	13399
683.206	13210
683.237	12857
683.284	14422
683.328	14146
683.332	14061
683.379	13599
683.426	13583
683.449	13834
683.473	14097
683.521	14048
683.568	14287
683.571	14325
683.615	14079
683.662	14869
683.693	14444
683.709	14188
683.757	14253
683.804	15164
683.814	15352
683.851	15786
683.898	14416
683.936	14160
683.945	14069
683.992	15555
684.039	15031
684.057	15057
684.086	15037
684.133	15551
684.179	15452
684.180	15400
684.227	16865
684.274	15819
684.300	15729
684.321	15557
684.368	15007
684.415	15754
684.422	15668
684.462	14933
684.509	15162
684.543	14838
684.556	14778
684.603	15466
684.649	15849
684.665	15972
684.696	16156
684.743	16650
684.786	16713
684.790	16707
684.837	17524
684.883	19151
684.908	20006
684.930	20509
684.977	21303
685.023	19600
685.029	19577
685.070	18748
685.117	18257
685.150	18900
685.164	19434
685.210	20430
685.257	21552
685.272	21427
685.303	20307
685.350	20565
685.393	19953
685.396	19938
685.443	20455
685.490	21723
685.514	21990
685.536	21942
685.583	21483
685.629	21244
685.636	21195
685.675	20688
685.722	20262
685.757	20803
685.768	21108
685.815	22508
685.861	21766
685.878	21882
685.908	21945
685.954	22904
686.000	23407
686.000	23426
686.047	25975
686.093	30261
686.121	30654
686.139	29243
686.185	26220
686.232	24284
686.242	23909
686.278	23353
686.324	21787
686.363	20469
686.370	20384
686.416	20842
686.463	22161
686.484	21611
686.509	20837
686.555	21008
686.601	20545
686.606	20601
686.647	21282
686.693	21020
686.727	20892
686.739	20853
686.785	21497
686.831	21311
686.848	21619
686.877	21844
686.923	20631
686.969	19874
686.969	19871
687.015	21055
687.061	22366
687.090	22398
687.107	22168
687.153	21268
687.199	21515
687.211	21307
687.245	21338
687.291	22126
687.332	23674
687.336	23787
687.382	24181
687.428	23517
687.453	23495
687.474	23058
687.520	22266
687.565	21072
687.574	20905
687.611	20869
687.657	21246
687.695	21284
687.702	21387
687.748	21942
687.794	23255
687.816	23337
687.839	22812
687.885	21185
687.931	20462
687.937	20420
687.976	21300
688.022	21624
688.058	22613
688.067	22741
688.113	22683
688.158	22159
688.179	22176
688.204	22326
688.249	22407
688.295	23452
688.300	23468
688.340	24043
688.386	25036
688.421	24611
688.431	24276
688.477	23636
688.522	23398
688.542	23222
688.567	23253
688.613	23536
688.658	22900
688.663	22913
688.703	23541
688.749	24149
688.784	24237
688.794	24145
688.839	23844
688.884	23446
688.905	22902
688.930	22421
688.975	22418
689.020	23754
689.026	23695
689.065	23606
689.110	23826
689.146	23887
689.155	23828
689.201	22854
689.246	22497
689.267	22516
689.291	22958
689.336	23692
689.381	23782
689.388	23778
689.426	23532
689.471	23510
689.509	23151
689.516	23089
689.561	23295
689.606	23205
689.630	23495
689.651	23992
689.696	22989
689.741	24113
689.750	24124
689.785	23964
689.830	23711
689.871	23144
689.875	23084
689.920	22981
689.965	22611
689.992	22001
690.010	21980
690.054	22356
690.099	23122
690.112	23199
690.144	23171
690.189	23336
690.233	22527
690.233	22549
690.278	22895
690.323	22200
690.354	22190
690.367	22369
690.412	22783
690.457	23353
690.474	23565
690.501	23450
690.546	22432
690.590	21900
690.595	21820
690.635	21966
690.680	22023
690.716	22195
690.724	22309
690.769	22815
690.813	23036
690.836	22868
690.857	22629
690.902	23209
690.946	22894
690.957	22875
690.991	23191
691.035	23594
691.077	24001
691.080	24079
691.124	24770
691.168	25861
691.198	26151
691.213	26402
691.257	27446
691.301	28314
691.318	28606
691.346	27384
691.390	25145
691.434	22939
691.439	22695
691.478	23562
691.522	24789
691.559	25200
691.567	25217
691.611	25477
691.655	25242
691.680	25414
691.699	25566
691.743	25805
691.787	26218
691.800	25984
691.831	26057
691.875	26954
691.919	27942
691.921	27936
691.964	29209
692.008	29383
692.041	30057
692.052	30131
692.096	29802
692.139	29926
692.162	29815
692.183	29451
692.227	28487
692.271	27700
692.282	27473
692.315	27682
692.359	27748
692.402	28079
692.403	28125
692.447	27324
692.490	27621
692.523	27308
692.534	27585
692.578	28494
692.622	29615
692.643	29926
692.666	29313
692.709	28030
692.753	26921
692.763	26572
692.797	26363
692.840	26330
692.884	26063
692.884	26113
692.928	26433
692.971	26755
693.004	27065
693.015	27160
693.059	27162
693.102	26994
693.124	26995
693.146	27304
693.189	27811
693.233	28520
693.245	28649
693.276	29049
693.320	29175
693.363	29275
693.365	29228
693.407	29257
693.450	29444
693.485	29093
693.493	29079
693.537	29391
693.580	29301
693.605	29398
693.624	29200
693.667	28202
693.710	27260
693.725	26944
693.753	27527
693.797	28234
693.840	28891
693.845	28930
693.883	28159
693.926	27031
693.966	25951
693.970	25942
694.013	25435
694.056	24775
694.086	24496
694.099	25092
694.142	26923
694.185	28411
694.206	29014
694.229	29275
694.272	29884
694.315	30541
694.326	30601
694.358	30514
694.401	30354
694.444	30116
694.446	30051
694.487	29950
694.530	29778
694.566	29457
694.573	29247
694.616	27337
694.659	25722
694.686	24468
694.702	24355
694.745	24168
694.787	24013
694.806	23796
694.830	24232
694.873	25189
694.916	25971
694.926	26043
694.959	25517
695.002	25085
695.044	24596
695.046	24529
695.087	25661
695.130	26650
695.166	27387
695.172	27459
695.215	27326
695.258	27535
695.286	27422
695.301	27379
695.343	27497
695.386	27294
695.406	27097
695.428	26754
695.471	26137
695.514	25578
695.526	25301
695.556	25458
695.599	25795
695.641	26126
695.646	26087
695.684	25907
695.726	25868
695.766	25538
695.769	25610
695.811	25800
695.854	26176
695.886	26458
695.896	26479
695.938	26036
695.981	25677
696.005	25398
696.023	25522
696.065	25830
696.108	26379
696.125	26349
696.150	26569
696.192	26958
696.235	27338
696.245	27353
696.277	26671
696.319	25988
696.361	25052
696.365	24905
696.404	24979
696.446	25258
696.485	25408
696.488	25491
696.530	25578
696.572	25953
696.604	26080
696.614	26036
696.656	25562
696.698	24995
696.724	24712
696.740	24632
696.783	24179
696.825	23683
696.844	23389
696.867	23949
696.909	24907
696.951	26025
696.964	26237
696.992	25714
697.034	24904
697.076	24136
697.083	23966
697.118	24607
697.160	25223
697.202	25795
697.203	25747
697.244	25411
697.286	25097
697.323	24634
697.327	24643
697.369	24203
697.411	23767
697.442	23426
697.453	23707
697.494	24598
697.536	25525
697.562	25963
697.578	25879
697.620	25551
697.661	25233
697.682	25002
697.703	25262
697.744	25618
697.786	26145
697.801	26198
697.828	26490
697.869	26902
697.911	27356
697.921	27379
697.952	26991
697.994	26454
698.035	25915
698.040	25777
698.077	25473
698.118	25096
698.160	24662
698.160	24594
698.201	24721
698.243	24756
698.279	24748
698.284	24844
698.325	25118
698.367	25389
698.399	25510
698.408	25351
698.449	24361
698.491	23364
698.518	22623
698.532	22899
698.573	23577
698.614	24267
698.638	24577
698.656	24733
698.697	24965
698.738	25196
698.757	25246
698.779	25829
698.820	26792
698.862	27759
698.877	28052
698.903	28342
698.944	28673
698.985	29009
698.996	29028
699.026	28504
699.067	27667
699.116	26601
699.235	24814
699.354	23980
699.474	27589
699.593	33629
699.713	29780
699.832	26267
699.951	26539
700.070	24472
700.190	24828
700.309	25365
700.428	31570
700.547	26100
700.667	25721
700.786	31776
700.905	23937
701.024	27895
701.143	26116
701.262	19956
701.381	21929
701.500	22590
701.619	24381
701.738	20676
701.857	20955
701.976	21171
702.095	19616
702.214	23321
702.333	23878
702.452	21598
702.571	20336
702.690	20980
702.809	20291
702.928	18796
703.047	20688
703.165	19636
703.284	19796
703.403	19536
703.522	25899
703.640	23944
703.759	32378
703.878	51181
703.997	23058
704.115	20972
704.234	20277
704.353	18239
704.471	18877
704.590	18256
704.708	17086
704.827	17874
704.946	19963
705.064	24850
705.183	20045
705.301	28362
705.420	46053
705.538	38364
705.656	28846
705.775	27327
705.893	30902
706.012	34410
706.130	32033
706.249	32252
706.367	33824
706.485	36286
706.604	33552
706.722	34224
706.840	41342
706.958	37669
707.077	28635
707.195	28505
707.313	28129
707.431	28511
707.549	28143
707.668	28678
707.786	29215
707.904	27127
708.022	26777
708.140	25991
708.258	25246
708.376	26174
708.494	26556
708.612	30064
708.730	49874
708.848	46324
708.966	40410
709.084	36155
709.202	35966
709.320	39300
709.438	38862
709.556	39091
709.674	37719
709.791	37217
709.909	35526
710.027	36690
710.145	35220
710.263	37265
710.380	36560
710.498	34322
710.616	36185
710.733	35318
710.851	39587
710.969	39847
711.086	35827
711.204	34324
711.322	35306
711.439	36824
711.557	38306
711.674	34345
711.792	35262
711.909	32202
712.027	30383
712.144	30479
712.262	32231
712.379	39739
712.497	59749
712.614	57443
712.732	46215
712.849	44375
712.966	47608
713.084	58724
713.201	47402
713.318	46314
713.436	43925
713.553	46298
713.670	45747
713.787	53017
713.905	52897
714.022	43297
714.139	41606
714.256	45029
714.373	48318
714.490	58180
714.608	97204
714.725	321635
714.842	311849
714.959	51070
715.076	40856
715.193	38192
715.310	35618
715.427	37548
715.544	34165
715.661	37647
715.778	36077
715.895	41274
716.011	41929
716.128	36918
716.245	36051
716.362	38566
716.479	39727
716.596	34906
716.713	36337
716.829	33382
716.946	33411
717.063	32308
717.180	32751
717.296	31881
717.413	31499
717.530	31250
717.646	31647
717.763	30937
717.880	28962
717.996	31116
718.113	31189
718.229	28979
718.346	28531
718.462	29143
718.579	36294
718.695	52029
718.812	49007
718.928	50805
719.045	33669
719.161	27877
719.277	27077
719.394	25771
719.510	28641
719.626	28975
719.743	35985
719.859	34316
719.975	41065
720.092	102053
720.208	201496
720.324	43514
720.440	29528
720.557	35001
720.673	45588
720.789	74233
720.905	180193
721.021	53864
721.137	27543
721.253	28736
721.369	30760
721.486	36901
721.602	54586
721.718	27410
721.834	22852
721.950	25300
722.066	22994
722.181	23484
722.297	24590
722.413	22885
722.529	22890
722.645	22056
722.761	21530
722.877	21837
722.993	20981
723.108	23333
723.224	21748
723.340	22879
723.456	20076
723.571	22296
723.687	20894
723.803	21813
723.918	19922
724.034	21570
724.150	21184
724.265	27840
724.381	66317
724.497	83262
724.612	21610
724.728	19228
724.843	19452
724.959	27139
725.074	61564
725.190	70984
725.305	24825
725.421	20621
725.536	16089
725.651	16971
725.767	17577
725.882	17302
725.997	16609
726.113	16802
726.228	16301
726.343	17427
726.459	14750
726.574	18044
726.689	16295
726.804	17140
726.920	17597
727.035	16820
727.150	19172
727.265	16831
727.380	17624
727.495	16155
727.610	12672
727.725	16138
727.841	14946
727.956	14887
728.071	20465
728.186	14872
728.301	13368
728.416	15543
728.531	14224
728.645	13023
728.760	14585
728.875	15262
728.990	13938
729.105	14541
729.220	14200
729.335	14530
729.449	12541
729.564	12125
729.679	12138
729.794	13488
729.908	16428
730.023	14307
730.138	11271
730.253	13382
730.367	11411
730.482	11513
730.596	12079
730.711	13074
730.826	11993
730.940	11318
731.055	12736
731.169	11667
731.284	10626
731.398	11810
731.513	16549
731.627	15642
731.742	18286
731.856	20424
731.970	10932
732.085	13347
732.199	14684
732.313	19197
732.428	37021
732.542	104055
732.656	60015
732.771	14732
732.885	11830
732.999	12956
733.113	14441
733.227	13153
733.342	9412
733.456	10301
733.570	9100
733.684	10448
733.798	11400
733.912	9750
734.026	9102
734.140	10990
734.254	13082
734.368	32251
734.482	41136
734.596	9621
734.710	9274
734.824	8861
734.938	8750
735.052	9249
735.166	13320
735.280	10323
735.393	9031
735.507	10601
735.621	18051
735.735	44209
735.849	14128
735.962	9296
736.076	11647
736.190	12552
736.303	20539
736.417	29318
736.531	9130
736.644	12008
736.758	7954
736.872	7201
736.985	8048
737.099	7581
737.212	6953
737.326	7803
737.439	7317
737.553	7285
737.666	8329
737.780	6997
737.893	7140
738.007	7355
738.120	7048
738.233	7798
738.347	6991
738.460	7245
738.573	8206
738.687	7720
738.800	8517
738.913	9601
739.026	8668
739.140	7599
739.253	5826
739.366	6189
739.479	6166
739.592	6525
739.705	6954
739.818	7487
739.932	6168
740.045	6378
740.158	7386
740.271	7294
740.384	6131
740.497	6046
740.610	6481
740.723	6748
740.836	6102
740.949	7293
741.062	10176
741.174	9263
741.287	7920
741.400	6065
741.513	5876
741.626	7094
741.739	7119
741.851	5757
741.964	5213
742.077	6927
742.189	7181
742.302	8917
742.415	6681
742.527	5676
742.640	5259
742.753	5758
742.865	5459
742.978	5686
743.090	5713
743.203	6045
743.316	5438
743.428	5436
743.541	4922
743.653	4981
743.766	5777
743.878	7065
743.990	13337
744.103	12410
744.215	8376
744.327	6041
744.440	8025
744.552	13196
744.664	6660
744.777	5120
744.889	4854
745.001	5063
745.113	4292
745.226	4021
745.338	4791
745.450	5267
745.562	5187
745.674	5062
745.786	4344
745.898	4973
746.010	5557
746.122	3713
746.234	4065
746.347	5099
746.459	4704
746.570	6117
746.682	7079
746.794	10362
746.906	5431
747.018	4980
747.130	4465
747.242	4445
747.354	5066
747.466	5237
747.577	4846
747.689	5099
747.801	4582
747.913	3647
748.024	3432
748.136	3539
748.248	3937
748.359	3966
748.471	4489
748.583	4517
748.694	3968
748.806	5892
748.918	11327
749.029	6598
749.141	6052
749.252	5708
749.364	5644
749.475	15817
749.587	11681
749.698	4238
749.809	4434
749.921	3980
750.032	4035
750.144	3437
750.255	3199
750.366	2823
750.478	3863
750.589	4683
750.700	4060
750.811	4658
750.923	7024
751.034	16094
751.145	13974
751.256	4833
751.367	3388
751.479	4376
751.590	3472
751.701	4187
751.812	3238
751.923	3847
752.034	3593
752.145	3630
752.256	3763
752.367	3445
752.478	4099
752.589	3725
752.700	3009
752.811	3298
752.922	3334
753.032	4442
753.143	5503
753.254	3545
753.365	4239
753.476	3130
753.586	2732
753.697	3483
753.808	3070
753.919	2576
754.029	3049
754.140	3773
754.251	4164
754.361	4001
754.472	3568
754.582	4226
754.693	3448
754.804	3468
754.914	2697
755.025	2974
755.135	2764
755.246	3361
755.356	2841
755.466	4047
755.577	2495
755.687	3661
755.798	2709
755.908	3093
756.018	2165
756.129	2720
756.239	2912
756.349	3348
756.460	2734
756.570	4005
756.680	3582
756.790	4444
756.900	5041
757.011	3696
757.121	3081
757.231	3120
757.341	3469
757.451	2532
757.561	2586
757.671	2286
757.781	1987
757.891	3421
758.001	3812
758.111	3946
758.221	3594
758.331	4374
758.441	4348
758.551	7063
758.661	5563
758.771	4287
758.880	4800
758.990	3841
759.100	3570
759.210	4378
759.320	4306
759.429	4112
759.539	3811
759.649	3503
759.758	4199
759.868	5339
759.978	4174
760.087	5313
760.197	4541
760.307	4645
760.416	4526
760.526	3969
760.635	4173
760.745	3872
760.854	3986
760.964	5133
761.073	5271
761.182	4293
761.292	4507
761.401	6536
761.511	3911
761.620	3612
761.729	5037
761.839	4418
761.948	4481
762.057	4797
762.166	4827
762.276	3726
762.385	4763
762.494	4802
762.603	3414
762.712	4771
762.822	4653
762.931	4700
763.040	3688
763.149	3626
763.258	3751
763.367	3196
763.476	4271
763.585	4489
763.694	3252
763.803	5629
763.912	5390
764.021	4537
764.130	3723
764.238	4081
764.347	3683
764.456	4554
764.565	3487
764.674	3347
764.783	3388
764.891	2687
765.000	5086
765.109	4280
765.217	3841
765.326	6632
765.435	7903
765.543	4829
765.652	4179
765.761	4140
765.869	5319
765.978	6522
766.086	10004
766.195	16528
766.303	42981
766.412	159141
766.520	144404
766.629	19907
766.737	9862
766.846	7577
766.954	5590
767.062	7658
767.171	6038
767.279	7420
767.387	4837
767.496	5696
767.604	5772
767.712	5540
767.820	4901
767.928	6314
768.037	4493
768.145	5459
768.253	5354
768.361	4575
768.469	5050
768.577	4619
768.685	5809
768.793	5603
768.901	4688
769.009	4636
769.117	5073
769.225	5123
769.333	6023
769.441	7362
769.549	8555
769.657	16230
769.765	53999
769.873	150416
769.981	35042
770.088	8455
770.196	5897
770.304	6322
770.412	6307
770.519	6130
770.627	5274
770.735	6264
770.842	5781
770.950	6053
771.058	5362
771.165	5615
771.273	4987
771.380	6133
771.488	4802
771.595	5261
771.703	4467
771.810	6021
771.918	4404
772.025	5593
772.133	4969
772.240	5839
772.348	6302
772.455	5390
772.562	4487
772.670	4226
772.777	6662
772.884	5509
772.991	4700
773.099	5061
773.206	4787
773.313	5299
773.420	4550
773.528	3356
773.635	3980
773.742	5331
773.849	4475
773.956	4458
774.063	4524
774.170	4353
774.277	5439
774.384	5458
774.491	5160
774.598	6099
774.705	5491
774.812	7479
774.919	6836
775.026	6342
775.133	4958
775.239	4792
775.346	5060
775.453	4685
775.560	4652
775.667	5429
775.773	4609
775.880	5535
775.987	5365
776.093	5149
776.200	4585
776.307	4864
776.413	5759
776.520	5614
776.627	5653
776.733	5700
776.840	4549
776.946	7800
777.053	11797
777.159	16253
777.266	8049
777.372	15445
777.478	10523
777.585	6244
777.691	4296
777.798	4463
777.904	5150
778.010	7775
778.117	7922
778.223	5977
778.329	5532
778.435	4550
778.542	4792
778.648	4899
778.754	4378
778.860	4617
778.966	5463
779.072	5403
779.178	4051
779.284	5005
779.391	3653
779.497	4080
779.603	5441
779.708	3574
779.815	5796
779.920	4955
780.026	4959
780.132	5048
780.238	4120
780.344	4495
780.450	5023
780.556	3955
780.661	2913
780.767	4158
780.873	4573
780.979	4097
781.085	3560
781.190	4109
781.296	3414
781.402	4587
781.507	3274
781.613	3296
781.719	3196
781.824	3301
781.930	3886
782.035	3247
782.141	4176
782.246	3322
782.352	3819
782.457	3816
782.563	3203
782.668	3952
782.773	5033
782.879	4005
782.984	4566
783.090	6271
783.195	8680
783.300	6648
783.405	5352
783.511	4592
783.616	4013
783.721	3711
783.826	3033
783.932	4242
784.037	4571
784.142	4359
784.247	4482
784.352	4725
784.457	3971
784.562	3930
784.667	4208
784.772	4216
784.877	2807
784.982	4839
785.087	3499
785.192	5370
785.297	3714
785.402	3776
785.507	3419
785.611	3412
785.716	4319
785.821	3476
785.926	2627
786.031	3987
786.135	3821
786.240	3277
786.345	2444
786.450	3454
786.554	3174
786.659	3006
786.763	2424
786.868	3614
786.973	4639
787.077	3437
787.182	3481
787.286	3195
787.391	2859
787.495	2849
787.600	2595
787.704	2669
787.809	2627
787.913	3208
788.017	3745
788.122	3613
788.226	3191
788.330	2374
788.435	3535
788.539	2276
788.643	2817
788.747	2321
788.852	2673
788.956	1830
789.060	3664
789.164	2908
789.268	2373
789.372	3275
789.476	2985
789.580	1532
789.684	2050
789.788	3306
789.892	2610
789.996	4020
790.100	2662
790.204	2293
790.308	4234
790.412	3260
790.516	2907
790.620	3427
790.724	3506
790.828	3177
790.931	2545
791.035	4364
791.139	1985
791.242	2505
791.346	3485
791.450	2063
791.554	2579
791.657	1121
791.761	2917
791.864	3279
791.968	2139
792.072	2919
792.175	2688
792.279	2406
792.382	2600
792.486	3015
792.589	4168
792.693	4138
792.796	2204
792.899	3363
793.003	2844
793.106	792
793.209	2454
793.313	4050
793.416	1062
793.519	5232
793.623	5369
793.726	8084
793.829	3434
793.932	3138
794.035	2122
794.138	3532
794.242	2998
794.345	4928
794.448	4999
794.551	6639
794.654	6095
794.757	5025
794.860	7226
794.963	4868
795.066	1963
795.169	2863
795.272	300
795.375	3318
795.477	1273
795.580	2324
795.683	1034
795.786	2066
795.889	1497
795.991	3122
796.094	5738
796.197	3495
796.300	3590
796.402	1682
796.505	936
796.608	1494
796.710	2333
796.813	2401
796.915	1749
797.018	2612
797.120	1391
797.223	331
797.326	3370
797.428	971
797.530	2266
797.633	2579
797.735	4560
797.838	12212
797.940	9226
798.042	1483
798.145	1521
798.247	2990
798.349	340
798.452	2682
798.554	1316
798.656	1208
798.758	2381
798.860	2916
798.962	1175
799.065	1689
799.167	1807
799.269	2649
799.371	2584
799.473	3924
799.575	4840
799.677	7384
799.779	4665
799.881	4665
799.983	3343
800.085	1878
800.187	2313
800.289	803
800.390	2243
800.492	2052
800.594	2057
800.696	1073
800.798	2070
800.899	1844
801.001	1837
801.103	1884
801.205	1245
801.306	944
801.408	1063
801.509	1186
801.611	2137
801.713	2019
801.814	1097
801.916	1518
802.017	1209
802.119	1113
802.220	1337
802.322	1059
802.423	7512
802.525	4258
802.626	1745
802.727	1579
802.829	2206
802.930	-140
803.031	2406
803.133	1633
803.234	1258
803.335	1692
803.436	141
803.538	1245
803.639	999
803.740	1777
803.841	375
803.942	1850
804.043	1043
804.144	313
804.245	1212
804.346	1324
804.447	743
804.548	3338
804.649	4099
804.750	1467
804.851	1486
804.952	1743
805.053	692
805.154	639
805.255	1269
805.355	1391
805.456	432
805.557	616
805.658	18
805.758	2123
805.859	1029
805.960	1096
806.061	304
806.161	907
806.262	1042
806.362	944
806.463	1422
806.564	2351
806.664	1328
806.765	4466
806.865	3785
806.966	1718
807.066	678
807.166	1408
807.267	1149
807.367	155
807.468	1660
807.568	403
807.668	1353
807.769	1519
807.869	561
807.969	1173
808.069	1355
808.170	324
808.270	439
808.370	1760
808.470	2408
808.570	1880
808.670	503
808.770	1451
808.870	392
808.970	694
809.070	678
809.170	798
809.271	638
809.370	859
809.470	1185
809.570	213
809.670	746
809.770	654
809.870	1112
809.970	793
810.070	530
810.169	1310
810.269	-1520
810.369	1659
810.469	722
810.568	325
810.668	-586
810.768	-385
810.867	331
810.967	349
811.066	954
811.166	863
811.265	1651
811.365	626
811.464	130
811.564	683
811.663	737
811.763	85
811.862	919
811.962	1135
812.061	667
812.160	-61
812.260	-332
812.359	1154
812.458	181
812.557	627
812.657	618
812.756	1407
812.855	429
812.954	323
813.053	886
813.153	1045
813.252	643
813.351	1416
813.450	-260
813.549	34
813.648	605
813.747	398
813.846	1085
813.945	477
814.044	572
814.143	1056
814.242	908
814.341	980
814.439	741
814.538	841
814.637	550
814.736	739
814.835	1142
814.933	368
815.032	24
815.131	327
815.229	563
815.328	1646
815.427	250
815.525	1464
815.624	479
815.722	477
815.821	1363
815.919	1024
816.018	589
816.116	1278
816.215	402
816.313	699
816.412	379
816.510	440
816.609	2033
816.707	1627
816.805	976
816.904	1268
817.002	1689
817.100	1688
817.198	1691
817.296	1447
817.395	1013
817.493	2464
817.591	811
817.689	2955
817.787	2231
817.885	5267
817.983	8915
818.081	20945
818.179	50300
818.277	132735
818.375	115062
818.473	27896
818.571	10785
818.669	7712
818.767	6866
818.865	5514
818.963	7162
819.061	10873
819.158	18356
819.256	43382
819.354	98781
819.452	237796
819.549	149087
819.647	35677
819.745	12842
819.842	7980
819.940	6273
820.038	4622
820.135	3706
820.233	3866
820.330	1809
820.428	1460
820.525	2573
820.623	1688
820.720	36
820.818	2204
820.915	1606
821.012	1881
821.110	488
821.207	1589
821.304	586
821.402	2670
821.499	3518
821.596	5034
821.693	1825
821.791	2414
821.888	2922
821.985	8023
822.082	5824
822.179	3008
822.276	1372
822.373	1345
822.470	1063
822.567	1232
822.664	383
822.761	1085
822.858	56
822.955	959
823.052	480
823.149	75
823.246	462
823.343	439
823.440	805
823.536	342
823.633	571
823.730	450
823.827	343
823.923	1194
824.020	1750
824.117	1464
824.213	288
824.310	1688
824.407	149
824.503	655
824.600	807
824.696	-228
824.793	690
824.889	232
824.986	82
825.082	212
825.179	859
825.275	557
825.371	239
825.468	2181
825.564	-88
825.660	1084
825.757	584
825.853	1681
825.949	141
826.045	687
826.142	-154
826.238	149
826.334	-434
826.430	-274
826.526	731
826.622	-93
826.718	367
826.814	101
826.910	1375
827.006	267
827.102	-304
827.198	1500
827.294	-429
827.390	735
827.486	511
827.582	-782
827.678	-811
827.774	485
827.869	-65
827.965	1287
828.061	-687
828.157	-43
828.252	361
828.348	-490
828.444	1295
828.539	-392
828.635	890
828.731	1009
828.826	-191
828.922	698
829.017	-78
829.113	908
829.208	-95
829.304	169
829.399	1718
829.495	399
829.590	431
829.685	141
829.781	810
829.876	744
829.971	-487
830.066	-10
830.162	74
830.257	218
830.352	-874
830.447	1385
830.543	1308
830.638	547
830.733	2224
830.828	-34
830.923	1095
831.018	1006
831.113	811
831.208	779
831.303	431
831.398	455
831.493	-166
831.588	-44
831.683	-358
831.778	325
831.873	221
831.967	1489
832.062	-466
832.157	-724
832.252	440
832.346	111
832.441	1124
832.536	1501
832.631	6734
832.725	5479
832.820	-57
832.914	218
833.009	-346
833.104	988
833.198	1871
833.293	670
833.387	385
833.482	1246
833.576	-131
833.670	1411
833.765	-175
833.859	633
833.954	917
834.048	635
834.142	495
834.237	655
834.331	671
834.425	125
834.519	-290
834.613	1237
834.708	-125
834.802	379
834.896	-304
834.990	976
835.084	-139
835.178	787
835.272	1321
835.366	874
835.460	1317
835.554	607
835.648	489
835.742	-686
835.836	747
835.930	0
836.024	916
836.117	2062
836.211	1872
836.305	4172
836.399	6928
836.493	1106
836.586	1155
836.680	-184
836.774	-684
836.867	1217
836.961	-867
837.055	-335
837.148	392
837.242	19
837.335	-477
837.429	1225
837.522	1332
837.616	2796
837.709	8509
837.803	6403
837.896	1248
837.989	1707
838.083	3258
838.176	11079
838.269	11494
838.363	1606
838.456	426
838.549	2770
838.642	3703
838.735	8496
838.829	3156
838.922	344
839.015	473
839.108	-597
839.201	1167
839.294	626
839.387	498
839.480	1263
839.573	3177
839.666	6275
839.759	920
839.852	-355
839.945	310
840.038	-326
840.131	-183
840.223	209
840.316	577
840.409	706
840.502	-613
840.594	1270
840.687	-467
840.780	946
840.873	178
840.965	2429
841.058	3583
841.150	10159
841.243	6615
841.336	1031
841.428	413
841.521	846
841.613	553
841.706	2079
841.798	-29
841.890	214
841.983	-833
842.075	1972
842.167	394
842.260	1477
842.352	3845
842.444	5673
842.537	11678
842.629	18347
842.721	3403
842.813	-59
842.905	-1120
842.997	2132
843.090	2193
843.182	4401
843.274	10932
843.366	26246
843.458	54638
843.550	34783
843.642	4078
843.734	2636
843.826	3813
843.918	3513
844.009	604
844.101	81
844.193	-118
844.285	922
844.377	807
844.469	1995
844.560	1021
844.652	1072
844.744	-180
844.835	861
844.927	1719
845.019	3081
845.110	2200
845.202	809
845.293	48
845.385	271
845.476	105
845.568	1179
845.659	896
845.751	980
845.842	-1178
845.934	-63
846.025	70
846.116	428
846.208	31
846.299	-378
846.390	592
846.482	1223
846.573	2627
846.664	3291
846.755	4595
846.846	4792
846.937	-505
847.029	605
847.120	391
847.211	-528
847.302	1377
847.393	-89
847.484	542
847.575	19
847.666	633
847.757	-821
847.847	-123
847.938	-133
848.029	-638
848.120	-502
848.211	246
848.302	-462
848.392	-622
848.483	-254
848.574	-799
848.664	-581
848.755	-276
848.846	-33
848.936	-634
849.027	452
849.118	-579
849.208	191
849.299	888
849.389	2480
849.480	4694
849.570	10048
849.661	16488
849.751	31355
849.841	10238
849.932	1248
850.022	221
850.112	-47
850.203	-207
850.293	144
850.383	-514
850.474	432
850.564	-585
850.654	525
850.744	-366
850.834	-172
850.924	-57
851.014	384
851.104	406
851.194	407
851.284	470
851.374	2005
851.464	701
851.554	1202
851.644	2716
851.734	4455
851.824	2804
851.914	-88
852.004	258
852.094	-175
852.183	-217
852.273	749
852.363	-63
852.452	771
852.542	271
852.632	619
852.721	412
852.811	13
852.901	954
852.990	180
853.080	612
853.169	302
853.259	-566
853.348	53
853.438	342
853.527	2618
853.617	2709
853.706	6404
853.795	10976
853.885	25832
853.974	49225
854.063	90625
854.152	147183
854.242	54573
854.331	8112
854.420	3354
854.509	2946
854.598	2540
854.687	2361
854.777	3552
854.866	835
854.955	1278
855.044	385
855.133	52
855.222	-390
855.311	-659
855.400	852
855.488	-388
855.577	-116
855.666	526
855.755	368
855.844	349
855.933	-665
856.021	409
856.110	483
856.199	-586
856.288	103
856.376	-235
856.465	-293
856.554	560
856.642	475
856.731	868
856.819	683
856.908	341
856.996	67
857.085	-221
857.173	-664
857.262	1014
857.350	60
857.438	-100
857.527	97
857.615	420
857.703	-346
857.792	-303
857.880	-229
857.968	301
858.056	-628
858.145	1007
858.233	-1068
858.321	286
858.409	425
858.497	33
858.585	-518
858.673	-119
858.761	-389
858.849	274
858.937	-703
859.025	362
859.113	247
859.201	-447
859.289	347
859.377	470
859.465	299
859.552	-720
859.640	-568
859.728	958
859.816	77
859.903	255
859.991	-333
860.079	350
860.166	-181
860.254	58
860.342	20
860.429	-451
860.517	-1220
860.604	216
860.692	-188
860.779	-656
860.867	104
860.954	459
861.042	123
861.129	930
861.216	-109
861.304	113
861.391	-312
861.478	169
861.565	22
861.653	1365
861.740	233
861.827	-253
861.914	409
862.001	-143
862.089	-274
862.176	645
862.263	-878
862.350	94
862.437	-664
862.524	180
862.611	189
862.698	916
862.785	480
862.871	549
862.958	-269
863.045	-116
863.132	-650
863.219	-144
863.306	-1026
863.392	446
863.479	-817
863.566	-199
863.652	-540
863.739	-507
863.826	566
863.912	164
863.999	-535
864.086	-488
864.172	-231
864.259	-548
864.345	-545
864.432	396
864.518	-307
864.604	-328
864.691	-222
864.777	-848
864.863	81
864.950	496
865.036	-775
865.122	989
865.209	834
865.295	470
865.381	887
865.467	1663
865.553	1494
865.639	1962
865.726	5121
865.812	12166
865.898	25374
865.984	38976
866.070	73137
866.156	82399
866.242	18143
866.328	3701
866.414	787
866.499	1335
866.585	502
866.671	1219
866.757	301
866.843	468
866.928	-51
867.014	134
867.100	704
867.186	989
867.271	1192
867.357	3391
867.442	4758
867.528	1891
867.614	204
867.699	814
867.785	1262
867.870	2751
867.956	1785
868.041	1829
868.127	1543
868.212	3406
868.297	1784
868.383	1216
868.468	1625
868.553	3484
868.639	4384
868.724	8384
868.809	8626
868.894	1117
868.979	574
869.065	1278
869.150	-498
869.235	-65
869.320	-107
869.405	-133
869.490	-159
869.575	226
869.660	-123
869.745	615
869.830	-71
869.915	-255
870.000	-524
870.085	-223
870.169	55
870.254	373
870.339	-941
870.424	-812
870.509	-558
870.593	725
870.678	-540
870.763	-421
870.847	60
870.932	168
871.016	-3
871.101	161
871.186	-375
871.270	327
871.355	-1258
871.439	-781
871.523	30
871.608	-198
871.692	-907
871.777	666
871.861	-687
871.945	-744
872.030	-104
872.114	-243
872.198	-334
872.282	-739
872.367	-781
872.451	-400
872.535	-808
872.619	-395
872.703	-1269
872.787	-302
872.871	-224
872.955	-839
873.039	-105
873.123	2
873.207	555
873.291	406
873.375	-177
873.459	826
873.543	-590
873.627	-774
873.711	-545
873.794	-1537
873.878	-1216
873.962	-876
874.045	-486
874.129	-681
874.137	-695
874.213	-838
874.245	-461
874.296	153
874.352	-320
874.380	-559
874.460	-413
874.464	-407
874.547	-343
874.568	-415
874.631	-633
874.676	-588
874.714	-540
874.784	-463
874.798	-452
874.881	920
874.892	754
874.965	-359
874.999	-218
875.048	-40
875.107	-556
875.131	-758
875.215	-536
875.215	-535
875.298	-72
875.323	-250
875.381	-659
875.430	-38
875.465	376
875.538	-410
875.548	-517
875.631	228
875.646	95
875.714	-485
875.753	-156
875.798	164
875.861	-790
875.881	-1050
875.964	-103
875.968	-94
876.047	-40
876.076	57
876.130	250
876.183	-138
876.213	-371
876.291	295
876.296	347
876.379	133
876.398	140
876.462	95
876.506	29
876.545	-26
876.613	-197
876.628	-248
876.711	-386
876.721	-397
876.794	-297
876.828	-507
876.877	-866
876.935	-108
876.960	210
877.043	-33
877.043	-33
877.125	-39
877.150	-135
877.208	-311
877.258	-166
877.291	-134
877.365	-487
877.374	-509
877.456	-516
877.472	-448
877.539	-253
877.579	-18
877.622	350
877.687	88
877.704	-71
877.787	59
877.794	4
877.869	-321
877.901	-258
877.952	-310
878.008	-575
878.034	-615
878.115	-236
878.117	-229
878.199	-811
878.222	-577
878.282	64
878.329	-97
878.364	-276
878.437	146
878.447	231
878.529	-911
878.544	-722
878.611	-146
878.651	-307
878.694	-289
878.758	13
878.776	52
878.858	-352
878.865	-353
878.941	-245
878.972	-261
879.023	-463
879.078	-636
879.105	-603
879.185	121
879.187	135
879.269	-83
879.292	-175
879.351	-579
879.399	-649
879.433	-598
879.506	-521
879.516	-498
879.598	-610
879.613	-577
879.680	-565
879.720	-442
879.762	-307
879.827	-661
879.844	-747
879.926	-850
879.933	-789
880.007	-309
880.040	-354
880.089	-434
880.147	-170
880.171	139
880.253	983
880.254	988
880.335	1195
880.360	1196
880.417	1465
880.467	2501
880.499	3150
880.574	4146
880.580	4185
880.662	1182
880.680	760
880.744	-311
880.787	13
880.825	172
880.893	100
880.907	52
880.989	-213
881.000	-279
881.070	-265
881.106	-205
881.152	-361
881.213	-198
881.233	-16
881.315	-407
881.319	-388
881.396	-171
881.426	-239
881.478	-456
881.532	-78
881.559	69
881.639	-352
881.641	-353
881.722	-20
881.745	23
881.803	48
881.852	-18
881.885	-85
881.958	211
881.966	213
882.047	277
882.064	291
882.129	728
882.171	718
882.210	672
882.277	1102
882.291	1164
882.372	556
882.383	480
882.454	-116
882.489	-158
882.535	-125
882.596	-367
882.616	-451
882.697	-390
882.702	-413
882.778	-468
882.808	-253
882.859	-288
882.914	-542
882.940	-417
883.020	-48
883.021	-48
883.102	-88
883.127	-327
883.183	-394
883.233	106
883.264	43
883.339	-372
883.345	-358
883.426	-197
883.445	-204
883.507	-148
883.551	-115
883.587	-261
883.657	-23
883.668	24
883.749	-183
883.763	-262
883.830	-161
883.869	114
883.910	-59
883.975	-352
883.991	-216
884.072	176
884.081	260
884.152	14
884.187	-299
884.233	-302
884.292	-66
884.314	-89
884.394	-325
884.398	-341
884.475	-179
884.504	-55
884.555	-152
884.610	-275
884.636	-227
884.716	-384
884.716	-383
884.797	-375
884.821	-368
884.877	68
884.927	225
884.958	57
885.033	-272
885.038	-273
885.118	-346
885.139	-325
885.199	-378
885.244	-235
885.279	-90
885.350	-450
885.359	-480
885.439	-527
885.456	-484
885.520	-119
885.561	40
885.600	-71
885.667	-401
885.680	-369
885.760	131
885.773	149
885.840	-343
885.878	-353
885.920	-5
885.984	-127
886.000	-289
886.080	-283
886.089	-345
886.160	54
886.195	333
886.240	-61
886.300	-536
886.320	-445
886.400	-234
886.406	-199
886.480	111
886.511	117
886.560	5
886.616	-159
886.640	-180
886.720	-178
886.722	-178
886.800	-347
886.827	-423
886.879	-486
886.932	-607
886.959	-331
887.038	626
887.039	620
887.119	-247
887.143	-468
887.198	-77
887.248	223
887.278	31
887.354	-344
887.358	-333
887.437	-315
887.459	-239
887.517	-131
887.564	-199
887.596	-188
887.669	-115
887.676	-147
887.755	-407
887.774	-496
887.835	-247
887.880	-87
887.914	-93
887.985	17
887.994	15
888.073	-147
888.090	-171
888.153	-331
888.195	-507
888.232	-145
888.300	711
888.311	657
888.391	75
888.405	-21
888.470	-274
888.510	-473
888.549	-246
888.615	265
888.628	244
888.708	-29
888.720	-75
888.787	-375
888.825	-521
888.866	-127
888.930	481
888.945	312
889.024	-645
889.035	-765
889.103	-101
889.140	235
889.182	186
889.245	122
889.261	203
889.340	557
889.349	598
889.419	389
889.454	279
889.498	-89
889.559	-593
889.577	-639
889.656	-831
889.664	-845
889.735	159
889.768	636
889.814	428
889.873	151
889.978	-386
890.083	-226
890.187	593
890.292	5
890.397	212
890.501	-109
890.606	35
890.710	-416
890.815	333
890.919	-340
891.024	297
891.128	-357
891.233	-220
891.337	-705
891.442	-623
891.546	320
891.650	522
891.755	-750
891.859	1194
891.963	-506
892.068	952
892.172	-396
892.276	-143
892.380	-256
892.484	668
892.589	-799
892.693	842
892.797	-424
892.901	-44
893.005	-384
893.109	522
893.213	-431
893.317	233
893.421	-360
893.525	-478
893.629	-24
893.733	50
893.837	-768
893.941	677
894.045	213
894.148	-248
894.252	84
894.356	218
894.460	-572
894.564	493
894.667	-58
894.771	-282
894.875	-354
894.978	-270
895.082	-804
895.186	409
895.289	120
895.393	344
895.496	155
895.600	-603
895.703	-986
895.807	293
895.910	-79
896.014	166
896.117	-460
896.221	-247
896.324	603
896.427	1078
896.531	133
896.634	49
896.737	78
896.840	193
896.944	-310
897.047	176
897.150	187
897.253	-98
897.356	170
897.460	-189
897.563	-364
897.666	-548
897.769	64
897.872	769
897.975	-458
898.078	590
898.181	236
898.284	-324
898.387	-417
898.490	508
898.593	399
898.695	482
898.798	428
898.901	-170
899.004	452
899.107	232
899.209	-309
899.312	38
899.415	358
899.518	-22
899.620	10
899.723	194
899.826	500
899.928	154
900.031	-487
900.133	-191
900.236	-214
900.338	-614
900.441	-67
900.543	232
900.646	-495
900.748	98
900.851	-539
900.953	-423
901.055	532
901.158	1
901.260	-318
901.362	-254
901.465	-441
901.567	-406
901.669	-150
901.771	-595
901.873	-374
901.976	530
902.078	-962
902.180	602
902.282	201
902.384	499
902.486	-76
902.588	221
902.690	426
902.792	100
902.894	1639
902.996	-167
903.098	535
903.200	-54
903.302	-560
903.404	504
903.505	-413
903.607	482
903.709	-72
903.811	496
903.913	-596
904.014	524
904.116	452
904.218	612
904.319	207
904.421	898
904.523	2625
904.624	1443
904.726	96
904.827	1102
904.929	1683
905.030	558
905.132	-54
905.233	255
905.335	-505
905.436	-111
905.537	-1033
905.639	767
905.740	251
905.841	-108
905.943	1002
906.044	1505
906.145	1100
906.247	1198
906.348	124
906.449	-262
906.550	-423
906.651	38
906.752	-293
906.854	-248
906.955	-186
907.056	315
907.157	-618
907.258	430
907.359	192
907.460	230
907.561	-49
907.662	271
907.762	-240
907.863	140
907.964	-142
908.065	173
908.166	-9
908.267	-720
908.367	-506
908.468	-110
908.569	-71
908.670	-184
908.770	61
908.871	524
908.971	41
909.072	697
909.173	-32
909.273	-78
909.374	-212
909.474	-696
909.575	-247
909.675	-892
909.776	-315
909.876	-653
909.977	62
910.077	327
910.177	491
910.278	-177
910.378	-299
910.478	122
910.579	-237
910.679	-217
910.779	-395
910.879	150
910.980	101
911.080	69
911.180	-269
911.280	-28
911.380	-182
911.480	783
911.580	-637
911.680	324
911.780	119
911.880	172
911.980	-715
912.080	114
912.180	-506
912.280	418
912.380	-138
912.480	121
912.580	-16
912.679	155
912.779	250
912.879	1070
912.979	-165
913.078	11
913.178	-546
913.278	520
913.377	785
913.477	783
913.577	-75
913.676	842
913.776	-171
913.875	718
913.975	-66
914.074	363
914.174	-269
914.273	-493
914.373	-234
914.472	-363
914.572	-636
914.671	171
914.770	222
914.870	-105
914.969	-827
915.068	118
915.167	324
915.267	-43
915.366	86
915.465	239
915.564	516
915.663	193
915.763	-227
915.862	197
915.961	-748
916.060	279
916.159	-672
916.258	230
916.357	89
916.456	931
916.555	-725
916.654	136
916.752	509
916.851	567
916.950	-307
917.049	213
917.148	-368
917.247	480
917.345	-185
917.444	-394
917.543	-10
917.642	263
917.740	-247
917.839	365
917.937	464
918.036	685
918.135	-353
918.233	36
918.332	-603
918.430	-178
918.529	-308
918.627	-273
918.726	-295
918.824	91
918.923	-636
919.021	804
919.119	-327
919.218	-138
919.316	-401
919.414	-387
919.512	-614
919.611	618
919.709	28
919.807	-270
919.905	-481
920.003	721
920.102	-771
920.200	308
920.298	-782
920.396	232
920.494	-902
920.592	-53
920.690	-380
920.788	312
920.886	-397
920.984	267
921.082	-523
921.180	55
921.277	-332
921.375	14
921.473	59
921.571	186
921.669	-64
921.766	-119
921.864	-417
921.962	98
922.060	-581
922.157	-17
922.255	-201
922.352	129
922.450	313
922.548	419
922.645	-236
922.743	283
922.840	402
922.938	-328
923.035	-226
923.133	203
923.230	-527
923.327	478
923.425	469
923.522	463
923.619	488
923.717	-378
923.814	-486
923.911	122
924.008	411
924.106	150
924.203	-432
924.300	70
924.397	-371
924.494	580
924.591	-322
924.688	614
924.786	153
924.883	-114
924.979	-989
925.077	296
925.173	319
925.270	167
925.367	-495
925.464	642
925.561	98
925.658	624
925.755	530
925.852	1249
925.948	385
926.045	1610
926.142	2171
926.239	2396
926.335	1950
926.432	2847
926.529	2269
926.625	2862
926.722	1318
926.818	571
926.915	299
927.011	848
927.108	561
927.204	-193
927.301	37
927.397	-156
927.494	-681
927.590	-433
927.687	-391
927.783	511
927.879	-326
927.976	21
928.072	249
928.168	214
928.264	-352
928.361	-385
928.457	-698
928.553	-278
928.649	-629
928.745	544
928.841	-63
928.937	402
929.033	-301
929.129	-174
929.225	-782
929.321	-368
929.417	-1149
929.513	-129
929.609	-470
929.705	-780
929.801	-1081
929.897	170
929.993	-715
930.089	-192
930.184	-88
930.280	-726
930.376	-23
930.471	30
930.567	-718
930.663	-238
930.758	-780
930.854	-316
930.950	169
931.045	-75
931.141	-23
931.236	-139
931.332	-164
931.427	-367
931.523	-329
931.618	-213
931.714	-702
931.809	-823
931.905	-56
932.000	-214
932.095	-219
932.191	-49
932.286	60
932.381	-339
932.476	-1157
932.572	-36
932.667	-368
932.762	-31
932.857	-668
932.952	216
933.047	-547
933.142	223
933.237	-825
933.332	-240
933.427	-555
933.522	-160
933.617	-506
933.712	-283
933.807	-325
933.902	-602
933.997	511
934.092	-560
934.187	184
934.282	-129
934.376	-200
934.471	-450
934.566	-804
934.661	-490
934.755	-57
934.850	94
934.945	-54
935.039	116
935.134	-286
935.228	-85
935.323	-325
935.417	237
935.512	-1082
935.606	-97
935.701	-466
935.795	66
935.890	351
935.984	-378
936.079	-1114
936.173	-407
936.267	-810
936.362	-168
936.456	54
936.550	-330
936.644	-637
936.738	-80
936.833	-673
936.927	264
937.021	-1290
937.115	85
937.209	-930
937.303	381
937.397	-1081
937.491	285
937.585	-685
937.679	-180
937.773	-893
937.867	904
937.961	-274
938.055	-416
938.149	-170
938.243	802
938.337	-244
938.430	616
938.524	789
938.618	4104
938.712	1139
938.805	310
938.899	289
938.993	273
939.086	2256
939.180	5102
939.274	5404
939.367	653
939.461	-410
939.554	-181
939.648	-482
939.741	-261
939.835	-274
939.928	573
940.022	-586
940.115	579
940.208	-404
940.302	124
940.395	198
940.488	-430
940.582	-57
940.675	-748
940.768	-377
940.861	-275
940.954	-257
941.048	-120
941.141	-1066
941.234	-741
941.327	-1275
941.420	249
941.513	-972
941.606	-889
941.699	-41
941.792	-1123
941.885	-877
941.978	-529
942.071	-273
942.164	-387
942.257	-633
942.349	-334
942.442	-345
942.535	-1008
942.628	-887
942.721	234
942.813	-1377
942.906	128
942.999	-659
943.091	365
943.184	-781
943.277	-592
943.369	-143
943.462	-11
943.554	253
943.647	-800
943.739	-720
943.832	-475
943.924	-982
944.017	210
944.109	-1280
944.201	-500
944.294	-370
944.386	-607
944.478	-810
944.571	-13
944.663	-373
944.755	-805
944.847	149
944.940	401
945.032	-637
945.124	-824
945.216	413
945.308	-333
945.400	-1246
945.492	-4
945.584	-921
945.676	-111
945.768	-479
945.860	248
945.952	-150
946.044	1780
946.136	-587
946.228	-216
946.320	-700
946.412	-227
946.503	-662
946.595	715
946.687	-1422
946.779	-69
946.870	-646
946.962	-460
947.054	-778
947.145	99
947.237	-190
947.329	242
947.420	-888
947.512	-175
947.603	-1264
947.695	505
947.786	-997
947.878	181
947.969	-891
948.061	-901
948.152	-955
948.243	-222
948.335	556
948.426	-316
948.517	-594
948.609	3
948.700	-803
948.791	-155
948.882	-187
948.973	-770
949.065	-787
949.156	-549
949.247	-630
949.338	116
949.429	-563
949.520	-283
949.611	-998
949.702	137
949.793	-504
949.884	471
949.975	164
950.066	-1360
950.157	-634
950.247	695
950.338	-635
950.429	-295
950.520	-370
950.611	-79
950.701	-593
950.792	-915
950.883	-126
950.973	211
951.064	-1082
951.155	-46
951.245	-542
951.336	735
951.427	-1698
951.517	-317
951.608	-328
951.698	-196
951.788	75
951.879	-47
951.969	-375
952.060	-138
952.150	-241
952.240	301
952.331	-2209
952.421	1023
952.511	-1191
952.602	-584
952.692	-554
952.782	-217
952.872	-693
952.962	-508
953.052	-831
953.143	-524
953.233	-589
953.323	155
953.413	-1058
953.503	97
953.593	-919
953.683	-332
953.773	-564
953.863	-163
953.953	-301
954.042	149
954.132	-552
954.222	42
954.312	-415
954.402	86
954.492	-264
954.581	71
954.671	-779
954.761	-1194
954.850	123
954.940	-758
955.030	-28
955.119	-323
955.209	-513
955.298	-46
955.388	-816
955.477	386
955.567	-1190
955.656	-104
955.746	-521
955.835	-106
955.925	-853
956.014	315
956.103	-637
956.193	-253
956.282	-500
956.371	90
956.461	-524
956.550	-380
956.639	-143
956.728	-50
956.817	-358
956.906	-615
956.995	-176
957.085	-768
957.174	-319
957.263	-422
957.352	-351
957.441	-127
957.530	-774
957.619	-694
957.708	-1133
957.796	-622
957.885	-715
957.974	-184
958.063	515
958.152	-880
958.241	-687
958.329	-53
958.418	-985
958.507	-896
958.596	-691
958.684	-1392
958.773	-104
958.861	-670
958.950	744
959.039	-438
959.127	-1010
959.216	-158
959.304	-383
959.393	-94
959.481	-536
959.570	-65
959.658	-100
959.746	-122
959.835	383
959.923	759
960.011	-633
960.100	395
960.188	-1011
960.276	-856
960.365	-531
960.453	-897
960.541	-1054
960.629	-349
960.717	-1086
960.805	-1029
960.893	-344
960.981	-740
961.069	-288
961.158	-354
961.245	-729
961.333	-274
961.421	-1144
961.509	-586
961.597	-232
961.685	-344
961.773	-494
961.861	-695
961.949	17
962.036	-612
962.124	-630
962.212	-843
962.299	-394
962.387	-688
962.475	-864
962.562	-1154
962.650	-83
962.738	749
962.825	-251
962.913	-184
963.000	-1217
963.088	-326
963.175	143
963.263	-92
963.350	-564
963.438	-775
963.525	-1040
963.612	1112
963.700	536
963.787	2521
963.874	321
963.962	142
964.049	-689
964.136	-78
964.223	-900
964.310	338
964.398	-249
964.485	-362
964.572	87
964.659	223
964.746	443
964.833	-313
964.920	-718
965.007	99
965.094	-1245
965.181	-293
965.268	-222
965.355	-152
965.441	-408
965.528	-1172
965.615	-257
965.702	-425
965.789	-861
965.875	44
965.962	-440
966.049	-1379
966.136	90
966.222	-87
966.309	-623
966.395	-804
966.482	-555
966.569	-372
966.655	-867
966.742	-218
966.828	-1153
966.915	-260
967.001	-1494
967.087	-463
967.174	-901
967.260	249
967.347	-505
967.433	318
967.519	2533
967.605	-713
967.692	-787
967.778	-169
967.864	-1085
967.950	-176
968.036	-778
968.123	-265
968.209	-582
968.295	-958
968.381	-50
968.467	121
968.553	-1539
968.639	-77
968.725	-1181
968.811	233
968.897	162
968.983	14
969.069	-1557
969.154	-17
969.240	150
969.326	-477
969.412	-876
969.497	0
969.583	-1249
969.669	134
969.755	-440
969.840	-1013
969.926	-533
970.012	-880
970.097	-114
970.183	-1146
970.268	-1109
970.354	669
970.439	-1115
970.525	1477
970.610	-870
970.696	666
970.781	-351
970.866	-697
970.952	-508
971.037	-193
971.122	-738
971.208	-942
971.293	-187
971.378	-1444
971.463	-666
971.549	-266
971.634	-872
971.719	-6
971.804	-455
971.889	-676
971.974	-331
972.059	-497
972.144	-1379
972.229	85
972.314	-693
972.399	-146
972.484	-895
972.569	839
972.654	-1448
972.739	591
972.824	404
972.908	-500
972.993	-1027
973.078	-638
973.163	-1418
973.247	-678
973.332	-1742
973.417	487
973.501	-1194
973.586	-606
973.671	-1131
973.755	140
973.840	-297
973.924	-28
974.009	125
974.093	-654
974.178	876
974.262	357
974.346	-710
974.431	90
974.515	-1112
974.600	-290
974.684	-703
974.768	-406
974.852	-34
974.937	-1682
975.021	10
975.105	-737
975.189	-612
975.273	483
975.358	-1596
975.442	-1212
975.526	-460
975.610	-820
975.694	-1343
975.778	365
975.862	-1185
975.946	-1719
976.030	472
976.114	-588
976.198	-686
976.281	-640
976.365	65
976.449	-272
976.533	-647
976.617	-246
976.700	-326
976.784	-175
976.868	-1344
976.951	247
977.035	-1374
977.119	-383
977.202	-595
977.286	-616
977.369	-669
977.453	92
977.536	-1489
977.620	-815
977.703	-367
977.787	-750
977.870	-255
977.953	59
978.037	-1825
978.120	758
978.203	-1143
978.287	412
978.370	-313
978.453	13
978.536	-866
978.620	-260
978.703	-52
978.786	-385
978.869	-1123
978.952	-1075
979.035	728
979.118	262
979.201	-1072
979.284	-659
979.367	-1887
979.450	-534
979.533	-1079
979.616	-455
979.699	-858
979.782	-68
979.865	-923
979.948	-379
980.030	-590
980.113	-159
980.196	-1919
980.279	1098
980.361	-908
980.444	-807
980.526	-41
980.609	-37
980.692	-859
980.774	-635
980.857	-1133
980.939	281
981.022	-1039
981.104	-323
981.187	-763
981.269	296
981.352	-622
981.434	-1904
981.516	-1256
981.599	129
981.681	-342
981.763	241
981.846	-1464
981.928	398
982.010	-1012
982.092	-418
982.174	-267
982.256	-1194
982.339	-1021
982.421	-571
982.503	-712
982.585	-1406
982.667	-332
982.749	-12
982.831	-732
982.913	-1850
982.995	-120
983.077	-433
983.158	-417
983.240	-2207
983.322	-1042
983.404	65
983.486	-1750
983.568	-127
983.649	-887
983.731	382
983.813	-1245
983.894	-838
983.976	-1191
984.058	-706
984.139	-591
984.221	-1422
984.302	-234
984.384	-621
984.465	-803
984.547	-964
984.628	-762
984.710	-108
984.791	-1114
984.872	-869
984.954	-1219
985.035	249
985.116	-1569
985.198	-1082
985.279	557
985.360	-1307
985.441	-992
985.522	220
985.604	-1152
985.685	-1723
985.766	-205
985.847	257
985.928	-975
986.009	-485
986.090	-1274
986.171	-830
986.252	-623
986.333	-194
986.414	-533
986.495	-1143
986.576	-900
986.656	-437
986.737	-831
986.818	535
986.899	-944
986.980	-305
987.060	-894
987.141	-1328
987.222	-928
987.302	463
987.383	-1003
987.464	-1025
987.544	-1029
987.625	-841
987.705	-740
987.786	-1474
987.866	-559
987.947	-1019
988.027	-710
988.108	-806
988.188	-491
988.268	-16
988.349	-1708
988.429	-1044
988.509	-594
988.589	-957
988.670	-2377
988.750	344
988.830	-423
988.910	-676
988.990	-659
989.070	-923
989.151	-1383
989.231	-1427
989.311	-900
989.391	-362
989.471	-1483
989.551	-575
989.631	-718
989.711	-25
989.791	-2134
989.870	-733
989.950	-636
990.030	-672
990.110	-558
990.190	-1299
990.269	-1444
990.349	-1069
990.429	-803
990.509	-352
990.588	-1252
990.668	97
990.747	-981
990.827	-862
990.907	-1209
990.986	-520
991.066	-251
991.145	-511
991.225	-316
991.304	-695
991.383	-1582
991.463	-832
991.542	-1037
991.622	-1071
991.701	-1253
991.780	-1158
991.859	-745
991.939	-705
992.018	-992
992.097	-459
992.176	-596
992.256	-360
992.335	-1379
992.414	-332
992.493	-1869
992.572	-1064
992.651	86
992.730	-733
992.809	-1299
992.888	-854
992.967	-1236
993.046	-386
993.125	-1873
993.203	-630
993.282	-820
993.361	-151
993.440	-417
993.519	-613
993.597	-666
993.676	-1488
993.755	-1110
993.834	-534
993.912	-1261
993.991	710
994.069	-1038
994.148	-944
994.226	-1615
994.305	-777
994.384	-1028
994.462	314
994.540	-1649
994.619	-1358
994.697	-237
994.776	-1197
994.854	359
994.932	-1240
995.011	152
995.089	-784
995.167	-1183
995.245	-227
995.324	-1253
995.402	-563
995.480	-1345
995.558	-1322
995.636	-1635
995.714	-978
995.792	-1266
995.870	-1135
995.948	-1257
996.026	-339
996.104	-2532
996.182	-671
996.260	-1830
996.338	-1032
996.416	-1363
996.494	-880
996.572	187
996.649	-1095
996.727	-1841
996.805	-565
996.883	-1641
996.960	-1079
997.038	-619
997.116	-72
997.193	-1458
997.271	-647
997.348	-1918
997.426	-473
997.504	-1850
997.581	-400
997.658	-625
997.736	-2165
997.813	-1675
997.891	-542
997.968	-2139
998.046	-806
998.123	-1120
998.200	-936
998.277	-1941
998.355	-136
998.432	-1457
998.509	-1306
998.586	-742
998.663	-808
998.741	-1558
998.818	-951
998.895	-1641
998.972	-352
999.049	-918
999.126	-1503
999.203	-475
999.280	-974
999.357	-2142
999.434	-1249
999.511	-687
999.587	-791
999.664	-1514
999.741	-347
999.818	-784
999.895	-1267
999.971	-967
1000.048	-1160
1000.125	-567
1000.202	-1849
1000.278	-866
1000.355	-491
1000.431	-546
1000.508	-2191
1000.584	-1257
1000.661	-974
1000.738	-1847
1000.814	-1014
1000.890	-1409
1000.967	-974
1001.043	-567
1001.120	-1960
1001.196	-813
1001.272	-1025
1001.349	-931
1001.425	-218
1001.501	-669
1001.577	-1445
1001.654	-700
1001.730	-738
1001.806	-922
1001.882	-1718
1001.958	-876
1002.034	272
1002.110	-1381
1002.186	-1225
1002.262	-1624
1002.338	-1402
1002.414	-564
1002.490	-639
1002.566	-1217
1002.642	-1335
1002.718	-1261
1002.794	-1019
1002.870	-1629
1002.945	-902
1003.021	-1831
1003.097	-965
1003.173	-1452
1003.248	-894
1003.324	-1040
1003.400	-501
1003.475	-1163
1003.551	-690
1003.626	-1626
1003.702	-770
1003.777	-1033
1003.853	-1267
1003.928	-1934
1004.004	-851
1004.079	-543
1004.155	-1501
1004.230	-2419
1004.305	-125
1004.381	-1620
1004.456	-1472
1004.531	-1110
1004.607	-337
1004.682	-1588
1004.757	-848
1004.832	-1906
1004.907	-561
1004.982	-1301
1005.057	-1593
1005.133	-1813
1005.208	-862
1005.283	-1343
1005.358	-1219
1005.433	-1323
1005.508	-755
1005.583	-1992
1005.657	-714
1005.732	-1166
1005.807	-1395
1005.882	-796
1005.957	-968
1006.032	-1469
1006.106	-1375
1006.181	-1579
1006.256	-611
1006.331	-1546
1006.405	-1122
1006.480	-1595
1006.554	-651
1006.629	-1503
1006.704	-1333
1006.778	-2388
1006.853	-409
1006.927	-1454
1007.002	-1920
1007.076	-1177
1007.150	-358
1007.225	-1017
1007.299	-1161
1007.373	-2275
1007.448	-1249
1007.522	-1282
1007.596	-1070
1007.671	-2276
1007.745	-149
1007.819	-1629
1007.893	-990
1007.967	-1263
1008.041	-2109
1008.115	-454
1008.190	-1901
1008.264	-767
1008.338	-2312
1008.412	-2161
1008.486	-814
1008.560	-1805
1008.633	-734
1008.707	-1622
1008.781	-952
1008.855	-1801
1008.929	-718
1009.003	-1913
1009.076	-1276
1009.150	-1477
1009.224	-1099
1009.298	-979
1009.371	-1761
1009.445	-653
1009.519	-1696
1009.592	-2178
1009.666	-1324
1009.739	-1330
1009.813	-1820
1009.886	-540
1009.960	-1930
1010.033	-806
1010.107	-989
1010.180	-1549
1010.253	-221
1010.327	-1828
1010.400	-819
1010.473	-1335
1010.547	658
1010.620	-1507
1010.693	-1149
1010.766	-1305
1010.840	-204
1010.913	-845
1010.986	-1490
1011.059	-1172
1011.132	-1431
1011.205	-493
1011.278	-1559
1011.351	-1104
1011.424	-1146
1011.497	-1304
1011.570	-1014
1011.643	-1640
1011.716	-1209
1011.789	-1765
1011.862	-959
1011.934	-1401
1012.007	-1770
1012.080	-1102
1012.153	-1132
1012.225	-344
1012.298	-2624
1012.371	-1803
1012.443	-331
1012.516	-2016
1012.588	-831
1012.661	-708
1012.733	-1958
1012.806	-1391
1012.879	-1609
1012.951	-1049
1013.023	-1659
1013.096	-969
1013.168	-1048
1013.241	-1002
1013.313	-1009
1013.385	-1395
1013.458	-1841
1013.530	-1608
1013.602	-2299
1013.674	-1169
1013.746	-1489
1013.819	-2288
1013.891	-904
1013.963	-2195
1014.035	-1873
1014.107	-1034
1014.179	-890
1014.251	-1963
1014.323	-1492
1014.395	-1570
1014.467	-473
1014.539	-1255
1014.611	-1556
1014.683	-1402
1014.754	-1521
1014.826	-2173
1014.898	-136
1014.970	-1867
1015.042	139
1015.113	-1507
1015.185	-798
1015.257	-1940
1015.328	-783
1015.400	-2059
1015.471	-1057
1015.543	-2684
1015.615	-773
1015.686	-1564
1015.757	-1097
1015.829	-1720
1015.901	-1166
1015.972	-1892
1016.043	-1308
1016.115	-2091
1016.186	-1096
1016.257	-1745
1016.328	-952
1016.400	-623
1016.471	-2030
1016.542	-1976
1016.613	-1096
1016.685	-1919
1016.756	-433
1016.827	-1773
1016.898	-1798
1016.969	-1055
1017.040	-1779
1017.111	-1925
1017.182	-1420
1017.253	-1285
1017.324	-1185
1017.395	-1879
1017.466	-882
1017.537	-2219
1017.608	-1172
1017.678	-2613
1017.749	-752
1017.820	-1203
1017.891	-1281
1017.961	-1785
1018.032	-1477
1018.103	-1182
1018.173	-1305
1018.244	-1655
1018.315	-1815
1018.385	-2111
1018.456	-1279
1018.526	-2082
1018.597	-1448
1018.667	-1207
1018.738	-1567
1018.808	-1776
1018.878	-850
1018.949	-1395
1019.019	-635
1019.089	-2084
1019.160	-969
1019.230	-2265
1019.300	-861
1019.371	-2233
1019.441	-58
1019.511	-2085
1019.581	-1638
1019.651	-2169
1019.721	-1040
1019.791	-1636
1019.861	-1597
1019.931	-1816
1020.001	-2292
1020.071	-1967
1020.141	-1273
1020.211	-2118
1020.281	-1529
1020.351	-560
1020.421	-989
1020.491	-1778
1020.560	-1481
1020.630	-2036
1020.700	-1140
1020.770	-2380
1020.839	-1525
1020.909	-2006
1020.979	-1373
1021.048	-1234
1021.118	-879
1021.187	-1411
1021.257	-1461
1021.326	-1722
1021.396	-1450
1021.465	-1784
1021.535	-716
1021.604	-2278
1021.674	-495
1021.743	-1470
1021.812	-1538
1021.882	-1621
1021.951	-1657
1022.020	-2279
1022.089	-1507
1022.159	-1699
1022.228	-912
1022.297	-1551
1022.366	-1077
1022.435	-1822
1022.504	-1095
1022.573	-2133
1022.642	-1065
1022.711	-2060
1022.781	-1009
1022.849	-1941
1022.918	-1663
1022.987	-1153
1023.056	-1862
1023.125	-1612
1023.194	-1163
1023.263	-1708
1023.331	-1322
1023.400	-1860
1023.469	-1383
1023.538	-2347
1023.606	-1600
1023.675	-1888
1023.744	-635
1023.812	-1608
1023.881	-1454
1023.949	-1934
1024.018	-478
1024.086	-2390
1024.155	-925
1024.223	-1845
1024.292	-1362
1024.360	-1208
1024.429	-1675
1024.497	-2230
1024.565	-1553
1024.634	-2045
1024.702	-1120
1024.770	-1400
1024.838	-1680
1024.907	-1033
1024.975	-1353
1025.043	-1565
1025.111	-2062
1025.179	-1765
1025.247	-1734
1025.315	-1798
1025.383	-1796
1025.451	-1349
1025.519	-1880
1025.587	-2764
1025.655	-1267
1025.723	-2375
1025.791	-1878
1025.859	-1537
1025.927	-1184
1025.995	-2312
1026.062	-477
1026.130	-2632
1026.198	-1480
1026.266	-1961
1026.333	-1237
1026.401	-1545
1026.469	-1471
1026.536	-2635
1026.604	-763
1026.671	-2558
1026.739	-1707
1026.806	-2278
1026.874	-1719
1026.941	-1475
1027.009	-2036
1027.076	-1240
1027.144	-928
1027.211	-1983
1027.278	-1252
1027.345	-1654
1027.413	-771
1027.480	-1230
1027.547	-1086
1027.614	-2210
1027.682	-1984
1027.749	-1762
1027.816	-1207
1027.883	-2121
1027.950	-1562
1028.017	-1754
1028.084	-1866
1028.151	-2007
1028.218	-2422
1028.285	-1767
1028.352	-1343
1028.419	-1848
1028.486	-1986
1028.553	-1741
1028.619	-2067
1028.686	-1877
1028.753	-1620
1028.820	-2224
1028.886	-1780
1028.953	-1648
1029.020	-842
1029.086	-1453
1029.153	-1752
1029.220	-2082
1029.286	-1865
1029.353	-1989
1029.419	-2060
1029.486	-1105
1029.552	-1507
1029.619	-1799
1029.685	-606
1029.751	-2613
1029.818	-1716
1029.884	-1866
1029.951	-1007
1030.017	-1430
1030.083	-641
1030.149	-2291
1030.216	-873
1030.282	-1771
1030.348	-1891
1030.414	-2050
1030.480	-1806
1030.546	-1777
1030.612	-634
1030.678	-2316
1030.744	-1630
1030.810	-2779
1030.876	-718
1030.942	-1920
1031.008	-608
1031.074	-2015
1031.140	-1597
1031.206	-1808
1031.272	-1653
1031.337	-1334
1031.403	-1440
1031.469	-1584
1031.534	-2081
1031.600	-1880
1031.666	-1701
1031.731	-1424
1031.797	-1382
1031.863	-1759
1031.928	-1605
1031.994	-2302
1032.059	-1290
1032.125	-2144
1032.190	-1195
1032.256	-2421
1032.321	-1784
1032.386	-1904
1032.452	-1345
1032.517	-1921
1032.582	-2021
1032.647	-1602
1032.713	-1402
1032.778	-1245
1032.843	-1854
1032.908	-2069
1032.974	-1855
1033.039	-1702
1033.104	-1389
1033.169	-1853
1033.234	-2012
1033.299	-1352
1033.364	-1723
1033.429	-2470
1033.494	-1423
1033.559	-1445
1033.624	-1155
1033.688	-1503
1033.753	-1420
1033.818	-2107
1033.883	-2376
1033.948	-1723
1034.013	-1599
1034.077	-2115
1034.142	-1163
1034.207	-1792
1034.271	-1538
1034.336	-1649
1034.400	-602
1034.465	-2180
1034.530	-1052
1034.594	-1658
1034.658	-1276
1034.723	-2479
1034.787	-1560
1034.852	-1638
1034.916	-1525
1034.981	-2256
1035.045	-1829
1035.109	-1862
1035.173	-1651
1035.238	-2198
1035.302	-1147
1035.366	-1857
1035.430	-954
1035.495	-1955
1035.559	-1358
1035.623	-1845
1035.687	-1437
1035.751	-1784
1035.815	-1502
1035.879	-1324
1035.943	-1959
1036.007	-1770
1036.071	-1724
1036.135	-1793
1036.198	-1470
1036.262	-2078
1036.326	-1166
1036.390	-1784
1036.454	-891
1036.517	-1513
1036.581	-1715
1036.645	-2229
1036.709	-841
1036.772	-1660
1036.836	-1858
1036.900	-1668
1036.963	-1421
1037.026	-1839
1037.090	-2064
1037.154	-1418
1037.217	-1403
1037.280	-2143
1037.344	-1571
1037.407	-2152
1037.471	-558
1037.534	-1904
1037.597	-1380
1037.661	-2264
1037.724	-1843
1037.787	-2246
1037.850	-1645
1037.913	-2205
1037.977	-725
1038.040	-1988
1038.103	-1926
1038.166	-1617
1038.229	-1911
1038.292	-2627
1038.355	-1605
1038.418	-1703
1038.481	-1710
1038.544	-1977
1038.607	-984
1038.670	-1757
1038.732	-1405
1038.795	-2495
1038.858	-1743
1038.921	-1223
1038.984	-1194
1039.046	-1986
1039.109	-1803
1039.172	-1214
1039.234	-1567
1039.297	-2416
1039.360	-1013
1039.422	-2681
1039.485	-2127
1039.547	-2332
1039.610	-2069
1039.672	-1715
1039.734	-1040
1039.797	-1972
1039.859	-2403
1039.922	-2134
1039.984	-1629
1040.046	-1387
1040.109	-2034
1040.171	-2389
1040.233	-922
1040.295	-2272
1040.358	-895
1040.420	-1659
1040.482	-1544
1040.544	-2728
1040.606	-1519
1040.668	-1993
1040.730	-2029
1040.792	-2560
1040.854	-1739
1040.916	-1413
1040.978	-1662
1041.040	-980
1041.102	-2446
1041.164	-1699
1041.225	-1700
1041.287	-2668
1041.349	-2275
1041.411	-2170
1041.472	-1538
1041.534	-2772
1041.596	-1173
1041.657	-2332
1041.719	-2618
1041.781	-2193
1041.842	-1656
1041.904	-1719
1041.965	-2156
1042.027	-2167
1042.088	-1709
1042.150	-2493
1042.211	-1686
1042.272	-2536
1042.334	-1366
1042.395	-1437
1042.456	-2219
1042.518	-2517
1042.579	-2234
1042.640	-1508
1042.701	-1978
1042.763	-2520
1042.824	-1528
1042.885	-2435
1042.946	-1345
1043.007	-2566
1043.068	-2396
1043.129	-2792
1043.190	-1966
1043.251	-2033
1043.312	-2221
1043.373	-1005
1043.434	-1868
1043.495	-2215
1043.556	-901
1043.616	-1287
1043.677	-1629
1043.738	-2471
1043.799	-1793
1043.859	-2341
1043.920	-1791
1043.981	-2391
1044.041	-1905
1044.102	-1986
1044.162	-1456
1044.223	-2273
1044.284	-1509
1044.344	-2314
1044.405	-1091
1044.465	-2663
1044.525	-2174
1044.586	-2085
1044.646	-1631
1044.707	-1381
1044.767	-2189
1044.827	-1848
1044.887	-1452
1044.948	-2167
1045.008	-1240
1045.068	-1514
1045.128	-1232
1045.188	-1942
1045.249	-1604
1045.309	-1752
1045.369	-1072
1045.429	-2015
1045.489	-2271
1045.549	-2154
1045.609	-2017
1045.669	-1220
1045.729	-1642
1045.789	-2204
1045.848	-1700
1045.908	-1816
1045.968	-1434
1046.028	-1309
1046.088	-1270
1046.147	-1925
1046.207	-1501
1046.267	-1890
1046.326	-1186
1046.386	-1202
1046.446	-1081
1046.505	-1194
1046.565	-1084
1046.624	-1004
1046.684	-946
1046.743	-1349
1046.803	-305
1046.862	-194
1046.922	0
