'Start Wavelength	183.907
'End Wavelength	1046.922
'Gate Delay	5.000
'Gate Width (ms)	1.050
'Laser Output Level	0.000
'X Position	0.000
'Y Position	0.000
'Z Position	0.000
'Grid Point Number	1.000
'Shot Number	100.000
183.907	197.000
183.977	-381.000
184.047	-652
184.116	-99
184.186	125
184.256	247
184.325	351
184.395	-20
184.465	481
184.534	558
184.604	-461
184.674	290
184.743	117
184.813	188
184.883	711
184.952	-243
185.022	-167
185.092	897
185.161	-581
185.231	619
185.301	-368
185.370	878
185.440	-167
185.509	148
185.579	37
185.649	466
185.718	-286
185.788	567
185.857	-678
185.927	-225
185.996	552
186.066	325
186.136	275
186.205	51
186.275	13
186.344	145
186.414	-179
186.483	-54
186.553	1279
186.622	1888
186.692	254
186.761	248
186.831	481
186.900	-149
186.970	670
187.039	-160
187.109	285
187.178	545
187.248	-4
187.317	1074
187.387	1186
187.456	597
187.526	435
187.595	1191
187.664	-518
187.734	1259
187.803	616
187.873	516
187.942	564
188.012	869
188.081	106
188.150	71
188.220	1190
188.289	1315
188.358	1037
188.428	585
188.497	-322
188.567	725
188.636	460
188.705	513
188.775	28
188.844	617
188.913	563
188.983	399
189.052	151
189.121	-231
189.191	751
189.260	1300
189.329	1277
189.399	532
189.468	839
189.537	217
189.606	730
189.676	727
189.745	699
189.814	1007
189.883	514
189.953	681
190.022	507
190.091	3300
190.161	4353
190.230	1201
190.299	547
190.368	1005
190.437	320
190.507	717
190.576	-134
190.645	998
190.714	384
190.783	117
190.853	1508
190.922	575
190.991	637
191.060	626
191.129	84
191.198	1230
191.268	1154
191.337	233
191.406	551
191.475	504
191.544	160
191.613	942
191.682	772
191.752	570
191.821	137
191.890	740
191.959	329
192.028	500
192.097	679
192.166	760
192.235	779
192.304	-83
192.373	50
192.442	1095
192.511	652
192.580	250
192.650	333
192.719	811
192.788	1062
192.857	1055
192.926	301
192.995	1144
193.064	935
193.133	413
193.202	338
193.271	474
193.340	619
193.409	440
193.478	967
193.547	1301
193.615	1033
193.684	1039
193.753	1565
193.822	1468
193.891	324
193.960	1110
194.029	909
194.098	888
194.167	230
194.236	945
194.305	522
194.374	984
194.443	92
194.512	1458
194.580	420
194.649	1548
194.718	1142
194.787	1039
194.856	1386
194.925	1338
194.994	1211
195.062	1632
195.131	1215
195.200	1884
195.269	2188
195.338	1271
195.407	505
195.475	1849
195.544	1579
195.613	1722
195.682	1720
195.751	2422
195.819	2052
195.888	1404
195.957	2093
196.026	2244
196.094	1386
196.163	1684
196.232	948
196.301	1689
196.369	1084
196.438	494
196.507	206
196.576	744
196.644	635
196.713	739
196.782	800
196.850	708
196.919	825
196.988	1203
197.056	534
197.125	721
197.194	853
197.262	197
197.331	164
197.400	722
197.468	531
197.537	478
197.606	726
197.674	1821
197.743	3772
197.812	2297
197.880	3546
197.949	3038
198.017	2991
198.086	2432
198.155	1507
198.223	1679
198.292	4284
198.360	2417
198.429	474
198.497	749
198.566	2674
198.635	5304
198.703	2106
198.772	1119
198.840	4943
198.909	6163
198.977	766
199.046	1250
199.114	564
199.183	1408
199.251	600
199.320	1087
199.388	823
199.457	844
199.525	1106
199.594	1400
199.662	1813
199.731	1308
199.799	136
199.867	1728
199.936	297
200.004	1513
200.073	1129
200.141	1480
200.210	757
200.278	1341
200.346	1635
200.415	2731
200.483	2503
200.552	2121
200.620	1483
200.688	1608
200.757	672
200.825	665
200.893	1073
200.962	1082
201.030	639
201.098	1119
201.167	1261
201.235	1316
201.303	666
201.372	2163
201.440	1557
201.508	2353
201.577	1671
201.645	1919
201.713	1250
201.781	1956
201.850	2777
201.918	1682
201.986	560
202.055	1348
202.123	978
202.191	1645
202.259	991
202.327	1262
202.396	405
202.464	1968
202.532	2872
202.600	10220
202.669	6829
202.737	2861
202.805	1429
202.873	1534
202.941	1229
203.009	1875
203.078	1228
203.146	1232
203.214	975
203.282	927
203.350	924
203.418	1452
203.487	1404
203.555	1467
203.623	1294
203.691	1485
203.759	437
203.827	838
203.895	976
203.963	1211
204.031	998
204.099	1609
204.168	1019
204.236	1871
204.304	2277
204.372	1667
204.440	970
204.508	764
204.576	818
204.644	967
204.712	402
204.780	1407
204.848	1764
204.916	1091
204.984	443
205.052	1417
205.120	1204
205.188	821
205.256	462
205.324	1482
205.392	671
205.460	1050
205.528	666
205.596	2151
205.664	882
205.732	1937
205.799	5488
205.867	9076
205.935	1729
206.003	2101
206.071	1219
206.139	1255
206.207	1738
206.275	1293
206.343	409
206.411	1897
206.478	1052
206.546	2245
206.614	1151
206.682	1506
206.750	1425
206.818	2668
206.885	2996
206.953	1028
207.021	1816
207.089	2124
207.157	1128
207.225	1539
207.292	1057
207.360	1594
207.428	1198
207.496	1587
207.563	1135
207.631	264
207.699	609
207.767	1044
207.834	842
207.902	2401
207.970	1183
208.038	1328
208.105	884
208.173	2404
208.241	2880
208.309	2227
208.376	1914
208.444	4747
208.512	3416
208.579	1340
208.647	2810
208.715	3767
208.782	2361
208.850	1776
208.918	1549
208.985	2048
209.053	2173
209.120	1892
209.188	1276
209.256	1967
209.323	2072
209.391	3430
209.459	3203
209.526	2612
209.594	1077
209.661	2117
209.729	982
209.796	2345
209.864	2602
209.932	1473
209.999	2521
210.067	3220
210.134	2761
210.202	2473
210.269	2601
210.337	4496
210.404	2662
210.472	2291
210.539	2131
210.607	2621
210.674	3330
210.742	2214
210.809	1662
210.877	2774
210.944	4428
211.012	2342
211.079	3759
211.146	2714
211.214	2922
211.281	4148
211.349	4089
211.416	3267
211.484	2746
211.551	2750
211.618	2472
211.686	2410
211.753	1461
211.821	2285
211.888	3165
211.955	3198
212.023	1945
212.090	2929
212.157	2931
212.225	3483
212.292	6517
212.359	11630
212.427	25786
212.494	13568
212.561	6265
212.629	3486
212.696	2784
212.763	3311
212.831	2387
212.898	3387
212.965	2188
213.032	2865
213.100	3385
213.167	2850
213.234	4103
213.301	2969
213.369	2465
213.436	2643
213.503	2218
213.570	3104
213.638	2273
213.705	2372
213.772	2192
213.839	2917
213.906	3665
213.973	3783
214.041	2109
214.108	2502
214.175	3062
214.242	2678
214.309	2187
214.376	2403
214.444	2345
214.511	3826
214.578	2710
214.645	3502
214.712	3082
214.779	3712
214.846	2585
214.913	3818
214.980	3043
215.048	4223
215.115	5272
215.182	5208
215.249	4000
215.316	3486
215.383	3303
215.450	2985
215.517	2644
215.584	2797
215.651	2861
215.718	3503
215.785	3651
215.852	3691
215.919	4241
215.986	4381
216.053	3223
216.120	3275
216.187	3542
216.254	4486
216.321	3511
216.388	4264
216.455	4467
216.522	4702
216.589	4590
216.656	8979
216.722	7429
216.789	4386
216.856	3387
216.923	3611
216.990	3608
217.057	3744
217.124	5362
217.191	4055
217.258	4754
217.324	5342
217.391	4096
217.458	3278
217.525	2932
217.592	3510
217.659	2937
217.725	4445
217.792	6296
217.859	6348
217.926	3189
217.993	3019
218.059	3606
218.126	2802
218.193	3233
218.260	2742
218.327	2304
218.393	4152
218.460	3258
218.527	3297
218.594	4271
218.660	7327
218.727	6908
218.794	3876
218.860	3345
218.927	3622
218.994	2804
219.061	2856
219.127	4821
219.194	7891
219.261	3888
219.327	2641
219.394	3254
219.461	1427
219.527	3402
219.594	5879
219.661	3748
219.727	2132
219.794	3834
219.860	3625
219.927	4600
219.994	6729
220.060	11273
220.127	9893
220.193	5073
220.260	4439
220.326	4764
220.393	4770
220.460	4620
220.526	4579
220.593	2723
220.659	4557
220.726	4280
220.792	12300
220.859	9465
220.925	7121
220.992	8277
221.058	13091
221.125	18165
221.191	14108
221.258	6235
221.324	4813
221.391	4582
221.457	3933
221.524	4026
221.590	5639
221.657	18008
221.723	13248
221.789	10987
221.856	10803
221.922	5837
221.989	5591
222.055	4073
222.121	4487
222.188	6985
222.254	6087
222.321	3698
222.387	3237
222.453	3671
222.520	3630
222.586	1662
222.652	3533
222.719	3816
222.785	4360
222.851	2524
222.918	3096
222.984	3695
223.050	3017
223.116	2051
223.183	3890
223.249	2466
223.315	2987
223.382	2875
223.448	3146
223.514	2550
223.580	2340
223.647	3262
223.713	3010
223.779	2961
223.845	3580
223.911	3706
223.978	3244
224.044	3889
224.110	3634
224.176	3086
224.242	3482
224.309	2369
224.375	3466
224.441	3059
224.507	2565
224.573	2819
224.639	3233
224.705	1785
224.772	3190
224.838	2753
224.904	4584
224.970	2207
225.036	2647
225.102	3242
225.168	3906
225.234	4395
225.300	3906
225.366	2602
225.432	2897
225.499	3315
225.565	3818
225.631	4792
225.697	4165
225.763	4161
225.829	4050
225.895	5047
225.961	7848
226.027	5739
226.093	6046
226.159	5908
226.225	7191
226.291	10000
226.357	12803
226.423	9283
226.489	8534
226.554	5562
226.620	5515
226.686	7472
226.752	10172
226.818	9954
226.884	19302
226.950	15715
227.016	8514
227.082	7307
227.148	6218
227.214	7005
227.279	6304
227.345	5694
227.411	7081
227.477	8407
227.543	19145
227.609	20604
227.674	11402
227.740	7266
227.806	7407
227.872	5420
227.938	5234
228.003	6977
228.069	4884
228.135	3520
228.201	3752
228.267	3859
228.332	5448
228.398	6677
228.464	5290
228.530	3441
228.595	4009
228.661	4081
228.727	7591
228.792	7310
228.858	4640
228.924	3993
228.990	7247
229.055	5623
229.121	7091
229.187	4529
229.252	5657
229.318	4196
229.384	4672
229.449	5706
229.515	3162
229.581	2586
229.646	4913
229.712	5269
229.777	10620
229.843	12157
229.909	9469
229.974	8429
230.040	8042
230.105	6415
230.171	8004
230.236	8701
230.302	12597
230.368	10286
230.433	6017
230.499	6509
230.564	6666
230.630	5098
230.695	6036
230.761	5061
230.826	4773
230.892	8079
230.957	5496
231.023	4372
231.088	6667
231.154	5335
231.219	6332
231.284	7708
231.350	8218
231.415	4897
231.481	5285
231.546	4618
231.612	5369
231.677	3445
231.742	3668
231.808	5734
231.873	3922
231.939	3104
232.004	9940
232.069	9301
232.135	5847
232.200	3859
232.265	5317
232.331	3947
232.396	3379
232.461	2691
232.527	3918
232.592	4773
232.657	4944
232.723	7097
232.788	6021
232.853	5417
232.918	3889
232.984	3298
233.049	4508
233.114	6180
233.179	7066
233.245	8735
233.310	11085
233.375	3636
233.440	4238
233.506	3477
233.571	3847
233.636	3357
233.701	4624
233.766	6964
233.832	9432
233.897	5380
233.962	4969
234.027	7840
234.092	7281
234.157	5355
234.222	5532
234.288	7981
234.353	19426
234.418	17869
234.483	12669
234.548	10001
234.613	8312
234.678	8245
234.743	9139
234.808	19668
234.873	13629
234.938	8304
235.004	6639
235.069	6411
235.134	6117
235.199	5921
235.264	6519
235.329	4392
235.394	5835
235.459	6240
235.524	6605
235.589	5442
235.654	4906
235.719	4122
235.784	5217
235.849	5743
235.913	11216
235.978	11483
236.043	12761
236.108	6206
236.173	6216
236.238	6816
236.303	5538
236.368	4813
236.433	9255
236.498	12790
236.563	7975
236.627	9902
236.692	26578
236.757	22131
236.822	12410
236.887	11721
236.952	9401
237.017	6459
237.081	9184
237.146	9391
237.211	12261
237.276	26225
237.341	50460
237.405	26564
237.470	12462
237.535	11088
237.600	7747
237.664	7451
237.729	5614
237.794	5741
237.859	8415
237.923	9962
237.988	6692
238.053	10169
238.118	10588
238.182	24874
238.247	23572
238.312	12093
238.376	10038
238.441	6673
238.506	7047
238.570	3948
238.635	6060
238.700	4849
238.764	5367
238.829	11751
238.893	15015
238.958	8674
239.023	10071
239.087	6667
239.152	6348
239.216	5524
239.281	5912
239.346	5618
239.410	5611
239.475	6288
239.539	23768
239.604	19022
239.668	8083
239.733	7621
239.797	13714
239.862	34625
239.926	33228
239.991	13654
240.055	8341
240.120	6986
240.184	6675
240.249	4951
240.313	5158
240.378	5879
240.442	15210
240.507	22760
240.571	8898
240.635	11223
240.700	15323
240.764	8208
240.829	6375
240.893	3924
240.957	6578
241.022	13587
241.086	23831
241.151	12155
241.215	5720
241.279	8408
241.344	14023
241.408	9090
241.472	7866
241.537	8478
241.601	8263
241.665	6460
241.730	6862
241.794	7812
241.858	6757
241.922	7404
241.987	7645
242.051	5875
242.115	5627
242.179	6060
242.244	5958
242.308	7501
242.372	8122
242.436	7856
242.501	7867
242.565	5679
242.629	6259
242.693	6451
242.757	4950
242.822	5706
242.886	7256
242.950	6097
243.014	6495
243.078	8392
243.142	9340
243.206	6783
243.271	8845
243.335	8410
243.399	13019
243.463	37394
243.527	87237
243.591	32855
243.655	15941
243.719	9716
243.783	11790
243.847	15554
243.911	20352
243.975	23393
244.040	17473
244.104	10012
244.168	8801
244.232	12837
244.296	17757
244.360	18487
244.424	11375
244.488	7970
244.552	9241
244.615	5862
244.679	6771
244.743	9010
244.807	10362
244.871	6759
244.935	7235
244.999	5030
245.063	6913
245.127	7987
245.191	14199
245.255	13313
245.319	11888
245.383	10509
245.446	8153
245.510	6404
245.574	7964
245.638	7762
245.702	7681
245.766	17518
245.829	11800
245.893	8505
245.957	6896
246.021	9147
246.085	9199
246.149	10509
246.212	23590
246.276	36238
246.340	17163
246.404	12092
246.467	11672
246.531	17982
246.595	11003
246.659	10874
246.722	10397
246.786	14042
246.850	13826
246.913	17602
246.977	8851
247.041	8757
247.104	10291
247.168	9732
247.232	22836
247.295	46096
247.359	24386
247.423	11583
247.486	22174
247.550	13065
247.614	11683
247.677	15937
247.741	10550
247.804	8164
247.868	11876
247.932	20837
247.995	45621
248.059	17762
248.122	10289
248.186	13371
248.249	22660
248.313	69893
248.376	75443
248.440	49761
248.503	21127
248.567	17437
248.630	23501
248.694	32781
248.757	40400
248.821	76953
248.884	48826
248.948	42693
249.011	59960
249.075	88953
249.138	78137
249.202	33085
249.265	22059
249.328	22839
249.392	19099
249.455	15370
249.519	13254
249.582	16522
249.645	26214
249.709	18758
249.772	12646
249.835	13031
249.899	14832
249.962	12924
250.025	13110
250.089	29624
250.152	40749
250.215	21466
250.279	16461
250.342	16397
250.405	15723
250.468	13693
250.532	18922
250.595	29117
250.658	89024
250.721	138466
250.785	59060
250.848	31905
250.911	20567
250.974	18035
251.038	24218
251.101	48146
251.164	27418
251.227	27465
251.290	25266
251.354	35590
251.417	118129
251.480	120780
251.543	90893
251.606	199198
251.669	162671
251.732	72414
251.795	70049
251.859	69862
251.922	136203
251.985	86284
252.048	35169
252.111	27060
252.174	26069
252.237	44851
252.300	92351
252.363	97469
252.426	165929
252.489	82243
252.552	41353
252.615	29509
252.678	32070
252.741	69554
252.804	90254
252.867	173208
252.930	115381
252.993	61099
253.056	38533
253.119	28101
253.182	23809
253.245	37833
253.308	29925
253.371	27219
253.434	26193
253.497	23075
253.559	42779
253.622	31640
253.685	39297
253.748	42202
253.811	20524
253.874	24976
253.937	23844
254.000	18872
254.062	32057
254.125	47275
254.188	38013
254.251	35186
254.314	18553
254.376	32977
254.439	38335
254.502	32952
254.565	33104
254.628	55910
254.690	36396
254.753	19722
254.816	16908
254.878	18638
254.941	32676
255.004	34899
255.067	16568
255.129	17671
255.192	11380
255.255	10873
255.317	13678
255.380	9422
255.443	7283
255.505	7311
255.568	7637
255.631	8301
255.693	9668
255.756	7850
255.819	8275
255.881	8393
255.944	7673
256.006	6689
256.069	7614
256.132	6574
256.194	10720
256.257	21592
256.319	17328
256.382	16533
256.444	12534
256.507	10289
256.569	8869
256.632	8119
256.694	11357
256.757	17572
256.819	40288
256.882	21483
256.944	13623
257.007	12868
257.069	16407
257.132	9705
257.194	8986
257.257	9485
257.319	9391
257.381	7714
257.444	14949
257.506	48803
257.569	63321
257.631	55698
257.693	31638
257.756	15149
257.818	14764
257.880	9175
257.943	9982
258.005	9367
258.067	7994
258.130	9187
258.192	11073
258.254	23388
258.317	13929
258.379	10662
258.441	28002
258.503	24870
258.566	26684
258.628	34240
258.690	10678
258.753	12220
258.815	22754
258.877	14486
258.939	10891
259.001	8895
259.064	8345
259.126	11924
259.188	14298
259.250	10761
259.312	16221
259.375	36593
259.437	24799
259.499	11433
259.561	11038
259.623	11432
259.685	9234
259.747	10195
259.809	26620
259.872	45545
259.934	66824
259.996	58350
260.058	18958
260.120	10856
260.182	10398
260.244	9784
260.306	8135
260.368	9193
260.430	9121
260.492	12813
260.554	29817
260.616	26964
260.678	39479
260.740	50999
260.802	16440
260.864	13226
260.926	11191
260.988	11067
261.050	10491
261.112	16089
261.174	40826
261.236	36995
261.298	14945
261.359	22934
261.421	31511
261.483	12484
261.545	11344
261.607	8316
261.669	8307
261.731	15819
261.793	36169
261.854	18966
261.916	12854
261.978	9427
262.040	10716
262.102	8782
262.164	13986
262.225	12727
262.287	9480
262.349	23601
262.411	19669
262.472	10022
262.534	16139
262.596	31110
262.658	13100
262.719	8210
262.781	12036
262.843	28963
262.904	14838
262.966	12645
263.028	14159
263.090	55573
263.151	137411
263.213	47245
263.275	26245
263.336	14352
263.398	11900
263.459	8668
263.521	9471
263.583	21729
263.644	16700
263.706	8165
263.767	7234
263.829	6390
263.891	6048
263.952	4637
264.014	5720
264.075	7647
264.137	14344
264.198	11861
264.260	5960
264.321	5459
264.383	14404
264.444	26133
264.506	9388
264.567	7740
264.629	10780
264.690	14405
264.752	11331
264.813	8427
264.875	6743
264.936	6651
264.998	6632
265.059	5788
265.120	7165
265.182	8504
265.243	18121
265.305	18563
265.366	8114
265.427	6081
265.489	7607
265.550	5961
265.611	8745
265.673	8841
265.734	6737
265.795	5847
265.857	5833
265.918	6190
265.979	8665
266.040	29527
266.102	26797
266.163	12007
266.224	13542
266.286	8870
266.347	7377
266.408	7861
266.469	9038
266.530	7070
266.592	6987
266.653	15202
266.714	26642
266.775	9778
266.836	7320
266.898	7299
266.959	10852
267.020	9242
267.081	7900
267.142	7712
267.203	8342
267.264	7599
267.326	10078
267.387	8528
267.448	7401
267.509	8038
267.570	8141
267.631	7129
267.692	6992
267.753	7755
267.814	7240
267.875	14881
267.936	30392
267.997	13332
268.058	12432
268.119	8919
268.180	9340
268.241	7783
268.302	6506
268.363	7184
268.424	7803
268.485	8074
268.546	6338
268.607	4591
268.668	5892
268.729	4992
268.790	7396
268.851	8136
268.912	19005
268.972	23708
269.033	13564
269.094	7780
269.155	6761
269.216	6179
269.277	8381
269.338	6418
269.398	6707
269.459	8927
269.520	12694
269.581	15581
269.642	18605
269.702	13078
269.763	10404
269.824	8534
269.885	11022
269.945	18370
270.006	8644
270.067	6632
270.128	6981
270.188	6396
270.249	8033
270.310	6148
270.370	6660
270.431	6545
270.492	6243
270.553	6913
270.613	17759
270.674	30577
270.734	14058
270.795	8306
270.856	12864
270.916	10876
270.977	8344
271.038	10558
271.098	10795
271.159	15743
271.219	16724
271.280	7720
271.340	7386
271.401	8996
271.462	17619
271.522	12048
271.583	9343
271.643	9133
271.704	8992
271.764	10614
271.825	23119
271.885	68815
271.946	94298
272.006	34502
272.066	41899
272.127	73101
272.187	29405
272.248	17234
272.308	16738
272.369	48314
272.429	29189
272.489	21797
272.550	23698
272.610	25385
272.671	20859
272.731	15264
272.791	25661
272.852	17982
272.912	15725
272.972	10926
273.033	11358
273.093	15611
273.153	15868
273.214	12235
273.274	13790
273.334	34073
273.394	69776
273.455	33927
273.515	30441
273.575	62659
273.635	31593
273.696	37829
273.756	70883
273.816	32441
273.876	21628
273.936	33642
273.997	52050
274.057	17884
274.117	15760
274.177	21079
274.237	79855
274.297	69755
274.358	47002
274.418	54314
274.478	45122
274.538	19319
274.598	16285
274.658	41233
274.718	53633
274.778	24273
274.838	14444
274.898	23537
274.958	72008
275.018	65938
275.078	45384
275.138	21304
275.198	12263
275.258	10925
275.318	12637
275.378	24042
275.438	26118
275.498	16313
275.558	33081
275.618	69269
275.678	48429
275.738	30521
275.798	23485
275.858	11839
275.918	8949
275.978	12123
276.038	11938
276.098	9538
276.157	18851
276.217	52948
276.277	25337
276.337	19370
276.397	12095
276.457	14686
276.517	10553
276.576	8791
276.636	9231
276.696	16121
276.756	32331
276.815	25476
276.875	12785
276.935	15097
276.995	13854
277.055	9602
277.114	10770
277.174	13964
277.234	41448
277.293	20394
277.353	12435
277.413	9979
277.472	10712
277.532	12356
277.592	14249
277.651	45027
277.711	86281
277.771	32995
277.830	94035
277.890	81040
277.950	59513
278.009	153722
278.069	65792
278.128	63091
278.188	92004
278.248	45428
278.307	101782
278.367	60899
278.426	21361
278.486	16006
278.545	12812
278.605	11106
278.664	11605
278.724	12959
278.783	27208
278.843	67335
278.902	23378
278.962	16549
279.021	20675
279.081	29780
279.140	29214
279.199	21059
279.259	21008
279.318	22817
279.378	30178
279.437	53580
279.496	165102
279.556	380126
279.615	321261
279.675	111395
279.734	65923
279.793	86952
279.853	127485
279.912	51911
279.971	31557
280.031	28709
280.090	46968
280.149	80268
280.208	75395
280.268	257203
280.327	272990
280.386	86400
280.445	56467
280.505	49092
280.564	27428
280.623	22003
280.682	29347
280.742	39178
280.801	16803
280.860	13186
280.919	12873
280.978	12693
281.037	12555
281.097	10961
281.156	12148
281.215	11050
281.274	13787
281.333	43124
281.392	34891
281.451	12225
281.510	9588
281.569	11437
281.628	9898
281.688	9005
281.747	10956
281.806	11086
281.865	9266
281.924	9702
281.983	8943
282.042	7508
282.101	7684
282.160	8365
282.219	8425
282.278	9490
282.337	28895
282.396	21580
282.454	11605
282.513	13251
282.572	41270
282.631	26374
282.690	12433
282.749	10582
282.808	12640
282.867	11896
282.926	12657
282.985	8947
283.043	8933
283.102	9780
283.161	11271
283.220	19198
283.279	44599
283.338	17664
283.396	12894
283.455	12516
283.514	13449
283.573	20130
283.631	16448
283.690	12365
283.749	12913
283.808	22852
283.866	27458
283.925	14701
283.984	13260
284.043	17830
284.101	19534
284.160	15187
284.219	17323
284.277	18517
284.336	25845
284.395	61681
284.453	55692
284.512	29483
284.570	37077
284.629	37943
284.688	40026
284.746	45847
284.805	54213
284.863	68618
284.922	87706
284.981	107480
285.039	151679
285.098	233218
285.156	359763
285.215	352796
285.273	354990
285.332	380264
285.390	268971
285.449	181505
285.507	131355
285.566	98235
285.624	76648
285.683	58776
285.741	48139
285.799	40684
285.858	35918
285.916	32259
285.975	27015
286.033	22950
286.091	21498
286.150	19720
286.208	18079
286.267	19039
286.325	19343
286.383	25280
286.442	22119
286.500	14861
286.558	13698
286.616	13357
286.675	17773
286.733	15287
286.791	14379
286.850	15354
286.908	17723
286.966	26573
287.024	14008
287.083	12322
287.141	10280
287.199	11024
287.257	15845
287.315	12146
287.374	13033
287.432	25989
287.490	19315
287.548	13245
287.606	11209
287.664	10951
287.723	14104
287.781	16260
287.839	12346
287.897	13744
287.955	16692
288.013	24309
288.071	52370
288.129	172101
288.187	402502
288.245	213538
288.303	75766
288.361	43257
288.419	31443
288.477	22856
288.535	19041
288.593	13784
288.651	11609
288.709	10128
288.767	9519
288.825	9338
288.883	7678
288.941	8574
288.999	8711
289.057	7719
289.115	7013
289.173	7482
289.231	9842
289.289	9807
289.346	9482
289.404	9903
289.462	16335
289.520	15564
289.578	8635
289.636	6477
289.694	5289
289.751	5394
289.809	5594
289.867	6385
289.925	8263
289.983	10763
290.040	6219
290.098	4775
290.156	8200
290.214	9291
290.271	6393
290.329	6209
290.387	6239
290.444	4859
290.502	5209
290.560	4934
290.617	5202
290.675	6841
290.733	6670
290.790	8458
290.848	7238
290.906	8568
290.963	8171
291.021	7113
291.078	7193
291.136	7382
291.194	16205
291.251	35637
291.309	11626
291.366	6970
291.424	6297
291.481	8540
291.539	10574
291.596	10459
291.654	5190
291.711	5200
291.769	7044
291.826	15779
291.884	10739
291.941	5908
291.999	7768
292.056	7760
292.114	8337
292.171	5598
292.228	8089
292.286	9203
292.343	16701
292.401	24391
292.458	16854
292.515	11426
292.573	12898
292.630	10669
292.687	9946
292.745	7814
292.802	9188
292.859	18554
292.917	45528
292.974	27254
293.031	10533
293.089	8307
293.146	7541
293.203	6528
293.260	6123
293.318	8927
293.375	9201
293.432	6196
293.489	6573
293.546	6692
293.604	11579
293.661	31222
293.718	72913
293.775	36129
293.832	19961
293.889	20633
293.947	22288
294.004	14844
294.061	14087
294.118	22878
294.175	40420
294.232	35554
294.289	20195
294.346	11303
294.403	10543
294.460	10139
294.517	9756
294.574	8292
294.631	7203
294.688	8925
294.745	20310
294.802	65477
294.859	59629
294.916	28485
294.973	22621
295.030	16644
295.087	13913
295.144	10392
295.201	8047
295.258	7735
295.315	10138
295.372	29718
295.429	56180
295.486	24061
295.542	12143
295.599	18989
295.656	29595
295.713	28530
295.770	48817
295.827	19815
295.883	11358
295.940	10327
295.997	17504
296.054	18166
296.111	10222
296.167	6389
296.224	6054
296.281	6305
296.338	6624
296.394	6329
296.451	8143
296.508	21804
296.564	43356
296.621	27987
296.678	60151
296.734	86765
296.791	31583
296.848	17307
296.904	18558
296.961	40543
297.018	60390
297.074	42706
297.131	17790
297.187	13666
297.244	19115
297.301	56260
297.357	102721
297.414	37421
297.470	15824
297.527	10587
297.583	10195
297.640	10265
297.696	9388
297.753	6778
297.809	7185
297.866	5270
297.922	5663
297.979	5405
298.035	7434
298.092	13956
298.148	34945
298.204	35582
298.261	17253
298.317	25670
298.374	72165
298.430	44078
298.486	21905
298.543	15362
298.599	14803
298.656	18980
298.712	28502
298.768	67380
298.824	48740
298.881	17777
298.937	10195
298.993	9171
299.050	13054
299.106	11054
299.162	9177
299.218	9874
299.275	7552
299.331	9731
299.387	20072
299.443	66290
299.500	83879
299.556	40203
299.612	18467
299.668	17649
299.724	31665
299.780	36061
299.837	17695
299.893	20471
299.949	64728
300.005	79353
300.061	61838
300.117	98769
300.173	50159
300.229	25057
300.285	30033
300.341	32821
300.397	18864
300.453	11924
300.510	11186
300.566	12172
300.622	18682
300.678	54206
300.734	87956
300.790	63213
300.845	70173
300.901	52834
300.957	77400
301.013	53414
301.069	22306
301.125	16084
301.181	17529
301.237	13854
301.293	10251
301.349	8605
301.405	8218
301.461	9177
301.516	14710
301.572	13032
301.628	21627
301.684	18847
301.740	25375
301.796	42510
301.851	28242
301.907	46196
301.963	47690
302.019	67477
302.074	174123
302.130	178886
302.186	83061
302.242	34101
302.297	22282
302.353	22846
302.409	40497
302.464	35714
302.520	28801
302.576	66338
302.631	76496
302.687	44230
302.743	18909
302.798	10842
302.854	8826
302.910	9713
302.965	11867
303.021	22691
303.076	22269
303.132	28421
303.187	34748
303.243	17169
303.299	9643
303.354	6770
303.410	8102
303.465	6830
303.521	6238
303.576	6905
303.632	9118
303.687	18924
303.743	55005
303.798	50853
303.853	19656
303.909	11103
303.964	10011
304.020	16284
304.075	27228
304.130	22390
304.186	41771
304.241	42067
304.297	32976
304.352	18256
304.358	17709
304.407	13270
304.449	12503
304.463	12254
304.518	13830
304.539	12669
304.573	10809
304.629	11131
304.630	11227
304.684	16158
304.720	33603
304.739	42378
304.794	66254
304.811	56524
304.850	33236
304.902	15653
304.905	14527
304.960	8999
304.992	8674
305.015	8506
305.071	10644
305.083	10650
305.126	10517
305.173	7194
305.181	6666
305.236	5918
305.264	6538
305.292	7199
305.347	10507
305.354	10771
305.402	12390
305.445	12084
305.457	11979
305.512	12285
305.535	12704
305.567	13372
305.622	15104
305.626	15446
305.678	23395
305.716	44568
305.733	52485
305.788	63807
305.807	55502
305.843	40668
305.897	51846
305.898	51956
305.953	54439
305.988	37180
306.008	27687
306.063	20381
306.078	18472
306.118	13863
306.168	8998
306.173	8574
306.228	7046
306.259	6527
306.283	6212
306.338	5861
306.349	5800
306.393	5509
306.440	5260
306.448	5248
306.503	6327
306.530	7037
306.558	8991
306.613	19871
306.620	21801
306.668	35922
306.711	51880
306.723	54042
306.778	43668
306.801	33556
306.833	21741
306.888	10724
306.892	10400
306.943	8347
306.982	7331
306.997	6993
307.052	6817
307.072	6258
307.107	5432
307.162	6146
307.163	6163
307.217	8102
307.253	9425
307.272	9810
307.327	11202
307.343	11075
307.381	10990
307.434	11238
307.436	11469
307.491	18803
307.524	28764
307.546	33023
307.600	41700
307.614	37878
307.655	22639
307.704	10874
307.710	10188
307.765	9446
307.795	10690
307.819	12353
307.874	17378
307.885	17545
307.929	14911
307.975	11915
307.984	11869
308.038	13470
308.065	15776
308.093	25372
308.148	52801
308.156	60509
308.202	105052
308.246	133557
308.257	132047
308.312	71225
308.336	54164
308.366	45481
308.421	36153
308.426	34700
308.475	21207
308.517	15137
308.530	14215
308.585	12874
308.607	12621
308.639	12654
308.694	13492
308.697	13608
308.748	19105
308.787	25111
308.803	25425
308.857	21653
308.877	19943
308.912	18737
308.967	19952
308.967	20013
309.021	30491
309.058	39996
309.076	47528
309.130	76949
309.148	86838
309.185	126861
309.238	194301
309.239	195071
309.293	244033
309.328	240514
309.348	212913
309.402	116031
309.418	92185
309.457	68690
309.508	48779
309.511	48607
309.566	55492
309.598	63039
309.620	80073
309.674	132975
309.688	146735
309.729	144233
309.778	120844
309.783	117755
309.837	76923
309.868	57046
309.892	56830
309.946	64305
309.959	68624
310.001	84341
310.049	95778
310.055	92757
310.109	56314
310.139	36363
310.163	29427
310.218	20052
310.229	18571
310.272	14794
310.319	11370
310.326	10892
310.381	8379
310.409	7308
310.435	7025
310.489	6273
310.499	6276
310.543	5916
310.589	5426
310.598	5404
310.652	5727
310.679	5767
310.706	5356
310.760	4536
310.769	4438
310.814	4543
310.859	4798
310.868	4832
310.923	4836
310.948	4901
310.977	5653
311.031	7450
311.038	7727
311.085	7537
311.128	6615
311.139	6409
311.193	5810
311.218	5507
311.247	5012
311.301	4230
311.308	4126
311.356	4444
311.398	4925
311.410	4883
311.464	4521
311.488	4426
311.518	4607
311.572	4876
311.578	4933
311.626	6954
311.668	8741
311.680	8453
311.734	6834
311.758	6188
311.788	6397
311.842	6831
311.847	6881
311.896	7439
311.937	7941
311.950	7863
312.004	7551
312.027	7415
312.058	6917
312.112	6033
312.117	5951
312.165	5048
312.207	4299
312.297	4611
312.386	4646
312.476	7257
312.566	14971
312.656	7149
312.745	3499
312.835	4764
312.925	5088
313.015	5344
313.104	4401
313.194	3816
313.284	5228
313.374	8928
313.463	7112
313.553	5446
313.643	4171
313.732	3811
313.822	3438
313.912	6375
314.001	6756
314.091	7087
314.180	7068
314.270	9100
314.360	7708
314.449	8640
314.539	5385
314.628	5171
314.718	6517
314.808	6859
314.897	6172
314.987	7015
315.076	9010
315.166	10832
315.255	8655
315.345	8221
315.434	7789
315.524	7686
315.613	10428
315.703	17075
315.792	34377
315.881	132326
315.971	45598
316.060	17909
316.150	14926
316.239	14182
316.328	6288
316.418	6150
316.507	7256
316.597	9731
316.686	8254
316.775	9538
316.865	14578
316.954	6782
317.043	5660
317.133	5912
317.222	5271
317.311	5929
317.400	4524
317.490	10419
317.579	12428
317.668	11744
317.757	21944
317.847	60030
317.936	223216
318.025	77110
318.114	47553
318.203	25670
318.293	26108
318.382	52352
318.471	34689
318.560	36685
318.649	31805
318.738	10530
318.828	9710
318.917	10198
319.006	9085
319.095	19644
319.184	42502
319.273	33709
319.362	22159
319.451	7488
319.540	7968
319.629	18622
319.718	30296
319.807	13058
319.896	19047
319.985	56466
320.074	25602
320.163	7730
320.252	10581
320.341	8223
320.430	7976
320.519	15641
320.608	10728
320.697	9379
320.786	9384
320.875	12903
320.964	16658
321.053	24396
321.142	32501
321.230	35808
321.319	25918
321.408	53328
321.497	23938
321.586	23663
321.675	18187
321.764	19430
321.852	14862
321.941	30976
322.030	22529
322.119	22301
322.207	54700
322.296	28113
322.385	18585
322.474	30136
322.562	73210
322.651	37567
322.740	28524
322.829	36553
322.917	22752
323.006	19922
323.095	17415
323.183	10196
323.272	15469
323.361	24399
323.449	53955
323.538	20545
323.626	37896
323.715	25858
323.804	10932
323.892	34225
323.981	25114
324.069	8681
324.158	16437
324.246	17342
324.335	11785
324.424	21052
324.512	7256
324.601	9212
324.689	13309
324.778	17833
324.866	16784
324.954	6912
325.043	6967
325.131	10784
325.220	13072
325.308	16974
325.397	13900
325.485	10406
325.574	6046
325.662	6351
325.750	6300
325.839	6091
325.927	4217
326.015	6417
326.104	6253
326.192	9296
326.280	4927
326.369	4971
326.457	8931
326.545	16593
326.634	7278
326.722	5593
326.810	5903
326.898	5457
326.987	8731
327.075	16196
327.163	14059
327.251	6035
327.340	9733
327.428	11182
327.516	6261
327.604	7639
327.692	5465
327.781	5625
327.869	6379
327.957	6321
328.045	7107
328.133	4241
328.221	5053
328.309	5522
328.397	4182
328.485	7706
328.574	12430
328.662	38676
328.750	17075
328.838	6877
328.926	4591
329.014	4095
329.102	6567
329.190	13074
329.278	10670
329.366	3651
329.454	2745
329.542	4000
329.630	3192
329.718	4924
329.806	6265
329.893	4368
329.981	3179
330.069	4366
330.157	12595
330.245	30709
330.333	15234
330.421	5585
330.509	10115
330.597	43346
330.684	25268
330.772	7883
330.860	6346
330.948	8232
331.036	5315
331.123	3841
331.211	3396
331.299	4576
331.387	7422
331.475	14022
331.562	5858
331.650	3969
331.738	4356
331.825	4792
331.913	3354
332.001	4547
332.089	4498
332.176	7306
332.264	15301
332.352	13656
332.439	6099
332.527	4646
332.614	4100
332.702	5358
332.790	4861
332.877	11098
332.965	24033
333.052	14679
333.140	16613
333.228	44295
333.315	11338
333.403	6868
333.490	11093
333.578	20845
333.665	63923
333.753	26940
333.840	6682
333.928	6923
334.015	11721
334.103	19148
334.190	51951
334.278	19332
334.365	16042
334.452	16257
334.540	10067
334.627	9611
334.715	11820
334.802	22932
334.889	70942
334.977	87736
335.064	28182
335.151	12934
335.239	8790
335.326	10683
335.413	28423
335.501	37333
335.588	9460
335.675	7981
335.762	9614
335.850	14738
335.937	19388
336.024	36310
336.111	97143
336.199	67615
336.286	21933
336.373	11058
336.460	8024
336.547	7233
336.635	7230
336.722	7339
336.809	6162
336.896	9588
336.983	19549
337.070	40428
337.157	54167
337.245	38079
337.332	27266
337.419	6345
337.506	3928
337.593	5132
337.680	11092
337.767	29062
337.854	12250
337.941	12638
338.028	16980
338.115	7357
338.202	7118
338.289	11645
338.376	37294
338.463	14250
338.550	17657
338.637	18533
338.724	8090
338.811	11224
338.898	4287
338.984	4818
339.071	4730
339.158	7554
339.245	19757
339.332	12724
339.419	9642
339.506	9578
339.593	3626
339.679	5692
339.766	4489
339.853	7316
339.940	15289
340.027	5219
340.113	5711
340.200	9151
340.287	6362
340.374	8044
340.460	13649
340.547	7025
340.634	12367
340.720	42361
340.807	24431
340.894	5220
340.980	5605
341.067	5287
341.154	5746
341.240	11308
341.327	21399
341.414	10445
341.500	11577
341.587	6240
341.674	5320
341.760	14572
341.847	17534
341.933	6014
342.020	2614
342.106	3242
342.193	6416
342.279	11601
342.366	9059
342.452	15683
342.539	8272
342.625	18976
342.712	47225
342.798	19533
342.885	8847
342.971	3428
343.058	3969
343.144	4105
343.230	5373
343.317	6047
343.403	5594
343.490	3353
343.576	2582
343.662	4747
343.749	5917
343.835	7440
343.921	13241
344.008	79932
344.094	178123
344.180	39245
344.267	16944
344.353	49635
344.439	48544
344.525	22155
344.612	10237
344.698	9317
344.784	5104
344.870	4901
344.957	4941
345.043	8718
345.129	6450
345.215	13690
345.301	8998
345.387	7128
345.474	3350
345.560	3569
345.646	3437
345.732	4768
345.818	7347
345.904	6429
345.990	5980
346.076	7194
346.162	9911
346.249	5606
346.335	3092
346.421	6165
346.507	21615
346.593	72523
346.679	16674
346.765	6262
346.851	7529
346.937	6256
347.023	5156
347.108	6089
347.194	5593
347.280	6092
347.366	8565
347.452	27935
347.538	91784
347.624	62340
347.710	47581
347.796	8552
347.882	4373
347.967	4115
348.053	4081
348.139	4982
348.225	4301
348.311	5220
348.397	4248
348.482	7249
348.568	7130
348.654	5645
348.740	14543
348.825	15002
348.911	12833
348.997	41136
349.083	76622
349.168	12108
349.254	7665
349.340	8800
349.425	4327
349.511	6691
349.597	7773
349.682	16484
349.768	53016
349.854	23238
349.939	5552
350.025	4321
350.110	4133
350.196	4799
350.282	3463
350.367	3598
350.453	5575
350.538	7401
350.624	6473
350.709	6516
350.795	3753
350.880	4159
350.966	4901
351.051	7203
351.137	5400
351.222	6044
351.308	17298
351.393	47718
351.479	15070
351.564	6969
351.649	5374
351.735	4955
351.820	4289
351.906	5049
351.991	6896
352.076	29957
352.162	44715
352.247	9673
352.332	6935
352.418	16828
352.503	20160
352.588	65191
352.673	53321
352.759	13398
352.844	6192
352.929	8708
353.014	10498
353.100	7677
353.185	17062
353.270	20578
353.355	18201
353.441	6259
353.526	5763
353.611	15397
353.696	17721
353.781	11577
353.866	5154
353.952	6472
354.037	15287
354.122	35219
354.207	30353
354.292	12037
354.377	5410
354.462	6220
354.547	7348
354.632	7140
354.717	11370
354.802	19875
354.887	7455
354.972	4267
355.057	3881
355.142	3990
355.227	6161
355.312	10609
355.397	22970
355.482	54466
355.567	25829
355.652	19022
355.737	21438
355.822	62863
355.907	48941
355.991	9627
356.076	5462
356.161	5288
356.246	4342
356.331	6775
356.416	14812
356.501	96062
356.585	99945
356.670	15959
356.755	11230
356.840	16613
356.924	74573
357.009	237955
357.094	86489
357.179	20194
357.263	15413
357.348	12503
357.433	12467
357.517	12768
357.602	10101
357.687	8864
357.771	18494
357.856	45159
357.941	25114
358.025	51937
358.110	218708
358.195	99527
358.279	16321
358.364	14030
358.448	43687
358.533	116027
358.617	81869
358.702	80698
358.787	28735
358.871	17937
358.956	14939
359.040	6781
359.125	4835
359.209	6376
359.294	22474
359.378	36043
359.462	17373
359.547	8761
359.631	4305
359.716	4538
359.800	5397
359.885	6393
359.969	5726
360.053	5545
360.138	5239
360.222	10036
360.306	16763
360.391	13506
360.475	26356
360.559	53285
360.644	45237
360.728	33376
360.812	53112
360.896	142984
360.981	55561
361.065	28695
361.149	9160
361.233	9712
361.318	8404
361.402	13225
361.486	7785
361.570	6333
361.654	9289
361.739	22910
361.823	93843
361.907	144144
361.991	28779
362.075	18394
362.159	35709
362.243	30407
362.327	41837
362.411	63276
362.495	25724
362.580	12544
362.664	9364
362.748	11337
362.832	15508
362.916	31011
363.000	101405
363.084	220459
363.168	197338
363.252	45663
363.336	17320
363.420	19647
363.503	41683
363.587	44765
363.671	14277
363.755	12435
363.839	18766
363.923	10683
364.007	20940
364.091	23512
364.175	26954
364.258	86703
364.342	125670
364.426	230741
364.510	123033
364.594	37701
364.677	33935
364.761	126637
364.845	88133
364.929	30915
365.013	24582
365.096	20224
365.180	24068
365.264	19823
365.347	60895
365.431	25547
365.515	8953
365.598	7806
365.682	7556
365.766	7808
365.849	8738
365.933	7960
366.017	8536
366.100	5091
366.184	3215
366.267	6743
366.351	6207
366.435	5229
366.518	5103
366.602	5036
366.685	5731
366.769	7200
366.852	9060
366.936	16511
367.019	11782
367.103	7363
367.186	8962
367.270	6147
367.353	4817
367.436	7319
367.520	6902
367.603	9053
367.687	12039
367.770	22092
367.853	13605
367.937	39123
368.020	62108
368.104	16117
368.187	15105
368.270	23202
368.353	18813
368.437	17877
368.520	25671
368.603	24981
368.687	44265
368.770	83580
368.853	22361
368.936	17075
369.020	15244
369.103	8079
369.186	7403
369.269	8277
369.352	13318
369.436	18500
369.519	12575
369.602	8522
369.685	7489
369.768	7734
369.851	6617
369.934	5186
370.018	6897
370.101	17048
370.184	13257
370.267	10396
370.350	22292
370.433	28452
370.516	74801
370.599	116701
370.682	44089
370.765	47390
370.848	55289
370.931	100702
371.014	35501
371.097	8397
371.180	7278
371.263	5657
371.346	4017
371.429	6456
371.511	6240
371.594	11813
371.677	15994
371.760	13911
371.843	17754
371.926	80255
372.009	178160
372.091	58325
372.174	40239
372.257	93091
372.340	36130
372.423	22609
372.505	20480
372.588	12615
372.671	32983
372.754	102671
372.836	49184
372.919	21986
373.002	33711
373.085	17426
373.167	19435
373.250	45826
373.332	93118
373.415	120652
373.498	244681
373.580	92989
373.663	161228
373.746	202121
373.828	41880
373.911	16913
373.993	15321
374.076	33827
374.159	30624
374.241	26286
374.324	85328
374.406	55983
374.489	71239
374.571	200025
374.654	80486
374.736	40709
374.819	122087
374.901	172096
374.983	176522
375.066	31899
375.148	12973
375.231	29493
375.313	52846
375.395	23735
375.478	10379
375.560	9258
375.643	11864
375.725	37879
375.807	152911
375.890	103267
375.972	30274
376.054	20843
376.136	22404
376.219	14439
376.301	45680
376.383	137167
376.465	50246
376.548	34094
376.630	39819
376.712	115114
376.794	51628
376.877	8286
376.959	5384
377.041	6481
377.123	7548
377.205	8540
377.287	4449
377.369	5248
377.452	5350
377.534	6190
377.616	5432
377.698	6019
377.780	4892
377.862	6334
377.944	7368
378.026	4529
378.108	4896
378.190	5001
378.272	5788
378.354	4816
378.436	3311
378.518	6412
378.600	17933
378.682	22823
378.764	60299
378.846	46563
378.928	12543
379.010	19208
379.091	11065
379.173	6406
379.255	6503
379.337	9791
379.419	30211
379.501	86247
379.583	32065
379.664	9940
379.746	23508
379.828	59293
379.910	80431
379.991	70051
380.073	12688
380.155	8366
380.237	7005
380.318	6616
380.400	6752
380.482	15346
380.564	21534
380.645	25354
380.727	22927
380.809	13145
380.890	9831
380.972	8359
381.053	8014
381.135	10658
381.217	22546
381.298	64146
381.380	31349
381.461	26057
381.543	114108
381.624	141410
381.706	27568
381.787	16315
381.869	18870
381.951	52489
382.032	188147
382.113	118280
382.195	28649
382.276	24837
382.358	48245
382.439	109234
382.521	117738
382.602	183747
382.684	91386
382.765	172166
382.846	253906
382.928	470341
383.009	264490
383.090	182514
383.172	575070
383.253	808739
383.334	279461
383.416	203191
383.497	114748
383.578	80117
383.659	153851
383.741	488685
383.822	1050125
383.903	570394
383.984	190153
384.066	227088
384.147	137642
384.228	39037
384.309	30806
384.390	25260
384.471	19539
384.553	19072
384.634	21886
384.715	22827
384.796	13699
384.877	19316
384.958	59630
385.039	71731
385.120	26784
385.201	14909
385.282	14416
385.363	16468
385.444	18361
385.525	34021
385.606	89833
385.687	71983
385.768	19045
385.849	21857
385.930	87081
386.011	147498
386.092	39741
386.173	13134
386.254	9895
386.335	11614
386.416	12747
386.496	40726
386.577	60020
386.658	19782
386.739	13464
386.820	12140
386.901	8503
386.981	10013
387.062	10236
387.143	20134
387.224	63051
387.304	57267
387.385	23282
387.466	16450
387.547	20087
387.627	19012
387.708	30105
387.789	105333
387.869	123917
387.950	34827
388.031	9136
388.111	6957
388.192	12130
388.273	15501
388.353	11449
388.434	11533
388.514	22367
388.595	92876
388.676	118508
388.756	58891
388.837	55695
388.917	34193
388.998	8955
389.078	9743
389.159	8409
389.239	8723
389.320	13819
389.400	12036
389.480	23488
389.561	62696
389.641	30204
389.722	13458
389.802	19718
389.883	27644
389.963	72838
390.043	40255
390.124	11731
390.204	25465
390.284	69919
390.365	42495
390.445	34092
390.525	119384
390.605	118398
390.686	39925
390.766	19993
390.846	11040
390.927	7801
391.007	9088
391.087	10565
391.167	16615
391.247	11144
391.328	11197
391.408	11995
391.488	9856
391.568	6253
391.648	11208
391.728	16017
391.808	15593
391.888	17936
391.969	38485
392.049	58179
392.129	24118
392.209	31242
392.289	75649
392.369	39910
392.449	23745
392.529	21620
392.609	25774
392.689	32719
392.769	82365
392.849	72814
392.929	58114
393.009	116205
393.089	121968
393.169	161049
393.248	447298
393.328	1082536
393.408	1118433
393.488	464780
393.568	160776
393.648	79101
393.728	49964
393.807	34465
393.887	27862
393.967	22862
394.047	21234
394.127	20177
394.206	21781
394.286	45780
394.366	196712
394.446	208433
394.525	42093
394.605	14549
394.685	15791
394.764	24461
394.844	43514
394.924	38574
395.003	17989
395.083	13408
395.163	12600
395.242	11377
395.322	10919
395.402	7517
395.481	11984
395.561	20550
395.640	59561
395.720	70863
395.799	54233
395.879	34410
395.958	19767
396.038	57027
396.117	257001
396.197	277093
396.276	66853
396.356	30020
396.435	32480
396.515	36827
396.594	61493
396.673	128090
396.753	419022
396.832	995828
396.912	795620
396.991	229955
397.070	75623
397.150	42122
397.229	32579
397.308	48800
397.388	81636
397.467	36892
397.546	16221
397.625	11536
397.705	16538
397.784	14563
397.863	9999
397.942	7671
398.022	8480
398.101	14810
398.180	34869
398.259	18303
398.338	10441
398.417	9075
398.497	6983
398.576	7735
398.655	5830
398.734	5368
398.813	6224
398.892	12719
398.971	37982
399.050	18820
399.129	5644
399.208	4242
399.287	5991
399.366	2767
399.445	4334
399.524	5093
399.603	3993
399.682	9406
399.761	19995
399.840	42642
399.919	31144
399.998	6092
400.077	3353
400.156	2815
400.235	5936
400.313	3103
400.392	6019
400.471	30658
400.550	50461
400.629	12762
400.708	5608
400.786	4257
400.865	8053
400.944	8795
401.023	8051
401.102	2388
401.180	3250
401.259	3633
401.338	3132
401.416	5907
401.495	5430
401.574	4480
401.652	3508
401.731	6366
401.810	6515
401.888	3710
401.967	4054
402.046	8737
402.124	7520
402.203	6575
402.281	6192
402.360	9996
402.438	12626
402.517	7133
402.596	4479
402.674	2794
402.753	3620
402.831	3348
402.910	5937
402.988	27319
403.066	95984
403.145	50422
403.223	30861
403.302	82561
403.380	60303
403.459	62025
403.537	22777
403.615	8453
403.694	2766
403.772	4313
403.850	2688
403.929	3048
404.007	4411
404.085	12431
404.164	15365
404.242	4744
404.320	5073
404.398	7669
404.477	29993
404.555	143510
404.633	120305
404.711	16822
404.789	6262
404.868	7174
404.946	4398
405.024	2602
405.102	4021
405.180	2741
405.258	2704
405.336	3913
405.415	3531
405.493	7679
405.571	9761
405.649	3515
405.727	2782
405.805	6246
405.883	7627
405.961	6376
406.039	4786
406.117	2727
406.195	8083
406.273	33840
406.351	125488
406.429	69890
406.507	8268
406.585	3396
406.663	5280
406.740	7179
406.818	5333
406.896	2854
406.974	4202
407.052	12603
407.130	73384
407.208	101220
407.285	18972
407.363	3569
407.441	3333
407.519	2846
407.596	4370
407.674	6667
407.752	8292
407.830	9749
407.907	8601
407.985	4801
408.063	4209
408.141	1320
408.218	5504
408.296	7249
408.373	7404
408.451	6138
408.529	5351
408.606	3139
408.684	2937
408.762	2721
408.839	3158
408.917	1907
408.994	4287
409.072	4468
409.149	4977
409.227	12203
409.304	16463
409.382	13255
409.459	15504
409.537	22168
409.614	19264
409.692	11226
409.769	13890
409.846	23868
409.924	29229
410.001	21031
410.079	11498
410.156	8545
410.233	7796
410.311	6184
410.388	5107
410.465	7857
410.543	8993
410.620	5191
410.697	6334
410.775	7297
410.852	4122
410.929	9405
411.006	12097
411.083	8603
411.161	18761
411.238	14940
411.315	5925
411.392	4393
411.469	8708
411.547	10183
411.624	5395
411.701	4888
411.778	4740
411.855	10729
411.932	5471
412.009	3171
412.086	3328
412.163	3990
412.240	3939
412.317	6361
412.394	5025
412.471	1695
412.548	2183
412.625	2962
412.702	4930
412.779	8566
412.856	6910
412.933	1638
413.010	2490
413.087	5729
413.164	30778
413.241	44097
413.318	10390
413.395	8105
413.471	12207
413.548	3979
413.625	3115
413.702	3574
413.779	2733
413.855	1388
413.932	1398
414.009	720
414.086	2001
414.162	2371
414.239	4766
414.316	27146
414.393	62745
414.469	21122
414.546	2816
414.623	1233
414.699	2132
414.776	2800
414.853	2940
414.929	2688
415.006	2475
415.082	1514
415.159	1948
415.236	2096
415.312	3764
415.389	6406
415.465	9374
415.542	4060
415.618	2764
415.695	6770
415.771	4275
415.848	2744
415.924	3168
416.000	1192
416.077	2330
416.153	551
416.230	-22
416.306	873
416.383	1488
416.459	1901
416.535	1485
416.612	1645
416.688	2697
416.764	2435
416.841	3302
416.917	2228
416.993	2322
417.069	3667
417.146	4300
417.222	3965
417.298	3174
417.374	1717
417.451	3041
417.527	3861
417.603	4978
417.679	3652
417.755	3046
417.831	1140
417.908	2156
417.984	1012
418.060	2139
418.136	8014
418.212	11050
418.288	4050
418.364	2272
418.440	2131
418.516	5117
418.592	3872
418.668	11451
418.744	18518
418.820	14284
418.896	4090
418.972	1491
419.048	2960
419.124	9274
419.200	6100
419.276	1691
419.352	1066
419.428	1971
419.504	3399
419.579	4174
419.655	2667
419.731	3767
419.807	12823
419.883	23700
419.959	16226
420.034	5380
420.110	10350
420.186	40331
420.262	30079
420.337	5910
420.413	5020
420.489	3616
420.565	3246
420.640	3321
420.716	3971
420.792	3110
420.867	3610
420.943	4177
421.019	7233
421.094	5873
421.170	4303
421.245	3574
421.321	5321
421.397	5170
421.472	6844
421.548	10203
421.623	10960
421.699	9601
421.774	10375
421.850	11271
421.925	15912
422.001	16934
422.076	16830
422.152	22139
422.227	31529
422.302	42629
422.378	63442
422.453	116960
422.529	245052
422.604	453828
422.679	533586
422.755	465243
422.830	244229
422.905	114701
422.981	66327
423.056	43849
423.131	32523
423.207	25198
423.282	21575
423.357	25809
423.432	18871
423.508	18543
423.583	26650
423.658	20441
423.733	9382
423.808	10147
423.883	11498
423.959	12093
424.034	12224
424.109	10105
424.184	6074
424.259	5416
424.334	4155
424.409	4065
424.484	4050
424.559	5055
424.634	4335
424.709	8420
424.784	7039
424.859	4217
424.934	6965
425.009	27820
425.084	46486
425.159	16028
425.234	3954
425.309	3228
425.384	13270
425.459	19203
425.534	5948
425.609	2015
425.683	1874
425.758	2535
425.833	2704
425.908	4420
425.983	16893
426.058	47189
426.132	18397
426.207	3980
426.282	4071
426.357	2980
426.431	1945
426.506	2174
426.581	2316
426.655	3565
426.730	2036
426.805	3019
426.879	3465
426.954	3054
427.029	7705
427.103	45515
427.178	108397
427.253	43695
427.327	5008
427.402	6389
427.476	17392
427.551	8078
427.625	2653
427.700	2849
427.774	1734
427.849	2173
427.923	1401
427.998	2695
428.072	2968
428.147	10135
428.221	52117
428.296	155074
428.370	76269
428.444	9979
428.519	4861
428.593	7638
428.667	6061
428.742	8388
428.816	17830
428.890	91834
428.965	143672
429.039	35918
429.113	9422
429.188	5676
429.262	2027
429.336	7501
429.410	21777
429.485	12448
429.559	6029
429.633	5273
429.707	4128
429.781	15786
429.855	90473
429.930	134422
430.004	40337
430.078	34662
430.152	59400
430.226	194455
430.300	184141
430.374	30833
430.448	9117
430.522	13097
430.596	32173
430.670	38314
430.744	155819
430.818	197560
430.892	35252
430.966	5937
431.040	3538
431.114	1339
431.188	645
431.262	1674
431.336	1135
431.410	5101
431.484	10837
431.557	9752
431.631	2534
431.705	6383
431.779	34211
431.853	139626
431.927	87814
432.000	10511
432.074	2707
432.148	2482
432.222	1405
432.295	1699
432.369	959
432.443	4167
432.516	40189
432.590	102750
432.664	32541
432.737	3365
432.811	857
432.885	856
432.958	1261
433.032	1132
433.106	-406
433.179	661
433.253	1088
433.326	734
433.400	-296
433.473	842
433.547	-180
433.620	1076
433.694	4006
433.767	4252
433.841	1247
433.914	802
433.988	246
434.061	1720
434.134	1751
434.208	757
434.281	-641
434.355	-46
434.428	1590
434.501	119
434.575	-355
434.648	455
434.721	-619
434.795	108
434.868	-259
434.941	552
435.014	208
435.088	1462
435.161	3995
435.234	8492
435.307	9257
435.381	5310
435.454	7350
435.527	12458
435.600	11203
435.673	8303
435.746	5316
435.819	3147
435.892	2004
435.966	1843
436.039	450
436.112	1966
436.185	718
436.258	697
436.331	99
436.404	69
436.477	-431
436.550	969
436.623	275
436.696	-81
436.769	712
436.842	1076
436.915	496
436.987	2095
437.060	397
437.133	-41
437.206	-736
437.279	519
437.352	105
437.425	172
437.498	1258
437.570	5059
437.643	4320
437.716	1168
437.789	946
437.861	7777
437.934	23756
438.007	8683
438.080	713
438.152	1200
438.225	6159
438.298	53174
438.370	143548
438.443	59103
438.516	17258
438.588	2723
438.661	278
438.734	543
438.806	764
438.879	1726
438.951	5575
439.024	10436
439.096	1980
439.169	564
439.241	-3
439.314	490
439.386	154
439.459	2973
439.531	7291
439.604	2765
439.676	241
439.749	306
439.821	-509
439.893	705
439.966	377
440.038	2786
440.110	3069
440.183	1001
440.255	-38
440.327	2747
440.400	20026
440.472	89702
440.544	52593
440.617	6534
440.689	7927
440.761	11493
440.833	16960
440.905	9530
440.978	679
441.050	92
441.122	-70
441.194	651
441.266	809
441.338	825
441.411	3917
441.483	29286
441.555	38622
441.627	8077
441.699	2247
441.771	1380
441.843	371
441.915	672
441.987	848
442.059	1236
442.131	1837
442.203	4370
442.275	3894
442.347	5898
442.419	15139
442.491	86813
442.563	192165
442.635	66108
442.706	17021
442.778	11532
442.850	4038
442.922	2859
442.994	2785
443.066	5353
443.137	4160
443.209	5504
443.281	8802
443.353	22372
443.425	96549
443.496	319093
443.568	303727
443.640	105447
443.711	18856
443.783	8474
443.855	4721
443.926	3247
443.998	1920
444.070	2969
444.141	3432
444.213	7049
444.285	6395
444.356	4811
444.428	3339
444.499	2660
444.571	1114
444.642	1517
444.714	2288
444.785	4695
444.857	3856
444.928	5684
445.000	4066
445.071	5729
445.143	8138
445.214	10678
445.285	15850
445.357	48521
445.428	200023
445.500	403367
445.571	264901
445.642	153364
445.714	42688
445.785	17965
445.856	9067
445.928	8679
445.999	8083
446.070	6807
446.141	5492
446.213	6350
446.284	2507
446.355	2455
446.426	740
446.497	984
446.569	1958
446.640	4537
446.711	4315
446.782	474
446.853	1296
446.924	1729
446.995	1384
447.066	1143
447.138	391
447.209	243
447.280	-294
447.351	56
447.422	-268
447.493	443
447.564	973
447.635	3534
447.706	1136
447.777	-243
447.847	-1457
447.918	-583
447.989	-31
448.060	753
448.131	1972
448.202	3761
448.273	3700
448.344	876
448.414	486
448.485	1000
448.556	-371
448.627	-141
448.698	189
448.768	-417
448.839	318
448.910	733
448.981	910
449.051	775
449.122	-762
449.193	242
449.263	-884
449.334	44
449.405	948
449.475	5061
449.546	1551
449.616	1634
449.687	968
449.758	290
449.828	-598
449.899	-266
449.969	-632
450.040	-802
450.110	0
450.181	1203
450.251	-326
450.322	-218
450.392	-454
450.463	-68
450.533	-906
450.604	99
450.674	-1142
450.744	384
450.815	-646
450.885	290
450.955	201
451.026	-135
451.096	-634
451.166	428
451.237	1460
451.307	5405
451.377	867
451.447	-822
451.518	-667
451.588	-462
451.658	-407
451.728	373
451.799	3145
451.869	3764
451.939	-190
452.009	-48
452.079	-971
452.149	169
452.219	213
452.289	4524
452.360	2410
452.430	1240
452.500	1444
452.570	3109
452.640	7343
452.710	22145
452.780	22538
452.850	15367
452.920	12108
452.990	3146
453.060	1205
453.129	1953
453.199	1378
453.269	7438
453.339	12813
453.409	18231
453.479	19330
453.549	27361
453.619	26512
453.688	8101
453.758	-86
453.828	-23
453.898	-792
453.968	-379
454.037	-565
454.087	-706
454.107	-783
454.168	-961
454.177	-1011
454.247	-828
454.249	-811
454.316	-918
454.330	-749
454.386	-204
454.411	310
454.456	964
454.492	1887
454.525	2649
454.574	1477
454.595	983
454.655	-478
454.665	-737
454.734	73
454.736	155
454.804	2061
454.817	2622
454.873	4341
454.898	4611
454.943	4952
454.979	2930
455.013	1139
455.060	540
455.082	394
455.141	847
455.152	828
455.221	3615
455.222	3677
455.291	4407
455.303	3803
455.360	1130
455.384	988
455.430	988
455.465	1686
455.499	2060
455.546	3571
455.569	4071
455.627	2894
455.638	2668
455.707	571
455.708	585
455.777	73
455.789	35
455.846	-221
455.869	-30
455.916	383
455.950	276
455.985	49
456.031	531
456.054	767
456.112	614
456.124	537
456.193	81
456.193	61
456.262	309
456.274	463
456.332	947
456.355	932
456.401	772
456.436	841
456.470	831
456.516	400
456.540	172
456.597	487
456.609	565
456.678	881
456.678	863
456.747	994
456.759	886
456.817	337
456.840	495
456.886	783
456.920	628
456.955	569
457.001	1116
457.024	1390
457.082	1594
457.093	1559
457.162	3440
457.163	3465
457.232	2709
457.243	2603
457.301	2045
457.324	1590
457.370	1081
457.405	2101
457.439	3088
457.485	2628
457.508	2358
457.566	3223
457.577	3593
457.646	5525
457.647	5595
457.715	15711
457.727	17718
457.784	30676
457.808	39886
457.853	50071
457.889	55900
457.922	51839
457.969	32235
457.991	33588
458.050	48812
458.060	51446
458.129	86949
458.130	87937
458.198	78118
458.211	69285
458.267	32383
458.292	20703
458.336	14427
458.372	13690
458.405	21952
458.453	36353
458.474	48444
458.533	91324
458.543	94324
458.611	142390
458.614	142966
458.680	73911
458.694	55778
458.749	22092
458.775	14093
458.818	8602
458.855	6352
458.887	5309
458.936	4649
458.955	4416
459.016	3762
459.024	3769
459.093	4337
459.097	4336
459.162	4111
459.177	4343
459.230	5716
459.257	6245
459.299	6759
459.338	7557
459.368	7931
459.418	8266
459.437	7347
459.499	3766
459.505	3735
459.574	3476
459.579	3502
459.643	3155
459.659	3062
459.711	2993
459.740	3038
459.780	3043
459.820	3427
459.849	3600
459.900	3456
459.917	3485
459.981	3541
459.986	3517
460.054	2977
460.061	3035
460.123	3901
460.141	3960
460.191	4838
460.222	5611
460.260	6100
460.302	6726
460.328	6019
460.382	3959
460.397	3758
460.462	3446
460.465	3501
460.534	4392
460.543	4545
460.602	6392
460.623	7265
460.671	10188
460.703	12824
460.739	12384
460.783	10213
460.808	8464
460.864	3816
460.876	3601
460.944	3245
460.945	3238
461.013	3887
461.024	3896
461.081	3957
461.104	4409
461.150	4643
461.184	4470
461.218	4355
461.264	3860
461.286	3857
461.345	3848
461.355	3727
461.423	3555
461.425	3546
461.491	3522
461.505	3591
461.559	5418
461.585	6158
461.628	8584
461.665	11156
461.696	12005
461.745	13209
461.764	11759
461.825	5912
461.832	5909
461.901	5955
461.905	6009
461.969	5691
461.985	5589
462.037	4743
462.065	4255
462.105	4237
462.145	4337
462.173	5411
462.225	7570
462.241	7975
462.305	9205
462.310	9025
462.378	6727
462.385	6352
462.446	5411
462.465	5307
462.514	5703
462.545	5954
462.582	5339
462.625	4595
462.650	4587
462.705	4296
462.718	4142
462.785	3744
462.786	3770
462.854	4841
462.865	5100
462.922	6322
462.945	6696
462.990	5797
463.025	5081
463.058	4864
463.104	4355
463.126	4231
463.184	4393
463.194	4588
463.262	5111
463.264	5160
463.330	5656
463.344	5570
463.398	5234
463.424	5241
463.466	5272
463.504	5208
463.533	5225
463.583	5401
463.601	5821
463.663	7162
463.669	7206
463.737	7587
463.743	7590
463.805	9559
463.823	10280
463.873	12170
463.903	13195
463.940	13795
463.982	14621
464.008	12374
464.062	6986
464.076	6776
464.142	5878
464.144	5861
464.211	4872
464.221	4782
464.279	5676
464.301	5911
464.347	5970
464.381	6156
464.414	6685
464.461	7291
464.482	7593
464.540	8459
464.550	8567
464.617	8984
464.620	8995
464.685	9064
464.699	9022
464.753	8358
464.779	8052
464.820	7742
464.859	7278
464.888	7087
464.938	6869
464.956	7127
465.018	7842
465.023	7805
465.091	7368
465.098	7298
465.158	6843
465.177	6702
465.226	6819
465.257	6850
465.293	7511
465.336	8235
465.361	8834
465.416	10177
465.428	10474
465.495	12124
465.496	12159
465.563	13909
465.575	14225
465.631	17144
465.654	18418
465.698	12643
465.734	7586
465.765	7050
465.813	6152
465.833	6140
465.893	6373
465.900	6430
465.968	6656
465.972	6663
466.035	6950
466.052	7008
466.102	6738
466.131	6555
466.170	6704
466.210	6817
466.237	6757
466.290	6588
466.304	6736
466.369	7298
466.372	7333
466.439	8021
466.449	8080
466.506	8959
466.528	9282
466.573	11358
466.607	12900
466.641	17744
466.687	24454
466.708	26321
466.766	31344
466.775	29466
466.842	14832
466.845	14107
466.909	11295
466.925	10605
466.977	10395
467.004	10285
467.044	10202
467.083	10080
467.111	10238
467.163	10451
467.178	10545
467.242	10845
467.245	10889
467.312	11321
467.321	11358
467.379	10912
467.400	10710
467.446	10866
467.480	10940
467.559	9789
467.638	8756
467.717	9471
467.796	12694
467.875	14369
467.955	11840
468.034	15385
468.113	26164
468.192	35970
468.271	17945
468.350	20651
468.429	30157
468.508	33808
468.588	20377
468.667	14012
468.746	11138
468.825	10474
468.904	9881
468.983	11030
469.062	14865
469.141	16476
469.220	8982
469.299	9689
469.378	8548
469.456	10063
469.535	9340
469.614	8637
469.693	9314
469.772	10761
469.851	15122
469.930	12804
470.009	11971
470.088	14923
470.166	22276
470.245	42453
470.324	55923
470.403	34869
470.482	19599
470.560	14471
470.639	14966
470.718	17166
470.797	13376
470.875	12885
470.954	16365
471.033	15904
471.111	9413
471.190	7947
471.269	8366
471.347	8673
471.426	9132
471.505	9489
471.583	8508
471.662	8784
471.740	9131
471.819	8285
471.898	7845
471.976	7974
472.055	8447
472.133	9099
472.212	10219
472.290	10368
472.369	8020
472.447	7249
472.526	7632
472.604	9055
472.683	11146
472.761	12678
472.839	10765
472.918	10618
472.996	9495
473.075	10222
473.153	10110
473.231	8353
473.310	11802
473.388	11812
473.466	10145
473.545	12793
473.623	17622
473.701	19335
473.780	11173
473.858	8882
473.936	11004
474.014	10031
474.093	12544
474.171	12514
474.249	14247
474.327	13083
474.405	10348
474.484	9390
474.562	10069
474.640	9428
474.718	10004
474.796	9619
474.874	10143
474.952	8596
475.030	8801
475.108	9942
475.187	10727
475.265	14851
475.343	27377
475.421	33036
475.499	10815
475.577	9702
475.655	11042
475.733	16244
475.811	23161
475.889	21158
475.966	16315
476.044	10901
476.122	19355
476.200	28237
476.278	19327
476.356	8352
476.434	10779
476.512	17116
476.590	25552
476.667	19904
476.745	9071
476.823	9691
476.901	8818
476.979	8834
477.056	9644
477.134	9093
477.212	9999
477.290	9389
477.367	8195
477.445	7649
477.523	7116
477.601	9286
477.678	9752
477.756	8814
477.834	9000
477.911	8428
477.989	8637
478.066	9425
478.144	10133
478.222	18007
478.299	39995
478.377	34109
478.454	8608
478.532	9029
478.609	10139
478.687	11769
478.764	8240
478.842	10807
478.919	11470
478.997	11211
479.074	7421
479.152	8630
479.229	9884
479.307	8453
479.384	7090
479.461	7774
479.539	7899
479.616	9400
479.694	9102
479.771	8185
479.848	8960
479.926	10182
480.003	12169
480.080	9560
480.157	7510
480.235	8030
480.312	8487
480.389	8757
480.467	10544
480.544	13344
480.621	9948
480.698	11033
480.775	12279
480.853	9774
480.930	8040
481.007	8992
481.084	8973
481.161	8770
481.238	9633
481.315	9048
481.392	7773
481.470	8712
481.547	7935
481.624	7740
481.701	8373
481.778	9628
481.855	9343
481.932	12217
482.009	16938
482.086	15651
482.163	14959
482.240	27843
482.317	57524
482.393	40005
482.470	12712
482.547	11718
482.624	11392
482.701	12661
482.778	11462
482.855	8886
482.932	10606
483.009	10621
483.085	13946
483.162	18597
483.239	18170
483.316	14739
483.393	15302
483.469	11765
483.546	11604
483.623	11452
483.699	9267
483.776	10178
483.853	10939
483.930	12559
484.006	22258
484.083	32704
484.160	16018
484.236	19300
484.313	16100
484.389	14173
484.466	14881
484.543	16222
484.619	18796
484.696	23083
484.772	17961
484.849	15713
484.925	13048
485.002	14219
485.078	16936
485.155	18977
485.231	11978
485.308	11120
485.384	12041
485.461	14202
485.537	21180
485.614	25388
485.690	12755
485.766	12413
485.843	15298
485.919	28836
485.995	32791
486.072	13109
486.148	11596
486.224	12338
486.301	13058
486.377	16738
486.453	24058
486.530	16599
486.606	14836
486.682	15336
486.758	18914
486.835	22085
486.911	19414
486.987	34082
487.063	59843
487.139	93998
487.215	60923
487.292	25921
487.368	21160
487.444	29663
487.520	47455
487.596	52715
487.672	102987
487.748	336769
487.824	544743
487.900	184259
487.976	49460
488.052	34740
488.128	43825
488.204	29515
488.280	17311
488.356	16022
488.432	26072
488.508	38339
488.584	19407
488.660	17144
488.736	15901
488.812	17454
488.888	21866
488.964	33298
489.039	87951
489.115	148152
489.191	83367
489.267	15605
489.343	13157
489.418	11306
489.494	10165
489.570	9102
489.646	11680
489.722	11033
489.797	11533
489.873	15185
489.949	27194
490.024	24319
490.100	11972
490.176	12210
490.251	18336
490.327	27920
490.403	16041
490.478	12383
490.554	10771
490.629	10695
490.705	10090
490.781	12020
490.856	11560
490.932	13526
491.007	16224
491.083	13191
491.158	11871
491.234	12529
491.309	21595
491.385	22366
491.460	11904
491.536	13361
491.611	13024
491.686	16224
491.762	23878
491.837	58990
491.913	95932
491.988	137738
492.063	186426
492.139	37111
492.214	16422
492.289	10818
492.365	11804
492.440	14195
492.515	13744
492.590	11320
492.666	11067
492.741	12643
492.816	15888
492.891	10949
492.967	10257
493.042	10563
493.117	8764
493.192	9928
493.267	12075
493.342	15372
493.418	15666
493.493	10624
493.568	9983
493.643	10056
493.718	12435
493.793	18599
493.868	26833
493.943	20350
494.018	12060
494.093	9529
494.168	10695
494.243	9206
494.318	10277
494.393	8545
494.468	9017
494.543	10900
494.618	11929
494.693	10545
494.768	10110
494.842	10341
494.917	11351
494.992	11044
495.067	10315
495.142	10333
495.217	11022
495.292	12602
495.366	14064
495.441	16786
495.516	23506
495.591	33549
495.665	128368
495.740	330804
495.815	139422
495.890	18662
495.964	11065
496.039	13432
496.114	11620
496.188	12751
496.263	12723
496.338	11246
496.412	12165
496.487	13748
496.561	19787
496.636	19340
496.710	12731
496.785	13830
496.860	14249
496.934	12635
497.009	13514
497.083	12714
497.158	12209
497.232	13691
497.307	18101
497.381	16236
497.455	15458
497.530	17904
497.604	13268
497.679	15068
497.753	19539
497.827	25840
497.902	23942
497.976	26484
498.050	52571
498.125	194399
498.199	214686
498.273	50283
498.348	38594
498.422	29147
498.496	29920
498.570	28870
498.645	16591
498.719	15255
498.793	16761
498.867	22959
498.941	30176
499.016	75689
499.090	204524
499.164	83637
499.238	14713
499.312	15332
499.386	21272
499.460	19156
499.534	16463
499.609	18977
499.683	20922
499.757	18119
499.831	33877
499.905	124846
499.979	128608
500.053	23943
500.127	29730
500.201	31496
500.275	18639
500.349	15881
500.422	17408
500.496	30056
500.570	63742
500.644	98862
500.718	139784
500.792	39381
500.866	12641
500.940	13824
501.013	13010
501.087	14995
501.161	30576
501.235	34189
501.309	40465
501.382	105460
501.456	106667
501.530	29690
501.603	35596
501.677	18708
501.751	9837
501.825	13538
501.898	17593
501.972	42427
502.046	31235
502.119	12423
502.193	25164
502.266	48492
502.340	26421
502.413	21341
502.487	39236
502.561	25336
502.634	13476
502.708	14774
502.781	12649
502.855	10767
502.928	7681
503.002	8788
503.075	8479
503.149	9453
503.222	8325
503.295	9271
503.369	10716
503.442	12656
503.516	32104
503.589	75870
503.662	55344
503.736	24592
503.809	44756
503.882	45211
503.956	65399
504.029	93047
504.102	193749
504.175	299245
504.249	113010
504.322	39646
504.395	22998
504.468	16597
504.542	13020
504.615	9881
504.688	10931
504.761	8828
504.834	13890
504.907	17406
504.980	30486
505.053	14641
505.127	17964
505.200	19472
505.273	10217
505.346	7798
505.419	7247
505.492	8617
505.565	7438
505.638	7221
505.711	6713
505.784	6402
505.857	6600
505.930	8171
506.003	5682
506.076	8817
506.149	7771
506.221	8819
506.294	10375
506.367	17842
506.440	58382
506.513	40111
506.586	11339
506.659	8083
506.731	8745
506.804	11388
506.877	18115
506.950	10482
507.022	9224
507.095	7724
507.168	10247
507.241	10560
507.313	8345
507.386	10376
507.459	16488
507.531	10884
507.604	7643
507.677	7843
507.749	6229
507.822	11219
507.894	18933
507.967	19253
508.040	9594
508.112	10370
508.185	12012
508.257	9483
508.330	19393
508.402	10369
508.475	7703
508.547	9217
508.620	8751
508.692	12195
508.765	9202
508.837	5994
508.909	7726
508.982	7213
509.054	9655
509.127	7909
509.199	5680
509.271	5823
509.344	6448
509.416	5996
509.488	7201
509.560	7992
509.633	8760
509.705	10629
509.777	9856
509.849	17299
509.922	10972
509.994	6787
510.066	7413
510.138	5420
510.210	10207
510.283	7880
510.355	8114
510.427	8269
510.499	9322
510.571	7155
510.643	7792
510.715	19849
510.787	16948
510.859	9312
510.931	10318
511.003	18518
511.076	16545
511.148	6694
511.219	6313
511.291	8988
511.363	10951
511.435	6455
511.507	5934
511.579	7411
511.651	7535
511.723	6058
511.795	6725
511.867	6539
511.939	9015
512.010	12314
512.082	13361
512.154	7113
512.226	8138
512.298	11573
512.369	16250
512.441	13324
512.513	15352
512.585	10582
512.656	11474
512.728	13090
512.800	9844
512.871	9019
512.943	8694
513.015	6446
513.086	10209
513.158	10954
513.230	11799
513.301	17950
513.373	25055
513.444	11736
513.516	8732
513.588	9419
513.659	11539
513.731	16582
513.802	14539
513.874	33576
513.945	66874
514.016	21050
514.088	9988
514.159	10896
514.231	15687
514.302	17460
514.374	10593
514.445	8763
514.516	16493
514.588	12128
514.659	9789
514.730	13958
514.802	16232
514.873	10847
514.944	13780
515.016	11553
515.087	14517
515.158	15036
515.229	18324
515.301	10086
515.372	13107
515.443	10113
515.514	8901
515.585	9283
515.656	10583
515.728	10626
515.799	9272
515.870	11770
515.941	13322
516.012	12200
516.083	15500
516.154	18143
516.225	30761
516.296	31323
516.367	30363
516.438	38936
516.509	52951
516.580	83695
516.651	270885
516.722	1019984
516.793	490398
516.864	78145
516.935	66978
517.006	78389
517.077	111268
517.148	262980
517.219	1027141
517.289	1625483
517.360	330304
517.431	77073
517.502	34005
517.573	28552
517.643	26155
517.714	25373
517.785	29390
517.856	33881
517.926	46265
517.997	59729
518.068	81301
518.138	114384
518.209	188784
518.280	657365
518.350	2080477
518.421	1070570
518.492	147359
518.562	70667
518.633	62658
518.703	72088
518.774	134569
518.845	350567
518.915	369471
518.986	107920
519.056	53235
519.127	63492
519.197	77143
519.268	98398
519.338	55751
519.408	24118
519.479	38051
519.549	27833
519.620	17915
519.690	12381
519.760	12440
519.831	14076
519.901	13315
519.971	10566
520.042	10855
520.112	11133
520.182	17313
520.253	22045
520.323	12849
520.393	20463
520.463	38856
520.534	21895
520.604	53021
520.674	21801
520.744	17894
520.814	55773
520.885	52364
520.955	24383
521.025	73180
521.095	35250
521.165	10084
521.235	9678
521.305	9118
521.375	9415
521.445	11501
521.515	17938
521.585	21232
521.655	20696
521.725	15048
521.795	13040
521.865	7331
521.935	11772
522.005	9824
522.075	7396
522.145	10221
522.215	9135
522.285	11606
522.355	15146
522.424	24062
522.494	23429
522.564	20808
522.634	46654
522.704	157898
522.774	64756
522.843	13513
522.913	12397
522.983	17962
523.053	13386
523.122	14104
523.192	20695
523.262	81833
523.331	87390
523.401	16974
523.471	11334
523.540	10735
523.610	7919
523.680	7872
523.749	8167
523.819	9695
523.888	9235
523.958	8000
524.027	9283
524.097	10479
524.166	9252
524.236	11294
524.305	12130
524.375	8582
524.444	6783
524.514	9487
524.583	9285
524.653	9772
524.722	10933
524.791	9278
524.861	10068
524.930	8468
524.999	10575
525.069	16268
525.138	11497
525.207	10241
525.277	10794
525.346	11875
525.415	12371
525.484	13842
525.554	15060
525.623	17475
525.692	18094
525.761	23120
525.830	29747
525.900	39703
525.969	61769
526.038	115250
526.107	232053
526.176	710386
526.245	630662
526.314	184310
526.383	342594
526.452	518244
526.522	716037
526.591	785241
526.660	174911
526.729	90855
526.797	93986
526.867	160841
526.935	604024
527.004	1363881
527.073	896159
527.142	101321
527.211	37786
527.280	28799
527.349	26110
527.418	15084
527.487	15021
527.555	12060
527.624	11564
527.693	9714
527.762	11932
527.831	9002
527.899	10266
527.968	10139
528.037	8837
528.106	13866
528.174	24553
528.243	18247
528.312	21845
528.380	36013
528.449	11733
528.518	10320
528.586	6594
528.655	8702
528.723	7293
528.792	6671
528.861	7433
528.929	6449
528.998	7778
529.066	7551
529.135	7888
529.203	7752
529.272	7004
529.340	10003
529.409	9682
529.477	7078
529.545	8883
529.614	11107
529.682	10764
529.751	12019
529.819	15523
529.887	11207
529.956	10220
530.024	10868
530.092	9725
530.161	12624
530.229	20639
530.297	13272
530.365	9865
530.434	8731
530.502	8445
530.570	8713
530.638	7251
530.707	10319
530.775	11807
530.843	8970
530.911	9630
530.979	9115
531.047	8696
531.115	9374
531.183	9890
531.252	9607
531.320	8934
531.388	8594
531.456	10427
531.524	9126
531.592	10384
531.660	13167
531.728	9301
531.796	9412
531.864	9811
531.932	10999
532.000	9869
532.067	10429
532.135	12262
532.203	15719
532.271	16054
532.339	25412
532.407	69443
532.475	46001
532.542	20918
532.610	23159
532.678	29979
532.746	111294
532.814	311230
532.881	88091
532.949	17606
533.017	13863
533.084	11158
533.152	11441
533.220	12451
533.287	13397
533.355	12104
533.423	12037
533.490	10343
533.558	11149
533.625	11363
533.693	11339
533.761	12149
533.828	12255
533.896	11492
533.963	24048
534.031	30578
534.098	45107
534.166	24518
534.233	12947
534.300	16631
534.368	16331
534.435	15912
534.503	18236
534.570	23067
534.637	24584
534.705	28890
534.772	34516
534.840	66569
534.907	296035
534.974	445908
535.041	58622
535.109	22216
535.176	15389
535.243	13968
535.310	15049
535.378	14701
535.445	13400
535.512	13483
535.579	13258
535.646	13068
535.714	13044
535.781	13846
535.848	13402
535.915	12625
535.982	11424
536.049	12684
536.116	15455
536.183	11846
536.250	13186
536.317	13209
536.384	17338
536.451	24786
536.518	25766
536.585	17643
536.652	23214
536.719	32586
536.786	26744
536.853	21176
536.920	27003
536.987	43874
537.053	42972
537.120	149718
537.187	145852
537.254	21038
537.321	15669
537.388	16051
537.454	13631
537.521	13598
537.588	14191
537.654	14266
537.721	15969
537.788	17072
537.855	14425
537.921	14328
537.988	14568
538.055	14323
538.121	14299
538.188	15292
538.254	22352
538.321	45458
538.388	30690
538.454	16892
538.521	16653
538.587	14181
538.654	13431
538.720	14548
538.787	13904
538.853	14397
538.920	15782
538.986	16057
539.053	14335
539.119	16239
539.185	17304
539.252	19055
539.318	28838
539.385	22245
539.451	17789
539.517	18830
539.583	21278
539.650	41574
539.716	115824
539.782	39533
539.849	16969
539.915	16398
539.981	16676
540.047	20299
540.114	18218
540.180	19823
540.246	19176
540.312	25160
540.378	44123
540.444	47431
540.510	47091
540.576	133981
540.643	49784
540.709	16136
540.775	15768
540.841	15469
540.907	17325
540.973	25102
541.039	25878
541.105	28515
541.171	18057
541.237	16775
541.303	18222
541.369	20638
541.435	24940
541.500	41048
541.566	28295
541.632	16743
541.698	14170
541.764	14894
541.830	15233
541.896	13725
541.961	15702
542.027	16666
542.093	16336
542.159	17079
542.224	17454
542.290	23767
542.356	37662
542.421	46466
542.487	21830
542.553	15794
542.618	16002
542.684	17459
542.750	17820
542.815	20991
542.881	30916
542.947	109256
543.012	93544
543.078	17171
543.143	14463
543.209	16445
543.274	17231
543.340	19351
543.405	41357
543.471	73883
543.536	21736
543.602	15345
543.667	14185
543.732	15247
543.798	13972
543.863	14646
543.928	14276
543.994	14132
544.059	14623
544.124	15033
544.190	15713
544.255	16935
544.320	17162
544.386	18322
544.451	24598
544.516	27849
544.581	26486
544.646	66305
544.712	117879
544.777	27836
544.842	17967
544.907	17552
544.972	16050
545.037	16824
545.102	18929
545.168	17905
545.233	19826
545.298	19791
545.363	20798
545.428	24836
545.493	42322
545.558	94817
545.623	44874
545.688	19328
545.753	19926
545.818	19097
545.883	21510
545.947	20703
546.012	22005
546.077	21915
546.142	24163
546.207	23952
546.272	31569
546.337	32819
546.401	28073
546.466	26337
546.531	25520
546.596	28337
546.661	30483
546.725	31768
546.790	31216
546.855	33332
546.919	36032
546.984	40501
547.049	44025
547.113	51794
547.178	53888
547.243	61011
547.307	69637
547.372	81673
547.436	81007
547.501	82001
547.565	89803
547.630	88587
547.695	83995
547.759	80560
547.823	80746
547.888	79432
547.952	82476
548.017	85486
548.081	88191
548.146	90488
548.210	91406
548.274	95439
548.339	94829
548.403	85571
548.468	81300
548.532	78906
548.596	80790
548.660	81560
548.725	89604
548.789	100071
548.853	97129
548.917	88902
548.982	88927
549.046	82246
549.110	71617
549.174	72847
549.238	84034
549.303	91453
549.367	97111
549.431	91222
549.495	86772
549.559	85992
549.623	99531
549.687	113162
549.751	117604
549.815	129283
549.879	129310
549.943	123323
550.007	129624
550.071	129460
550.135	122847
550.199	111289
550.263	106150
550.327	100284
550.391	104599
550.455	113747
550.519	122210
550.582	131714
550.646	154245
550.710	160760
550.774	148641
550.838	148930
550.901	152554
550.965	164641
551.029	171012
551.093	188000
551.156	207251
551.220	249486
551.284	305205
551.347	223561
551.411	180000
551.475	171084
551.538	160461
551.602	148475
551.666	138213
551.729	128797
551.793	125907
551.856	122721
551.920	119633
551.983	120059
552.047	121083
552.110	118034
552.174	119058
552.237	125169
552.301	117797
552.364	110368
552.428	107027
552.491	111280
552.554	116569
552.618	114776
552.681	122374
552.745	123268
552.808	161055
552.871	205653
552.934	155183
552.998	123221
553.061	113280
553.124	106784
553.187	104771
553.251	107916
553.314	107905
553.377	107056
553.440	113295
553.503	118417
553.567	118128
553.630	114308
553.693	113218
553.756	112792
553.819	111035
553.882	104827
553.945	106160
554.008	105863
554.071	105465
554.134	109161
554.197	101448
554.260	98075
554.323	100596
554.386	103238
554.449	106346
554.512	107567
554.575	101677
554.638	101438
554.701	100190
554.764	98651
554.827	95114
554.889	92186
554.952	85537
555.015	83447
555.078	85030
555.141	87756
555.203	85606
555.266	85161
555.329	85875
555.391	82832
555.454	81907
555.517	79281
555.580	77552
555.642	72312
555.705	70118
555.768	71184
555.830	69942
555.893	66087
555.955	64804
556.018	64118
556.080	64832
556.143	66512
556.206	65911
556.268	63972
556.330	63979
556.393	62133
556.455	60705
556.518	61469
556.580	61460
556.643	56323
556.705	55038
556.767	54492
556.830	54589
556.892	55600
556.955	65981
557.017	57977
557.079	51224
557.142	50826
557.204	54039
557.266	73747
557.328	66163
557.391	44500
557.453	42002
557.515	42968
557.577	47674
557.639	50964
557.701	46246
557.764	45648
557.826	47786
557.888	51790
557.950	56428
558.012	62386
558.074	83080
558.136	183580
558.198	512191
558.260	206502
558.322	63370
558.384	62176
558.446	70845
558.508	80429
558.570	97853
558.632	134133
558.694	188692
558.756	244203
558.818	664864
558.880	1653313
558.942	671813
559.003	542514
559.065	297053
559.127	96728
559.189	93551
559.251	104968
559.312	147249
559.374	339602
559.436	1160895
559.498	676306
559.559	121458
559.621	96216
559.683	108437
559.744	171103
559.806	544404
559.868	938563
559.929	211220
559.991	102520
560.052	154444
560.114	473550
560.176	343114
560.237	251697
560.299	474889
560.360	115120
560.422	36065
560.483	30595
560.545	25614
560.606	24217
560.667	22696
560.729	21397
560.790	20500
560.852	20945
560.913	20875
560.974	20071
561.036	19280
561.097	20399
561.158	19781
561.220	20294
561.281	19710
561.342	20190
561.403	22806
561.465	27508
561.526	56715
561.587	81717
561.648	26162
561.709	19088
561.771	17791
561.832	17770
561.893	17701
561.954	17318
562.015	16558
562.076	17393
562.137	16948
562.198	16847
562.259	17627
562.320	18075
562.381	18884
562.442	29142
562.503	24267
562.564	16456
562.625	16812
562.686	15961
562.747	20807
562.808	17794
562.869	14580
562.930	15891
562.991	14977
563.051	14861
563.112	14751
563.173	14596
563.234	13586
563.294	13951
563.355	14255
563.416	15338
563.477	14531
563.537	14077
563.598	14729
563.659	14949
563.720	13778
563.780	14917
563.841	15949
563.901	14598
563.962	13253
564.023	13462
564.083	13558
564.144	14676
564.204	13068
564.265	13108
564.325	13538
564.386	17697
564.446	17481
564.507	14073
564.567	13164
564.628	13716
564.688	13148
564.749	12144
564.809	13757
564.869	13864
564.930	12644
564.990	14290
565.050	12928
565.111	13040
565.171	12217
565.231	12726
565.292	13407
565.352	12685
565.412	12785
565.472	13737
565.532	14385
565.593	13870
565.653	12531
565.713	13949
565.773	15982
565.833	18197
565.893	22558
565.953	13787
566.013	12086
566.074	13014
566.134	14166
566.194	17094
566.254	20107
566.314	15779
566.374	12187
566.434	13714
566.494	12952
566.554	12260
566.614	13476
566.673	12708
566.733	14498
566.793	14990
566.853	14737
566.913	14195
566.973	13653
567.033	16830
567.092	18873
567.152	16508
567.212	16486
567.272	13791
567.331	13944
567.391	14370
567.451	15836
567.511	15640
567.570	16108
567.630	14709
567.690	13732
567.749	13175
567.809	13744
567.868	14981
567.928	14313
567.988	15908
568.047	17441
568.107	19120
568.166	21408
568.226	29941
568.285	38402
568.345	33059
568.404	27279
568.464	25383
568.523	23049
568.582	23068
568.642	28169
568.701	32312
568.761	38778
568.820	58804
568.879	54989
568.939	40207
568.998	31555
569.057	25371
569.116	21912
569.176	20155
569.235	17675
569.294	16324
569.353	15401
569.413	14609
569.472	14273
569.531	13762
569.590	13115
569.649	13025
569.708	13237
569.767	15557
569.827	22145
569.886	19541
569.945	13545
570.004	15193
570.063	13649
570.122	14687
570.181	15514
570.240	13245
570.299	16758
570.358	21832
570.417	14222
570.475	13502
570.534	14311
570.593	15384
570.652	15691
570.711	18360
570.770	14842
570.829	15239
570.887	15065
570.946	16824
571.005	13698
571.064	15290
571.122	17069
571.181	16678
571.240	14055
571.299	11404
571.357	12009
571.416	11738
571.475	12354
571.533	12754
571.592	12766
571.650	12636
571.709	13042
571.768	14770
571.826	14946
571.885	13138
571.943	11716
572.002	11465
572.060	10825
572.119	10944
572.177	11194
572.236	10460
572.294	10934
572.352	11005
572.411	12590
572.469	11600
572.528	12840
572.586	13167
572.644	16278
572.703	23489
572.761	15713
572.819	11677
572.877	9847
572.936	9408
572.994	9977
573.052	11596
573.110	13211
573.169	11700
573.227	10263
573.285	11065
573.343	10420
573.401	10694
573.459	10784
573.517	10913
573.576	12239
573.634	12811
573.692	13587
573.750	12032
573.808	10252
573.866	10481
573.924	11283
573.982	11377
574.040	10475
574.098	9855
574.155	9345
574.213	10855
574.271	10631
574.329	13137
574.387	11092
574.445	10007
574.503	9452
574.560	8972
574.618	9771
574.676	9251
574.734	9640
574.792	9651
574.849	8524
574.907	9053
574.965	8763
575.022	8139
575.080	8538
575.138	8768
575.195	8830
575.253	9165
575.311	10417
575.368	8896
575.426	7895
575.483	8568
575.541	8591
575.598	8148
575.656	8228
575.713	8896
575.771	9694
575.828	9070
575.886	9091
575.943	8819
576.001	8471
576.058	7984
576.115	8390
576.173	10009
576.230	10257
576.287	13325
576.345	10646
576.402	8453
576.459	8454
576.517	7369
576.574	9632
576.631	8842
576.688	7759
576.746	8079
576.803	7294
576.860	7269
576.917	8837
576.974	7865
577.031	8153
577.089	7548
577.146	7946
577.203	7529
577.260	8588
577.317	7527
577.374	8818
577.431	8370
577.488	7710
577.545	7457
577.602	8034
577.659	7588
577.716	7924
577.773	7953
577.830	7826
577.886	7224
577.943	7053
578.000	7949
578.057	7939
578.114	8474
578.171	8069
578.227	7027
578.284	6921
578.341	8075
578.398	7676
578.454	9144
578.511	8267
578.568	9439
578.625	7518
578.681	7746
578.738	7980
578.794	7387
578.851	7129
578.908	6970
578.964	7222
579.021	8617
579.077	8055
579.134	8460
579.190	7875
579.247	7491
579.303	7604
579.360	6767
579.416	8059
579.473	6856
579.529	6622
579.586	7714
579.642	7692
579.698	7377
579.755	7413
579.811	8161
579.867	8307
579.924	7287
579.980	6950
580.036	7835
580.093	8174
580.149	7008
580.205	7826
580.261	7496
580.317	7662
580.374	7608
580.430	9469
580.486	8288
580.542	8449
580.598	8386
580.619	8696
580.654	9245
580.692	8590
580.710	8280
580.765	9218
580.767	9259
580.823	9291
580.838	9182
580.879	8921
580.911	8747
580.935	8635
580.984	8673
580.991	8692
581.047	8107
581.057	8092
581.103	8062
581.130	8188
581.159	8330
581.203	8019
581.215	7948
581.270	7948
581.276	7852
581.326	7001
581.349	7377
581.382	7972
581.422	7733
581.438	7626
581.494	8110
581.494	8105
581.550	8403
581.567	8660
581.606	9134
581.640	8711
581.661	8484
581.713	8515
581.717	8522
581.773	8061
581.786	7929
581.829	7585
581.859	7908
581.885	8171
581.932	8385
581.940	8422
581.996	8095
582.004	8020
582.052	7611
582.077	7536
582.107	7489
582.150	7791
582.163	7858
582.219	8088
582.223	8041
582.274	7836
582.296	7953
582.330	7922
582.368	7493
582.386	7396
582.441	7892
582.441	7895
582.497	7407
582.514	7513
582.552	8041
582.587	8072
582.608	7970
582.659	8053
582.663	8076
582.719	8206
582.732	8308
582.774	8516
582.805	8251
582.830	8068
582.877	8372
582.885	8440
582.941	8237
582.950	8197
582.996	7846
583.023	8107
583.052	8453
583.095	8480
583.107	8527
583.162	8060
583.168	8136
583.218	8556
583.240	8199
583.273	7779
583.313	7734
583.328	7683
583.384	7810
583.385	7803
583.439	7635
583.458	7634
583.494	7613
583.531	7650
583.549	7777
583.603	8051
583.605	8041
583.660	7710
583.676	7505
583.715	7459
583.748	8415
583.770	8870
583.820	7939
583.825	7874
583.881	8153
583.893	8020
583.936	7329
583.965	7345
583.991	7490
584.038	7531
584.046	7480
584.101	7982
584.110	7927
584.156	8045
584.183	7975
584.211	7657
584.255	7890
584.266	8040
584.321	8161
584.328	8256
584.376	8580
584.400	8518
584.431	8708
584.472	8556
584.486	8408
584.541	8671
584.545	8680
584.596	9159
584.617	9283
584.651	9347
584.689	9586
584.706	9661
584.761	9811
584.762	9815
584.816	9869
584.834	10062
584.871	10569
584.906	10702
584.926	10673
584.978	11482
584.980	11518
585.035	13064
585.051	13245
585.090	13852
585.123	15009
585.145	15754
585.195	17204
585.200	17357
585.254	20807
585.267	21649
585.309	24548
585.340	27156
585.364	29113
585.412	33606
585.419	34369
585.473	43392
585.484	45714
585.528	56871
585.556	69893
585.583	91709
585.628	150610
585.637	169213
585.692	361716
585.700	401043
585.747	564227
585.772	462739
585.801	293438
585.845	103828
585.856	72812
585.910	36984
585.917	34405
585.965	25139
585.989	22322
586.019	19851
586.061	17239
586.074	16500
586.128	16146
586.133	16115
586.183	16068
586.205	15930
586.237	15181
586.277	14511
586.292	14472
586.346	14320
586.349	14325
586.401	13871
586.421	13870
586.455	14116
586.493	14344
586.509	14675
586.564	16079
586.565	16155
586.618	19779
586.637	20387
586.672	20132
586.709	19973
586.727	20192
586.781	21723
586.781	21708
586.835	17266
586.853	16440
586.889	15462
586.925	14578
586.944	14106
586.996	14236
586.998	14245
587.052	14273
587.068	14197
587.106	13950
587.140	14040
587.161	14204
587.212	14878
587.215	14893
587.269	15250
587.284	15193
587.323	15027
587.356	15252
587.377	15514
587.427	16470
587.431	16499
587.485	16272
587.499	16300
587.539	16724
587.571	17139
587.593	17470
587.643	18285
587.648	18340
587.702	18621
587.715	18761
587.755	19305
587.786	20246
587.810	20515
587.858	19911
587.864	19991
587.917	21811
587.930	22206
587.971	23208
588.001	24025
588.025	24770
588.073	26301
588.079	26457
588.133	27855
588.145	28361
588.187	30256
588.217	31776
588.241	33739
588.288	38201
588.295	38757
588.348	44145
588.360	45458
588.402	50632
588.431	54849
588.456	58611
588.503	66395
588.510	67490
588.564	78760
588.575	81857
588.617	95585
588.646	106534
588.671	117329
588.718	143003
588.725	149291
588.778	211838
588.789	229312
588.832	350777
588.861	453640
588.886	601664
588.932	919901
588.939	943730
588.993	1027690
589.004	1022071
589.047	706621
589.075	476311
589.100	356679
589.147	194813
589.154	184174
589.207	140043
589.218	133723
589.261	125455
589.290	124264
589.314	128783
589.361	144829
589.368	151116
589.421	218090
589.433	237247
589.475	396386
589.504	532612
589.528	663256
589.576	898248
589.582	877022
589.635	551966
589.647	476466
589.689	257231
589.718	138375
589.742	108444
589.790	69217
589.795	66817
589.849	51933
589.861	49290
589.902	43581
589.932	39812
589.955	36951
590.004	31564
590.009	31213
590.062	28911
590.075	28343
590.115	26639
590.146	25715
590.168	25115
590.218	23762
590.222	23706
590.275	23630
590.289	23595
590.328	23160
590.360	22934
590.381	22621
590.431	21692
590.435	21640
590.488	21194
590.503	21150
590.541	21270
590.574	21249
590.594	21226
590.645	21286
590.647	21261
590.700	20914
590.716	20781
590.753	20745
590.787	20787
590.806	20915
590.859	21299
590.859	21305
590.912	21874
590.930	22155
590.965	21422
591.001	20462
591.018	20510
591.071	20933
591.072	20943
591.124	20893
591.143	20790
591.177	20613
591.214	20737
591.230	20936
591.283	21479
591.285	21499
591.336	21910
591.356	22195
591.389	22309
591.427	22223
591.442	21863
591.495	20482
591.498	20396
591.547	20352
591.569	20348
591.600	20544
591.640	20723
591.653	20754
591.706	20849
591.711	20875
591.759	20536
591.782	20383
591.811	20925
591.853	21642
591.864	21669
591.917	21856
591.924	21879
591.969	21213
591.995	20863
592.022	21178
592.066	21750
592.075	21839
592.127	22399
592.137	22521
592.180	22783
592.208	22899
592.233	22788
592.279	22669
592.285	22793
592.338	23891
592.350	24144
592.390	23265
592.421	22616
592.443	22982
592.491	23812
592.495	23778
592.548	23349
592.562	23240
592.600	23496
592.633	23732
592.653	23336
592.704	22215
592.705	22376
592.775	24210
592.846	24185
592.916	24892
592.987	25792
593.058	26013
593.128	23875
593.199	25095
593.270	25518
593.341	25646
593.411	26080
593.482	27204
593.553	27459
593.623	26854
593.694	28225
593.764	29554
593.835	27942
593.906	29752
593.976	28110
594.047	29726
594.117	31479
594.188	32275
594.258	31329
594.329	32135
594.399	31781
594.470	32857
594.540	34054
594.611	35128
594.681	33585
594.751	35043
594.822	37137
594.892	38343
594.963	38283
595.033	38616
595.103	39585
595.174	40490
595.244	42997
595.314	45793
595.384	42760
595.455	43871
595.525	45226
595.595	45906
595.665	46927
595.736	46565
595.806	46429
595.876	47066
595.946	47424
596.016	49382
596.087	51577
596.157	49821
596.227	51092
596.297	53421
596.367	58027
596.437	62094
596.507	60914
596.577	62513
596.647	62598
596.717	65715
596.787	65705
596.857	66744
596.927	66110
596.997	66486
597.067	66255
597.137	69178
597.207	69928
597.277	69805
597.347	66745
597.417	64627
597.487	65571
597.557	67989
597.626	67459
597.696	68525
597.766	68762
597.836	66406
597.906	60546
597.975	60926
598.045	59733
598.115	64406
598.185	67550
598.254	76585
598.324	83174
598.394	85680
598.464	79025
598.533	79579
598.603	74061
598.672	73536
598.742	73880
598.812	73362
598.881	75561
598.951	75075
599.020	75766
599.090	79694
599.159	80630
599.229	78226
599.299	74955
599.368	78005
599.437	75263
599.507	69814
599.576	67825
599.646	66192
599.715	65584
599.785	65186
599.854	63752
599.924	63110
599.993	61316
600.062	64245
600.132	64415
600.201	68931
600.270	81461
600.340	84823
600.409	81945
600.478	82005
600.547	83790
600.617	76111
600.686	60033
600.755	55252
600.824	52375
600.894	51331
600.963	49225
601.032	49703
601.101	48958
601.170	45295
601.239	44814
601.308	46611
601.378	44812
601.447	45426
601.516	45652
601.585	47559
601.654	47965
601.723	47321
601.792	47942
601.861	50470
601.930	52692
601.999	53548
602.068	52227
602.137	55564
602.206	55682
602.275	54574
602.343	56608
602.412	57200
602.481	55095
602.550	55684
602.619	55837
602.688	57958
602.756	57549
602.825	59413
602.894	59817
602.963	61396
603.032	61881
603.100	62315
603.169	61723
603.238	63743
603.307	61721
603.375	63371
603.444	65439
603.513	66772
603.581	67347
603.650	68350
603.719	66048
603.787	68287
603.856	71522
603.924	73720
603.993	75869
604.061	77672
604.130	81353
604.198	83677
604.267	84509
604.335	86268
604.404	87157
604.472	88137
604.541	88780
604.609	91106
604.678	89745
604.746	90666
604.815	94292
604.883	94862
604.951	95680
605.020	97381
605.088	97552
605.156	100933
605.225	101172
605.293	101874
605.361	102386
605.429	104584
605.498	106640
605.566	109882
605.634	114865
605.702	118722
605.771	121343
605.839	123041
605.907	119818
605.975	115366
606.043	113494
606.111	113699
606.180	112884
606.248	113360
606.316	109688
606.384	110933
606.452	112874
606.520	119219
606.588	119288
606.656	118221
606.724	115515
606.792	108862
606.860	97081
606.928	88428
606.996	85762
607.064	83900
607.132	85375
607.200	91286
607.267	94741
607.335	96426
607.403	98540
607.471	93481
607.539	91385
607.607	92695
607.674	80966
607.742	81864
607.810	81355
607.878	82263
607.946	82486
608.013	88111
608.081	89813
608.149	90437
608.216	92560
608.284	97636
608.352	94622
608.419	93165
608.487	94292
608.555	91995
608.622	93845
608.690	101166
608.757	110129
608.825	112615
608.893	110972
608.960	108954
609.028	102533
609.095	101165
609.163	97719
609.230	87629
609.298	80518
609.365	85837
609.432	92532
609.500	101372
609.567	115572
609.635	132361
609.702	138175
609.769	132127
609.837	102873
609.904	87585
609.971	92400
610.039	104517
610.106	139088
610.173	261386
610.241	576044
610.308	303154
610.375	112766
610.442	95709
610.509	88934
610.577	91301
610.644	91053
610.711	95154
610.778	97439
610.845	103012
610.912	108809
610.980	113008
611.047	112575
611.114	112345
611.181	107465
611.248	105849
611.315	113902
611.382	116818
611.449	119987
611.516	121824
611.583	120751
611.650	122922
611.717	125017
611.784	127052
611.851	133850
611.918	147231
611.984	171376
612.051	240557
612.118	466398
612.185	1083788
612.252	644508
612.319	193909
612.386	160931
612.452	147617
612.519	138605
612.586	137486
612.653	139329
612.719	143762
612.786	136649
612.853	126393
612.919	125074
612.986	126740
613.053	118501
613.120	110167
613.186	107629
613.253	108653
613.319	107746
613.386	109034
613.453	110904
613.519	113553
613.586	112927
613.652	120188
613.719	115553
613.785	115555
613.852	112261
613.918	109567
613.985	111996
614.051	117833
614.118	116052
614.184	110555
614.250	110955
614.317	113602
614.383	111600
614.449	114247
614.516	111630
614.582	113499
614.648	111849
614.715	111166
614.781	108641
614.847	107591
614.914	106517
614.980	104203
615.046	103309
615.112	107554
615.179	107742
615.245	108662
615.311	108471
615.377	112476
615.443	114327
615.509	113888
615.575	118391
615.642	116819
615.708	118578
615.774	125918
615.840	135855
615.906	148032
615.972	181412
616.038	274695
616.104	555386
616.170	1243210
616.236	986182
616.302	265402
616.368	203595
616.434	149338
616.500	138912
616.565	155847
616.631	193891
616.697	156835
616.763	165111
616.829	248976
616.895	439137
616.961	393181
617.026	165281
617.092	120198
617.158	114722
617.224	112007
617.289	101390
617.355	99552
617.421	96646
617.487	97386
617.552	91368
617.618	90534
617.684	89023
617.749	92712
617.815	85997
617.880	84970
617.946	86142
618.012	86886
618.077	87823
618.143	85675
618.208	84838
618.274	92601
618.339	92610
618.405	76192
618.470	75879
618.536	75007
618.601	73743
618.667	68996
618.732	64718
618.798	65410
618.863	64335
618.928	64940
618.994	63950
619.059	67124
619.124	72629
619.190	67844
619.255	64275
619.320	63753
619.386	64676
619.451	63427
619.516	61631
619.581	62457
619.647	64492
619.712	64284
619.777	61247
619.842	61830
619.907	62838
619.972	64289
620.038	62669
620.103	61599
620.168	61059
620.233	63489
620.298	60693
620.363	64260
620.428	64648
620.493	67173
620.558	66281
620.623	68988
620.688	68461
620.753	67618
620.818	69418
620.883	70010
620.948	67662
621.013	68361
621.078	66937
621.143	67615
621.207	70412
621.272	67732
621.337	65710
621.402	66336
621.467	65683
621.532	64765
621.596	67086
621.661	62950
621.726	61468
621.791	62607
621.855	64265
621.920	63404
621.985	61951
622.049	66160
622.114	64682
622.179	67089
622.243	65886
622.308	69547
622.373	72872
622.437	71631
622.502	65661
622.566	65911
622.631	63563
622.695	68325
622.760	65653
622.824	66564
622.889	66985
622.953	70243
623.018	80196
623.082	79951
623.147	71595
623.211	69617
623.276	68589
623.340	64814
623.404	63300
623.469	63803
623.533	65244
623.597	63260
623.662	62766
623.726	57641
623.790	53523
623.854	53125
623.919	54438
623.983	55557
624.047	56090
624.111	57350
624.176	57756
624.240	59911
624.304	63990
624.368	57626
624.432	58106
624.496	59368
624.560	64174
624.625	65467
624.689	62542
624.753	65545
624.817	61811
624.881	59140
624.945	53786
625.009	51948
625.073	53751
625.137	58533
625.201	61923
625.265	61151
625.329	56035
625.393	57016
625.456	57579
625.520	58886
625.584	60711
625.648	62735
625.712	65176
625.776	72770
625.839	70865
625.903	52946
625.967	46644
626.031	52861
626.095	64348
626.158	55595
626.222	40740
626.286	39124
626.349	37971
626.413	35681
626.477	35447
626.540	36599
626.604	34901
626.668	35312
626.731	34596
626.795	34611
626.858	34156
626.922	33933
626.986	32899
627.049	32636
627.113	35340
627.176	33823
627.240	32414
627.303	33390
627.366	32654
627.430	34258
627.493	33980
627.557	31973
627.620	32673
627.684	35098
627.747	34596
627.810	31025
627.874	28147
627.937	27182
628.000	29594
628.064	28901
628.127	23509
628.190	25084
628.253	24616
628.317	23023
628.380	22288
628.443	21642
628.506	21659
628.569	21330
628.632	18924
628.696	19198
628.759	19403
628.822	18116
628.885	17212
628.948	17729
629.011	17463
629.074	17752
629.137	15955
629.200	16742
629.263	17661
629.326	15474
629.389	15261
629.452	15642
629.515	15759
629.578	15660
629.641	16347
629.704	15290
629.767	15486
629.830	15238
629.892	14866
629.955	13868
630.018	16062
630.081	16337
630.144	18321
630.207	14932
630.269	17230
630.332	14338
630.395	14255
630.458	14604
630.520	13492
630.583	14963
630.646	13371
630.708	13681
630.771	12827
630.834	16691
630.896	13421
630.959	15057
631.021	13135
631.084	13353
631.146	14152
631.209	15419
631.272	14204
631.334	15004
631.397	13962
631.459	15757
631.522	16071
631.584	17242
631.646	18655
631.709	19449
631.771	21025
631.834	18246
631.896	16780
631.958	15012
632.021	15355
632.083	13043
632.145	13276
632.208	13754
632.270	13854
632.332	12746
632.395	12130
632.457	14454
632.519	12847
632.581	14236
632.643	12191
632.706	12858
632.768	11651
632.830	13483
632.892	12831
632.954	11858
633.016	13442
633.078	13360
633.141	12435
633.203	13545
633.265	13699
633.327	13203
633.389	13597
633.451	15119
633.513	14412
633.575	15373
633.637	14395
633.698	15842
633.760	14794
633.822	15530
633.884	16113
633.946	16358
634.008	16153
634.070	17717
634.132	17461
634.193	20186
634.255	21769
634.317	23005
634.379	22453
634.441	19051
634.502	17541
634.564	17335
634.626	14815
634.687	15250
634.749	13238
634.811	14572
634.873	12237
634.934	14244
634.996	13882
635.057	12338
635.119	12745
635.181	13827
635.242	13959
635.304	11862
635.365	15729
635.427	12966
635.488	14241
635.550	12019
635.611	13596
635.673	12040
635.734	15209
635.796	15592
635.857	18174
635.918	19000
635.980	22026
636.041	22029
636.102	25185
636.164	25469
636.225	23187
636.286	19164
636.348	18022
636.409	15445
636.470	13815
636.531	13579
636.593	12549
636.654	12815
636.715	11874
636.776	12595
636.838	9761
636.899	11728
636.960	10718
637.021	11155
637.082	10248
637.143	11176
637.204	9060
637.265	10781
637.326	10160
637.387	11843
637.448	9227
637.509	10999
637.570	9846
637.631	11819
637.692	8917
637.753	8406
637.814	10167
637.875	10405
637.936	9790
637.997	9276
638.058	9695
638.119	10436
638.179	8930
638.240	9520
638.301	8865
638.362	8574
638.423	8840
638.483	10040
638.544	7569
638.605	9579
638.666	7498
638.726	9133
638.787	9224
638.848	8577
638.908	8167
638.969	8352
639.030	8118
639.090	7654
639.151	8138
639.211	9170
639.272	10238
639.332	13947
639.393	10860
639.453	9398
639.514	9240
639.574	8939
639.635	7535
639.695	8216
639.756	6936
639.816	9213
639.877	9103
639.937	13821
639.997	15216
640.058	8678
640.118	7703
640.178	8189
640.239	7234
640.299	8202
640.359	7749
640.420	8659
640.480	10280
640.540	11724
640.600	10970
640.661	10379
640.721	8834
640.781	11328
640.841	6477
640.901	8935
640.961	8031
641.021	9068
641.082	9797
641.142	10480
641.202	8639
641.262	6367
641.322	8401
641.382	7273
641.442	7088
641.502	7183
641.562	7614
641.622	7507
641.682	8262
641.742	10121
641.802	9174
641.861	8727
641.921	7463
641.981	8203
642.041	7742
642.101	8854
642.161	6550
642.221	6083
642.280	6089
642.340	6695
642.400	5966
642.460	8409
642.519	6957
642.579	7798
642.639	7273
642.698	5764
642.758	8731
642.818	7430
642.877	5957
642.937	7873
642.997	8301
643.056	10921
643.116	5573
643.175	8183
643.235	6706
643.294	8379
643.354	9235
643.414	11193
643.473	13279
643.532	17155
643.592	25009
643.651	41971
643.711	73701
643.770	147414
643.830	356694
643.889	723552
643.948	170196
644.008	29879
644.067	17919
644.126	13945
644.186	11071
644.245	10170
644.304	7269
644.363	10284
644.423	7378
644.482	8584
644.541	8389
644.600	9314
644.659	11692
644.719	16835
644.778	25358
644.837	45994
644.896	97938
644.955	222794
645.014	68770
645.073	15497
645.132	9539
645.191	10177
645.250	9198
645.309	11037
645.368	10029
645.427	14749
645.486	24514
645.545	44651
645.604	12586
645.663	8881
645.722	8622
645.781	9545
645.840	12011
645.898	16396
645.957	24952
646.016	37720
646.075	71054
646.134	140982
646.192	378069
646.251	532790
646.310	78166
646.369	22393
646.427	16503
646.486	11495
646.545	9775
646.603	9332
646.662	7982
646.721	7735
646.779	6987
646.838	7638
646.896	11919
646.955	16281
647.014	25693
647.072	52045
647.131	143930
647.189	67412
647.248	8963
647.306	7803
647.365	6498
647.423	5170
647.481	7035
647.540	4722
647.598	4922
647.657	4768
647.715	5527
647.773	4281
647.832	6122
647.890	3513
647.948	4107
648.007	5036
648.065	3631
648.123	4662
648.181	5262
648.240	6048
648.298	3297
648.356	4748
648.414	3967
648.472	5363
648.531	3672
648.589	4945
648.647	3510
648.705	4919
648.763	4572
648.821	5006
648.879	3980
648.937	6249
648.995	8279
649.053	11393
649.111	18706
649.169	31964
649.227	59674
649.285	123626
649.343	355616
649.401	162787
649.459	26310
649.516	14975
649.574	6563
649.632	8926
649.690	8629
649.748	11990
649.806	16904
649.863	35704
649.921	100909
649.979	64941
650.037	8727
650.094	4426
650.152	4433
650.210	3439
650.268	3987
650.325	3507
650.383	2083
650.440	2625
650.498	3771
650.556	2868
650.613	2896
650.671	3525
650.728	2708
650.786	3465
650.843	4758
650.901	2420
650.958	2226
651.016	2499
651.073	2556
651.131	2503
651.188	1125
651.246	1935
651.303	819
651.360	2695
651.418	1040
651.475	2412
651.532	1287
651.590	1774
651.647	634
651.704	1822
651.762	888
651.819	2301
651.876	527
651.933	2368
651.990	2212
652.048	1077
652.105	799
652.162	2432
652.219	537
652.276	2411
652.333	2284
652.390	669
652.448	1170
652.505	1449
652.562	1498
652.619	1242
652.676	935
652.733	2171
652.790	1020
652.847	668
652.904	1394
652.961	1271
653.017	352
653.074	2429
653.131	1361
653.188	924
653.245	1289
653.302	1190
653.359	757
653.415	2720
653.472	236
653.529	1954
653.586	366
653.642	1260
653.699	1801
653.756	653
653.813	665
653.869	1736
653.926	308
653.983	1649
654.039	1112
654.096	1247
654.152	2567
654.209	303
654.266	2030
654.322	481
654.379	1516
654.435	2042
654.492	1628
654.548	2039
654.605	2153
654.661	1835
654.717	1124
654.774	2361
654.830	1871
654.887	1396
654.943	575
655.000	893
655.056	1125
655.112	1171
655.168	625
655.225	1610
655.281	1026
655.337	2069
655.394	1516
655.450	1641
655.506	1065
655.562	1878
655.618	3505
655.675	774
655.731	1457
655.787	1739
655.843	2635
655.899	1311
655.955	2659
656.011	4134
656.067	2611
656.123	3666
656.179	4510
656.235	5083
656.291	3059
656.347	5276
656.403	2348
656.459	3473
656.515	2469
656.571	1730
656.627	1210
656.683	1399
656.739	2896
656.795	2164
656.850	1472
656.906	2571
656.962	2739
657.018	2004
657.074	1465
657.129	3498
657.185	5258
657.241	12253
657.297	7082
657.352	2267
657.408	958
657.464	1672
657.519	1175
657.575	1338
657.630	1199
657.686	788
657.742	-47
657.797	816
657.853	427
657.908	1830
657.964	-360
658.019	528
658.075	795
658.130	1251
658.186	-245
658.241	1732
658.297	-516
658.352	283
658.407	530
658.463	706
658.518	-316
658.573	955
658.629	513
658.684	622
658.739	550
658.795	784
658.850	891
658.905	137
658.960	1255
659.016	-599
659.071	449
659.126	41
659.181	64
659.236	3653
659.291	2789
659.346	773
659.401	89
659.457	1687
659.512	-337
659.567	1806
659.622	216
659.677	304
659.732	-313
659.787	1501
659.842	-453
659.897	794
659.952	701
660.007	137
660.061	793
660.116	-65
660.171	445
660.226	240
660.281	1534
660.336	2
660.391	595
660.445	568
660.500	500
660.555	1025
660.610	-566
660.664	686
660.719	370
660.774	359
660.828	-39
660.883	1005
660.938	1035
660.992	59
661.047	223
661.101	905
661.156	32
661.211	-220
661.265	253
661.320	544
661.374	40
661.429	-209
661.483	1423
661.538	-585
661.592	-203
661.647	92
661.701	102
661.755	744
661.810	186
661.864	130
661.919	-669
661.973	1067
662.027	-331
662.081	249
662.136	168
662.190	96
662.244	146
662.299	556
662.353	223
662.407	963
662.461	-360
662.515	612
662.569	-524
662.624	828
662.678	-251
662.732	841
662.786	334
662.840	1113
662.894	633
662.948	599
663.002	-24
663.056	398
663.110	-181
663.164	757
663.218	923
663.272	626
663.326	261
663.380	297
663.434	307
663.488	80
663.542	927
663.595	1505
663.649	642
663.703	1211
663.757	-289
663.811	146
663.864	-215
663.918	475
663.972	64
664.026	492
664.079	-556
664.133	601
664.187	559
664.240	507
664.294	22
664.348	1733
664.401	353
664.455	1007
664.508	-50
664.562	408
664.615	-283
664.669	1133
664.722	762
664.776	318
664.829	320
664.883	-10
664.936	240
664.990	760
665.043	-164
665.097	-22
665.150	940
665.203	451
665.257	365
665.310	1167
665.363	149
665.417	661
665.470	1033
665.523	1188
665.576	414
665.630	1015
665.683	277
665.736	1443
665.789	-296
665.842	-679
665.895	236
665.949	145
666.002	1015
666.055	1378
666.108	204
666.161	746
666.214	628
666.267	1072
666.320	1056
666.373	1233
666.426	-15
666.479	479
666.532	178
666.585	690
666.638	1322
666.691	675
666.744	639
666.796	20
666.849	-55
666.902	729
666.955	337
667.008	544
667.060	-349
667.113	185
667.166	254
667.219	940
667.271	607
667.324	1313
667.377	570
667.430	222
667.482	-268
667.535	999
667.587	413
667.640	591
667.693	513
667.745	2733
667.798	3829
667.850	1327
667.903	-131
667.955	1316
668.008	136
668.060	952
668.113	-59
668.165	127
668.218	500
668.270	592
668.322	-44
668.375	463
668.427	852
668.479	865
668.532	542
668.584	551
668.636	279
668.689	605
668.741	-173
668.793	1443
668.845	26
668.898	874
668.950	102
669.002	980
669.054	560
669.106	457
669.158	369
669.211	599
669.263	555
669.315	1575
669.367	372
669.419	465
669.471	745
669.523	-217
669.575	596
669.627	471
669.679	477
669.731	1053
669.783	362
669.835	483
669.886	-450
669.938	282
669.990	457
670.042	145
670.094	259
670.146	86
670.197	1230
670.249	995
670.301	415
670.353	1477
670.404	1800
670.456	2406
670.508	4121
670.560	6618
670.611	9598
670.663	17943
670.715	43137
670.766	73594
670.818	22894
670.869	4649
670.921	1635
670.972	1846
671.024	627
671.075	1494
671.127	1200
671.178	1165
671.230	635
671.281	1843
671.333	1311
671.384	1452
671.436	2643
671.487	4519
671.538	7163
671.590	12131
671.641	19780
671.692	38532
671.744	77034
671.795	46770
671.846	12017
671.897	5160
671.949	2547
672.000	2396
672.051	1623
672.102	2380
672.153	58
672.204	887
672.256	1000
672.307	1156
672.358	473
672.409	805
672.460	452
672.511	413
672.562	-172
672.613	206
672.664	427
672.715	832
672.766	-43
672.817	139
672.868	-637
672.919	132
672.970	-357
673.021	1324
673.071	-495
673.122	805
673.173	31
673.224	213
673.275	-798
673.326	192
673.376	10
673.427	-254
673.478	40
673.528	1101
673.579	282
673.630	538
673.680	605
673.731	312
673.782	-386
673.832	366
673.883	37
673.934	116
673.984	-633
674.035	293
674.085	532
674.136	537
674.186	677
674.237	710
674.287	843
674.338	592
674.388	-139
674.438	89
674.489	459
674.539	604
674.589	282
674.640	801
674.690	700
674.740	574
674.791	184
674.841	420
674.891	562
674.942	735
674.992	963
675.042	190
675.092	-219
675.142	708
675.193	-1006
675.243	-558
675.293	-178
675.343	-252
675.393	274
675.443	283
675.493	-693
675.543	-272
675.593	-261
675.643	159
675.693	181
675.743	290
675.793	512
675.843	240
675.893	-275
675.943	892
675.993	-578
676.043	-211
676.093	-163
676.142	376
676.192	-264
676.242	-563
676.292	-464
676.341	245
676.391	-170
676.441	-120
676.491	-464
676.540	-715
676.590	-103
676.640	-724
676.689	-788
676.739	32
676.789	-619
676.838	-201
676.888	-261
676.937	-315
676.987	-263
677.037	-220
677.086	-670
677.136	-486
677.185	-771
677.235	-706
677.284	-833
677.333	-888
677.383	-484
677.432	-213
677.482	-345
677.531	194
677.580	-681
677.630	-221
677.679	-793
677.728	334
677.778	-271
677.827	-147
677.876	-589
677.925	591
677.975	-705
678.024	-588
678.073	-976
678.122	129
678.171	-9
678.220	723
678.269	-725
678.319	-34
678.368	331
678.417	-187
678.466	-278
678.515	-276
678.564	-683
678.613	-582
678.662	-624
678.711	-728
678.760	-1197
678.809	-21
678.857	-870
678.906	-168
678.955	-65
679.004	186
679.053	-1408
679.102	-187
679.151	-1471
679.199	-74
679.248	-1145
679.297	-309
679.346	-496
679.394	-751
679.443	102
679.492	-206
679.540	-708
679.589	-209
679.638	-672
679.686	266
679.735	-614
679.784	63
679.832	-353
679.881	217
679.929	-1332
679.978	-827
680.026	-482
680.075	-394
680.123	-910
680.172	-1054
680.220	-1295
680.268	-1130
680.317	-490
680.365	-292
680.414	-1604
680.462	-482
680.510	-221
680.559	-1464
680.607	-1381
680.655	-859
680.703	-1046
680.752	-494
680.800	-1151
680.848	-777
680.896	-1157
680.945	-491
680.993	-773
681.041	-174
681.089	-641
681.137	-256
681.185	-1019
681.233	-616
681.258	-531
681.281	-457
681.329	-903
681.377	-683
681.380	-655
681.425	-246
681.473	-611
681.502	-673
681.521	-737
681.569	-618
681.617	-164
681.624	-260
681.665	-905
681.713	-598
681.745	-416
681.761	-337
681.809	-336
681.857	-415
681.867	-384
681.904	-302
681.952	-758
681.989	-681
682.000	-667
682.048	-990
682.096	-1080
682.111	-728
682.143	-3
682.191	-953
682.233	-296
682.239	-206
682.286	-428
682.334	-805
682.354	-700
682.382	-556
682.430	-322
682.476	-413
682.477	-420
682.525	-1037
682.572	-940
682.598	-551
682.620	-235
682.667	111
682.715	-379
682.720	-347
682.763	-138
682.810	-774
682.841	-131
682.857	211
682.905	-585
682.952	342
682.963	157
683.000	-533
683.047	-420
683.085	-275
683.095	-236
683.142	-403
683.190	-802
683.206	-567
683.237	-167
683.284	-919
683.328	-632
683.332	-618
683.379	-273
683.426	-23
683.449	-5
683.473	51
683.521	-452
683.568	-289
683.571	-275
683.615	-196
683.662	-107
683.693	-365
683.709	-523
683.757	-581
683.804	-410
683.814	-470
683.851	-648
683.898	754
683.936	6
683.945	-184
683.992	272
684.039	-57
684.057	-97
684.086	-187
684.133	-123
684.179	267
684.180	276
684.227	29
684.274	493
684.300	286
684.321	65
684.368	-544
684.415	649
684.422	602
684.462	391
684.509	-876
684.543	-277
684.556	-76
684.603	-502
684.649	92
684.665	212
684.696	494
684.743	-85
684.786	-59
684.790	-64
684.837	-62
684.883	-250
684.908	219
684.930	620
684.977	324
685.023	329
685.029	278
685.070	23
685.117	499
685.150	321
685.164	230
685.210	785
685.257	456
685.272	641
685.303	914
685.350	499
685.393	307
685.396	309
685.443	136
685.490	1041
685.514	666
685.536	214
685.583	788
685.629	303
685.636	200
685.675	-271
685.722	602
685.757	428
685.768	344
685.815	342
685.861	1166
685.878	1047
685.908	801
685.954	386
686.000	321
686.000	321
686.047	377
686.093	591
686.121	935
686.139	1213
686.185	732
686.232	998
686.242	1006
686.278	683
686.324	501
686.363	19
686.370	-28
686.416	554
686.463	204
686.484	12
686.509	-143
686.555	272
686.601	530
686.606	552
686.647	607
686.693	417
686.727	320
686.739	274
686.785	743
686.831	325
686.848	340
686.877	438
686.923	-334
686.969	287
686.969	290
687.015	797
687.061	1291
687.090	1136
687.107	1034
687.153	1034
687.199	867
687.211	809
687.245	673
687.291	585
687.332	975
687.336	1001
687.382	535
687.428	511
687.453	302
687.474	188
687.520	495
687.565	548
687.574	634
687.611	1101
687.657	991
687.695	919
687.702	873
687.748	667
687.794	1347
687.816	1037
687.839	765
687.885	1147
687.931	847
687.937	883
687.976	1094
688.022	521
688.058	854
688.067	919
688.113	963
688.158	881
688.179	834
688.204	858
688.249	1122
688.295	932
688.300	973
688.340	1160
688.386	589
688.421	609
688.431	655
688.477	1045
688.522	855
688.542	1048
688.567	1293
688.613	1590
688.658	1097
688.663	1174
688.703	1513
688.749	756
688.784	694
688.794	751
688.839	1118
688.884	845
688.905	860
688.930	783
688.975	1362
689.020	873
689.026	890
689.065	1125
689.110	897
689.146	1304
689.155	1386
689.201	1303
689.246	1232
689.267	1049
689.291	959
689.336	1360
689.381	1438
689.388	1472
689.426	1547
689.471	1135
689.509	1497
689.516	1559
689.561	1016
689.606	1642
689.630	1165
689.651	762
689.696	1344
689.741	1308
689.750	1314
689.785	1472
689.830	1143
689.871	1362
689.875	1367
689.920	1573
689.965	1695
689.992	1401
690.010	1241
690.054	1114
690.099	623
690.112	847
690.144	1465
690.189	1222
690.233	1305
690.233	1309
690.278	1226
690.323	1875
690.354	1479
690.367	1285
690.412	1430
690.457	1270
690.474	1413
690.501	1602
690.546	1046
690.590	1476
690.595	1446
690.635	1505
690.680	1768
690.716	1801
690.724	1731
690.769	1867
690.813	1783
690.836	1498
690.857	1405
690.902	1187
690.946	1624
690.957	1534
690.991	1193
691.035	1714
691.077	1712
691.080	1706
691.124	1654
691.168	1117
691.198	1122
691.213	1287
691.257	1517
691.301	2129
691.318	2211
691.346	2042
691.390	1851
691.434	1384
691.439	1370
691.478	1498
691.522	1532
691.559	1777
691.567	1846
691.611	1748
691.655	2120
691.680	2160
691.699	2104
691.743	1817
691.787	1538
691.800	1575
691.831	1871
691.875	1707
691.919	2306
691.921	2292
691.964	1771
692.008	1935
692.041	1646
692.052	1620
692.096	1849
692.139	2055
692.162	2072
692.183	1963
692.227	1854
692.271	1496
692.282	1499
692.315	1794
692.359	2001
692.402	1896
692.403	1901
692.447	2388
692.490	1976
692.523	2071
692.534	2122
692.578	2054
692.622	2322
692.643	2154
692.666	1834
692.709	1773
692.753	933
692.763	996
692.797	1518
692.840	1523
692.884	1654
692.884	1663
692.928	1511
692.971	2160
693.004	2007
693.015	1852
693.059	2117
693.102	1544
693.124	1445
693.146	1613
693.189	1848
693.233	2070
693.245	2185
693.276	2272
693.320	2306
693.363	2022
693.365	2020
693.407	2466
693.450	2372
693.485	2524
693.493	2499
693.537	2584
693.580	2049
693.605	1827
693.624	1796
693.667	2232
693.710	2248
693.725	2313
693.753	2396
693.797	2292
693.840	2338
693.845	2342
693.883	2398
693.926	2454
693.966	2235
693.970	2218
694.013	2382
694.056	2048
694.086	1997
694.099	2004
694.142	1959
694.185	2126
694.206	2075
694.229	2127
694.272	2370
694.315	2429
694.326	2438
694.358	2488
694.401	2683
694.444	3040
694.446	3032
694.487	3124
694.530	3383
694.566	3218
694.573	3094
694.616	2894
694.659	2171
694.686	1887
694.702	1969
694.745	2202
694.787	2305
694.806	2356
694.830	2325
694.873	2568
694.916	2214
694.926	2170
694.959	2261
695.002	2424
695.044	2854
695.046	2855
695.087	2761
695.130	2391
695.166	2358
695.172	2406
695.215	2593
695.258	2499
695.286	2553
695.301	2570
695.343	2748
695.386	2939
695.406	2859
695.428	2773
695.471	2701
695.514	2588
695.526	2620
695.556	2811
695.599	3118
695.641	3097
695.646	3074
695.684	2897
695.726	3166
695.766	2975
695.769	2972
695.811	3142
695.854	2974
695.886	2987
695.896	3062
695.938	3198
695.981	3364
696.005	3545
696.023	3542
696.065	3468
696.108	3077
696.125	3065
696.150	3346
696.192	3578
696.235	3930
696.245	3964
696.277	3909
696.319	4077
696.361	4033
696.365	4028
696.404	4180
696.446	4071
696.485	4287
696.488	4308
696.530	4007
696.572	4041
696.604	3997
696.614	3980
696.656	3813
696.698	3655
696.724	3556
696.740	3556
696.783	3400
696.825	3525
696.844	3436
696.867	3592
696.909	4026
696.951	4306
696.964	4442
696.992	4248
697.034	3752
697.076	3419
697.083	3314
697.118	3516
697.160	4035
697.202	4396
697.203	4391
697.244	4209
697.286	4093
697.323	3973
697.327	3991
697.369	4045
697.411	4076
697.442	4085
697.453	4125
697.494	4208
697.536	4257
697.562	4374
697.578	4438
697.620	4439
697.661	4483
697.682	4444
697.703	4490
697.744	4723
697.786	4877
697.801	4922
697.828	4937
697.869	4832
697.911	4826
697.921	4806
697.952	4832
697.994	4848
698.035	4877
698.040	4864
698.077	4820
698.118	4737
698.160	4641
698.160	4626
698.201	4630
698.243	4572
698.279	4502
698.284	4515
698.325	4544
698.367	4547
698.399	4562
698.408	4586
698.449	4569
698.491	4603
698.518	4593
698.532	4606
698.573	4654
698.614	4644
698.638	4643
698.656	4742
698.697	4925
698.738	5130
698.757	5202
698.779	5082
698.820	4844
698.862	4587
698.877	4485
698.903	4655
698.944	4890
698.985	5138
698.996	5192
699.026	5099
699.067	4954
699.116	4767
699.235	4454
699.354	4664
699.474	4543
699.593	5152
699.713	5827
699.832	5307
699.951	6113
700.070	5473
700.190	4777
700.309	5639
700.428	4957
700.547	4835
700.667	4319
700.786	4525
700.905	4012
701.024	4797
701.143	3775
701.262	5138
701.381	4505
701.500	4758
701.619	4120
701.738	5342
701.857	4550
701.976	3584
702.095	3959
702.214	5231
702.333	4862
702.452	4347
702.571	4762
702.690	5095
702.809	3449
702.928	3443
703.047	3583
703.165	4907
703.284	3213
703.403	4015
703.522	4120
703.640	4519
703.759	5145
703.878	5051
703.997	3779
704.115	4770
704.234	3259
704.353	4658
704.471	3731
704.590	3975
704.708	4430
704.827	4104
704.946	3513
705.064	3091
705.183	3570
705.301	4618
705.420	4393
705.538	4424
705.656	3985
705.775	2795
705.893	3659
706.012	3887
706.130	3624
706.249	4563
706.367	4621
706.485	3572
706.604	3153
706.722	3824
706.840	3947
706.958	3952
707.077	3690
707.195	3687
707.313	3669
707.431	3700
707.549	2683
707.668	2692
707.786	3027
707.904	4020
708.022	4113
708.140	3285
708.258	3206
708.376	3639
708.494	3604
708.612	3435
708.730	4042
708.848	3849
708.966	4443
709.084	3853
709.202	3429
709.320	3446
709.438	3952
709.556	3034
709.674	2823
709.791	3357
709.909	3128
710.027	3289
710.145	3157
710.263	2890
710.380	2868
710.498	3306
710.616	3494
710.733	4061
710.851	3117
710.969	3245
711.086	3194
711.204	3616
711.322	3508
711.439	2884
711.557	3575
711.674	3368
711.792	2933
711.909	2946
712.027	3010
712.144	3256
712.262	3608
712.379	3768
712.497	3555
712.614	3779
712.732	3469
712.849	3245
712.966	3864
713.084	4920
713.201	3303
713.318	3694
713.436	4294
713.553	3852
713.670	4018
713.787	3494
713.905	3408
714.022	3699
714.139	4522
714.256	5599
714.373	8604
714.490	19972
714.608	59913
714.725	268828
714.842	229825
714.959	14033
715.076	6270
715.193	5574
715.310	4566
715.427	3971
715.544	4650
715.661	4468
715.778	3893
715.895	3113
716.011	2625
716.128	3398
716.245	3233
716.362	4857
716.479	4519
716.596	3266
716.713	3141
716.829	2946
716.946	3472
717.063	2571
717.180	1879
717.296	2097
717.413	2572
717.530	3037
717.646	2485
717.763	2478
717.880	1814
717.996	2408
718.113	2691
718.229	2719
718.346	1343
718.462	2588
718.579	4520
718.695	6974
718.812	4801
718.928	2981
719.045	2218
719.161	2504
719.277	2659
719.394	3182
719.510	3535
719.626	3203
719.743	4316
719.859	8448
719.975	17852
720.092	81293
720.208	157177
720.324	15409
720.440	3614
720.557	4316
720.673	6286
720.789	5794
720.905	5720
721.021	3944
721.137	2130
721.253	2182
721.369	2700
721.486	2526
721.602	3517
721.718	2626
721.834	2719
721.950	2277
722.066	2170
722.181	2351
722.297	2389
722.413	2576
722.529	1876
722.645	2436
722.761	1474
722.877	2204
722.993	3160
723.108	3028
723.224	1864
723.340	2653
723.456	2323
723.571	1701
723.687	853
723.803	2503
723.918	1829
724.034	1415
724.150	1584
724.265	2775
724.381	2560
724.497	2493
724.612	2327
724.728	1855
724.843	2655
724.959	2443
725.074	3608
725.190	3086
725.305	1953
725.421	1919
725.536	1797
725.651	2087
725.767	2509
725.882	2198
725.997	2026
726.113	2098
726.228	2209
726.343	1439
726.459	1597
726.574	1161
726.689	1050
726.804	2131
726.920	2152
727.035	1722
727.150	1661
727.265	612
727.380	2427
727.495	1907
727.610	1086
727.725	1096
727.841	1469
727.956	1430
728.071	1688
728.186	1559
728.301	1771
728.416	2326
728.531	2306
728.645	1408
728.760	2066
728.875	2026
728.990	2270
729.105	1953
729.220	1730
729.335	2307
729.449	1360
729.564	2079
729.679	1189
729.794	1191
729.908	1720
730.023	1907
730.138	2247
730.253	1550
730.367	1581
730.482	1997
730.596	857
730.711	2145
730.826	2292
730.940	2119
731.055	1212
731.169	2714
731.284	2173
731.398	2217
731.513	1601
731.627	2522
731.742	2831
731.856	2776
731.970	2944
732.085	4630
732.199	5707
732.313	11172
732.428	32748
732.542	104471
732.656	51153
732.771	7201
732.885	4235
732.999	4591
733.113	4192
733.227	4355
733.342	4098
733.456	3007
733.570	3542
733.684	3445
733.798	3341
733.912	2822
734.026	2540
734.140	2508
734.254	2657
734.368	3214
734.482	4143
734.596	3168
734.710	3330
734.824	2501
734.938	3031
735.052	3005
735.166	2892
735.280	3204
735.393	2063
735.507	2257
735.621	2602
735.735	3225
735.849	2576
735.962	2482
736.076	2964
736.190	2094
736.303	3909
736.417	3133
736.531	2988
736.644	1990
736.758	2266
736.872	3001
736.985	3238
737.099	1998
737.212	1689
737.326	2583
737.439	2168
737.553	1740
737.666	2662
737.780	2546
737.893	2187
738.007	3196
738.120	1977
738.233	2133
738.347	2582
738.460	2199
738.573	2604
738.687	2637
738.800	3090
738.913	3660
739.026	2191
739.140	2484
739.253	2336
739.366	2380
739.479	2049
739.592	1629
739.705	2465
739.818	3406
739.932	2599
740.045	2200
740.158	2308
740.271	2485
740.384	1452
740.497	2453
740.610	2912
740.723	2731
740.836	1949
740.949	2823
741.062	2730
741.174	3422
741.287	3164
741.400	2315
741.513	2719
741.626	2509
741.739	1061
741.851	1790
741.964	2620
742.077	2006
742.189	3204
742.302	5824
742.415	4229
742.527	2072
742.640	1567
742.753	751
742.865	2193
742.978	1554
743.090	2302
743.203	2566
743.316	1453
743.428	1508
743.541	2044
743.653	1200
743.766	1414
743.878	2246
743.990	2054
744.103	5396
744.215	8743
744.327	3420
744.440	3770
744.552	4180
744.664	677
744.777	1379
744.889	1712
745.001	2565
745.113	1732
745.226	1147
745.338	2678
745.450	1512
745.562	2060
745.674	2014
745.786	2174
745.898	1725
746.010	1321
746.122	1448
746.234	1507
746.347	2053
746.459	1753
746.570	2843
746.682	5976
746.794	12965
746.906	5171
747.018	1362
747.130	2052
747.242	1882
747.354	1111
747.466	2137
747.577	1740
747.689	1756
747.801	1130
747.913	1399
748.024	1382
748.136	1005
748.248	1807
748.359	1688
748.471	1688
748.583	1035
748.694	1011
748.806	2017
748.918	712
749.029	1429
749.141	2406
749.252	1463
749.364	2053
749.475	3021
749.587	1406
749.698	1254
749.809	2054
749.921	1508
750.032	1917
750.144	1466
750.255	882
750.366	1280
750.478	693
750.589	1492
750.700	613
750.811	1863
750.923	2098
751.034	3939
751.145	3934
751.256	1336
751.367	2154
751.479	1065
751.590	490
751.701	440
751.812	1111
751.923	904
752.034	1484
752.145	1208
752.256	896
752.367	877
752.478	810
752.589	1277
752.700	987
752.811	702
752.922	944
753.032	991
753.143	2396
753.254	1319
753.365	1281
753.476	545
753.586	824
753.697	949
753.808	848
753.919	314
754.029	797
754.140	833
754.251	401
754.361	1029
754.472	489
754.582	1026
754.693	863
754.804	1438
754.914	1011
755.025	1142
755.135	513
755.246	1081
755.356	-208
755.466	1287
755.577	905
755.687	1106
755.798	597
755.908	1642
756.018	-120
756.129	583
756.239	1266
756.349	557
756.460	191
756.570	1910
756.680	356
756.790	1185
756.900	1425
757.011	924
757.121	-57
757.231	860
757.341	-2
757.451	196
757.561	374
757.671	315
757.781	79
757.891	599
758.001	767
758.111	767
758.221	205
758.331	1428
758.441	855
758.551	1125
758.661	573
758.771	1306
758.880	1123
758.990	-63
759.100	278
759.210	1269
759.320	702
759.429	989
759.539	1571
759.649	660
759.758	1269
759.868	1156
759.978	713
760.087	1028
760.197	1622
760.307	1916
760.416	1019
760.526	419
760.635	1463
760.745	1692
760.854	1373
760.964	1581
761.073	1530
761.182	804
761.292	943
761.401	1247
761.511	383
761.620	921
761.729	1084
761.839	344
761.948	619
762.057	463
762.166	865
762.276	322
762.385	440
762.494	442
762.603	933
762.712	102
762.822	346
762.931	-258
763.040	-490
763.149	678
763.258	103
763.367	1467
763.476	829
763.585	1048
763.694	531
763.803	98
763.912	908
764.021	-99
764.130	652
764.238	1276
764.347	799
764.456	-34
764.565	568
764.674	-144
764.783	30
764.891	-382
765.000	820
765.109	1165
765.217	-123
765.326	34
765.435	805
765.543	1555
765.652	944
765.761	422
765.869	1192
765.978	2324
766.086	3801
766.195	8078
766.303	28099
766.412	111553
766.520	72085
766.629	6019
766.737	2145
766.846	1499
766.954	695
767.062	1168
767.171	539
767.279	1045
767.387	233
767.496	222
767.604	660
767.712	31
767.820	-129
767.928	883
768.037	587
768.145	396
768.253	634
768.361	951
768.469	534
768.577	621
768.685	744
768.793	617
768.901	34
769.009	853
769.117	225
769.225	1117
769.333	457
769.441	972
769.549	3705
769.657	8395
769.765	37158
769.873	84282
769.981	14834
770.088	1479
770.196	1470
770.304	390
770.412	875
770.519	1474
770.627	882
770.735	1095
770.842	1621
770.950	866
771.058	458
771.165	536
771.273	1244
771.380	1100
771.488	2177
771.595	1846
771.703	1403
771.810	1638
771.918	1167
772.025	1235
772.133	2707
772.240	2590
772.348	2210
772.455	2130
772.562	1805
772.670	1597
772.777	2427
772.884	1983
772.991	1559
773.099	2131
773.206	2132
773.313	1577
773.420	2142
773.528	1556
773.635	1543
773.742	2947
773.849	1600
773.956	2113
774.063	1592
774.170	1436
774.277	1510
774.384	2391
774.491	1056
774.598	2146
774.705	2124
774.812	1750
774.919	2100
775.026	1388
775.133	2180
775.239	2019
775.346	1119
775.453	1899
775.560	1646
775.667	1107
775.773	1274
775.880	2487
775.987	1717
776.093	2034
776.200	967
776.307	1377
776.413	2218
776.520	2051
776.627	1448
776.733	1722
776.840	2037
776.946	5275
777.053	10398
777.159	22983
777.266	11381
777.372	19525
777.478	15155
777.585	6980
777.691	2058
777.798	2176
777.904	2418
778.010	2235
778.117	2230
778.223	1990
778.329	1297
778.435	641
778.542	1519
778.648	797
778.754	583
778.860	1627
778.966	694
779.072	927
779.178	1029
779.284	990
779.391	675
779.497	781
779.603	3065
779.708	-2
779.815	2261
779.920	1556
780.026	1198
780.132	1394
780.238	287
780.344	1162
780.450	1059
780.556	357
780.661	709
780.767	1318
780.873	142
780.979	1393
781.085	941
781.190	945
781.296	416
781.402	901
781.507	79
781.613	709
781.719	1309
781.824	553
781.930	1438
782.035	1462
782.141	567
782.246	556
782.352	1285
782.457	-44
782.563	654
782.668	-47
782.773	70
782.879	223
782.984	1518
783.090	738
783.195	1684
783.300	1185
783.405	-82
783.511	396
783.616	384
783.721	1195
783.826	983
783.932	486
784.037	777
784.142	951
784.247	-198
784.352	310
784.457	561
784.562	877
784.667	-40
784.772	170
784.877	5
784.982	601
785.087	225
785.192	816
785.297	666
785.402	731
785.507	-68
785.611	134
785.716	311
785.821	617
785.926	176
786.031	382
786.135	386
786.240	365
786.345	-1001
786.450	289
786.554	-1217
786.659	1082
786.763	729
786.868	488
786.973	625
787.077	-8
787.182	479
787.286	1004
787.391	500
787.495	90
787.600	-74
787.704	321
787.809	-229
787.913	-195
788.017	383
788.122	760
788.226	-53
788.330	-254
788.435	-404
788.539	452
788.643	-478
788.747	-646
788.852	39
788.956	90
789.060	1379
789.164	-552
789.268	-506
789.372	534
789.476	18
789.580	-724
789.684	-859
789.788	904
789.892	-289
789.996	342
790.100	-500
790.204	-190
790.308	287
790.412	-812
790.516	-251
790.620	-14
790.724	155
790.828	-1152
790.931	-377
791.035	811
791.139	-792
791.242	-637
791.346	32
791.450	-126
791.554	-185
791.657	-1064
791.761	597
791.864	547
791.968	-596
792.072	301
792.175	486
792.279	-108
792.382	613
792.486	-98
792.589	-390
792.693	319
792.796	-788
792.899	1052
793.003	604
793.106	-1250
793.209	-358
793.313	1049
793.416	-1527
793.519	907
793.623	980
793.726	935
793.829	229
793.932	-453
794.035	-678
794.138	1129
794.242	135
794.345	675
794.448	682
794.551	-315
794.654	2009
794.757	1389
794.860	555
794.963	95
795.066	-377
795.169	311
795.272	-818
795.375	-35
795.477	-653
795.580	42
795.683	-764
795.786	-550
795.889	-1302
795.991	743
796.094	471
796.197	-766
796.300	706
796.402	-809
796.505	-931
796.608	-530
796.710	-80
796.813	-1017
796.915	263
797.018	364
797.120	-629
797.223	-1339
797.326	259
797.428	-305
797.530	-148
797.633	-683
797.735	747
797.838	-399
797.940	390
798.042	-906
798.145	-429
798.247	488
798.349	-1666
798.452	-279
798.554	76
798.656	-705
798.758	1258
798.860	199
798.962	-300
799.065	-479
799.167	-522
799.269	503
799.371	533
799.473	127
799.575	-466
799.677	415
799.779	1018
799.881	-391
799.983	703
800.085	-74
800.187	-704
800.289	-1108
800.390	-663
800.492	-733
800.594	-97
800.696	-85
800.798	-263
800.899	-286
801.001	274
801.103	-568
801.205	38
801.306	-470
801.408	-932
801.509	-506
801.611	-719
801.713	-246
801.814	-866
801.916	-47
802.017	-436
802.119	-480
802.220	-185
802.322	-1141
802.423	902
802.525	-992
802.626	-1260
802.727	102
802.829	430
802.930	-1667
803.031	577
803.133	-680
803.234	-328
803.335	-508
803.436	-1151
803.538	-469
803.639	-1403
803.740	41
803.841	-1046
803.942	151
804.043	-491
804.144	-625
804.245	-177
804.346	-1025
804.447	-463
804.548	-416
804.649	637
804.750	-1322
804.851	-232
804.952	-805
805.053	95
805.154	-428
805.255	296
805.355	-337
805.456	-1028
805.557	-136
805.658	-930
805.758	266
805.859	-904
805.960	-247
806.061	-846
806.161	-449
806.262	-67
806.362	-1460
806.463	-1199
806.564	-777
806.664	-357
806.765	-440
806.865	-487
806.966	-640
807.066	-1117
807.166	335
807.267	64
807.367	-973
807.468	596
807.568	-1519
807.668	-459
807.769	333
807.869	-54
807.969	-815
808.069	23
808.170	-588
808.270	-1183
808.370	224
808.470	49
808.570	-1765
808.670	-1081
808.770	-495
808.870	-660
808.970	-286
809.070	-127
809.170	-558
809.271	496
809.370	-797
809.470	151
809.570	-527
809.670	-444
809.770	-884
809.870	-363
809.970	-394
810.070	-180
810.169	-331
810.269	-1639
810.369	297
810.469	-907
810.568	-798
810.668	-1106
810.768	-1141
810.867	-336
810.967	-633
811.066	-826
811.166	-390
811.265	235
811.365	-483
811.464	-139
811.564	-1079
811.663	-212
811.763	-1318
811.862	-526
811.962	318
812.061	-501
812.160	-1081
812.260	-21
812.359	-1057
812.458	-786
812.557	44
812.657	-957
812.756	-348
812.855	-1248
812.954	-885
813.053	97
813.153	-114
813.252	-1640
813.351	361
813.450	-375
813.549	-486
813.648	-350
813.747	-771
813.846	-540
813.945	-586
814.044	-1240
814.143	-19
814.242	-710
814.341	-982
814.439	-542
814.538	175
814.637	-1002
814.736	-458
814.835	329
814.933	-665
815.032	-75
815.131	-449
815.229	-20
815.328	1737
815.427	710
815.525	1471
815.624	1038
815.722	651
815.821	402
815.919	651
816.018	5
816.116	1209
816.215	188
816.313	1136
816.412	493
816.510	1027
816.609	1272
816.707	1108
816.805	537
816.904	67
817.002	1153
817.100	1518
817.198	1388
817.296	717
817.395	1166
817.493	1407
817.591	90
817.689	1758
817.787	1024
817.885	1876
817.983	3930
818.081	8664
818.179	20939
818.277	52420
818.375	39040
818.473	9354
818.571	4431
818.669	4700
818.767	4977
818.865	3238
818.963	2427
819.061	4152
819.158	6756
819.256	18574
819.354	43286
819.452	98159
819.549	49249
819.647	10598
819.745	2896
819.842	2861
819.940	2224
820.038	1499
820.135	1193
820.233	2715
820.330	374
820.428	121
820.525	1749
820.623	1224
820.720	-230
820.818	1439
820.915	1176
821.012	2234
821.110	102
821.207	1700
821.304	729
821.402	1978
821.499	4833
821.596	8136
821.693	3742
821.791	1601
821.888	1302
821.985	2961
822.082	1711
822.179	2676
822.276	2889
822.373	1866
822.470	838
822.567	951
822.664	-323
822.761	841
822.858	-198
822.955	145
823.052	283
823.149	-43
823.246	1040
823.343	-123
823.440	1022
823.536	749
823.633	-144
823.730	148
823.827	895
823.923	395
824.020	1683
824.117	1692
824.213	1849
824.310	797
824.407	-267
824.503	308
824.600	-283
824.696	-625
824.793	380
824.889	154
824.986	-240
825.082	-639
825.179	295
825.275	718
825.371	-220
825.468	-43
825.564	-1282
825.660	1038
825.757	368
825.853	333
825.949	-545
826.045	-46
826.142	376
826.238	-578
826.334	461
826.430	-755
826.526	-294
826.622	-704
826.718	219
826.814	-413
826.910	321
827.006	-196
827.102	-1304
827.198	670
827.294	34
827.390	-821
827.486	46
827.582	-985
827.678	-321
827.774	-329
827.869	-912
827.965	516
828.061	-1326
828.157	-413
828.252	78
828.348	-1206
828.444	418
828.539	-1304
828.635	-417
828.731	-254
828.826	-1287
828.922	376
829.017	-982
829.113	500
829.208	-460
829.304	-274
829.399	715
829.495	-212
829.590	325
829.685	-888
829.781	55
829.876	-744
829.971	-1326
830.066	-808
830.162	-20
830.257	114
830.352	-609
830.447	-1
830.543	-216
830.638	-1459
830.733	612
830.828	-515
830.923	200
831.018	-330
831.113	-205
831.208	-2210
831.303	-463
831.398	-879
831.493	-274
831.588	-81
831.683	-584
831.778	-316
831.873	-688
831.967	778
832.062	-845
832.157	-1634
832.252	47
832.346	-657
832.441	350
832.536	500
832.631	829
832.725	439
832.820	-758
832.914	-246
833.009	-1260
833.104	-27
833.198	211
833.293	-855
833.387	-386
833.482	-715
833.576	-691
833.670	551
833.765	-1250
833.859	-769
833.954	-298
834.048	-229
834.142	302
834.237	-575
834.331	-700
834.425	895
834.519	-1505
834.613	-224
834.708	-305
834.802	-312
834.896	-839
834.990	-588
835.084	-634
835.178	-540
835.272	-520
835.366	-280
835.460	-272
835.554	-413
835.648	-11
835.742	-1426
835.836	80
835.930	-1785
836.024	-278
836.117	1162
836.211	-1290
836.305	-386
836.399	-590
836.493	-892
836.586	437
836.680	-1291
836.774	-809
836.867	-292
836.961	-1460
837.055	-908
837.148	-1009
837.242	-746
837.335	-633
837.429	-845
837.522	-1517
837.616	-1240
837.709	468
837.803	-1455
837.896	210
837.989	-665
838.083	-1467
838.176	-631
838.269	-1020
838.363	-161
838.456	-1223
838.549	239
838.642	76
838.735	1480
838.829	530
838.922	-1228
839.015	-1178
839.108	-2046
839.201	-566
839.294	-625
839.387	-162
839.480	-1397
839.573	-912
839.666	-978
839.759	-1180
839.852	-611
839.945	-575
840.038	-572
840.131	-1165
840.223	-852
840.316	-398
840.409	-473
840.502	-975
840.594	470
840.687	-1646
840.780	-656
840.873	-1400
840.965	-1065
841.058	-463
841.150	-185
841.243	-509
841.336	-50
841.428	-1185
841.521	-614
841.613	-2028
841.706	-307
841.798	-1084
841.890	-674
841.983	-1560
842.075	-41
842.167	-689
842.260	-296
842.352	-363
842.444	-799
842.537	-718
842.629	-207
842.721	-1316
842.813	-966
842.905	-1397
842.997	-202
843.090	-1026
843.182	-902
843.274	-1407
843.366	-62
843.458	-191
843.550	692
843.642	-555
843.734	-531
843.826	-267
843.918	-725
844.009	-528
844.101	-764
844.193	-754
844.285	43
844.377	1415
844.469	2143
844.560	4029
844.652	2921
844.744	168
844.835	53
844.927	-815
845.019	-1137
845.110	-563
845.202	-1230
845.293	-370
845.385	-577
845.476	-470
845.568	-1024
845.659	-1586
845.751	31
845.842	-184
845.934	-1553
846.025	-1244
846.116	-826
846.208	-1358
846.299	-1108
846.390	-1588
846.482	-1058
846.573	-1387
846.664	-923
846.755	-314
846.846	-141
846.937	-1753
847.029	-386
847.120	-1489
847.211	-1728
847.302	280
847.393	-1475
847.484	-587
847.575	-929
847.666	-1364
847.757	-1780
847.847	-1481
847.938	-768
848.029	-942
848.120	-1645
848.211	-1014
848.302	-1145
848.392	-1165
848.483	-1027
848.574	-628
848.664	-1460
848.755	-1655
848.846	-433
848.936	-623
849.027	-1009
849.118	-1469
849.208	-696
849.299	-11
849.389	2255
849.480	5154
849.570	11974
849.661	25044
849.751	41592
849.841	12401
849.932	363
850.022	-643
850.112	387
850.203	-1217
850.293	-732
850.383	-1235
850.474	-1654
850.564	-1058
850.654	-1092
850.744	-1233
850.834	-1242
850.924	-924
851.014	-501
851.104	-1133
851.194	-662
851.284	-879
851.374	-871
851.464	-987
851.554	-690
851.644	-1294
851.734	-715
851.824	-1366
851.914	-1274
852.004	-1060
852.094	-1959
852.183	-109
852.273	-684
852.363	-727
852.452	-1320
852.542	-675
852.632	-852
852.721	-880
852.811	-1311
852.901	-87
852.990	-1011
853.080	-184
853.169	-243
853.259	-583
853.348	-1183
853.438	624
853.527	1906
853.617	2334
853.706	6847
853.795	14883
853.885	35193
853.974	64870
854.063	118056
854.152	177610
854.242	62831
854.331	9133
854.420	2800
854.509	1952
854.598	1566
854.687	-23
854.777	517
854.866	102
854.955	456
855.044	-722
855.133	-881
855.222	-941
855.311	-660
855.400	-408
855.488	-924
855.577	-1364
855.666	-848
855.755	-714
855.844	-966
855.933	-160
856.021	-1268
856.110	-1074
856.199	-790
856.288	-852
856.376	-1073
856.465	-1138
856.554	-484
856.642	-896
856.731	-1298
856.819	233
856.908	-1416
856.996	-1010
857.085	-602
857.173	-1578
857.262	-1619
857.350	-130
857.438	-1062
857.527	-807
857.615	-1689
857.703	-563
857.792	-977
857.880	-1325
857.968	-1051
858.056	-1329
858.145	-1181
858.233	-1825
858.321	-962
858.409	-593
858.497	-997
858.585	-1550
858.673	-673
858.761	-1752
858.849	-1417
858.937	-1007
859.025	-650
859.113	-471
859.201	-642
859.289	-519
859.377	-775
859.465	-791
859.552	-952
859.640	-1502
859.728	-843
859.816	-1455
859.903	-1301
859.991	-1493
860.079	-1683
860.166	-1247
860.254	-1550
860.342	-1561
860.429	-1227
860.517	-1943
860.604	-685
860.692	-544
860.779	-1710
860.867	-897
860.954	-1313
861.042	-1085
861.129	-1668
861.216	-676
861.304	-1103
861.391	-1086
861.478	-234
861.565	-1456
861.653	-77
861.740	-1640
861.827	-846
861.914	-967
862.001	-939
862.089	-1389
862.176	-814
862.263	-865
862.350	-1135
862.437	-904
862.524	-983
862.611	-840
862.698	132
862.785	1125
862.871	1108
862.958	-238
863.045	-670
863.132	-1392
863.219	-191
863.306	-1093
863.392	-1661
863.479	-944
863.566	-1318
863.652	-495
863.739	-995
863.826	-569
863.912	-456
863.999	-1260
864.086	-636
864.172	-1095
864.259	-9
864.345	-1789
864.432	-595
864.518	-466
864.604	-749
864.691	-437
864.777	-379
864.863	-129
864.950	218
865.036	-691
865.122	1886
865.209	1708
865.295	1670
865.381	1590
865.467	2420
865.553	3039
865.639	4192
865.726	8354
865.812	18656
865.898	35386
865.984	51408
866.070	96526
866.156	101392
866.242	24098
866.328	5689
866.414	2354
866.499	2219
866.585	2175
866.671	1130
866.757	859
866.843	1320
866.928	643
867.014	226
867.100	997
867.186	672
867.271	869
867.357	1331
867.442	330
867.528	883
867.614	1209
867.699	1686
867.785	3357
867.870	4853
867.956	6351
868.041	3813
868.127	2031
868.212	3260
868.297	3297
868.383	2308
868.468	2013
868.553	3177
868.639	1727
868.724	3228
868.809	2238
868.894	744
868.979	-220
869.065	204
869.150	-500
869.235	283
869.320	-75
869.405	-263
869.490	393
869.575	-13
869.660	3
869.745	511
869.830	-630
869.915	189
870.000	-349
870.085	626
870.169	1271
870.254	1392
870.339	128
870.424	-175
870.509	290
870.593	480
870.678	-168
870.763	282
870.847	647
870.932	587
871.016	589
871.101	612
871.186	530
871.270	1056
871.355	-779
871.439	303
871.523	-523
871.608	-631
871.692	36
871.777	1259
871.861	1107
871.945	-507
872.030	-349
872.114	60
872.198	-29
872.282	-741
872.367	-729
872.451	-415
872.535	-238
872.619	-167
872.703	0
872.787	-294
872.871	-328
872.955	-580
873.039	-1032
873.123	-16
873.207	388
873.291	-1626
873.375	-1294
873.459	-297
873.543	-634
873.627	-507
873.711	-327
873.794	-242
873.878	-767
873.962	-898
874.045	-397
874.129	-121
874.137	-134
874.213	-268
874.245	-199
874.296	-91
874.352	-748
874.380	-1076
874.460	-195
874.464	-159
874.547	-289
874.568	-91
874.631	474
874.676	379
874.714	287
874.784	704
874.798	789
874.881	380
874.892	282
874.965	-398
874.999	-438
875.048	-468
875.107	-244
875.131	-162
875.215	-1075
875.215	-1074
875.298	-385
875.323	-371
875.381	-287
875.430	-111
875.465	-11
875.538	23
875.548	25
875.631	-763
875.646	-827
875.714	-1065
875.753	-839
875.798	-569
875.861	32
875.881	196
875.964	-410
875.968	-401
876.047	-195
876.076	-46
876.130	298
876.183	251
876.213	154
876.291	38
876.296	38
876.379	-1133
876.398	-951
876.462	-481
876.506	-476
876.545	-357
876.613	-42
876.628	26
876.711	-316
876.721	-225
876.794	428
876.828	140
876.877	-432
876.935	-837
876.960	-905
877.043	-196
877.043	-192
877.125	882
877.150	595
877.208	-103
877.258	-255
877.291	-365
877.365	299
877.374	374
877.456	-279
877.472	-298
877.539	-219
877.579	-211
877.622	-218
877.687	159
877.704	264
877.787	571
877.794	521
877.869	-91
877.901	0
877.952	40
878.008	-125
878.034	-116
878.115	-426
878.117	-433
878.199	207
878.222	80
878.282	60
878.329	210
878.364	133
878.437	278
878.447	291
878.529	382
878.544	242
878.611	-120
878.651	3
878.694	256
878.758	584
878.776	558
878.858	549
878.865	531
878.941	274
878.972	147
879.023	243
879.078	488
879.105	704
879.185	1193
879.187	1195
879.269	731
879.292	725
879.351	546
879.399	224
879.433	154
879.506	223
879.516	254
879.598	420
879.613	503
879.680	888
879.720	987
879.762	1106
879.827	1117
879.844	1054
879.926	1131
879.933	1126
880.007	1194
880.040	1113
880.089	1271
880.147	1875
880.171	2209
880.253	3761
880.254	3764
880.335	5523
880.360	6000
880.417	9201
880.467	13711
880.499	16841
880.574	21678
880.580	21116
880.662	8203
880.680	6071
880.744	2845
880.787	1375
880.825	1224
880.893	896
880.907	840
880.989	664
881.000	660
881.070	1111
881.106	1207
881.152	1029
881.213	1138
881.233	1257
881.315	1088
881.319	1084
881.396	1350
881.426	1447
881.478	1350
881.532	1283
881.559	1378
881.639	1316
881.641	1310
881.722	1428
881.745	1236
881.803	1217
881.852	1543
881.885	1351
881.958	695
881.966	763
882.047	1224
882.064	1329
882.129	1206
882.171	1199
882.210	1609
882.277	2295
882.291	2296
882.372	2085
882.383	2049
882.454	1646
882.489	1390
882.535	1228
882.596	1164
882.616	1241
882.697	1538
882.702	1523
882.778	682
882.808	611
882.859	854
882.914	932
882.940	1128
883.020	1515
883.021	1523
883.102	1381
883.127	1494
883.183	1524
883.233	1474
883.264	1413
883.339	979
883.345	937
883.426	677
883.445	570
883.507	695
883.551	699
883.587	1006
883.657	1715
883.668	1761
883.749	1869
883.763	1960
883.830	1632
883.869	1111
883.910	954
883.975	897
883.991	917
884.072	1294
884.081	1287
884.152	1824
884.187	2151
884.233	2250
884.292	2138
884.314	1863
884.394	1027
884.398	965
884.475	667
884.504	747
884.555	1304
884.610	1444
884.636	1332
884.716	1280
884.716	1291
884.797	1766
884.821	1811
884.877	1680
884.927	1630
884.958	1597
885.033	1247
885.038	1239
885.118	1136
885.139	1079
885.199	1216
885.244	1588
885.279	1834
885.350	1928
885.359	2008
885.439	2684
885.456	2745
885.520	1705
885.561	1251
885.600	1323
885.667	1411
885.680	1542
885.760	2057
885.773	2147
885.840	1317
885.878	765
885.920	814
885.984	1064
886.000	1122
886.080	1305
886.089	1316
886.160	2061
886.195	2404
886.240	2439
886.300	2212
886.320	2034
886.400	1815
886.406	1778
886.480	1759
886.511	1677
886.560	2060
886.616	2495
886.640	2338
886.720	2049
886.722	2023
886.800	1618
886.827	1629
886.879	2036
886.932	2142
886.959	2226
887.038	2600
887.039	2605
887.119	2001
887.143	1808
887.198	2110
887.248	2407
887.278	2241
887.354	1645
887.358	1641
887.437	1597
887.459	1508
887.517	1851
887.564	2156
887.596	1931
887.669	1397
887.676	1374
887.755	944
887.774	819
887.835	1215
887.880	1652
887.914	1862
887.985	2020
887.994	2084
888.073	2670
888.090	2769
888.153	2763
888.195	2763
888.232	2597
888.300	2194
888.311	2185
888.391	2049
888.405	2028
888.470	1701
888.510	1440
888.549	1732
888.615	2285
888.628	2306
888.708	2269
888.720	2265
888.787	2358
888.825	2349
888.866	1704
888.930	695
888.945	899
889.024	2002
889.035	2129
889.103	2039
889.140	2014
889.182	2226
889.245	2484
889.261	2520
889.340	2638
889.349	2640
889.419	1960
889.454	1607
889.498	1769
889.559	1973
889.577	2020
889.656	2201
889.664	2212
889.735	2590
889.768	2759
889.814	2403
889.873	1913
889.978	2109
890.083	1875
890.187	2589
890.292	2814
890.397	1945
890.501	1351
890.606	1584
890.710	2527
890.815	3333
890.919	2256
891.024	1824
891.128	1978
891.233	1710
891.337	2920
891.442	2190
891.546	2028
891.650	1332
891.755	1770
891.859	2753
891.963	3066
892.068	2810
892.172	2189
892.276	1479
892.380	1224
892.484	2931
892.589	2597
892.693	2313
892.797	1650
892.901	1963
893.005	2704
893.109	3235
893.213	2414
893.317	2226
893.421	1315
893.525	1655
893.629	1494
893.733	2089
893.837	2386
893.941	2295
894.045	2272
894.148	848
894.252	2234
894.356	3633
894.460	2908
894.564	1560
894.667	2172
894.771	789
894.875	1740
894.978	2182
895.082	2197
895.186	2457
895.289	2199
895.393	736
895.496	2029
895.600	1279
895.703	2014
895.807	1920
895.910	1824
896.014	1503
896.117	1891
896.221	2114
896.324	2425
896.427	1751
896.531	1407
896.634	1436
896.737	2256
896.840	1987
896.944	1751
897.047	2140
897.150	2420
897.253	697
897.356	2026
897.460	1846
897.563	1721
897.666	2612
897.769	2384
897.872	1245
897.975	1830
898.078	1518
898.181	903
898.284	1552
898.387	2053
898.490	1983
898.593	934
898.695	1489
898.798	1389
898.901	1812
899.004	2017
899.107	2377
899.209	1861
899.312	2481
899.415	1299
899.518	1841
899.620	1040
899.723	1699
899.826	3508
899.928	3473
900.031	2566
900.133	1595
900.236	2120
900.338	1677
900.441	2030
900.543	1827
900.646	2401
900.748	1159
900.851	1826
900.953	1791
901.055	1844
901.158	2113
901.260	1450
901.362	1717
901.465	1479
901.567	2195
901.669	2530
901.771	2061
901.873	951
901.976	1135
902.078	1849
902.180	1848
902.282	1757
902.384	1972
902.486	2637
902.588	1758
902.690	1559
902.792	1822
902.894	2014
902.996	2152
903.098	1945
903.200	1235
903.302	1513
903.404	1360
903.505	1911
903.607	1352
903.709	2000
903.811	2968
903.913	1327
904.014	1663
904.116	240
904.218	1058
904.319	2316
904.421	3604
904.523	4016
904.624	2406
904.726	2393
904.827	1948
904.929	2341
905.030	1926
905.132	3054
905.233	1950
905.335	1469
905.436	390
905.537	661
905.639	2390
905.740	1094
905.841	2706
905.943	2532
906.044	2074
906.145	1241
906.247	1820
906.348	1874
906.449	1754
906.550	1807
906.651	1489
906.752	1638
906.854	1179
906.955	2145
907.056	1941
907.157	2681
907.258	1262
907.359	1028
907.460	1402
907.561	1037
907.662	847
907.762	1373
907.863	1616
907.964	2396
908.065	2390
908.166	1276
908.267	1231
908.367	1177
908.468	869
908.569	1952
908.670	2004
908.770	2571
908.871	2950
908.971	2016
909.072	1673
909.173	1044
909.273	1504
909.374	2282
909.474	1648
909.575	1589
909.675	890
909.776	1763
909.876	1030
909.977	1879
910.077	1544
910.177	1871
910.278	2662
910.378	262
910.478	1316
910.579	2303
910.679	1960
910.779	2277
910.879	2188
910.980	1794
911.080	2045
911.180	1206
911.280	1649
911.380	1228
911.480	793
911.580	2319
911.680	1939
911.780	1545
911.880	2349
911.980	585
912.080	1422
912.180	2141
912.280	1286
912.380	1865
912.480	1372
912.580	1662
912.679	994
912.779	1751
912.879	1039
912.979	2073
913.078	1814
913.178	1070
913.278	619
913.377	1650
913.477	1226
913.577	1437
913.676	1986
913.776	2528
913.875	1602
913.975	1618
914.074	1365
914.174	1962
914.273	1484
914.373	1866
914.472	1098
914.572	1249
914.671	854
914.770	1636
914.870	1856
914.969	1339
915.068	1628
915.167	2205
915.267	2082
915.366	1801
915.465	1367
915.564	2228
915.663	1463
915.763	1648
915.862	2059
915.961	1580
916.060	924
916.159	1338
916.258	912
916.357	886
916.456	2983
916.555	1399
916.654	1627
916.752	2971
916.851	1619
916.950	1924
917.049	1284
917.148	869
917.247	1271
917.345	1303
917.444	178
917.543	1887
917.642	1711
917.740	1514
917.839	3235
917.937	2325
918.036	2240
918.135	1283
918.233	2045
918.332	1623
918.430	1781
918.529	1440
918.627	1472
918.726	2635
918.824	2140
918.923	976
919.021	2287
919.119	1621
919.218	1582
919.316	1396
919.414	1384
919.512	2307
919.611	1886
919.709	1962
919.807	1735
919.905	2212
920.003	2317
920.102	2112
920.200	2059
920.298	2708
920.396	1617
920.494	1291
920.592	1423
920.690	1855
920.788	1710
920.886	1498
920.984	2229
921.082	2236
921.180	2819
921.277	2463
921.375	3193
921.473	4407
921.571	3766
921.669	3373
921.766	2893
921.864	3668
921.962	3427
922.060	3342
922.157	3164
922.255	3089
922.352	2482
922.450	4513
922.548	3940
922.645	4606
922.743	4400
922.840	7686
922.938	9096
923.035	8109
923.133	7169
923.230	8838
923.327	10568
923.425	9430
923.522	9378
923.619	9076
923.717	8220
923.814	8236
923.911	6911
924.008	8270
924.106	7451
924.203	6421
924.300	7517
924.397	7870
924.494	8121
924.591	7911
924.688	6984
924.786	7620
924.883	7910
924.979	7896
925.077	8037
925.173	6575
925.270	7258
925.367	7854
925.464	8322
925.561	8759
925.658	8789
925.755	8410
925.852	9743
925.948	8338
926.045	9442
926.142	9290
926.239	9856
926.335	8346
926.432	9140
926.529	8989
926.625	10649
926.722	6920
926.818	6213
926.915	7035
927.011	7090
927.108	6792
927.204	6800
927.301	5531
927.397	7825
927.494	8129
927.590	4720
927.687	6233
927.783	8022
927.879	7404
927.976	5863
928.072	6297
928.168	7093
928.264	6615
928.361	6183
928.457	7038
928.553	4989
928.649	6077
928.745	6708
928.841	6162
928.937	6939
929.033	6358
929.129	5747
929.225	6511
929.321	5884
929.417	4283
929.513	6776
929.609	5371
929.705	5734
929.801	6374
929.897	5024
929.993	4992
930.089	6337
930.184	5145
930.280	6236
930.376	6920
930.471	4969
930.567	4643
930.663	5309
930.758	4994
930.854	5551
930.950	4987
931.045	5345
931.141	5318
931.236	6524
931.332	4690
931.427	4089
931.523	6898
931.618	5268
931.714	4357
931.809	4668
931.905	5582
932.000	3478
932.095	3756
932.191	6402
932.286	6485
932.381	4385
932.476	4427
932.572	4963
932.667	4203
932.762	4312
932.857	5217
932.952	6675
933.047	4918
933.142	3768
933.237	5567
933.332	4816
933.427	5795
933.522	4790
933.617	3788
933.712	4541
933.807	5334
933.902	5615
933.997	5350
934.092	3844
934.187	5062
934.282	4691
934.376	5827
934.471	5274
934.566	4275
934.661	3531
934.755	5092
934.850	4934
934.945	4410
935.039	4331
935.134	3100
935.228	4830
935.323	6030
935.417	3665
935.512	3479
935.606	3788
935.701	4610
935.795	4745
935.890	4558
935.984	2724
936.079	3595
936.173	4407
936.267	3549
936.362	3470
936.456	4729
936.550	4979
936.644	3890
936.738	3231
936.833	3418
936.927	3262
937.021	3035
937.115	4386
937.209	3940
937.303	3233
937.397	3749
937.491	3862
937.585	4779
937.679	4073
937.773	3521
937.867	2369
937.961	3794
938.055	4227
938.149	4128
938.243	2642
938.337	3011
938.430	3676
938.524	6286
938.618	6669
938.712	5756
938.805	4607
938.899	5099
938.993	4803
939.086	4730
939.180	7179
939.274	8368
939.367	6719
939.461	4785
939.554	3663
939.648	3354
939.741	2651
939.835	5025
939.928	5927
940.022	4119
940.115	2689
940.208	4611
940.302	4815
940.395	4982
940.488	2795
940.582	3644
940.675	2203
940.768	2732
940.861	4612
940.954	3732
941.048	3022
941.141	3079
941.234	2903
941.327	4653
941.420	5252
941.513	4328
941.606	2934
941.699	4203
941.792	2635
941.885	3162
941.978	3938
942.071	4040
942.164	2421
942.257	2914
942.349	3199
942.442	2693
942.535	1979
942.628	2707
942.721	3126
942.813	2759
942.906	3583
942.999	2851
943.091	1423
943.184	2415
943.277	2552
943.369	2361
943.462	2116
943.554	3245
943.647	2800
943.739	4345
943.832	3426
943.924	1812
944.017	2512
944.109	1845
944.201	2444
944.294	2684
944.386	2966
944.478	2722
944.571	2528
944.663	2690
944.755	3296
944.847	3090
944.940	2679
945.032	921
945.124	2161
945.216	2658
945.308	2760
945.400	3088
945.492	3068
945.584	3217
945.676	3494
945.768	3467
945.860	3886
945.952	4238
946.044	3070
946.136	2289
946.228	2307
946.320	2992
946.412	2894
946.503	3414
946.595	3307
946.687	2218
946.779	1059
946.870	1680
946.962	2368
947.054	3005
947.145	2940
947.237	2033
947.329	1928
947.420	2489
947.512	1947
947.603	1677
947.695	2487
947.786	1075
947.878	1416
947.969	2586
948.061	3062
948.152	1651
948.243	1678
948.335	1948
948.426	1852
948.517	2611
948.609	2280
948.700	2544
948.791	2432
948.882	2211
948.973	2071
949.065	2756
949.156	2213
949.247	853
949.338	2442
949.429	1047
949.520	1547
949.611	2811
949.702	2637
949.793	2732
949.884	2446
949.975	1255
950.066	1174
950.157	1829
950.247	1377
950.338	1956
950.429	1634
950.520	2567
950.611	927
950.701	1698
950.792	2788
950.883	2831
950.973	2174
951.064	2204
951.155	2071
951.245	3128
951.336	1723
951.427	2310
951.517	3425
951.608	1531
951.698	1847
951.788	1929
951.879	566
951.969	1090
952.060	1631
952.150	2141
952.240	2649
952.331	964
952.421	3494
952.511	1546
952.602	1484
952.692	874
952.782	1446
952.872	1086
952.962	1791
953.052	1694
953.143	705
953.233	1732
953.323	1698
953.413	2141
953.503	2342
953.593	2522
953.683	2318
953.773	2038
953.863	1224
953.953	1579
954.042	1409
954.132	1621
954.222	2158
954.312	2011
954.402	1312
954.492	1935
954.581	2273
954.671	2134
954.761	1759
954.850	1560
954.940	682
955.030	1276
955.119	770
955.209	1245
955.298	823
955.388	2390
955.477	2039
955.567	564
955.656	1786
955.746	1532
955.835	773
955.925	1001
956.014	2296
956.103	1609
956.193	2616
956.282	1682
956.371	1376
956.461	955
956.550	1083
956.639	950
956.728	1213
956.817	2227
956.906	1429
956.995	2089
957.085	-55
957.174	1059
957.263	1318
957.352	790
957.441	1595
957.530	1421
957.619	971
957.708	1125
957.796	884
957.885	1343
957.974	867
958.063	946
958.152	648
958.241	312
958.329	1684
958.418	1085
958.507	366
958.596	1464
958.684	895
958.773	1044
958.861	866
958.950	424
959.039	1113
959.127	1784
959.216	1618
959.304	417
959.393	857
959.481	1351
959.570	1184
959.658	376
959.746	704
959.835	1632
959.923	921
960.011	882
960.100	1720
960.188	1455
960.276	853
960.365	149
960.453	345
960.541	-132
960.629	1025
960.717	522
960.805	-811
960.893	703
960.981	920
961.069	2206
961.158	1695
961.245	3198
961.333	2220
961.421	747
961.509	1332
961.597	1429
961.685	650
961.773	710
961.861	776
961.949	2040
962.036	311
962.124	1498
962.212	1196
962.299	1013
962.387	235
962.475	943
962.562	683
962.650	1325
962.738	824
962.825	872
962.913	749
963.000	527
963.088	291
963.175	762
963.263	485
963.350	848
963.438	57
963.525	1123
963.612	2410
963.700	1616
963.787	4932
963.874	2156
963.962	544
964.049	10
964.136	-145
964.223	-434
964.310	-632
964.398	1075
964.485	481
964.572	356
964.659	990
964.746	771
964.833	237
964.920	407
965.007	560
965.094	1029
965.181	197
965.268	697
965.355	436
965.441	576
965.528	-853
965.615	1465
965.702	482
965.789	-250
965.875	685
965.962	528
966.049	232
966.136	1710
966.222	-145
966.309	880
966.395	1110
966.482	1152
966.569	740
966.655	644
966.742	254
966.828	-367
966.915	-234
967.001	520
967.087	-383
967.174	71
967.260	472
967.347	945
967.433	833
967.519	3097
967.605	1087
967.692	337
967.778	473
967.864	1280
967.950	-113
968.036	347
968.123	244
968.209	-626
968.295	-385
968.381	835
968.467	279
968.553	-1108
968.639	727
968.725	461
968.811	2525
968.897	966
968.983	449
969.069	165
969.154	633
969.240	130
969.326	-301
969.412	-197
969.497	157
969.583	-566
969.669	1159
969.755	975
969.840	-139
969.926	1928
970.012	2323
970.097	5263
970.183	2625
970.268	1275
970.354	206
970.439	395
970.525	1947
970.610	300
970.696	1424
970.781	449
970.866	-921
970.952	-126
971.037	52
971.122	319
971.208	-63
971.293	-360
971.378	-996
971.463	659
971.549	-801
971.634	370
971.719	292
971.804	-313
971.889	809
971.974	-314
972.059	682
972.144	-164
972.229	446
972.314	242
972.399	-57
972.484	-50
972.569	816
972.654	-412
972.739	1218
972.824	808
972.908	-254
972.993	-90
973.078	-332
973.163	590
973.247	406
973.332	-1162
973.417	700
973.501	272
973.586	6
973.671	542
973.755	46
973.840	612
973.924	1276
974.009	63
974.093	575
974.178	1392
974.262	862
974.346	592
974.431	477
974.515	-387
974.600	217
974.684	658
974.768	121
974.852	638
974.937	-911
975.021	804
975.105	803
975.189	336
975.273	429
975.358	574
975.442	-761
975.526	520
975.610	-423
975.694	-892
975.778	229
975.862	461
975.946	-1810
976.030	578
976.114	466
976.198	231
976.281	110
976.365	139
976.449	-528
976.533	123
976.617	-863
976.700	-763
976.784	230
976.868	139
976.951	556
977.035	-27
977.119	-124
977.202	241
977.286	144
977.369	911
977.453	2864
977.536	961
977.620	888
977.703	944
977.787	-275
977.870	877
977.953	546
978.037	-139
978.120	11
978.203	509
978.287	474
978.370	361
978.453	-149
978.536	-325
978.620	328
978.703	1026
978.786	28
978.869	519
978.952	-502
979.035	1019
979.118	398
979.201	-123
979.284	818
979.367	-405
979.450	-460
979.533	-1312
979.616	305
979.699	-281
979.782	-185
979.865	230
979.948	105
980.030	-381
980.113	610
980.196	-524
980.279	1019
980.361	-255
980.444	514
980.526	1105
980.609	818
980.692	1307
980.774	1207
980.857	-135
980.939	1774
981.022	-63
981.104	996
981.187	775
981.269	286
981.352	756
981.434	-997
981.516	793
981.599	896
981.681	715
981.763	161
981.846	-14
981.928	143
982.010	1167
982.092	43
982.174	1415
982.256	137
982.339	824
982.421	-68
982.503	905
982.585	-241
982.667	611
982.749	746
982.831	698
982.913	22
982.995	1795
983.077	6
983.158	1420
983.240	-545
983.322	1787
983.404	1927
983.486	1244
983.568	1337
983.649	1944
983.731	811
983.813	264
983.894	1494
983.976	538
984.058	505
984.139	1357
984.221	220
984.302	984
984.384	512
984.465	319
984.547	254
984.628	-113
984.710	1418
984.791	915
984.872	423
984.954	562
985.035	755
985.116	159
985.198	118
985.279	1475
985.360	-51
985.441	129
985.522	984
985.604	915
985.685	-651
985.766	1863
985.847	1948
985.928	207
986.009	485
986.090	-29
986.171	1294
986.252	485
986.333	1409
986.414	1115
986.495	1550
986.576	429
986.656	525
986.737	1498
986.818	1029
986.899	924
986.980	283
987.060	1152
987.141	1467
987.222	1841
987.302	1432
987.383	1640
987.464	87
987.544	1347
987.625	1676
987.705	1796
987.786	1811
987.866	1015
987.947	1460
988.027	1060
988.108	1031
988.188	1421
988.268	1654
988.349	1062
988.429	1147
988.509	730
988.589	885
988.670	379
988.750	2020
988.830	1481
988.910	576
988.990	718
989.070	921
989.151	881
989.231	-107
989.311	1343
989.391	453
989.471	775
989.551	-159
989.631	2087
989.711	1343
989.791	259
989.870	653
989.950	2403
990.030	1129
990.110	263
990.190	-403
990.269	542
990.349	524
990.429	722
990.509	1195
990.588	340
990.668	356
990.747	240
990.827	919
990.907	875
990.986	528
991.066	610
991.145	267
991.225	1580
991.304	469
991.383	1868
991.463	803
991.542	1326
991.622	91
991.701	158
991.780	445
991.859	728
991.939	247
992.018	251
992.097	504
992.176	381
992.256	460
992.335	182
992.414	1005
992.493	629
992.572	296
992.651	933
992.730	-57
992.809	359
992.888	-341
992.967	60
993.046	1074
993.125	-31
993.203	448
993.282	359
993.361	68
993.440	341
993.519	-530
993.597	-279
993.676	-218
993.755	1466
993.834	-297
993.912	-286
993.991	754
994.069	220
994.148	391
994.226	-613
994.305	-23
994.384	-766
994.462	749
994.540	-1055
994.619	-1011
994.697	1171
994.776	-910
994.854	646
994.932	-545
995.011	-345
995.089	-958
995.167	-87
995.245	380
995.324	-833
995.402	-370
995.480	-796
995.558	-151
995.636	-1102
995.714	-1213
995.792	623
995.870	-682
995.948	111
996.026	-532
996.104	-1265
996.182	141
996.260	-280
996.338	280
996.416	-648
996.494	42
996.572	1355
996.649	-1081
996.727	-833
996.805	-257
996.883	-822
996.960	-508
997.038	-173
997.116	144
997.193	-750
997.271	-925
997.348	-882
997.426	-1038
997.504	-804
997.581	-13
997.658	-1002
997.736	-934
997.813	-1195
997.891	-521
997.968	-1194
998.046	-358
998.123	-343
998.200	-405
998.277	-321
998.355	312
998.432	-1711
998.509	-1167
998.586	197
998.663	4
998.741	-56
998.818	-1079
998.895	-1174
998.972	-629
999.049	-894
999.126	-1751
999.203	319
999.280	-880
999.357	-1086
999.434	-943
999.511	-934
999.587	-470
999.664	-1418
999.741	-556
999.818	180
999.895	-1158
999.971	-899
1000.048	-1112
1000.125	-352
1000.202	-1233
1000.278	-759
1000.355	-792
1000.431	-1665
1000.508	-1425
1000.584	-656
1000.661	-354
1000.738	-1391
1000.814	-1342
1000.890	-486
1000.967	-1635
1001.043	-713
1001.120	-1961
1001.196	-1088
1001.272	-2073
1001.349	-525
1001.425	-503
1001.501	-1330
1001.577	-943
1001.654	-1295
1001.730	-801
1001.806	-1292
1001.882	-1571
1001.958	-693
1002.034	-969
1002.110	-666
1002.186	-1911
1002.262	-1004
1002.338	-1810
1002.414	-656
1002.490	-499
1002.566	-646
1002.642	-2187
1002.718	-277
1002.794	-820
1002.870	-871
1002.945	-919
1003.021	-1278
1003.097	-1374
1003.173	-933
1003.248	-1437
1003.324	-1396
1003.400	-1388
1003.475	-1785
1003.551	-1021
1003.626	-1236
1003.702	-1958
1003.777	-2317
1003.853	-1137
1003.928	-1531
1004.004	-1451
1004.079	-955
1004.155	-1630
1004.230	-1794
1004.305	-208
1004.381	-1650
1004.456	-1151
1004.531	-948
1004.607	-1323
1004.682	-1182
1004.757	-1642
1004.832	-1872
1004.907	-1350
1004.982	-1522
1005.057	-1542
1005.133	-1282
1005.208	-608
1005.283	-1582
1005.358	-1108
1005.433	-1700
1005.508	-1108
1005.583	-2225
1005.657	-1739
1005.732	-1092
1005.807	-1730
1005.882	-1227
1005.957	-1932
1006.032	-834
1006.106	-1338
1006.181	-1728
1006.256	-874
1006.331	-1835
1006.405	-1381
1006.480	-1985
1006.554	-1339
1006.629	-1542
1006.704	-1115
1006.778	-1240
1006.853	-2003
1006.927	-1522
1007.002	-1853
1007.076	-1606
1007.150	-1001
1007.225	-1089
1007.299	-924
1007.373	-1220
1007.448	-1220
1007.522	-1044
1007.596	-1449
1007.671	-1674
1007.745	-1086
1007.819	-2504
1007.893	-1819
1007.967	-1279
1008.041	-2758
1008.115	-445
1008.190	-1463
1008.264	-1385
1008.338	-2921
1008.412	-2403
1008.486	-1086
1008.560	-1555
1008.633	-2912
1008.707	-1525
1008.781	-702
1008.855	-1406
1008.929	-1789
1009.003	-2219
1009.076	-1174
1009.150	-2028
1009.224	-1784
1009.298	-2258
1009.371	-2277
1009.445	-723
1009.519	-1882
1009.592	-2083
1009.666	-1707
1009.739	-1216
1009.813	-2579
1009.886	-909
1009.960	-2087
1010.033	-600
1010.107	-1022
1010.180	-2118
1010.253	-1848
1010.327	-1041
1010.400	-1626
1010.473	-1580
1010.547	-371
1010.620	-823
1010.693	-1467
1010.766	-1765
1010.840	-1136
1010.913	-930
1010.986	-1724
1011.059	-935
1011.132	-649
1011.205	-186
1011.278	-1477
1011.351	-1466
1011.424	-1615
1011.497	-1900
1011.570	-1616
1011.643	-785
1011.716	-2058
1011.789	-1681
1011.862	-1847
1011.934	-1601
1012.007	-2141
1012.080	-1114
1012.153	-1741
1012.225	-35
1012.298	-2130
1012.371	-1806
1012.443	-904
1012.516	-1781
1012.588	-1748
1012.661	-1879
1012.733	-2548
1012.806	-886
1012.879	-1363
1012.951	-1237
1013.023	-1884
1013.096	-1411
1013.168	-1615
1013.241	-1916
1013.313	-1489
1013.385	-1625
1013.458	-2069
1013.530	-879
1013.602	-1963
1013.674	-1571
1013.746	-1877
1013.819	-1798
1013.891	-1205
1013.963	-1191
1014.035	-1446
1014.107	-445
1014.179	-1023
1014.251	-1717
1014.323	-1748
1014.395	-1986
1014.467	-1115
1014.539	-895
1014.611	-2167
1014.683	-948
1014.754	-1545
1014.826	-2900
1014.898	-2019
1014.970	-1786
1015.042	-412
1015.113	-1516
1015.185	-1503
1015.257	-2546
1015.328	-1593
1015.400	-1929
1015.471	-1917
1015.543	-2328
1015.615	-1407
1015.686	-2070
1015.757	-1189
1015.829	-1207
1015.901	-1268
1015.972	-1485
1016.043	-1849
1016.115	-2073
1016.186	-1258
1016.257	-2449
1016.328	-1309
1016.400	-855
1016.471	-2318
1016.542	-1985
1016.613	-1295
1016.685	-1877
1016.756	-1166
1016.827	-2796
1016.898	-2964
1016.969	-820
1017.040	-1874
1017.111	-745
1017.182	-1599
1017.253	-1871
1017.324	-1636
1017.395	-1718
1017.466	-2011
1017.537	-2212
1017.608	-1729
1017.678	-1429
1017.749	-1342
1017.820	-950
1017.891	-3075
1017.961	-1479
1018.032	-2306
1018.103	-1154
1018.173	-1287
1018.244	-2283
1018.315	-1656
1018.385	-1549
1018.456	-1778
1018.526	-1814
1018.597	-1667
1018.667	-1737
1018.738	-2048
1018.808	-2431
1018.878	-1870
1018.949	-1737
1019.019	-867
1019.089	-1618
1019.160	-1332
1019.230	-2366
1019.300	-1187
1019.371	-2441
1019.441	-1059
1019.511	-839
1019.581	-1887
1019.651	-1869
1019.721	-2079
1019.791	-1165
1019.861	-1689
1019.931	-1562
1020.001	-1448
1020.071	-1366
1020.141	-1619
1020.211	-1581
1020.281	-1773
1020.351	-1718
1020.421	-1916
1020.491	-1101
1020.560	-1355
1020.630	-1514
1020.700	-1504
1020.770	-1659
1020.839	-2504
1020.909	-1521
1020.979	-2032
1021.048	-2092
1021.118	-2129
1021.187	-1738
1021.257	-1731
1021.326	-844
1021.396	-1353
1021.465	-973
1021.535	-1614
1021.604	-2213
1021.674	-1746
1021.743	-2129
1021.812	-1656
1021.882	-2017
1021.951	-2170
1022.020	-958
1022.089	-1464
1022.159	-1490
1022.228	-764
1022.297	-1428
1022.366	-1661
1022.435	-2045
1022.504	-2504
1022.573	-1624
1022.642	-1521
1022.711	-1474
1022.781	-1272
1022.849	-993
1022.918	-1628
1022.987	-1788
1023.056	-2143
1023.125	-1912
1023.194	-2072
1023.263	-1171
1023.331	-1486
1023.400	-2153
1023.469	-1912
1023.538	-1888
1023.606	-2264
1023.675	-1436
1023.744	-1715
1023.812	-1768
1023.881	-1510
1023.949	-1599
1024.018	-1779
1024.086	-1987
1024.155	-2041
1024.223	-1558
1024.292	-1525
1024.360	-1446
1024.429	-2473
1024.497	-2250
1024.565	-2053
1024.634	-1638
1024.702	-1493
1024.770	-1506
1024.838	-2417
1024.907	-1393
1024.975	-2326
1025.043	-1184
1025.111	-1486
1025.179	-1402
1025.247	-1640
1025.315	-2378
1025.383	-1603
1025.451	-1580
1025.519	-2144
1025.587	-2599
1025.655	-1209
1025.723	-1767
1025.791	-1915
1025.859	-2165
1025.927	-2158
1025.995	-2107
1026.062	-2078
1026.130	-1709
1026.198	-1890
1026.266	-2103
1026.333	-1440
1026.401	-1610
1026.469	-1617
1026.536	-2243
1026.604	-2254
1026.671	-2308
1026.739	-1715
1026.806	-2016
1026.874	-2066
1026.941	-1544
1027.009	-1903
1027.076	-2246
1027.144	-1410
1027.211	-2311
1027.278	-1669
1027.345	-1796
1027.413	-1862
1027.480	-2308
1027.547	-1922
1027.614	-1687
1027.682	-2092
1027.749	-2323
1027.816	-1766
1027.883	-2118
1027.950	-2585
1028.017	-2551
1028.084	-1659
1028.151	-2505
1028.218	-2431
1028.285	-2266
1028.352	-2463
1028.419	-2069
1028.486	-1976
1028.553	-2120
1028.619	-2019
1028.686	-1866
1028.753	-2480
1028.820	-1604
1028.886	-2058
1028.953	-2061
1029.020	-2133
1029.086	-1415
1029.153	-1753
1029.220	-2621
1029.286	-1798
1029.353	-2050
1029.419	-2269
1029.486	-1519
1029.552	-2328
1029.619	-2308
1029.685	-1731
1029.751	-2599
1029.818	-1547
1029.884	-2206
1029.951	-1013
1030.017	-1915
1030.083	-2551
1030.149	-1886
1030.216	-2629
1030.282	-2713
1030.348	-2571
1030.414	-1963
1030.480	-2288
1030.546	-1635
1030.612	-1847
1030.678	-2274
1030.744	-2288
1030.810	-2007
1030.876	-1951
1030.942	-2145
1031.008	-2585
1031.074	-2273
1031.140	-2377
1031.206	-1431
1031.272	-2674
1031.337	-2337
1031.403	-1947
1031.469	-1772
1031.534	-2582
1031.600	-1219
1031.666	-2461
1031.731	-1830
1031.797	-2718
1031.863	-2226
1031.928	-2708
1031.994	-1898
1032.059	-1963
1032.125	-2224
1032.190	-2690
1032.256	-1956
1032.321	-1914
1032.386	-2343
1032.452	-2409
1032.517	-2124
1032.582	-2209
1032.647	-2256
1032.713	-1662
1032.778	-1864
1032.843	-3103
1032.908	-1512
1032.974	-2754
1033.039	-2066
1033.104	-1652
1033.169	-2234
1033.234	-2232
1033.299	-1231
1033.364	-2525
1033.429	-1870
1033.494	-2054
1033.559	-2204
1033.624	-2323
1033.688	-2311
1033.753	-2795
1033.818	-1805
1033.883	-1550
1033.948	-1288
1034.013	-1733
1034.077	-1069
1034.142	7
1034.207	597
1034.271	1860
1034.336	3564
1034.400	1763
1034.465	729
1034.530	-275
1034.594	-1896
1034.658	-2299
1034.723	-1885
1034.787	-2876
1034.852	-2746
1034.916	-1946
1034.981	-2087
1035.045	-2380
1035.109	-2145
1035.173	-1740
1035.238	-1828
1035.302	-2186
1035.366	-2205
1035.430	-1939
1035.495	-3597
1035.559	-1826
1035.623	-2180
1035.687	-3458
1035.751	-2345
1035.815	-1521
1035.879	-2715
1035.943	-2478
1036.007	-2495
1036.071	-2075
1036.135	-3298
1036.198	-1831
1036.262	-2491
1036.326	-1602
1036.390	-1825
1036.454	-1581
1036.517	-1625
1036.581	-856
1036.645	-300
1036.709	-496
1036.772	-1123
1036.836	-1898
1036.900	-1985
1036.963	-2478
1037.026	-2043
1037.090	-2438
1037.154	-1925
1037.217	-1710
1037.280	-2385
1037.344	-2320
1037.407	-2062
1037.471	-2133
1037.534	-2106
1037.597	-1953
1037.661	-1784
1037.724	-1433
1037.787	-1852
1037.850	-2367
1037.913	-2355
1037.977	-1162
1038.040	-2535
1038.103	-2018
1038.166	-2937
1038.229	-2809
1038.292	-2547
1038.355	-2786
1038.418	-3173
1038.481	-2890
1038.544	-2919
1038.607	-1770
1038.670	-2469
1038.732	-2622
1038.795	-3088
1038.858	-1885
1038.921	-2132
1038.984	-1666
1039.046	-2233
1039.109	-2370
1039.172	-2727
1039.234	-2434
1039.297	-2262
1039.360	-2375
1039.422	-2266
1039.485	-2622
1039.547	-1813
1039.610	-1823
1039.672	-2281
1039.734	-2544
1039.797	-2222
1039.859	-3114
1039.922	-2067
1039.984	-2788
1040.046	-2349
1040.109	-1806
1040.171	-2474
1040.233	-2829
1040.295	-2380
1040.358	-3057
1040.420	-1832
1040.482	-1815
1040.544	-2023
1040.606	-2264
1040.668	-1484
1040.730	-2683
1040.792	-2558
1040.854	-2359
1040.916	-2170
1040.978	-2596
1041.040	-1489
1041.102	-2316
1041.164	-2247
1041.225	-3326
1041.287	-2609
1041.349	-2891
1041.411	-1979
1041.472	-2652
1041.534	-3038
1041.596	-2081
1041.657	-2120
1041.719	-1894
1041.781	-2313
1041.842	-1632
1041.904	-2494
1041.965	-1983
1042.027	-2337
1042.088	-1873
1042.150	-2080
1042.211	-2326
1042.272	-2541
1042.334	-1581
1042.395	-1818
1042.456	-2803
1042.518	-1547
1042.579	-1292
1042.640	-1913
1042.701	-1903
1042.763	-2617
1042.824	-2174
1042.885	-2661
1042.946	-2325
1043.007	-1428
1043.068	-2345
1043.129	-2628
1043.190	-2035
1043.251	-1308
1043.312	-2147
1043.373	-1925
1043.434	-2304
1043.495	-1797
1043.556	-1536
1043.616	-2380
1043.677	-2266
1043.738	-2414
1043.799	-2757
1043.859	-2628
1043.920	-1747
1043.981	-1982
1044.041	-2341
1044.102	-1741
1044.162	-1786
1044.223	-2092
1044.284	-2285
1044.344	-1958
1044.405	-1603
1044.465	-2271
1044.525	-1940
1044.586	-1943
1044.646	-2288
1044.707	-2278
1044.767	-1983
1044.827	-2218
1044.887	-2044
1044.948	-2478
1045.008	-2738
1045.068	-1934
1045.128	-2470
1045.188	-1898
1045.249	-1428
1045.309	-1609
1045.369	-2088
1045.429	-1166
1045.489	-1977
1045.549	-2097
1045.609	-2669
1045.669	-1814
1045.729	-2134
1045.789	-1824
1045.848	-1973
1045.908	-1970
1045.968	-1324
1046.028	-1644
1046.088	-1811
1046.147	-1602
1046.207	-1925
1046.267	-1525
1046.326	-1281
1046.386	-1800
1046.446	-1575
1046.505	-1132
1046.565	-1001
1046.624	-1121
1046.684	-1129
1046.743	-86
1046.803	-135
1046.862	-953
1046.922	0
