'Start Wavelength	183.907
'End Wavelength	1046.922
'Gate Delay	5.000
'Gate Width (ms)	1.050
'Laser Output Level	0.000
'X Position	0.000
'Y Position	0.000
'Z Position	0.000
'Grid Point Number	1.000
'Shot Number	100.000
183.907	232.000
183.977	248.000
184.047	64
184.116	-164
184.186	-427
184.256	258
184.325	-408
184.395	-357
184.465	979
184.534	46
184.604	-665
184.674	979
184.743	-497
184.813	-105
184.883	18
184.952	360
185.022	109
185.092	-128
185.161	6
185.231	695
185.301	-1116
185.370	1061
185.440	-556
185.509	-281
185.579	44
185.649	420
185.718	-84
185.788	526
185.857	-871
185.927	-108
185.996	-386
186.066	-44
186.136	393
186.205	-502
186.275	-390
186.344	-48
186.414	-54
186.483	-309
186.553	367
186.622	1610
186.692	81
186.761	8
186.831	15
186.900	-223
186.970	118
187.039	325
187.109	1118
187.178	-172
187.248	134
187.317	-172
187.387	340
187.456	658
187.526	-23
187.595	449
187.664	-306
187.734	706
187.803	295
187.873	-151
187.942	661
188.012	613
188.081	216
188.150	-534
188.220	-265
188.289	947
188.358	76
188.428	436
188.497	-351
188.567	654
188.636	-394
188.705	426
188.775	276
188.844	-238
188.913	899
188.983	206
189.052	-450
189.121	259
189.191	635
189.260	697
189.329	803
189.399	739
189.468	190
189.537	148
189.606	296
189.676	703
189.745	547
189.814	1081
189.883	683
189.953	45
190.022	975
190.091	2562
190.161	2425
190.230	653
190.299	831
190.368	530
190.437	612
190.507	38
190.576	705
190.645	-74
190.714	452
190.783	323
190.853	421
190.922	428
190.991	-136
191.060	483
191.129	-336
191.198	679
191.268	-6
191.337	-137
191.406	1059
191.475	1126
191.544	217
191.613	63
191.682	-425
191.752	1158
191.821	772
191.890	355
191.959	-182
192.028	867
192.097	376
192.166	532
192.235	397
192.304	1624
192.373	486
192.442	680
192.511	346
192.580	318
192.650	17
192.719	-315
192.788	822
192.857	461
192.926	-165
192.995	1006
193.064	847
193.133	1798
193.202	2704
193.271	1829
193.340	2418
193.409	1904
193.478	2313
193.547	3201
193.615	4638
193.684	3552
193.753	2165
193.822	1140
193.891	461
193.960	1557
194.029	979
194.098	1312
194.167	80
194.236	975
194.305	943
194.374	1146
194.443	663
194.512	652
194.580	1149
194.649	1151
194.718	905
194.787	1060
194.856	241
194.925	1610
194.994	205
195.062	937
195.131	925
195.200	13
195.269	1243
195.338	1290
195.407	444
195.475	-210
195.544	794
195.613	691
195.682	1344
195.751	882
195.819	720
195.888	256
195.957	1237
196.026	565
196.094	1392
196.163	1846
196.232	714
196.301	663
196.369	1115
196.438	1561
196.507	602
196.576	1098
196.644	758
196.713	1268
196.782	625
196.850	1371
196.919	366
196.988	1283
197.056	603
197.125	981
197.194	669
197.262	832
197.331	176
197.400	392
197.468	1058
197.537	741
197.606	1815
197.674	1829
197.743	2750
197.812	1217
197.880	2476
197.949	2117
198.017	2762
198.086	2911
198.155	416
198.223	2070
198.292	3208
198.360	1847
198.429	1781
198.497	1690
198.566	1471
198.635	3741
198.703	1735
198.772	1821
198.840	3760
198.909	3259
198.977	699
199.046	1561
199.114	1322
199.183	1671
199.251	624
199.320	1332
199.388	876
199.457	757
199.525	1042
199.594	1307
199.662	1358
199.731	1404
199.799	1302
199.867	1181
199.936	716
200.004	1770
200.073	1499
200.141	1272
200.210	2020
200.278	702
200.346	678
200.415	1822
200.483	1681
200.552	1883
200.620	628
200.688	1530
200.757	1038
200.825	1160
200.893	794
200.962	617
201.030	1029
201.098	661
201.167	1990
201.235	1702
201.303	1130
201.372	1313
201.440	951
201.508	760
201.577	1101
201.645	1422
201.713	1413
201.781	1189
201.850	1341
201.918	1188
201.986	950
202.055	1757
202.123	1235
202.191	1133
202.259	818
202.327	562
202.396	607
202.464	1159
202.532	1122
202.600	2765
202.669	1750
202.737	1831
202.805	1182
202.873	1511
202.941	936
203.009	1300
203.078	1343
203.146	1479
203.214	1338
203.282	796
203.350	1106
203.418	1031
203.487	1594
203.555	1136
203.623	1344
203.691	1483
203.759	1486
203.827	2205
203.895	2311
203.963	1267
204.031	1111
204.099	1370
204.168	694
204.236	1393
204.304	902
204.372	2137
204.440	1794
204.508	1434
204.576	831
204.644	1629
204.712	1423
204.780	1737
204.848	2044
204.916	1087
204.984	1207
205.052	1504
205.120	1736
205.188	1733
205.256	1279
205.324	867
205.392	1615
205.460	1423
205.528	1371
205.596	2261
205.664	1790
205.732	2168
205.799	4139
205.867	6801
205.935	1556
206.003	2492
206.071	1489
206.139	2163
206.207	2224
206.275	2504
206.343	1488
206.411	1892
206.478	2155
206.546	1952
206.614	2318
206.682	1808
206.750	1560
206.818	2941
206.885	3129
206.953	1084
207.021	2293
207.089	2570
207.157	1500
207.225	1991
207.292	1653
207.360	3389
207.428	2227
207.496	1877
207.563	1887
207.631	2381
207.699	1299
207.767	2227
207.834	1118
207.902	1548
207.970	1642
208.038	2326
208.105	1703
208.173	2767
208.241	2441
208.309	4371
208.376	2724
208.444	4318
208.512	2657
208.579	2229
208.647	2703
208.715	3216
208.782	2200
208.850	2079
208.918	2279
208.985	3102
209.053	2335
209.120	2274
209.188	1689
209.256	2388
209.323	2708
209.391	2085
209.459	3650
209.526	2720
209.594	1722
209.661	2979
209.729	2238
209.796	3060
209.864	2518
209.932	1685
209.999	3535
210.067	2595
210.134	1740
210.202	2825
210.269	3122
210.337	3970
210.404	2298
210.472	2660
210.539	2937
210.607	2871
210.674	2670
210.742	3333
210.809	2651
210.877	3068
210.944	2661
211.012	1756
211.079	4932
211.146	2819
211.214	2657
211.281	3134
211.349	3814
211.416	3723
211.484	2916
211.551	3603
211.618	2646
211.686	3160
211.753	2392
211.821	3598
211.888	2222
211.955	2922
212.023	2744
212.090	2623
212.157	2439
212.225	3410
212.292	5189
212.359	7482
212.427	16949
212.494	9053
212.561	5205
212.629	4414
212.696	3930
212.763	4228
212.831	3130
212.898	3650
212.965	2495
213.032	3161
213.100	2930
213.167	3406
213.234	3824
213.301	3544
213.369	2747
213.436	2442
213.503	2559
213.570	3867
213.638	3370
213.705	3214
213.772	2459
213.839	2957
213.906	3410
213.973	3952
214.041	2876
214.108	3453
214.175	3188
214.242	2813
214.309	2667
214.376	3192
214.444	3934
214.511	3679
214.578	2743
214.645	4529
214.712	4388
214.779	4142
214.846	4118
214.913	4868
214.980	4340
215.048	4852
215.115	4931
215.182	4283
215.249	4103
215.316	3771
215.383	4055
215.450	3237
215.517	3056
215.584	2901
215.651	2115
215.718	3061
215.785	2863
215.852	2034
215.919	3462
215.986	3234
216.053	3414
216.120	1969
216.187	2654
216.254	3211
216.321	2520
216.388	2904
216.455	3427
216.522	4678
216.589	3876
216.656	5079
216.722	5678
216.789	5584
216.856	5079
216.923	5170
216.990	5190
217.057	5358
217.124	5697
217.191	5759
217.258	6453
217.324	8141
217.391	8380
217.458	6761
217.525	4757
217.592	4519
217.659	3699
217.725	4651
217.792	4274
217.859	4726
217.926	3785
217.993	3228
218.059	3311
218.126	3332
218.193	3919
218.260	3210
218.327	1949
218.393	2748
218.460	1257
218.527	2129
218.594	3106
218.660	3439
218.727	4442
218.794	2360
218.860	2794
218.927	2684
218.994	2417
219.061	2643
219.127	2083
219.194	3876
219.261	2788
219.327	2325
219.394	2533
219.461	1312
219.527	2198
219.594	2867
219.661	1454
219.727	2123
219.794	2494
219.860	2135
219.927	3956
219.994	5750
220.060	6755
220.127	6416
220.193	4748
220.260	5668
220.326	8114
220.393	12986
220.460	14130
220.526	10601
220.593	7188
220.659	8053
220.726	6790
220.792	13150
220.859	13186
220.925	18304
220.992	20762
221.058	19594
221.125	16311
221.191	12379
221.258	7268
221.324	5633
221.391	5202
221.457	5638
221.524	5191
221.590	5516
221.657	11985
221.723	9679
221.789	8599
221.856	8158
221.922	4645
221.989	4287
222.055	2949
222.121	2385
222.188	4418
222.254	3682
222.321	2178
222.387	2870
222.453	2743
222.520	2350
222.586	2442
222.652	2791
222.719	2119
222.785	4274
222.851	3310
222.918	1842
222.984	3745
223.050	3912
223.116	1042
223.183	3490
223.249	1680
223.315	1443
223.382	2549
223.448	1778
223.514	2278
223.580	1596
223.647	1660
223.713	1353
223.779	2282
223.845	2272
223.911	1910
223.978	1716
224.044	1453
224.110	2194
224.176	1596
224.242	1532
224.309	1468
224.375	2203
224.441	1926
224.507	1592
224.573	665
224.639	2435
224.705	913
224.772	1571
224.838	1564
224.904	2528
224.970	1350
225.036	2021
225.102	819
225.168	2529
225.234	2187
225.300	982
225.366	2548
225.432	2330
225.499	2000
225.565	2236
225.631	1715
225.697	3005
225.763	3915
225.829	4609
225.895	3443
225.961	5246
226.027	5021
226.093	4609
226.159	6824
226.225	10756
226.291	22688
226.357	32735
226.423	19734
226.489	11269
226.554	7636
226.620	7347
226.686	8163
226.752	11903
226.818	21716
226.884	39677
226.950	34241
227.016	18888
227.082	10434
227.148	7259
227.214	5394
227.279	4902
227.345	3331
227.411	3781
227.477	4289
227.543	10216
227.609	9335
227.674	5563
227.740	2712
227.806	3691
227.872	2741
227.938	2915
228.003	2882
228.069	2353
228.135	1725
228.201	2771
228.267	2540
228.332	2528
228.398	1563
228.464	2592
228.530	1594
228.595	2296
228.661	1001
228.727	3306
228.792	3495
228.858	1707
228.924	1702
228.990	3841
229.055	1475
229.121	3626
229.187	1381
229.252	1650
229.318	517
229.384	3097
229.449	2008
229.515	560
229.581	127
229.646	2819
229.712	1652
229.777	3151
229.843	4121
229.909	3814
229.974	3067
230.040	3471
230.105	2946
230.171	2872
230.236	4452
230.302	6566
230.368	4381
230.433	2312
230.499	2845
230.564	3514
230.630	1937
230.695	2115
230.761	2596
230.826	1860
230.892	4199
230.957	2119
231.023	1349
231.088	2293
231.154	1465
231.219	2612
231.284	2447
231.350	3826
231.415	1389
231.481	2802
231.546	1919
231.612	2615
231.677	1108
231.742	686
231.808	2060
231.873	1542
231.939	104
232.004	3167
232.069	3672
232.135	2184
232.200	2761
232.265	1563
232.331	879
232.396	2387
232.461	1068
232.527	1814
232.592	1063
232.657	1797
232.723	1995
232.788	1495
232.853	2090
232.918	1439
232.984	784
233.049	2066
233.114	747
233.179	1687
233.245	2400
233.310	3398
233.375	-79
233.440	2419
233.506	639
233.571	1164
233.636	741
233.701	1421
233.766	2134
233.832	2432
233.897	790
233.962	515
234.027	2053
234.092	2271
234.157	694
234.222	2386
234.288	2392
234.353	4824
234.418	3802
234.483	4058
234.548	3595
234.613	3185
234.678	2561
234.743	2823
234.808	4921
234.873	3215
234.938	3438
235.004	2821
235.069	2741
235.134	2948
235.199	2955
235.264	2703
235.329	962
235.394	3091
235.459	2974
235.524	1913
235.589	2366
235.654	2195
235.719	560
235.784	3110
235.849	2539
235.913	3784
235.978	3396
236.043	4185
236.108	2388
236.173	2870
236.238	3845
236.303	2258
236.368	3134
236.433	4614
236.498	5095
236.563	7336
236.627	16655
236.692	48362
236.757	45315
236.822	19528
236.887	10398
236.952	11203
237.017	7528
237.081	9375
237.146	10742
237.211	26974
237.276	49267
237.341	68722
237.405	39911
237.470	18156
237.535	10907
237.600	8528
237.664	7365
237.729	5540
237.794	6625
237.859	17527
237.923	8786
237.988	5112
238.053	5690
238.118	4851
238.182	7364
238.247	8633
238.312	3419
238.376	4342
238.441	751
238.506	3773
238.570	1292
238.635	3978
238.700	1367
238.764	2242
238.829	3556
238.893	4085
238.958	4056
239.023	3317
239.087	1878
239.152	3259
239.216	1956
239.281	2952
239.346	2085
239.410	3335
239.475	2022
239.539	6663
239.604	4731
239.668	3603
239.733	2705
239.797	6006
239.862	15953
239.926	11476
239.991	3767
240.055	3105
240.120	1421
240.184	3164
240.249	959
240.313	1582
240.378	2237
240.442	4005
240.507	5926
240.571	2717
240.635	1644
240.700	3490
240.764	977
240.829	2025
240.893	-105
240.957	2104
241.022	4373
241.086	6295
241.151	1817
241.215	539
241.279	3095
241.344	3041
241.408	2912
241.472	3196
241.537	3586
241.601	3929
241.665	1693
241.730	2459
241.794	3970
241.858	2428
241.922	2579
241.987	3074
242.051	2320
242.115	2248
242.179	3597
242.244	2223
242.308	3198
242.372	2941
242.436	2105
242.501	2806
242.565	1458
242.629	1826
242.693	3629
242.757	1478
242.822	2330
242.886	4029
242.950	2944
243.014	2039
243.078	2696
243.142	3077
243.206	2778
243.271	3339
243.335	3525
243.399	6498
243.463	21359
243.527	59269
243.591	18580
243.655	7263
243.719	3791
243.783	4586
243.847	7883
243.911	10020
243.975	5692
244.040	3493
244.104	3988
244.168	3236
244.232	3195
244.296	6098
244.360	8957
244.424	3393
244.488	1836
244.552	2739
244.615	1376
244.679	3093
244.743	2297
244.807	1938
244.871	1675
244.935	2402
244.999	687
245.063	2288
245.127	3565
245.191	6570
245.255	4961
245.319	3619
245.383	1071
245.446	2696
245.510	1167
245.574	2184
245.638	2505
245.702	1044
245.766	4694
245.829	3860
245.893	1901
245.957	2592
246.021	3108
246.085	2221
246.149	2597
246.212	7100
246.276	12185
246.340	4999
246.404	3816
246.467	4209
246.531	3540
246.595	4331
246.659	2902
246.722	1984
246.786	2890
246.850	4147
246.913	4557
246.977	1415
247.041	2164
247.104	3269
247.168	3273
247.232	6135
247.295	15944
247.359	7732
247.423	3799
247.486	4956
247.550	4344
247.614	3074
247.677	3521
247.741	2666
247.804	2393
247.868	3296
247.932	4976
247.995	15337
248.059	4182
248.122	2600
248.186	4514
248.249	5751
248.313	23452
248.376	25065
248.440	15682
248.503	5148
248.567	5663
248.630	5361
248.694	8508
248.757	11521
248.821	26893
248.884	15338
248.948	13147
249.011	19667
249.075	30736
249.138	26702
249.202	10758
249.265	6949
249.328	7347
249.392	5816
249.455	5903
249.519	4286
249.582	5254
249.645	7907
249.709	6029
249.772	5059
249.835	5386
249.899	4710
249.962	4737
250.025	4553
250.089	11239
250.152	15220
250.215	6031
250.279	5246
250.342	6099
250.405	5644
250.468	5107
250.532	7367
250.595	12790
250.658	50283
250.721	86542
250.785	30740
250.848	14673
250.911	9167
250.974	9089
251.038	10746
251.101	19160
251.164	10275
251.227	10058
251.290	10681
251.354	17677
251.417	70943
251.480	76110
251.543	53195
251.606	126847
251.669	105039
251.732	40758
251.795	31901
251.859	35628
251.922	82394
251.985	50075
252.048	18100
252.111	11412
252.174	9952
252.237	15435
252.300	34103
252.363	42998
252.426	101817
252.489	43466
252.552	17244
252.615	11159
252.678	12451
252.741	27953
252.804	44781
252.867	105396
252.930	57918
252.993	23841
253.056	14717
253.119	8404
253.182	8862
253.245	17270
253.308	12310
253.371	5865
253.434	6222
253.497	6129
253.559	13945
253.622	8334
253.685	7087
253.748	7867
253.811	3674
253.874	5840
253.937	4146
254.000	4597
254.062	9343
254.125	14310
254.188	9224
254.251	6938
254.314	4249
254.376	5709
254.439	7363
254.502	5311
254.565	7433
254.628	15960
254.690	7324
254.753	3400
254.816	3756
254.878	3490
254.941	9690
255.004	10793
255.067	4538
255.129	3333
255.192	2564
255.255	1162
255.317	2769
255.380	1414
255.443	1339
255.505	1703
255.568	993
255.631	1324
255.693	2033
255.756	2158
255.819	3043
255.881	2103
255.944	2200
256.006	1216
256.069	1403
256.132	1880
256.194	2316
256.257	3771
256.319	4426
256.382	3452
256.444	4724
256.507	4040
256.569	2947
256.632	4161
256.694	7464
256.757	26873
256.819	82627
256.882	36417
256.944	13539
257.007	8972
257.069	6548
257.132	5558
257.194	5891
257.257	4511
257.319	4770
257.381	6696
257.444	20326
257.506	86877
257.569	101860
257.631	32415
257.693	16928
257.756	9119
257.818	7115
257.880	5971
257.943	5369
258.005	2594
258.067	2882
258.130	3283
258.192	3692
258.254	4286
258.317	3074
258.379	3926
258.441	7409
258.503	8478
258.566	6141
258.628	8314
258.690	3162
258.753	4166
258.815	4911
258.877	3502
258.939	2876
259.001	3376
259.064	3063
259.126	2188
259.188	3968
259.250	3784
259.312	3710
259.375	4694
259.437	3121
259.499	2805
259.561	2588
259.623	2779
259.685	2405
259.747	2005
259.809	6231
259.872	10949
259.934	16955
259.996	14954
260.058	5008
260.120	2504
260.182	2791
260.244	2269
260.306	2262
260.368	2210
260.430	1809
260.492	3117
260.554	4648
260.616	2012
260.678	8806
260.740	10641
260.802	3405
260.864	2620
260.926	1698
260.988	3245
261.050	1890
261.112	4206
261.174	10132
261.236	9049
261.298	4020
261.359	4924
261.421	6973
261.483	2122
261.545	2939
261.607	828
261.669	2656
261.731	2894
261.793	7052
261.854	3952
261.916	3268
261.978	1380
262.040	2351
262.102	1894
262.164	2639
262.225	2165
262.287	1877
262.349	4129
262.411	4384
262.472	2345
262.534	2431
262.596	5648
262.658	2852
262.719	1275
262.781	2622
262.843	5303
262.904	3081
262.966	3466
263.028	3956
263.090	23080
263.151	68806
263.213	20221
263.275	7262
263.336	3615
263.398	4267
263.459	885
263.521	2637
263.583	4083
263.644	3143
263.706	1991
263.767	1743
263.829	1625
263.891	1446
263.952	731
264.014	323
264.075	1061
264.137	3590
264.198	1956
264.260	1942
264.321	1031
264.383	3205
264.444	5962
264.506	1962
264.567	1556
264.629	3160
264.690	3674
264.752	2218
264.813	1924
264.875	1356
264.936	1863
264.998	2288
265.059	2323
265.120	3934
265.182	6015
265.243	44427
265.305	51835
265.366	11714
265.427	5454
265.489	4777
265.550	2588
265.611	2911
265.673	2702
265.734	2529
265.795	2069
265.857	1841
265.918	3214
265.979	11532
266.040	70177
266.102	65788
266.163	17017
266.224	7986
266.286	5290
266.347	3390
266.408	3024
266.469	2685
266.530	1650
266.592	1262
266.653	2488
266.714	5011
266.775	2590
266.836	1598
266.898	1027
266.959	2869
267.020	2156
267.081	3155
267.142	853
267.203	1721
267.264	556
267.326	2843
267.387	1103
267.448	1274
267.509	1608
267.570	1569
267.631	1679
267.692	697
267.753	1431
267.814	1513
267.875	2753
267.936	6834
267.997	3934
268.058	3789
268.119	2469
268.180	1812
268.241	279
268.302	1539
268.363	561
268.424	732
268.485	2551
268.546	1107
268.607	1122
268.668	1364
268.729	647
268.790	636
268.851	1466
268.912	3438
268.972	3626
269.033	1625
269.094	109
269.155	1614
269.216	283
269.277	1489
269.338	968
269.398	1202
269.459	1264
269.520	2664
269.581	2145
269.642	2638
269.702	2056
269.763	2069
269.824	1663
269.885	1570
269.945	2993
270.006	1679
270.067	189
270.128	1434
270.188	1243
270.249	749
270.310	-289
270.370	1193
270.431	1198
270.492	878
270.553	1267
270.613	2378
270.674	5797
270.734	2795
270.795	1284
270.856	2414
270.916	1770
270.977	694
271.038	1751
271.098	1844
271.159	2022
271.219	3066
271.280	1325
271.340	972
271.401	608
271.462	2339
271.522	2007
271.583	1268
271.643	962
271.704	1668
271.764	2068
271.825	4451
271.885	18821
271.946	30792
272.006	7674
272.066	11442
272.127	26453
272.187	8977
272.248	3830
272.308	3964
272.369	17948
272.429	9910
272.489	4159
272.550	3539
272.610	4694
272.671	2816
272.731	2443
272.791	3732
272.852	2230
272.912	2736
272.972	1318
273.033	1717
273.093	1813
273.153	2721
273.214	1334
273.274	2202
273.334	8142
273.394	20823
273.455	6222
273.515	5693
273.575	14669
273.635	5787
273.696	7416
273.756	22290
273.816	7292
273.876	3287
273.936	5267
273.997	9225
274.057	2867
274.117	2062
274.177	3585
274.237	22919
274.297	21431
274.358	9631
274.418	15894
274.478	11493
274.538	2892
274.598	3053
274.658	7096
274.718	8335
274.778	3465
274.838	2415
274.898	3065
274.958	12939
275.018	20778
275.078	14635
275.138	3764
275.198	2443
275.258	1696
275.318	2091
275.378	3117
275.438	4281
275.498	2753
275.558	6252
275.618	14416
275.678	13450
275.738	5834
275.798	4264
275.858	2186
275.918	987
275.978	1912
276.038	2511
276.098	735
276.157	3107
276.217	9365
276.277	5044
276.337	2582
276.397	2132
276.457	1972
276.517	1105
276.576	1338
276.636	577
276.696	1657
276.756	6187
276.815	3015
276.875	2563
276.935	1370
276.995	1945
277.055	1037
277.114	2316
277.174	1679
277.234	8583
277.293	2061
277.353	1487
277.413	1337
277.472	1327
277.532	967
277.592	1795
277.651	3188
277.711	6375
277.771	2049
277.830	8595
277.890	6533
277.950	5105
278.009	17071
278.069	6685
278.128	5273
278.188	6542
278.248	2972
278.307	6366
278.367	4861
278.426	2440
278.486	1541
278.545	1752
278.605	1042
278.664	1192
278.724	2037
278.783	7766
278.843	23313
278.902	6774
278.962	2810
279.021	3026
279.081	2469
279.140	2097
279.199	1611
279.259	3300
279.318	3023
279.378	4962
279.437	5741
279.496	22959
279.556	62000
279.615	49231
279.675	11288
279.734	6640
279.793	8778
279.853	18663
279.912	6271
279.971	3173
280.031	1990
280.090	5514
280.149	11696
280.208	6945
280.268	36075
280.327	40969
280.386	7966
280.445	6641
280.505	6200
280.564	2385
280.623	1991
280.682	4397
280.742	7626
280.801	2026
280.860	1557
280.919	1600
280.978	938
281.037	1088
281.097	572
281.156	1035
281.215	926
281.274	3189
281.333	13132
281.392	10561
281.451	2094
281.510	1167
281.569	1438
281.628	1089
281.688	1698
281.747	1192
281.806	522
281.865	997
281.924	689
281.983	1409
282.042	256
282.101	707
282.160	663
282.219	466
282.278	165
282.337	4927
282.396	4233
282.454	2851
282.513	1781
282.572	7537
282.631	4110
282.690	1037
282.749	496
282.808	1689
282.867	932
282.926	1647
282.985	1330
283.043	714
283.102	672
283.161	1297
283.220	4184
283.279	10387
283.338	2548
283.396	970
283.455	1757
283.514	1728
283.573	1961
283.631	1530
283.690	1548
283.749	1476
283.808	3021
283.866	4042
283.925	774
283.984	1648
284.043	2296
284.101	2391
284.160	302
284.219	1617
284.277	508
284.336	2104
284.395	10328
284.453	9959
284.512	2671
284.570	4275
284.629	1930
284.688	2066
284.746	1761
284.805	1796
284.863	2226
284.922	2891
284.981	3269
285.039	3765
285.098	8780
285.156	28462
285.215	117309
285.273	123409
285.332	43633
285.390	19183
285.449	11127
285.507	7527
285.566	5870
285.624	3576
285.683	3428
285.741	2331
285.799	2134
285.858	2139
285.916	1768
285.975	1945
286.033	751
286.091	1482
286.150	969
286.208	1116
286.267	1206
286.325	2527
286.383	2440
286.442	2505
286.500	1311
286.558	1341
286.616	1814
286.675	2142
286.733	1499
286.791	1058
286.850	1598
286.908	2717
286.966	3764
287.024	2269
287.083	1277
287.141	1639
287.199	1774
287.257	2381
287.315	2129
287.374	3108
287.432	5661
287.490	4815
287.548	2051
287.606	2718
287.664	2209
287.723	3295
287.781	3785
287.839	3205
287.897	3794
287.955	6447
288.013	11299
288.071	29246
288.129	108737
288.187	288346
288.245	148333
288.303	45431
288.361	24789
288.419	17593
288.477	12326
288.535	9348
288.593	6833
288.651	4596
288.709	3401
288.767	2598
288.825	1662
288.883	2463
288.941	1019
288.999	2122
289.057	1808
289.115	1738
289.173	1160
289.231	1980
289.289	1571
289.346	1192
289.404	1289
289.462	2137
289.520	2622
289.578	1600
289.636	814
289.694	1284
289.751	1456
289.809	2047
289.867	2085
289.925	2116
289.983	1608
290.040	1787
290.098	1563
290.156	1460
290.214	1304
290.271	770
290.329	1398
290.387	569
290.444	619
290.502	226
290.560	832
290.617	1292
290.675	372
290.733	872
290.790	349
290.848	1565
290.906	1134
290.963	152
291.021	747
291.078	543
291.136	910
291.194	3228
291.251	7844
291.309	3068
291.366	36
291.424	742
291.481	1450
291.539	587
291.596	693
291.654	867
291.711	810
291.769	1602
291.826	2236
291.884	1857
291.941	231
291.999	492
292.056	606
292.114	923
292.171	689
292.228	1803
292.286	1523
292.343	1783
292.401	2575
292.458	2169
292.515	48
292.573	1518
292.630	891
292.687	1322
292.745	1747
292.802	1611
292.859	3566
292.917	10143
292.974	5684
293.031	1501
293.089	458
293.146	1135
293.203	686
293.260	1288
293.318	786
293.375	2004
293.432	244
293.489	211
293.546	805
293.604	1612
293.661	7047
293.718	27124
293.775	10084
293.832	4971
293.889	2771
293.947	2064
294.004	716
294.061	1576
294.118	3567
294.175	7814
294.232	7002
294.289	3429
294.346	2300
294.403	4365
294.460	2300
294.517	1700
294.574	1516
294.631	1552
294.688	2163
294.745	5701
294.802	26110
294.859	20864
294.916	5863
294.973	2951
295.030	2649
295.087	3014
295.144	1732
295.201	1584
295.258	1286
295.315	2639
295.372	9132
295.429	21700
295.486	7299
295.542	3730
295.599	6345
295.656	10965
295.713	8266
295.770	16870
295.827	5976
295.883	2992
295.940	2224
295.997	3405
296.054	2921
296.111	2741
296.167	2415
296.224	1465
296.281	1530
296.338	1601
296.394	208
296.451	2379
296.508	6165
296.564	12615
296.621	8255
296.678	22102
296.734	35013
296.791	10626
296.848	4440
296.904	5084
296.961	9127
297.018	19321
297.074	15096
297.131	5816
297.187	3497
297.244	6593
297.301	23864
297.357	48077
297.414	15781
297.470	5382
297.527	2996
297.583	3056
297.640	2766
297.696	3081
297.753	1531
297.809	1659
297.866	1255
297.922	2107
297.979	651
298.035	2307
298.092	2591
298.148	10837
298.204	10660
298.261	5009
298.317	9333
298.374	30823
298.430	18125
298.486	5815
298.543	3257
298.599	2710
298.656	4197
298.712	8948
298.768	30932
298.824	29215
298.881	8043
298.937	4407
298.993	3330
299.050	2725
299.106	3151
299.162	3270
299.218	2693
299.275	2254
299.331	2867
299.387	6688
299.443	26460
299.500	33892
299.556	15185
299.612	6445
299.668	4395
299.724	11120
299.780	12949
299.837	5661
299.893	5375
299.949	18953
300.005	25911
300.061	19278
300.117	40808
300.173	19107
300.229	6772
300.285	6434
300.341	6831
300.397	3768
300.453	2105
300.510	2363
300.566	2470
300.622	5669
300.678	20725
300.734	32863
300.790	22158
300.845	28221
300.901	18448
300.957	22619
301.013	14313
301.069	6236
301.125	4354
301.181	3338
301.237	3281
301.293	2573
301.349	934
301.405	1316
301.461	1171
301.516	1498
301.572	1233
301.628	3086
301.684	2066
301.740	5006
301.796	8409
301.851	5362
301.907	9663
301.963	11999
302.019	24394
302.074	74772
302.130	74914
302.186	30797
302.242	10569
302.297	7664
302.353	7140
302.409	12539
302.464	10270
302.520	7443
302.576	19889
302.631	26461
302.687	11979
302.743	5746
302.798	3524
302.854	2955
302.910	3173
302.965	3451
303.021	5116
303.076	5280
303.132	5448
303.187	6838
303.243	4033
303.299	3635
303.354	2200
303.410	3011
303.465	2640
303.521	2554
303.576	1926
303.632	3590
303.687	8603
303.743	24257
303.798	21177
303.853	7605
303.909	4487
303.964	3241
304.020	3640
304.075	5214
304.130	4556
304.186	7915
304.241	9058
304.297	7865
304.352	3750
304.358	3615
304.407	2520
304.449	2638
304.463	2681
304.518	2466
304.539	2492
304.573	2507
304.629	3049
304.630	3092
304.684	5302
304.720	12426
304.739	16006
304.794	28360
304.811	23993
304.850	13550
304.902	5590
304.905	5082
304.960	4199
304.992	4700
305.015	5054
305.071	5319
305.083	4815
305.126	2954
305.173	2559
305.181	2522
305.236	1980
305.264	1929
305.292	1781
305.347	1936
305.354	2088
305.402	3233
305.445	3699
305.457	3791
305.512	5029
305.535	4467
305.567	3725
305.622	4010
305.626	4205
305.678	8521
305.716	19755
305.733	23928
305.788	25541
305.807	21686
305.843	15210
305.897	22628
305.898	22710
305.953	24467
305.988	15933
306.008	11172
306.063	6057
306.078	5252
306.118	3582
306.168	3141
306.173	3093
306.228	2567
306.259	2494
306.283	2540
306.338	2577
306.349	2860
306.393	3953
306.440	5076
306.448	5215
306.503	4295
306.530	3926
306.558	4026
306.613	6277
306.620	6727
306.668	9833
306.711	14470
306.723	15256
306.778	12412
306.801	9718
306.833	6615
306.888	3556
306.892	3503
306.943	2958
306.982	2502
306.997	2433
307.052	2638
307.072	2531
307.107	2250
307.162	2344
307.163	2346
307.217	2779
307.253	3424
307.272	3642
307.327	3314
307.343	3276
307.381	3330
307.434	3759
307.436	3830
307.491	5956
307.524	8293
307.546	9338
307.600	12243
307.614	11237
307.655	7443
307.704	5445
307.710	5377
307.765	5288
307.795	6197
307.819	7013
307.874	8960
307.885	9258
307.929	11101
307.975	13953
307.984	15065
308.038	25209
308.065	33564
308.093	54900
308.148	116097
308.156	130029
308.202	205062
308.246	253181
308.257	249501
308.312	144201
308.336	100881
308.366	69750
308.421	37668
308.426	35600
308.475	24679
308.517	18314
308.530	16854
308.585	14339
308.607	13193
308.639	11750
308.694	10848
308.697	10799
308.748	10613
308.787	12152
308.803	12486
308.857	11953
308.877	11719
308.912	12184
308.967	14500
308.967	14554
309.021	20689
309.058	26859
309.076	34419
309.130	63108
309.148	76471
309.185	138341
309.238	251430
309.239	252331
309.293	283965
309.328	268531
309.348	237083
309.402	122101
309.418	94161
309.457	62983
309.508	36175
309.511	35142
309.566	25726
309.598	21490
309.620	19544
309.674	16157
309.688	15485
309.729	13828
309.778	11501
309.783	11257
309.837	9287
309.868	8737
309.892	9476
309.946	12176
309.959	13271
310.001	16972
310.049	19681
310.055	19122
310.109	12014
310.139	8002
310.163	6262
310.218	4035
310.229	3589
310.272	3053
310.319	3234
310.326	3143
310.381	2254
310.409	1819
310.435	2054
310.489	2706
310.499	2796
310.543	2576
310.589	2459
310.598	2484
310.652	2884
310.679	2979
310.706	2691
310.760	1981
310.769	1913
310.814	2078
310.859	2219
310.868	2194
310.923	1711
310.948	1735
310.977	1893
311.031	1904
311.038	1929
311.085	1672
311.128	1218
311.139	1332
311.193	2215
311.218	2520
311.247	2355
311.301	2179
311.308	2141
311.356	2051
311.398	2004
311.410	1940
311.464	1602
311.488	1527
311.518	1891
311.572	2334
311.578	2401
311.626	2419
311.668	2343
311.680	2341
311.734	2356
311.758	2366
311.788	2085
311.842	1533
311.847	1479
311.896	2320
311.937	3116
311.950	3056
312.004	2696
312.027	2569
312.058	2475
312.112	2280
312.117	2260
312.165	1927
312.207	1644
312.297	2595
312.386	1959
312.476	2712
312.566	3056
312.656	2331
312.745	2573
312.835	3029
312.925	2212
313.015	2202
313.104	1929
313.194	2954
313.284	2425
313.374	2507
313.463	2216
313.553	2367
313.643	1280
313.732	3528
313.822	2104
313.912	2783
314.001	2161
314.091	3158
314.180	3218
314.270	3262
314.360	2687
314.449	3704
314.539	2793
314.628	2406
314.718	1843
314.808	2609
314.897	2161
314.987	3319
315.076	3202
315.166	3656
315.255	2415
315.345	3518
315.434	2526
315.524	3484
315.613	1749
315.703	5030
315.792	9685
315.881	30475
315.971	11083
316.060	4388
316.150	3529
316.239	3567
316.328	2385
316.418	2220
316.507	1909
316.597	4033
316.686	2271
316.775	2848
316.865	3249
316.954	2506
317.043	1593
317.133	2695
317.222	1978
317.311	1658
317.400	898
317.490	4021
317.579	3551
317.668	2928
317.757	5337
317.847	15200
317.936	52651
318.025	17207
318.114	10128
318.203	5512
318.293	2295
318.382	3637
318.471	4050
318.560	4656
318.649	8865
318.738	2565
318.828	1544
318.917	2739
319.006	2215
319.095	4324
319.184	11788
319.273	7365
319.362	4167
319.451	1933
319.540	1311
319.629	4156
319.718	5120
319.807	3543
319.896	4397
319.985	14814
320.074	6130
320.163	2393
320.252	2082
320.341	1949
320.430	1430
320.519	3265
320.608	1026
320.697	2825
320.786	1504
320.875	3724
320.964	3544
321.053	5716
321.142	5641
321.230	7266
321.319	4937
321.408	9843
321.497	5692
321.586	5537
321.675	4133
321.764	4946
321.852	3119
321.941	5962
322.030	4383
322.119	4954
322.207	10016
322.296	6001
322.385	5115
322.474	6847
322.562	13609
322.651	8367
322.740	4883
322.829	5498
322.917	3997
323.006	4002
323.095	3763
323.183	2654
323.272	3021
323.361	5394
323.449	9848
323.538	4756
323.626	6492
323.715	5348
323.804	1952
323.892	5971
323.981	4703
324.069	2537
324.158	3546
324.246	4814
324.335	2735
324.424	4007
324.512	3396
324.601	8308
324.689	32006
324.778	68009
324.866	8962
324.954	3193
325.043	1839
325.131	1735
325.220	3395
325.308	3357
325.397	2586
325.485	2373
325.574	1010
325.662	2052
325.750	556
325.839	2449
325.927	713
326.015	1643
326.104	1591
326.192	2337
326.280	1252
326.369	1471
326.457	1944
326.545	3379
326.634	1111
326.722	1361
326.810	1296
326.898	2253
326.987	1422
327.075	3439
327.163	3978
327.251	5942
327.340	29771
327.428	50400
327.516	5599
327.604	2576
327.692	1109
327.781	1299
327.869	2433
327.957	2259
328.045	1888
328.133	2164
328.221	1539
328.309	1078
328.397	1227
328.485	2633
328.574	2616
328.662	7711
328.750	3833
328.838	2156
328.926	1889
329.014	2285
329.102	1747
329.190	2844
329.278	2290
329.366	2002
329.454	667
329.542	2177
329.630	375
329.718	2402
329.806	1819
329.893	2422
329.981	3093
330.069	9103
330.157	37456
330.245	113136
330.333	59563
330.421	8386
330.509	3548
330.597	7752
330.684	4490
330.772	2848
330.860	950
330.948	1650
331.036	1343
331.123	1027
331.211	153
331.299	819
331.387	1163
331.475	2701
331.562	1311
331.650	703
331.738	998
331.825	2003
331.913	691
332.001	1318
332.089	1202
332.176	1745
332.264	2194
332.352	1966
332.439	1560
332.527	1341
332.614	1000
332.702	1254
332.790	1220
332.877	1428
332.965	2623
333.052	1785
333.140	1609
333.228	1386
333.315	368
333.403	2150
333.490	1520
333.578	1496
333.665	1911
333.753	1976
333.840	1344
333.928	1782
334.015	3183
334.103	4630
334.190	13162
334.278	5726
334.365	5577
334.452	5405
334.540	2526
334.627	3066
334.715	2995
334.802	6806
334.889	17231
334.977	22625
335.064	10027
335.151	3685
335.239	3085
335.326	2983
335.413	7266
335.501	10838
335.588	2927
335.675	2552
335.762	3188
335.850	4933
335.937	6373
336.024	12162
336.111	27092
336.199	21049
336.286	7967
336.373	4481
336.460	2254
336.547	1991
336.635	3066
336.722	2012
336.809	1331
336.896	2254
336.983	4555
337.070	9472
337.157	15718
337.245	8172
337.332	5551
337.419	1157
337.506	1430
337.593	1568
337.680	3152
337.767	8198
337.854	2609
337.941	2686
338.028	3059
338.115	1474
338.202	2549
338.289	2539
338.376	6031
338.463	2568
338.550	3873
338.637	5030
338.724	1322
338.811	2002
338.898	1567
338.984	945
339.071	480
339.158	2685
339.245	2459
339.332	2933
339.419	1454
339.506	1621
339.593	177
339.679	1616
339.766	1211
339.853	958
339.940	1873
340.027	1485
340.113	861
340.200	1316
340.287	843
340.374	1559
340.460	2344
340.547	345
340.634	1728
340.720	7131
340.807	4043
340.894	1109
340.980	354
341.067	1146
341.154	1824
341.240	1857
341.327	3053
341.414	1810
341.500	1196
341.587	1980
341.674	1596
341.760	2717
341.847	2545
341.933	944
342.020	-233
342.106	1169
342.193	198
342.279	1754
342.366	726
342.452	1680
342.539	1419
342.625	2867
342.712	6914
342.798	3371
342.885	1407
342.971	891
343.058	659
343.144	1107
343.230	1527
343.317	1250
343.403	125
343.490	911
343.576	-132
343.662	1347
343.749	815
343.835	2520
343.921	3852
344.008	30740
344.094	70868
344.180	13737
344.267	3251
344.353	12572
344.439	12195
344.525	3803
344.612	2824
344.698	2110
344.784	862
344.870	1443
344.957	1310
345.043	2640
345.129	850
345.215	2403
345.301	1478
345.387	688
345.474	308
345.560	420
345.646	724
345.732	1840
345.818	491
345.904	1169
345.990	360
346.076	1187
346.162	1303
346.249	2032
346.335	538
346.421	1782
346.507	5308
346.593	22271
346.679	3655
346.765	1505
346.851	1734
346.937	2002
347.023	1343
347.108	1069
347.194	718
347.280	1328
347.366	1727
347.452	7988
347.538	29868
347.624	18730
347.710	11011
347.796	1591
347.882	876
347.967	1178
348.053	852
348.139	1374
348.225	783
348.311	1067
348.397	814
348.482	1401
348.568	1415
348.654	1335
348.740	4333
348.825	5135
348.911	3554
348.997	12529
349.083	25378
349.168	3255
349.254	1556
349.340	1410
349.425	836
349.511	1173
349.597	1089
349.682	3351
349.768	11342
349.854	4953
349.939	919
350.025	860
350.110	1629
350.196	1141
350.282	-252
350.367	1348
350.453	962
350.538	485
350.624	62
350.709	1058
350.795	307
350.880	746
350.966	1261
351.051	1321
351.137	843
351.222	1138
351.308	2319
351.393	8401
351.479	1759
351.564	553
351.649	973
351.735	1478
351.820	334
351.906	386
351.991	836
352.076	4876
352.162	7312
352.247	1295
352.332	627
352.418	2291
352.503	2838
352.588	12584
352.673	8042
352.759	1926
352.844	411
352.929	1416
353.014	571
353.100	1629
353.185	1906
353.270	1784
353.355	2349
353.441	870
353.526	178
353.611	2039
353.696	2251
353.781	1961
353.866	126
353.952	1788
354.037	1556
354.122	5147
354.207	4225
354.292	2113
354.377	745
354.462	951
354.547	107
354.632	1518
354.717	983
354.802	696
354.887	325
354.972	916
355.057	1410
355.142	271
355.227	476
355.312	1724
355.397	2612
355.482	7566
355.567	3323
355.652	3259
355.737	2649
355.822	13107
355.907	9585
355.991	2639
356.076	45
356.161	1703
356.246	336
356.331	1354
356.416	3080
356.501	30373
356.585	29078
356.670	3181
356.755	2479
356.840	3343
356.924	16552
357.009	72484
357.094	24462
357.179	2916
357.263	921
357.348	2380
357.433	1831
357.517	1893
357.602	1175
357.687	1456
357.771	628
357.856	1814
357.941	2882
358.025	15320
358.110	82583
358.195	35115
358.279	3413
358.364	1847
358.448	6870
358.533	21667
358.617	13976
358.702	15085
358.787	5163
358.871	2815
358.956	1895
359.040	1402
359.125	199
359.209	1112
359.294	1057
359.378	2060
359.462	1881
359.547	2367
359.631	-353
359.716	-275
359.800	708
359.885	2086
359.969	-317
360.053	2205
360.138	927
360.222	1632
360.306	1843
360.391	2132
360.475	1957
360.559	4747
360.644	6428
360.728	4467
360.812	14578
360.896	46471
360.981	11732
361.065	4419
361.149	1103
361.233	1939
361.318	409
361.402	1636
361.486	1757
361.570	1282
361.654	2207
361.739	3835
361.823	26022
361.907	47013
361.991	6677
362.075	3177
362.159	5536
362.243	7103
362.327	13041
362.411	22416
362.495	8440
362.580	3160
362.664	2813
362.748	3703
362.832	4881
362.916	10415
363.000	37610
363.084	79473
363.168	69082
363.252	14479
363.336	4406
363.420	5167
363.503	10653
363.587	13058
363.671	3508
363.755	1790
363.839	4292
363.923	2423
364.007	3821
364.091	6048
364.175	7034
364.258	29160
364.342	45571
364.426	93719
364.510	47139
364.594	13909
364.677	10391
364.761	39460
364.845	28975
364.929	6498
365.013	3919
365.096	4039
365.180	3325
365.264	5069
365.347	19122
365.431	7170
365.515	601
365.598	835
365.682	2434
365.766	485
365.849	979
365.933	892
366.017	1863
366.100	941
366.184	-81
366.267	2435
366.351	827
366.435	258
366.518	-332
366.602	1365
366.685	886
366.769	1041
366.852	2037
366.936	2866
367.019	1617
367.103	232
367.186	2231
367.270	1493
367.353	-4
367.436	2301
367.520	56
367.603	2708
367.687	396
367.770	3290
367.853	2488
367.937	9942
368.020	15531
368.104	3260
368.187	2678
368.270	3471
368.353	2965
368.437	2398
368.520	3050
368.603	3105
368.687	7640
368.770	17006
368.853	3366
368.936	3421
369.020	2777
369.103	542
369.186	-666
369.269	610
369.352	1505
369.436	1832
369.519	1063
369.602	-942
369.685	2066
369.768	-216
369.851	1389
369.934	654
370.018	454
370.101	1360
370.184	2631
370.267	1270
370.350	1039
370.433	3198
370.516	18386
370.599	31156
370.682	6573
370.765	8261
370.848	11083
370.931	22554
371.014	8229
371.097	727
371.180	1815
371.263	1408
371.346	-575
371.429	1527
371.511	212
371.594	1377
371.677	1699
371.760	2866
371.843	2848
371.926	27267
372.009	70773
372.091	20132
372.174	8207
372.257	27031
372.340	8326
372.423	2845
372.505	4617
372.588	1423
372.671	5841
372.754	22345
372.836	10752
372.919	4220
373.002	7599
373.085	2021
373.167	3214
373.250	7912
373.332	24128
373.415	38870
373.498	91392
373.580	31584
373.663	52283
373.746	70922
373.828	11079
373.911	4306
373.993	2600
374.076	8808
374.159	7552
374.241	5108
374.324	16792
374.406	11325
374.489	23832
374.571	72500
374.654	24391
374.736	11363
374.819	41416
374.901	62139
374.983	65756
375.066	10425
375.148	3447
375.231	7338
375.313	13432
375.395	4640
375.478	1965
375.560	2190
375.643	2035
375.725	11117
375.807	51076
375.890	34799
375.972	4962
376.054	3940
376.136	4318
376.219	3253
376.301	12148
376.383	40904
376.465	13620
376.548	5263
376.630	8578
376.712	30660
376.794	14363
376.877	1735
376.959	580
377.041	2188
377.123	1135
377.205	2535
377.287	607
377.369	1336
377.452	157
377.534	616
377.616	1128
377.698	492
377.780	495
377.862	1156
377.944	1101
378.026	-91
378.108	748
378.190	230
378.272	681
378.354	1037
378.436	574
378.518	722
378.600	2878
378.682	4569
378.764	10552
378.846	8897
378.928	1390
379.010	2213
379.091	1881
379.173	1483
379.255	-98
379.337	1127
379.419	4550
379.501	18201
379.583	5923
379.664	1276
379.746	1929
379.828	10846
379.910	14596
379.991	14005
380.073	896
380.155	999
380.237	422
380.318	1159
380.400	359
380.482	2413
380.564	2436
380.645	1877
380.727	1749
380.809	2213
380.890	-204
380.972	311
381.053	391
381.135	1928
381.217	2915
381.298	11927
381.380	4922
381.461	5116
381.543	29384
381.624	36617
381.706	5230
381.787	2430
381.869	2214
381.951	15217
382.032	68351
382.113	40815
382.195	3266
382.276	3911
382.358	8107
382.439	29048
382.521	34898
382.602	61069
382.684	21127
382.765	30376
382.846	20660
382.928	12732
383.009	5872
383.090	5514
383.172	17164
383.253	28631
383.334	15133
383.416	40223
383.497	19126
383.578	4360
383.659	4707
383.741	16517
383.822	46489
383.903	23073
383.984	16969
384.066	43350
384.147	23840
384.228	5074
384.309	2485
384.390	3010
384.471	1235
384.553	1930
384.634	3013
384.715	2959
384.796	1174
384.877	2200
384.958	10580
385.039	11373
385.120	2739
385.201	2495
385.282	1529
385.363	1791
385.444	1294
385.525	4603
385.606	22447
385.687	21172
385.768	3796
385.849	4865
385.930	30215
386.011	60901
386.092	13879
386.173	3142
386.254	1539
386.335	2819
386.416	2023
386.496	6860
386.577	10588
386.658	3685
386.739	1449
386.820	2919
386.901	1233
386.981	2681
387.062	2296
387.143	3544
387.224	12603
387.304	11830
387.385	5562
387.466	2582
387.547	3559
387.627	3324
387.708	6317
387.789	23627
387.869	31500
387.950	9933
388.031	2290
388.111	762
388.192	2787
388.273	4481
388.353	2351
388.434	2704
388.514	6165
388.595	31857
388.676	36048
388.756	13396
388.837	9453
388.917	6793
388.998	518
389.078	3216
389.159	1914
389.239	713
389.320	3157
389.400	870
389.480	4537
389.561	13740
389.641	7326
389.722	3056
389.802	1965
389.883	6416
389.963	19026
390.043	10463
390.124	1595
390.204	4971
390.284	12108
390.365	8414
390.445	13098
390.525	61943
390.605	57820
390.686	10999
390.766	3674
390.846	3213
390.927	1037
391.007	1161
391.087	3411
391.167	788
391.247	464
391.328	3313
391.408	3230
391.488	3171
391.568	125
391.648	2976
391.728	4362
391.808	4232
391.888	3135
391.969	8771
392.049	12851
392.129	7631
392.209	7099
392.289	20707
392.369	10348
392.449	7835
392.529	5975
392.609	7617
392.689	8920
392.769	22557
392.849	19982
392.929	18599
393.009	32951
393.089	36326
393.169	52408
393.248	161327
393.328	523458
393.408	562024
393.488	176617
393.568	53257
393.648	25583
393.728	16819
393.807	12191
393.887	11936
393.967	11806
394.047	11512
394.127	14763
394.206	26262
394.286	89520
394.366	358721
394.446	397777
394.525	106464
394.605	27837
394.685	16153
394.764	13294
394.844	16574
394.924	14849
395.003	8862
395.083	7594
395.163	6736
395.242	5958
395.322	7835
395.402	4907
395.481	8804
395.561	9164
395.640	22211
395.720	30971
395.799	27437
395.879	26015
395.958	40354
396.038	138380
396.117	467014
396.197	513751
396.276	170878
396.356	50124
396.435	29380
396.515	23156
396.594	25421
396.673	45848
396.753	163112
396.832	481752
396.912	343987
396.991	77946
397.070	27303
397.150	13497
397.229	12012
397.308	17639
397.388	32942
397.467	15917
397.546	6189
397.625	2688
397.705	6465
397.784	5003
397.863	3475
397.942	3117
398.022	3492
398.101	4184
398.180	10099
398.259	5218
398.338	3549
398.417	1476
398.497	1146
398.576	2671
398.655	817
398.734	1740
398.813	1409
398.892	3200
398.971	10356
399.050	4442
399.129	127
399.208	1345
399.287	2366
399.366	-184
399.445	1468
399.524	702
399.603	413
399.682	1398
399.761	3095
399.840	11755
399.919	9054
399.998	824
400.077	167
400.156	-913
400.235	2476
400.313	-110
400.392	1167
400.471	5778
400.550	8846
400.629	2187
400.708	1478
400.786	-143
400.865	1295
400.944	679
401.023	2840
401.102	-257
401.180	-21
401.259	-140
401.338	477
401.416	758
401.495	599
401.574	660
401.652	386
401.731	1137
401.810	-534
401.888	-81
401.967	-236
402.046	295
402.124	1648
402.203	384
402.281	1786
402.360	-512
402.438	2256
402.517	-141
402.596	510
402.674	-337
402.753	951
402.831	528
402.910	1134
402.988	892
403.066	6628
403.145	4179
403.223	2201
403.302	6225
403.380	4886
403.459	3070
403.537	1624
403.615	169
403.694	-663
403.772	837
403.850	505
403.929	68
404.007	-27
404.085	1652
404.164	490
404.242	423
404.320	4834
404.398	13315
404.477	14656
404.555	41282
404.633	36607
404.711	10601
404.789	5676
404.868	291
404.946	313
405.024	517
405.102	5
405.180	-795
405.258	-717
405.336	775
405.415	135
405.493	1049
405.571	1596
405.649	-609
405.727	-1182
405.805	1221
405.883	1072
405.961	938
406.039	-148
406.117	-829
406.195	1225
406.273	5808
406.351	30126
406.429	16191
406.507	1950
406.585	122
406.663	928
406.740	1379
406.818	-114
406.896	-344
406.974	1386
407.052	648
407.130	15702
407.208	22984
407.285	4893
407.363	872
407.441	731
407.519	343
407.596	1301
407.674	9170
407.752	46877
407.830	36313
407.907	4871
407.985	188
408.063	1411
408.141	704
408.218	1018
408.296	-330
408.373	209
408.451	727
408.529	1144
408.606	4
408.684	623
408.762	146
408.839	408
408.917	-6
408.994	503
409.072	-198
409.149	543
409.227	2824
409.304	3779
409.382	4333
409.459	4848
409.537	6636
409.614	6307
409.692	4347
409.769	3858
409.846	6201
409.924	9894
410.001	4465
410.079	3623
410.156	3331
410.233	2736
410.311	1595
410.388	858
410.465	324
410.543	940
410.620	965
410.697	1591
410.775	352
410.852	-239
410.929	1411
411.006	2605
411.083	700
411.161	548
411.238	1323
411.315	644
411.392	-537
411.469	962
411.547	154
411.624	-419
411.701	-311
411.778	860
411.855	697
411.932	343
412.009	-720
412.086	767
412.163	58
412.240	655
412.317	155
412.394	287
412.471	-360
412.548	-14
412.625	-1048
412.702	309
412.779	485
412.856	539
412.933	-310
413.010	264
413.087	531
413.164	3863
413.241	6350
413.318	850
413.395	225
413.471	602
413.548	284
413.625	1154
413.702	-422
413.779	-82
413.855	-737
413.932	-751
414.009	-396
414.086	-37
414.162	9
414.239	705
414.316	4067
414.393	11157
414.469	2625
414.546	285
414.623	-191
414.699	1
414.776	154
414.853	-425
414.929	128
415.006	-447
415.082	-792
415.159	-106
415.236	-260
415.312	961
415.389	1110
415.465	458
415.542	99
415.618	-89
415.695	938
415.771	-90
415.848	-574
415.924	851
416.000	-466
416.077	728
416.153	-952
416.230	-1380
416.306	-56
416.383	-284
416.459	-153
416.535	-606
416.612	-479
416.688	15
416.764	-233
416.841	-478
416.917	-395
416.993	221
417.069	-432
417.146	904
417.222	1736
417.298	545
417.374	-720
417.451	755
417.527	-175
417.603	465
417.679	-704
417.755	464
417.831	-1325
417.908	688
417.984	-104
418.060	-716
418.136	947
418.212	1072
418.288	-23
418.364	-46
418.440	-1157
418.516	1037
418.592	-322
418.668	1504
418.744	1802
418.820	1593
418.896	-75
418.972	-213
419.048	-380
419.124	1213
419.200	-318
419.276	701
419.352	-999
419.428	751
419.504	-488
419.579	470
419.655	-134
419.731	915
419.807	1417
419.883	3010
419.959	2515
420.034	985
420.110	723
420.186	6796
420.262	4218
420.337	615
420.413	-189
420.489	625
420.565	703
420.640	513
420.716	393
420.792	292
420.867	1687
420.943	407
421.019	1020
421.094	971
421.170	1019
421.245	833
421.321	1419
421.397	1847
421.472	8767
421.548	28610
421.623	15846
421.699	4230
421.774	3075
421.850	2647
421.925	4945
422.001	4940
422.076	6021
422.152	7121
422.227	10062
422.302	15320
422.378	22796
422.453	43431
422.529	105340
422.604	279432
422.679	401696
422.755	296560
422.830	121742
422.905	49527
422.981	26234
423.056	16768
423.131	11610
423.207	8881
423.282	6939
423.357	6565
423.432	4451
423.508	4457
423.583	5049
423.658	4203
423.733	3114
423.808	3180
423.883	2742
423.959	2685
424.034	2627
424.109	3667
424.184	1576
424.259	1700
424.334	1231
424.409	1020
424.484	588
424.559	1115
424.634	-34
424.709	424
424.784	939
424.859	723
424.934	425
425.009	4921
425.084	7254
425.159	2456
425.234	950
425.309	-190
425.384	109
425.459	-207
425.534	-225
425.609	281
425.683	-673
425.758	635
425.833	19
425.908	1361
425.983	1790
426.058	8082
426.132	2608
426.207	14
426.282	1454
426.357	164
426.431	40
426.506	457
426.581	493
426.655	182
426.730	497
426.805	-923
426.879	-269
426.954	-208
427.029	557
427.103	8171
427.178	22731
427.253	9788
427.327	618
427.402	-182
427.476	-188
427.551	-176
427.625	-197
427.700	537
427.774	21
427.849	454
427.923	-216
427.998	2
428.072	-456
428.147	3907
428.221	22045
428.296	86932
428.370	47250
428.444	4800
428.519	633
428.593	1535
428.667	338
428.742	2584
428.816	6195
428.890	44345
428.965	79705
429.039	18047
429.113	2386
429.188	1484
429.262	515
429.336	1731
429.410	2685
429.485	2241
429.559	1623
429.633	1013
429.707	714
429.781	5759
429.855	41089
429.930	71126
430.004	17853
430.078	10397
430.152	23937
430.226	110905
430.300	118990
430.374	18099
430.448	3856
430.522	3719
430.596	8573
430.670	14362
430.744	68791
430.818	89225
430.892	15072
430.966	1925
431.040	417
431.114	-524
431.188	-140
431.262	160
431.336	-79
431.410	1234
431.484	536
431.557	2174
431.631	-262
431.705	1450
431.779	15287
431.853	79608
431.927	57423
432.000	6220
432.074	1461
432.148	-469
432.222	-242
432.295	350
432.369	-784
432.443	746
432.516	7764
432.590	25490
432.664	8164
432.737	712
432.811	-349
432.885	-355
432.958	-379
433.032	-482
433.106	-762
433.179	-561
433.253	-1212
433.326	-752
433.400	-903
433.473	-120
433.547	-789
433.620	347
433.694	-1183
433.767	-178
433.841	-2062
433.914	-1245
433.988	-949
434.061	-310
434.134	-802
434.208	-234
434.281	-778
434.355	-462
434.428	-733
434.501	-1199
434.575	-1365
434.648	-11
434.721	9
434.795	-426
434.868	-714
434.941	-478
435.014	-1342
435.088	-906
435.161	-549
435.234	258
435.307	273
435.381	103
435.454	725
435.527	3452
435.600	3137
435.673	3030
435.746	1283
435.819	863
435.892	-472
435.966	410
436.039	-815
436.112	13
436.185	-623
436.258	134
436.331	-1494
436.404	-805
436.477	-827
436.550	-309
436.623	-602
436.696	-696
436.769	-847
436.842	122
436.915	-823
436.987	-190
437.060	-705
437.133	-221
437.206	-1652
437.279	-233
437.352	-1503
437.425	-514
437.498	-992
437.570	-175
437.643	-784
437.716	-165
437.789	-1555
437.861	-215
437.934	-323
438.007	-394
438.080	-1055
438.152	285
438.225	133
438.298	14143
438.370	43488
438.443	17706
438.516	1137
438.588	-1071
438.661	-607
438.734	442
438.806	-564
438.879	370
438.951	-990
439.024	-434
439.096	-723
439.169	-564
439.241	-1442
439.314	-433
439.386	-910
439.459	-421
439.531	-576
439.604	-821
439.676	-556
439.749	-434
439.821	-787
439.893	-540
439.966	-251
440.038	-119
440.110	-374
440.183	-771
440.255	-1181
440.327	565
440.400	3141
440.472	20425
440.544	13070
440.617	610
440.689	-103
440.761	240
440.833	-64
440.905	208
440.978	-1316
441.050	-269
441.122	-247
441.194	-155
441.266	-823
441.338	-6
441.411	-464
441.483	3730
441.555	6497
441.627	1554
441.699	-732
441.771	-12
441.843	-762
441.915	-423
441.987	-896
442.059	-2
442.131	-87
442.203	625
442.275	-110
442.347	2494
442.419	5708
442.491	39643
442.563	108718
442.635	44557
442.706	6855
442.778	3583
442.850	774
442.922	1329
442.994	399
443.066	1183
443.137	893
443.209	1860
443.281	3558
443.353	9861
443.425	48622
443.496	192211
443.568	194318
443.640	71090
443.711	11736
443.783	3553
443.855	1646
443.926	1167
443.998	491
444.070	929
444.141	-126
444.213	153
444.285	-134
444.356	611
444.428	-177
444.499	360
444.571	-710
444.642	907
444.714	-354
444.785	1107
444.857	1171
444.928	1694
445.000	1308
445.071	1763
445.143	2657
445.214	4078
445.285	6979
445.357	23475
445.428	112412
445.500	278031
445.571	178958
445.642	95735
445.714	26833
445.785	8638
445.856	1977
445.928	1859
445.999	1068
446.070	936
446.141	209
446.213	388
446.284	190
446.355	323
446.426	-852
446.497	-102
446.569	-427
446.640	166
446.711	-93
446.782	-44
446.853	-714
446.924	182
446.995	-1060
447.066	28
447.138	-575
447.209	65
447.280	-1356
447.351	90
447.422	-1268
447.493	-214
447.564	-1000
447.635	-97
447.706	-510
447.777	-894
447.847	-1312
447.918	-858
447.989	-946
448.060	-326
448.131	-198
448.202	684
448.273	-627
448.344	35
448.414	-1258
448.485	447
448.556	-946
448.627	-516
448.698	-73
448.768	-435
448.839	-1210
448.910	-945
448.981	-717
449.051	-450
449.122	-1314
449.193	-475
449.263	-1042
449.334	-536
449.405	621
449.475	1426
449.546	-618
449.616	270
449.687	1210
449.758	162
449.828	-391
449.899	-539
449.969	-90
450.040	-376
450.110	-177
450.181	-116
450.251	-524
450.322	-413
450.392	-242
450.463	-182
450.533	-932
450.604	-556
450.674	-1231
450.744	-46
450.815	-672
450.885	38
450.955	-104
451.026	-804
451.096	-646
451.166	299
451.237	-244
451.307	1564
451.377	149
451.447	-409
451.518	-348
451.588	-187
451.658	-182
451.728	68
451.799	340
451.869	1224
451.939	-236
452.009	684
452.079	-855
452.149	524
452.219	-817
452.289	1784
452.360	1288
452.430	-193
452.500	448
452.570	552
452.640	3074
452.710	8593
452.780	10458
452.850	6138
452.920	3166
452.990	405
453.060	416
453.129	-392
453.199	-361
453.269	1732
453.339	4141
453.409	6574
453.479	5592
453.549	7848
453.619	9017
453.688	3888
453.758	475
453.828	179
453.898	-548
453.968	-592
454.037	16
454.087	-66
454.107	-113
454.168	-939
454.177	-1075
454.247	-1014
454.249	-996
454.316	-1044
454.330	-878
454.386	-256
454.411	117
454.456	646
454.492	1167
454.525	1617
454.574	946
454.595	647
454.655	115
454.665	11
454.734	-710
454.736	-669
454.804	210
454.817	474
454.873	1411
454.898	1391
454.943	1288
454.979	613
455.013	28
455.060	145
455.082	194
455.141	138
455.152	178
455.221	1821
455.222	1873
455.291	4283
455.303	5896
455.360	11605
455.384	18633
455.430	28825
455.465	21676
455.499	15706
455.546	6770
455.569	2777
455.627	2087
455.638	1972
455.707	482
455.708	497
455.777	136
455.789	192
455.846	538
455.869	538
455.916	389
455.950	98
455.985	-174
456.031	-336
456.054	-449
456.112	-35
456.124	88
456.193	651
456.193	636
456.262	-310
456.274	-112
456.332	882
456.355	599
456.401	-72
456.436	216
456.470	561
456.516	250
456.540	20
456.597	164
456.609	197
456.678	161
456.678	149
456.747	353
456.759	229
456.817	-424
456.840	-169
456.886	320
456.920	240
456.955	51
457.001	297
457.024	497
457.082	467
457.093	450
457.162	401
457.163	416
457.232	645
457.243	704
457.301	867
457.324	510
457.370	-211
457.405	560
457.439	1407
457.485	846
457.508	497
457.566	1180
457.577	1394
457.646	2182
457.647	2214
457.715	5908
457.727	6460
457.784	10818
457.808	14642
457.853	18894
457.889	21878
457.922	21646
457.969	14635
457.991	14874
458.050	17358
458.060	17946
458.129	32472
458.130	32914
458.198	33733
458.211	30632
458.267	18221
458.292	12516
458.336	7447
458.372	6694
458.405	9058
458.453	13772
458.474	17624
458.533	32693
458.543	33855
458.611	54535
458.614	54900
458.680	35622
458.694	28017
458.749	12200
458.775	8493
458.818	4774
458.855	3366
458.887	2374
458.936	2155
458.955	2069
459.016	1708
459.024	1698
459.093	2048
459.097	2023
459.162	1214
459.177	1298
459.230	2038
459.257	2121
459.299	1813
459.338	2144
459.368	2499
459.418	2126
459.437	1847
459.499	1548
459.505	1577
459.574	1987
459.579	2007
459.643	1417
459.659	1236
459.711	1419
459.740	1872
459.780	2243
459.820	2110
459.849	1781
459.900	1571
459.917	1675
459.981	1546
459.986	1504
460.054	2020
460.061	1992
460.123	1979
460.141	2133
460.191	2588
460.222	2718
460.260	2745
460.302	2718
460.328	2674
460.382	3073
460.397	3223
460.462	3426
460.465	3598
460.534	7654
460.543	8241
460.602	30313
460.623	38770
460.671	61375
460.703	83217
460.739	76583
460.783	61019
460.808	51761
460.864	11486
460.876	7975
460.944	2692
460.945	2640
461.013	2297
461.024	2242
461.081	1845
461.104	2114
461.150	2556
461.184	2287
461.218	2020
461.264	1931
461.286	1990
461.345	1771
461.355	1677
461.423	1899
461.425	1892
461.491	1897
461.505	2029
461.559	2457
461.585	2387
461.628	3062
461.665	3947
461.696	4050
461.745	3993
461.764	3506
461.825	2092
461.832	2214
461.901	2659
461.905	2738
461.969	1889
461.985	1573
462.037	2076
462.065	2510
462.105	1955
462.145	1345
462.173	1950
462.225	3095
462.241	3234
462.305	3560
462.310	3473
462.378	2695
462.385	2492
462.446	2232
462.465	2425
462.514	2544
462.545	2259
462.582	1994
462.625	2093
462.650	2243
462.705	2356
462.718	2369
462.785	2398
462.786	2392
462.854	1989
462.865	1966
462.922	2842
462.945	2985
462.990	2724
463.025	2800
463.058	2699
463.104	2299
463.126	2129
463.184	1960
463.194	2056
463.262	2089
463.264	2105
463.330	2456
463.344	2517
463.398	3020
463.424	3286
463.466	2649
463.504	2127
463.533	2602
463.583	3115
463.601	2819
463.663	1724
463.669	1761
463.737	2644
463.743	2674
463.805	2836
463.823	3027
463.873	4631
463.903	5496
463.940	5067
463.982	4690
464.008	4483
464.062	3674
464.076	3454
464.142	2406
464.144	2420
464.211	2787
464.221	2873
464.279	2264
464.301	1936
464.347	2171
464.381	2504
464.414	2485
464.461	2444
464.482	2820
464.540	3644
464.550	3590
464.617	2940
464.620	2929
464.685	4713
464.699	5082
464.753	7517
464.779	8718
464.820	10556
464.859	12298
464.888	10885
464.938	8266
464.956	8371
465.018	8314
465.023	8271
465.091	7916
465.098	7868
465.158	7256
465.177	7078
465.226	6741
465.257	6439
465.293	6911
465.336	7460
465.361	7919
465.416	8884
465.428	8784
465.495	8248
465.496	8262
465.563	8294
465.575	8293
465.631	9364
465.654	9861
465.698	8843
465.734	7838
465.765	7703
465.813	7378
465.833	7475
465.893	7973
465.900	8003
465.968	8037
465.972	8035
466.035	8331
466.052	8354
466.102	8554
466.131	8694
466.170	8555
466.210	8287
466.237	8981
466.290	10409
466.304	10232
466.369	9186
466.372	9252
466.439	10871
466.449	11064
466.506	10900
466.528	10846
466.573	11222
466.607	11419
466.641	12386
466.687	13748
466.708	14466
466.766	16320
466.775	16011
466.842	13504
466.845	13359
466.909	13245
466.925	13195
466.977	12764
467.004	12510
467.044	12875
467.083	13213
467.111	14838
467.163	17779
467.178	18433
467.242	21042
467.245	20849
467.312	16046
467.321	15382
467.379	14899
467.400	14684
467.446	14399
467.480	14148
467.559	13526
467.638	12577
467.717	12005
467.796	13475
467.875	12252
467.955	11081
468.034	13025
468.113	15121
468.192	17337
468.271	13025
468.350	14292
468.429	16268
468.508	18114
468.588	13382
468.667	10836
468.746	11973
468.825	11316
468.904	9335
468.983	9530
469.062	9960
469.141	11166
469.220	8516
469.299	9613
469.378	10850
469.456	15311
469.535	13062
469.614	11859
469.693	10841
469.772	12170
469.851	11624
469.930	10230
470.009	10297
470.088	10009
470.166	10352
470.245	11359
470.324	10753
470.403	10920
470.482	9784
470.560	9828
470.639	9764
470.718	10927
470.797	8515
470.875	9553
470.954	10279
471.033	10921
471.111	8401
471.190	9199
471.269	7948
471.347	8281
471.426	8609
471.505	10228
471.583	12764
471.662	11123
471.740	9702
471.819	9429
471.898	9379
471.976	9998
472.055	8611
472.133	9122
472.212	12666
472.290	9511
472.369	8117
472.447	8809
472.526	8224
472.604	9803
472.683	7303
472.761	8892
472.839	8875
472.918	8100
472.996	7784
473.075	8486
473.153	8563
473.231	8096
473.310	7582
473.388	7896
473.466	7557
473.545	10149
473.623	11465
473.701	10276
473.780	8587
473.858	7933
473.936	10313
474.014	8768
474.093	8712
474.171	10069
474.249	9992
474.327	7910
474.405	6849
474.484	7424
474.562	7285
474.640	7363
474.718	7425
474.796	8747
474.874	9470
474.952	8182
475.030	7629
475.108	9243
475.187	10198
475.265	9675
475.343	9188
475.421	10483
475.499	7583
475.577	7896
475.655	7628
475.733	8275
475.811	10138
475.889	9672
475.966	7873
476.044	6726
476.122	7387
476.200	6906
476.278	6282
476.356	6218
476.434	6824
476.512	5432
476.590	6448
476.667	7789
476.745	4357
476.823	6905
476.901	5679
476.979	5368
477.056	5818
477.134	6541
477.212	7767
477.290	7094
477.367	4910
477.445	5532
477.523	5263
477.601	5614
477.678	5301
477.756	6108
477.834	5268
477.911	5301
477.989	5123
478.066	4529
478.144	4525
478.222	4870
478.299	5895
478.377	8171
478.454	5868
478.532	5101
478.609	4939
478.687	5923
478.764	4462
478.842	5796
478.919	5074
478.997	5356
479.074	4624
479.152	4773
479.229	4954
479.307	4568
479.384	4316
479.461	4123
479.539	3751
479.616	4952
479.694	4036
479.771	4677
479.848	4817
479.926	4029
480.003	5253
480.080	5178
480.157	4619
480.235	3978
480.312	3849
480.389	4437
480.467	4566
480.544	5201
480.621	4532
480.698	3680
480.775	3677
480.853	4419
480.930	3769
481.007	5478
481.084	6208
481.161	9165
481.238	6350
481.315	4088
481.392	3618
481.470	4314
481.547	3992
481.624	3263
481.701	3573
481.778	3493
481.855	3621
481.932	4451
482.009	5262
482.086	5448
482.163	4103
482.240	5178
482.317	6272
482.393	5656
482.470	5109
482.547	4839
482.624	3688
482.701	4335
482.778	3426
482.855	4872
482.932	3905
483.009	3700
483.085	4740
483.162	7586
483.239	7623
483.316	5187
483.393	4660
483.469	4633
483.546	4405
483.623	4364
483.699	3758
483.776	3813
483.853	4607
483.930	4874
484.006	7631
484.083	15023
484.160	28792
484.236	56691
484.313	41909
484.389	30468
484.466	26376
484.543	26108
484.619	25803
484.696	27254
484.772	25419
484.849	24965
484.925	22438
485.002	22105
485.078	22145
485.155	22040
485.231	20785
485.308	19944
485.384	20434
485.461	20930
485.537	21794
485.614	22766
485.690	18757
485.766	19142
485.843	18827
485.919	21638
485.995	20345
486.072	18438
486.148	18224
486.224	17941
486.301	16904
486.377	18600
486.453	17448
486.530	20634
486.606	29655
486.682	33070
486.758	26965
486.835	26458
486.911	23949
486.987	25049
487.063	28449
487.139	34461
487.215	31935
487.292	24626
487.368	23312
487.444	24300
487.520	26580
487.596	31933
487.672	51340
487.748	127591
487.824	189571
487.900	68008
487.976	27685
488.052	21328
488.128	20932
488.204	18328
488.280	17532
488.356	18592
488.432	20388
488.508	21975
488.584	16568
488.660	16090
488.736	16892
488.812	17078
488.888	21247
488.964	22681
489.039	27804
489.115	36995
489.191	25953
489.267	17219
489.343	15169
489.418	15091
489.494	14539
489.570	13566
489.646	15601
489.722	14607
489.797	13889
489.873	14733
489.949	17867
490.024	16886
490.100	12603
490.176	13373
490.251	13531
490.327	15566
490.403	11860
490.478	13420
490.554	11534
490.629	12153
490.705	10869
490.781	12040
490.856	10409
490.932	13527
491.007	11429
491.083	12946
491.158	9663
491.234	12465
491.309	12363
491.385	12974
491.460	10254
491.536	12022
491.611	10405
491.686	10691
491.762	13389
491.837	15978
491.913	23056
491.988	28563
492.063	34962
492.139	12563
492.214	10457
492.289	9163
492.365	8216
492.440	9858
492.515	6633
492.590	9418
492.666	7108
492.741	9307
492.816	9941
492.891	7662
492.967	9510
493.042	7553
493.117	10138
493.192	11149
493.267	19504
493.342	61565
493.418	85810
493.493	16045
493.568	7066
493.643	7298
493.718	8029
493.793	7601
493.868	10713
493.943	6875
494.018	7522
494.093	6213
494.168	5939
494.243	7446
494.318	6529
494.393	6558
494.468	6364
494.543	5592
494.618	6072
494.693	6226
494.768	4495
494.842	6711
494.917	5268
494.992	5581
495.067	5954
495.142	5249
495.217	6340
495.292	5464
495.366	6343
495.441	6907
495.516	7902
495.591	9874
495.665	23774
495.740	53674
495.815	22121
495.890	6430
495.964	3423
496.039	7639
496.114	6487
496.188	10039
496.263	10243
496.338	5120
496.412	4906
496.487	7427
496.561	5817
496.636	7992
496.710	7526
496.785	7265
496.860	7994
496.934	6794
497.009	7543
497.083	8787
497.158	8325
497.232	7911
497.307	10522
497.381	10304
497.455	10484
497.530	14308
497.604	13276
497.679	13908
497.753	18598
497.827	25134
497.902	27551
497.976	28181
498.050	32062
498.125	68176
498.199	74384
498.273	40880
498.348	37218
498.422	32092
498.496	25905
498.570	21726
498.645	17143
498.719	15001
498.793	13558
498.867	13696
498.941	14720
499.016	24961
499.090	55126
499.164	23780
499.238	8341
499.312	7932
499.386	8441
499.460	8214
499.534	5542
499.609	6431
499.683	6907
499.757	6567
499.831	10558
499.905	32656
499.979	32005
500.053	7278
500.127	9060
500.201	6852
500.275	4820
500.349	5428
500.422	5505
500.496	6675
500.570	11480
500.644	20865
500.718	30891
500.792	10494
500.866	5067
500.940	4920
501.013	5002
501.087	4629
501.161	7195
501.235	7234
501.309	11468
501.382	25571
501.456	25450
501.530	7067
501.603	8635
501.677	5764
501.751	2281
501.825	4905
501.898	4991
501.972	10644
502.046	7880
502.119	3081
502.193	6853
502.266	11462
502.340	6205
502.413	6014
502.487	10109
502.561	5207
502.634	3917
502.708	3014
502.781	2718
502.855	3734
502.928	2482
503.002	3546
503.075	1339
503.149	2677
503.222	3761
503.295	3054
503.369	3323
503.442	3986
503.516	8312
503.589	18289
503.662	12892
503.736	6300
503.809	12706
503.882	11688
503.956	16875
504.029	25603
504.102	57954
504.175	89088
504.249	30206
504.322	11149
504.395	7606
504.468	5215
504.542	3525
504.615	2390
504.688	4188
504.761	1503
504.834	5002
504.907	3867
504.980	6235
505.053	3253
505.127	2803
505.200	6240
505.273	2025
505.346	2380
505.419	1950
505.492	2822
505.565	1214
505.638	2595
505.711	803
505.784	1581
505.857	1454
505.930	3871
506.003	317
506.076	3519
506.149	1283
506.221	1210
506.294	3530
506.367	3230
506.440	12829
506.513	9633
506.586	2673
506.659	2051
506.731	1677
506.804	2861
506.877	2383
506.950	2679
507.022	2383
507.095	1013
507.168	2961
507.241	3549
507.313	1020
507.386	1469
507.459	3406
507.531	2738
507.604	1555
507.677	3091
507.749	1153
507.822	4939
507.894	10354
507.967	19945
508.040	11804
508.112	10143
508.185	6766
508.257	5254
508.330	8289
508.402	5430
508.475	5191
508.547	7542
508.620	5475
508.692	7138
508.765	6375
508.837	5380
508.909	6758
508.982	5964
509.054	6172
509.127	5756
509.199	5671
509.271	5225
509.344	4470
509.416	5640
509.488	4014
509.560	5852
509.633	3928
509.705	6295
509.777	5288
509.849	6880
509.922	4395
509.994	5330
510.066	6428
510.138	7275
510.210	21290
510.283	18263
510.355	14834
510.427	13237
510.499	15267
510.571	18763
510.643	9133
510.715	11568
510.787	9208
510.859	10493
510.931	8321
511.003	10801
511.076	9398
511.148	8048
511.219	7003
511.291	9085
511.363	9023
511.435	8372
511.507	7145
511.579	8356
511.651	8585
511.723	6858
511.795	6299
511.867	6299
511.939	7206
512.010	7581
512.082	8097
512.154	6685
512.226	7385
512.298	13515
512.369	20340
512.441	16088
512.513	14064
512.585	10385
512.656	11754
512.728	10145
512.800	9347
512.871	9631
512.943	9240
513.015	8163
513.086	9695
513.158	9257
513.230	7954
513.301	10513
513.373	11454
513.444	8384
513.516	7927
513.588	8926
513.659	8125
513.731	8583
513.802	7265
513.874	12758
513.945	14480
514.016	8563
514.088	8150
514.159	7773
514.231	10835
514.302	17211
514.374	14301
514.445	10015
514.516	12280
514.588	10268
514.659	9793
514.730	10963
514.802	12108
514.873	13750
514.944	16480
515.016	11710
515.087	10465
515.158	10934
515.229	14722
515.301	18880
515.372	24612
515.443	14057
515.514	11438
515.585	7468
515.656	9501
515.728	8159
515.799	7531
515.870	8751
515.941	7513
516.012	8304
516.083	13728
516.154	12691
516.225	12313
516.296	11949
516.367	9771
516.438	8847
516.509	9706
516.580	11644
516.651	21694
516.722	59310
516.793	30279
516.864	10891
516.935	10045
517.006	12327
517.077	12105
517.148	23260
517.219	57429
517.289	82171
517.360	23258
517.431	12396
517.502	6889
517.573	8139
517.643	8004
517.714	10120
517.785	10426
517.856	8813
517.926	11399
517.997	9910
518.068	10438
518.138	14465
518.209	14966
518.280	41908
518.350	142950
518.421	51665
518.492	14240
518.562	13720
518.633	15079
518.703	19341
518.774	42861
518.845	111142
518.915	107223
518.986	29919
519.056	16665
519.127	16995
519.197	19065
519.268	23733
519.338	16080
519.408	8045
519.479	9990
519.549	7378
519.620	7536
519.690	6022
519.760	6641
519.831	5768
519.901	4914
519.971	5873
520.042	4991
520.112	5102
520.182	6203
520.253	7241
520.323	4970
520.393	5081
520.463	8097
520.534	3378
520.604	6806
520.674	6152
520.744	3401
520.814	5292
520.885	7852
520.955	7316
521.025	18870
521.095	9894
521.165	6366
521.235	4580
521.305	4186
521.375	5738
521.445	6207
521.515	4890
521.585	6348
521.655	5014
521.725	8041
521.795	12426
521.865	6423
521.935	8586
522.005	4787
522.075	4036
522.145	5660
522.215	4335
522.285	5064
522.355	5696
522.424	7303
522.494	6465
522.564	6281
522.634	9484
522.704	25935
522.774	10758
522.843	5205
522.913	3804
522.983	5152
523.053	3784
523.122	5049
523.192	5371
523.262	13002
523.331	12286
523.401	4938
523.471	3267
523.540	4204
523.610	2579
523.680	3831
523.749	5026
523.819	4811
523.888	4668
523.958	3627
524.027	4149
524.097	2856
524.166	3633
524.236	3199
524.305	4963
524.375	3152
524.444	2331
524.514	5777
524.583	3487
524.653	2996
524.722	5021
524.791	2179
524.861	4873
524.930	2272
524.999	3393
525.069	5351
525.138	4181
525.207	2837
525.277	4996
525.346	3491
525.415	5023
525.484	4096
525.554	4320
525.623	6043
525.692	8822
525.761	7633
525.830	10625
525.900	12352
525.969	20518
526.038	37207
526.107	78135
526.176	238184
526.245	194038
526.314	54889
526.383	116493
526.452	164274
526.522	272846
526.591	262575
526.660	43243
526.729	26487
526.797	31701
526.867	47947
526.935	165138
527.004	530223
527.073	323367
527.142	28679
527.211	11752
527.280	7994
527.349	7024
527.418	2977
527.487	5379
527.555	2359
527.624	2875
527.693	2013
527.762	4001
527.831	1563
527.899	3387
527.968	3045
528.037	665
528.106	2907
528.174	4991
528.243	4712
528.312	4100
528.380	6233
528.449	961
528.518	3533
528.586	1348
528.655	2898
528.723	1503
528.792	1410
528.861	463
528.929	-22
528.998	2541
529.066	1812
529.135	1772
529.203	1229
529.272	664
529.340	1975
529.409	2410
529.477	765
529.545	1378
529.614	3607
529.682	-244
529.751	1248
529.819	4709
529.887	1115
529.956	1639
530.024	2404
530.092	825
530.161	2300
530.229	3298
530.297	1191
530.365	3327
530.434	2334
530.502	459
530.570	1688
530.638	124
530.707	1875
530.775	3408
530.843	1494
530.911	863
530.979	2018
531.047	1409
531.115	2082
531.183	1737
531.252	2525
531.320	1176
531.388	844
531.456	1587
531.524	844
531.592	2588
531.660	3586
531.728	718
531.796	199
531.864	2209
531.932	1483
532.000	454
532.067	984
532.135	3128
532.203	3419
532.271	1998
532.339	4783
532.407	9382
532.475	6451
532.542	3953
532.610	3528
532.678	3833
532.746	18943
532.814	45776
532.881	10436
532.949	3948
533.017	2569
533.084	2516
533.152	1602
533.220	2216
533.287	684
533.355	1803
533.423	2210
533.490	1723
533.558	1944
533.625	3041
533.693	2730
533.761	3152
533.828	3388
533.896	1413
533.963	5052
534.031	5898
534.098	6651
534.166	4494
534.233	2601
534.300	4144
534.368	4360
534.435	2545
534.503	4754
534.570	5878
534.637	4965
534.705	8571
534.772	10605
534.840	20933
534.907	104079
534.974	137803
535.041	14446
535.109	5271
535.176	3354
535.243	5222
535.310	2896
535.378	2709
535.445	2957
535.512	3046
535.579	3491
535.646	1996
535.714	3288
535.781	7369
535.848	5891
535.915	5022
535.982	4329
536.049	4364
536.116	5271
536.183	4301
536.250	3688
536.317	2702
536.384	4775
536.451	5310
536.518	5692
536.585	2888
536.652	5670
536.719	6342
536.786	4002
536.853	4471
536.920	5756
536.987	7864
537.053	6933
537.120	24409
537.187	20503
537.254	4072
537.321	3720
537.388	5522
537.454	2961
537.521	2867
537.588	2706
537.654	5894
537.721	6971
537.788	7343
537.855	4389
537.921	4760
537.988	3845
538.055	5223
538.121	3615
538.188	4792
538.254	4547
538.321	8319
538.388	6623
538.454	5130
538.521	5131
538.587	4269
538.654	5256
538.720	4315
538.787	4710
538.853	4771
538.920	4800
538.986	3873
539.053	3497
539.119	4141
539.185	4543
539.252	6371
539.318	4740
539.385	8031
539.451	6209
539.517	7808
539.583	7856
539.650	9385
539.716	17949
539.782	7928
539.849	3592
539.915	5621
539.981	5123
540.047	5308
540.114	5183
540.180	6580
540.246	4026
540.312	6203
540.378	7578
540.444	9549
540.510	9255
540.576	21997
540.643	8541
540.709	3728
540.775	4716
540.841	4094
540.907	5941
540.973	8024
541.039	7580
541.105	8094
541.171	6346
541.237	4416
541.303	6308
541.369	7870
541.435	6952
541.500	8504
541.566	4699
541.632	5229
541.698	4431
541.764	5244
541.830	3921
541.896	3721
541.961	5151
542.027	4029
542.093	5357
542.159	6067
542.224	5368
542.290	8819
542.356	9592
542.421	9418
542.487	5863
542.553	5621
542.618	5183
542.684	5728
542.750	4941
542.815	5798
542.881	6349
542.947	17552
543.012	14288
543.078	4997
543.143	4526
543.209	5365
543.274	3809
543.340	6260
543.405	9944
543.471	11828
543.536	5937
543.602	5180
543.667	3852
543.732	5848
543.798	3794
543.863	6962
543.928	4357
543.994	4729
544.059	6244
544.124	5363
544.190	5045
544.255	5793
544.320	4994
544.386	5153
544.451	6811
544.516	6932
544.581	6443
544.646	13085
544.712	20041
544.777	8054
544.842	6084
544.907	5221
544.972	5232
545.037	5756
545.102	6885
545.168	6147
545.233	7163
545.298	7482
545.363	7942
545.428	8081
545.493	10509
545.558	15554
545.623	9025
545.688	5643
545.753	5668
545.818	7046
545.883	7963
545.947	7970
546.012	8081
546.077	5764
546.142	7824
546.207	7535
546.272	8798
546.337	8784
546.401	9415
546.466	9932
546.531	8369
546.596	10475
546.661	9544
546.725	10565
546.790	9990
546.855	11034
546.919	10120
546.984	13300
547.049	13057
547.113	16190
547.178	15695
547.243	18969
547.307	22569
547.372	24478
547.436	23638
547.501	24767
547.565	28711
547.630	27046
547.695	24121
547.759	24448
547.823	23665
547.888	25126
547.952	26422
548.017	27712
548.081	30349
548.146	28192
548.210	27922
548.274	30490
548.339	29154
548.403	26244
548.468	24216
548.532	23376
548.596	25502
548.660	25942
548.725	28958
548.789	30555
548.853	30584
548.917	27410
548.982	27108
549.046	25860
549.110	21637
549.174	22411
549.238	25154
549.303	27899
549.367	30261
549.431	29011
549.495	26604
549.559	26598
549.623	30233
549.687	34469
549.751	34503
549.815	39416
549.879	40401
549.943	37850
550.007	38633
550.071	39412
550.135	36327
550.199	33619
550.263	33451
550.327	32592
550.391	32708
550.455	37414
550.519	37904
550.582	39827
550.646	46079
550.710	45880
550.774	45437
550.838	45553
550.901	47252
550.965	50753
551.029	52779
551.093	57765
551.156	63014
551.220	76423
551.284	89981
551.347	65559
551.411	53744
551.475	50899
551.538	49784
551.602	46490
551.666	42710
551.729	39163
551.793	38104
551.856	38253
551.920	36927
551.983	36971
552.047	34722
552.110	37656
552.174	37017
552.237	38224
552.301	35371
552.364	33790
552.428	31217
552.491	33505
552.554	34778
552.618	33150
552.681	35053
552.745	33649
552.808	35230
552.871	38732
552.934	36340
552.998	34998
553.061	33880
553.124	32151
553.187	31607
553.251	34833
553.314	35595
553.377	35543
553.440	42510
553.503	69399
553.567	101857
553.630	45126
553.693	36210
553.756	34329
553.819	34058
553.882	31838
553.945	33495
554.008	33679
554.071	32167
554.134	33903
554.197	31017
554.260	30441
554.323	31742
554.386	31164
554.449	32861
554.512	33579
554.575	29960
554.638	30553
554.701	30289
554.764	30076
554.827	29448
554.889	26622
554.952	26035
555.015	25540
555.078	25488
555.141	27312
555.203	25573
555.266	25700
555.329	25393
555.391	24865
555.454	24998
555.517	24958
555.580	22317
555.642	22358
555.705	21652
555.768	22987
555.830	21551
555.893	19811
555.955	19813
556.018	19694
556.080	18587
556.143	19390
556.206	19254
556.268	19141
556.330	18636
556.393	19238
556.455	17549
556.518	17467
556.580	16740
556.643	16240
556.705	15952
556.767	15018
556.830	16011
556.892	15693
556.955	15855
557.017	15700
557.079	13985
557.142	14650
557.204	14530
557.266	18337
557.328	15147
557.391	12199
557.453	11629
557.515	12197
557.577	14471
557.639	14374
557.701	14001
557.764	12768
557.826	14129
557.888	16189
557.950	17267
558.012	19611
558.074	26830
558.136	63906
558.198	167296
558.260	58901
558.322	19416
558.384	21647
558.446	24451
558.508	29319
558.570	38117
558.632	47262
558.694	64846
558.756	102935
558.818	314761
558.880	790230
558.942	251625
559.003	180971
559.065	89221
559.127	34097
559.189	33194
559.251	40178
559.312	59736
559.374	144388
559.436	510098
559.498	252035
559.559	38698
559.621	34089
559.683	39737
559.744	66149
559.806	226203
559.868	355019
559.929	64217
559.991	34279
560.052	50990
560.114	161274
560.176	104906
560.237	87130
560.299	151165
560.360	30662
560.422	10514
560.483	8062
560.545	7238
560.606	7001
560.667	6752
560.729	5742
560.790	5229
560.852	5987
560.913	6059
560.974	5751
561.036	4703
561.097	5039
561.158	5589
561.220	5504
561.281	4991
561.342	4680
561.403	6624
561.465	6231
561.526	10874
561.587	12878
561.648	4204
561.709	5470
561.771	4847
561.832	4027
561.893	4031
561.954	5007
562.015	3465
562.076	5376
562.137	4441
562.198	5099
562.259	3714
562.320	3644
562.381	3987
562.442	5540
562.503	5389
562.564	3143
562.625	4213
562.686	4059
562.747	3359
562.808	4326
562.869	2581
562.930	4276
562.991	3376
563.051	4190
563.112	3954
563.173	4561
563.234	2594
563.294	3484
563.355	3593
563.416	4101
563.477	3823
563.537	3590
563.598	3859
563.659	4431
563.720	2883
563.780	4336
563.841	4010
563.901	3426
563.962	2936
564.023	4464
564.083	3661
564.144	4093
564.204	3115
564.265	3107
564.325	2799
564.386	5007
564.446	4131
564.507	3547
564.567	3111
564.628	3538
564.688	3077
564.749	3125
564.809	4674
564.869	4579
564.930	3731
564.990	4086
565.050	3366
565.111	4217
565.171	3692
565.231	4451
565.292	5229
565.352	2804
565.412	3868
565.472	2967
565.532	3570
565.593	4380
565.653	3425
565.713	3888
565.773	4525
565.833	5006
565.893	6493
565.953	4883
566.013	4703
566.074	4840
566.134	4925
566.194	6100
566.254	6165
566.314	5152
566.374	4504
566.434	6936
566.494	6159
566.554	6545
566.614	7157
566.673	7678
566.733	8124
566.793	8030
566.853	8167
566.913	8856
566.973	9731
567.033	9840
567.092	8738
567.152	7619
567.212	9358
567.272	9210
567.331	9660
567.391	10611
567.451	11371
567.511	13029
567.570	12482
567.630	11597
567.690	10145
567.749	11347
567.809	12236
567.868	13935
567.928	16286
567.988	20191
568.047	24350
568.107	33303
568.166	45776
568.226	77604
568.285	114762
568.345	95829
568.404	70791
568.464	58080
568.523	51359
568.582	52254
568.642	58670
568.701	76295
568.761	117856
568.820	198489
568.879	194756
568.939	132538
568.998	91031
569.057	64717
569.116	49034
569.176	38086
569.235	31142
569.294	26409
569.353	20618
569.413	18857
569.472	15940
569.531	15222
569.590	11710
569.649	11263
569.708	11782
569.767	10256
569.827	9169
569.886	8217
569.945	8391
570.004	7402
570.063	7521
570.122	6585
570.181	6900
570.240	6648
570.299	6181
570.358	5675
570.417	5795
570.475	5573
570.534	5806
570.593	5607
570.652	4191
570.711	4941
570.770	4396
570.829	5734
570.887	5060
570.946	5599
571.005	3779
571.064	4212
571.122	4093
571.181	4303
571.240	3412
571.299	4005
571.357	3965
571.416	4446
571.475	3095
571.533	5029
571.592	3919
571.650	4085
571.709	4444
571.768	3638
571.826	4246
571.885	4908
571.943	4013
572.002	3211
572.060	3074
572.119	3093
572.177	3896
572.236	3747
572.294	3524
572.352	4304
572.411	3391
572.469	3086
572.528	2675
572.586	3774
572.644	3095
572.703	3896
572.761	3579
572.819	3052
572.877	3140
572.936	3492
572.994	2808
573.052	2859
573.110	2248
573.169	3762
573.227	3250
573.285	4023
573.343	2559
573.401	3716
573.459	3242
573.517	3055
573.576	3452
573.634	3692
573.692	3671
573.750	3020
573.808	2280
573.866	3321
573.924	3192
573.982	3099
574.040	2588
574.098	3161
574.155	2095
574.213	3147
574.271	2791
574.329	3915
574.387	2493
574.445	2266
574.503	2198
574.560	3083
574.618	2988
574.676	3114
574.734	2766
574.792	3226
574.849	2813
574.907	2532
574.965	2591
575.022	3026
575.080	2373
575.138	1814
575.195	2513
575.253	2417
575.311	3638
575.368	2411
575.426	2169
575.483	3335
575.541	2209
575.598	3042
575.656	2883
575.713	1839
575.771	3466
575.828	2434
575.886	2973
575.943	2536
576.001	1926
576.058	1182
576.115	2838
576.173	3076
576.230	3068
576.287	3503
576.345	3308
576.402	2881
576.459	3112
576.517	1864
576.574	2195
576.631	2252
576.688	1439
576.746	2913
576.803	1639
576.860	2211
576.917	2807
576.974	2368
577.031	2537
577.089	3509
577.146	1539
577.203	2350
577.260	2559
577.317	3517
577.374	3533
577.431	2630
577.488	2085
577.545	3071
577.602	3203
577.659	2957
577.716	3168
577.773	3314
577.830	2691
577.886	2438
577.943	2864
578.000	2564
578.057	2806
578.114	3680
578.171	5241
578.227	5673
578.284	4081
578.341	4166
578.398	2220
578.454	2791
578.511	2815
578.568	2818
578.625	1966
578.681	2783
578.738	2015
578.794	3226
578.851	2924
578.908	2400
578.964	2026
579.021	3231
579.077	1273
579.134	3196
579.190	2401
579.247	2893
579.303	2421
579.360	2558
579.416	2658
579.473	1799
579.529	2086
579.586	2979
579.642	2676
579.698	3100
579.755	2716
579.811	3188
579.867	3134
579.924	3476
579.980	2714
580.036	3356
580.093	4672
580.149	4877
580.205	5217
580.261	4859
580.317	3490
580.374	4260
580.430	3547
580.486	3578
580.542	1940
580.598	3223
580.619	3074
580.654	2816
580.692	2640
580.710	2552
580.765	3147
580.767	3168
580.823	3057
580.838	3096
580.879	3191
580.911	3549
580.935	3823
580.984	2958
580.991	2838
581.047	3713
581.057	3622
581.103	3267
581.130	3561
581.159	3857
581.203	3820
581.215	3807
581.270	3815
581.276	3783
581.326	3531
581.349	3578
581.382	3637
581.422	3434
581.438	3346
581.494	3885
581.494	3872
581.550	2478
581.567	2751
581.606	3375
581.640	3012
581.661	2778
581.713	3637
581.717	3706
581.773	3382
581.786	3439
581.829	3662
581.859	3665
581.885	3674
581.932	4144
581.940	4222
581.996	3825
582.004	3701
582.052	2996
582.077	3377
582.107	3779
582.150	3583
582.163	3561
582.219	3487
582.223	3508
582.274	3787
582.296	3845
582.330	3861
582.368	4271
582.386	4496
582.441	3791
582.441	3789
582.497	4308
582.514	4302
582.552	4384
582.587	4629
582.608	4689
582.659	3926
582.663	3872
582.719	4129
582.732	3919
582.774	3296
582.805	4046
582.830	4664
582.877	4897
582.885	4928
582.941	4168
582.950	4145
582.996	3979
583.023	4325
583.052	4950
583.095	5023
583.107	4952
583.162	5410
583.168	5423
583.218	5482
583.240	5261
583.273	5014
583.313	4729
583.328	4626
583.384	4987
583.385	4972
583.439	4435
583.458	4704
583.494	5311
583.531	5000
583.549	4851
583.603	5023
583.605	5020
583.660	4887
583.676	4846
583.715	4842
583.748	5154
583.770	5324
583.820	4810
583.825	4790
583.881	4906
583.893	5037
583.936	5357
583.965	5541
583.991	5600
584.038	5401
584.046	5418
584.101	5425
584.110	5411
584.156	5350
584.183	5323
584.211	5101
584.255	6279
584.266	6636
584.321	5845
584.328	5925
584.376	6439
584.400	6286
584.431	6230
584.472	5950
584.486	5819
584.541	6274
584.545	6318
584.596	6915
584.617	6657
584.651	6532
584.689	7178
584.706	7350
584.761	7522
584.762	7523
584.816	7881
584.834	7925
584.871	7972
584.906	8508
584.926	8883
584.978	8770
584.980	8763
585.035	9589
585.051	9828
585.090	10510
585.123	11157
585.145	11709
585.195	12169
585.200	12274
585.254	15199
585.267	16103
585.309	18707
585.340	20285
585.364	21610
585.412	23143
585.419	23361
585.473	27542
585.484	28514
585.528	34847
585.556	41653
585.583	55256
585.628	86497
585.637	98374
585.692	203763
585.700	223616
585.747	297084
585.772	255378
585.801	162141
585.845	58216
585.856	45015
585.910	24967
585.917	23047
585.965	18813
585.989	17252
586.019	16332
586.061	15371
586.074	15066
586.128	14603
586.133	14540
586.183	14942
586.205	14979
586.237	14467
586.277	14309
586.292	14554
586.346	15665
586.349	15685
586.401	15650
586.421	15576
586.455	15566
586.493	16052
586.509	16345
586.564	16994
586.565	17011
586.618	18670
586.637	19323
586.672	20365
586.709	20651
586.727	20873
586.781	22256
586.781	22268
586.835	20816
586.853	20519
586.889	20293
586.925	19970
586.944	20133
586.996	21168
586.998	21203
587.052	21829
587.068	22071
587.106	23003
587.140	23769
587.161	24225
587.212	24499
587.215	24534
587.269	25878
587.284	26331
587.323	27434
587.356	27853
587.377	28514
587.427	30775
587.431	30940
587.485	32878
587.499	33225
587.539	34371
587.571	35236
587.593	35963
587.643	38779
587.648	39159
587.702	42390
587.715	43248
587.755	45680
587.786	47115
587.810	48747
587.858	53375
587.864	53982
587.917	59603
587.930	60747
587.971	65581
588.001	69904
588.025	73734
588.073	81436
588.079	82650
588.133	93085
588.145	95687
588.187	106592
588.217	114702
588.241	122969
588.288	139849
588.295	142421
588.348	164818
588.360	170257
588.402	194799
588.431	212062
588.456	229671
588.503	267678
588.510	274684
588.564	334360
588.575	348129
588.617	416694
588.646	468154
588.671	532969
588.718	670304
588.725	703227
588.778	980776
588.789	1042983
588.832	1357947
588.861	1580496
588.886	1673596
588.932	1753503
588.939	1738051
588.993	1489574
589.004	1480187
589.047	1658335
589.075	1689491
589.100	1501947
589.147	1096433
589.154	1055932
589.207	786502
589.218	737633
589.261	669631
589.290	636797
589.314	657809
589.361	715945
589.368	741714
589.421	978949
589.433	1035611
589.475	1331693
589.504	1539318
589.528	1577474
589.576	1527161
589.582	1517499
589.635	1481976
589.647	1451560
589.689	1099486
589.718	840147
589.742	694170
589.790	442780
589.795	428570
589.849	311935
589.861	286908
589.902	238464
589.932	205077
589.955	189393
590.004	158190
590.009	156137
590.062	134574
590.075	129322
590.115	116474
590.146	106795
590.168	102170
590.218	91861
590.222	91252
590.275	82697
590.289	80420
590.328	75653
590.360	71725
590.381	69809
590.431	65384
590.435	65167
590.488	59782
590.503	58312
590.541	55620
590.574	53470
590.594	52527
590.645	49421
590.647	49406
590.700	47273
590.716	46702
590.753	44814
590.787	42667
590.806	41898
590.859	40149
590.859	40188
590.912	38860
590.930	38442
590.965	38001
591.001	37294
591.018	36662
591.071	34747
591.072	34672
591.124	33886
591.143	33512
591.177	32941
591.214	32235
591.230	32097
591.283	31558
591.285	31478
591.336	30413
591.356	29973
591.389	29746
591.427	29363
591.442	29156
591.495	28115
591.498	27990
591.547	27282
591.569	26957
591.600	26438
591.640	25554
591.653	25632
591.706	25813
591.711	25793
591.759	25654
591.782	25506
591.811	25680
591.853	25730
591.864	25617
591.917	24994
591.924	24835
591.969	24703
591.995	24586
592.022	24114
592.066	23209
592.075	23377
592.127	24188
592.137	24281
592.180	24073
592.208	23895
592.233	23706
592.279	23198
592.285	23230
592.338	23150
592.350	23083
592.390	22836
592.421	22603
592.443	22822
592.491	23173
592.495	23169
592.548	22554
592.562	22351
592.600	22565
592.633	22679
592.653	22528
592.704	21915
592.705	22039
592.775	21928
592.846	21827
592.916	21662
592.987	22344
593.058	22520
593.128	21645
593.199	21843
593.270	21388
593.341	20706
593.411	20926
593.482	21349
593.553	22598
593.623	22631
593.694	22922
593.764	21337
593.835	21800
593.906	21849
593.976	22019
594.047	21773
594.117	23847
594.188	24142
594.258	22712
594.329	24160
594.399	23196
594.470	24572
594.540	24447
594.611	24170
594.681	23592
594.751	24336
594.822	25637
594.892	26498
594.963	26548
595.033	26094
595.103	26203
595.174	26490
595.244	27786
595.314	28438
595.384	28030
595.455	29398
595.525	29165
595.595	30282
595.665	31371
595.736	29560
595.806	29760
595.876	31028
595.946	30167
596.016	31195
596.087	32424
596.157	33715
596.227	33137
596.297	34016
596.367	35602
596.437	38647
596.507	37861
596.577	38102
596.647	38648
596.717	40149
596.787	40445
596.857	41072
596.927	42019
596.997	41547
597.067	42502
597.137	44337
597.207	42834
597.277	42944
597.347	40925
597.417	38884
597.487	39996
597.557	40644
597.626	40993
597.696	41993
597.766	42085
597.836	39939
597.906	37224
597.975	36297
598.045	36654
598.115	38477
598.185	41282
598.254	47223
598.324	49750
598.394	49579
598.464	49539
598.533	48325
598.603	44693
598.672	42635
598.742	46094
598.812	44459
598.881	45943
598.951	45195
599.020	46375
599.090	46860
599.159	48464
599.229	45784
599.299	45574
599.368	47669
599.437	45684
599.507	42689
599.576	41972
599.646	41356
599.715	40574
599.785	39234
599.854	38314
599.924	36742
599.993	36959
600.062	38748
600.132	38091
600.201	40547
600.270	48014
600.340	50157
600.409	49031
600.478	49560
600.547	50055
600.617	45018
600.686	35642
600.755	31994
600.824	31085
600.894	30182
600.963	30979
601.032	28906
601.101	28894
601.170	26815
601.239	25770
601.308	26517
601.378	26201
601.447	26559
601.516	26258
601.585	26475
601.654	27504
601.723	26891
601.792	26879
601.861	29947
601.930	30783
601.999	30273
602.068	29609
602.137	29890
602.206	30977
602.275	31080
602.343	31150
602.412	31887
602.481	31720
602.550	31872
602.619	32565
602.688	33577
602.756	33953
602.825	33774
602.894	34319
602.963	35566
603.032	35956
603.100	35279
603.169	36142
603.238	35758
603.307	36651
603.375	36472
603.444	38781
603.513	38413
603.581	39319
603.650	39988
603.719	38575
603.787	39426
603.856	40537
603.924	41711
603.993	43877
604.061	45007
604.130	47579
604.198	48672
604.267	48666
604.335	50364
604.404	51817
604.472	51724
604.541	51433
604.609	51963
604.678	53687
604.746	53359
604.815	55549
604.883	56495
604.951	56560
605.020	58365
605.088	58786
605.156	60216
605.225	60765
605.293	60420
605.361	61528
605.429	61747
605.498	63244
605.566	64495
605.634	68453
605.702	70366
605.771	72534
605.839	73358
605.907	70908
605.975	69423
606.043	67870
606.111	68913
606.180	67326
606.248	68677
606.316	68009
606.384	64953
606.452	67700
606.520	68593
606.588	71898
606.656	72411
606.724	68665
606.792	65409
606.860	58973
606.928	52261
606.996	51135
607.064	49398
607.132	51495
607.200	54967
607.267	56914
607.335	57896
607.403	58803
607.471	57184
607.539	55659
607.607	55934
607.674	49658
607.742	49476
607.810	49379
607.878	48992
607.946	49678
608.013	52211
608.081	53224
608.149	52940
608.216	55197
608.284	57032
608.352	57471
608.419	56171
608.487	56401
608.555	54608
608.622	56881
608.690	60597
608.757	67333
608.825	68226
608.893	66107
608.960	61669
609.028	58772
609.095	59936
609.163	59625
609.230	52914
609.298	48934
609.365	51143
609.432	55525
609.500	60909
609.567	70039
609.635	81193
609.702	85415
609.769	80835
609.837	62900
609.904	52945
609.971	57094
610.039	68888
610.106	97313
610.173	202829
610.241	479722
610.308	257194
610.375	80327
610.442	60973
610.509	55717
610.577	56520
610.644	56013
610.711	58835
610.778	58671
610.845	61265
610.912	65866
610.980	69498
611.047	73405
611.114	68485
611.181	64383
611.248	64417
611.315	69076
611.382	70119
611.449	73248
611.516	74689
611.583	72953
611.650	74786
611.717	76649
611.784	77062
611.851	82809
611.918	93060
611.984	116216
612.051	182086
612.118	401085
612.185	992961
612.252	604310
612.319	144759
612.386	107416
612.452	94358
612.519	87239
612.586	84916
612.653	86026
612.719	88919
612.786	83860
612.853	77113
612.919	74804
612.986	76632
613.053	70595
613.120	67029
613.186	64729
613.253	66274
613.319	64524
613.386	65516
613.453	65707
613.519	68046
613.586	66824
613.652	69780
613.719	66547
613.785	68603
613.852	68228
613.918	67037
613.985	70215
614.051	77985
614.118	92921
614.184	87015
614.250	68801
614.317	67780
614.383	67638
614.449	69893
614.516	69379
614.582	68706
614.648	67470
614.715	66294
614.781	64796
614.847	64056
614.914	65660
614.980	62461
615.046	63529
615.112	67082
615.179	67062
615.245	70968
615.311	75703
615.377	92123
615.443	96903
615.509	79586
615.575	75883
615.642	74069
615.708	76373
615.774	80860
615.840	89948
615.906	105081
615.972	150900
616.038	271067
616.104	545218
616.170	1205538
616.236	976229
616.302	228865
616.368	151523
616.434	103816
616.500	93632
616.565	103951
616.631	134756
616.697	107248
616.763	112214
616.829	177600
616.895	325550
616.961	305952
617.026	125021
617.092	80131
617.158	72962
617.224	69616
617.289	62450
617.355	57967
617.421	57157
617.487	57856
617.552	54154
617.618	54875
617.684	52425
617.749	54790
617.815	52316
617.880	50284
617.946	50412
618.012	50985
618.077	52643
618.143	49909
618.208	50312
618.274	54771
618.339	54731
618.405	43355
618.470	44642
618.536	44202
618.601	43815
618.667	39286
618.732	37470
618.798	36748
618.863	36422
618.928	36349
618.994	37904
619.059	37023
619.124	39192
619.190	37597
619.255	35964
619.320	36848
619.386	36541
619.451	35766
619.516	34946
619.581	34402
619.647	36194
619.712	35783
619.777	34017
619.842	34720
619.907	34662
619.972	36208
620.038	35729
620.103	33937
620.168	33317
620.233	35028
620.298	33985
620.363	35486
620.428	37137
620.493	37552
620.558	38300
620.623	38428
620.688	39076
620.753	38407
620.818	39785
620.883	39487
620.948	38965
621.013	38452
621.078	37445
621.143	37762
621.207	40066
621.272	38179
621.337	36798
621.402	36520
621.467	36154
621.532	35210
621.596	36284
621.661	34848
621.726	33911
621.791	33920
621.855	34926
621.920	35234
621.985	34223
622.049	34978
622.114	35711
622.179	36024
622.243	36768
622.308	38780
622.373	41943
622.437	38946
622.502	37149
622.566	36786
622.631	35443
622.695	37799
622.760	36643
622.824	38931
622.889	36830
622.953	36811
623.018	41609
623.082	40721
623.147	39594
623.211	39867
623.276	38417
623.340	35334
623.404	35526
623.469	36025
623.533	35666
623.597	35526
623.662	34769
623.726	30432
623.790	29274
623.854	27925
623.919	29742
623.983	29994
624.047	31154
624.111	30833
624.176	31196
624.240	31139
624.304	33378
624.368	30821
624.432	32039
624.496	33480
624.560	35772
624.625	35463
624.689	35475
624.753	36777
624.817	34164
624.881	33935
624.945	30481
625.009	29665
625.073	29949
625.137	29785
625.201	33561
625.265	32905
625.329	31949
625.393	30051
625.456	31958
625.520	32716
625.584	34397
625.648	34902
625.712	36610
625.776	38528
625.839	37407
625.903	28405
625.967	25578
626.031	30051
626.095	35760
626.158	31364
626.222	24156
626.286	22035
626.349	20307
626.413	18922
626.477	20929
626.540	19579
626.604	19183
626.668	19925
626.731	18961
626.795	19677
626.858	19634
626.922	17930
626.986	18931
627.049	17417
627.113	20025
627.176	19488
627.240	18716
627.303	19568
627.366	18447
627.430	18679
627.493	18782
627.557	18547
627.620	19198
627.684	20170
627.747	20596
627.810	16869
627.874	16221
627.937	15355
628.000	18430
628.064	16247
628.127	13843
628.190	14847
628.253	13282
628.317	12724
628.380	13337
628.443	11838
628.506	12378
628.569	12072
628.632	10998
628.696	12662
628.759	11594
628.822	9596
628.885	10157
628.948	9839
629.011	10586
629.074	9821
629.137	9294
629.200	8060
629.263	10466
629.326	8904
629.389	9376
629.452	9225
629.515	10013
629.578	9296
629.641	10166
629.704	8724
629.767	9471
629.830	10031
629.892	9215
629.955	8842
630.018	10431
630.081	8829
630.144	9925
630.207	8023
630.269	10506
630.332	8442
630.395	9503
630.458	8517
630.520	6834
630.583	9005
630.646	8862
630.708	9015
630.771	7959
630.834	9926
630.896	9194
630.959	9057
631.021	8358
631.084	8116
631.146	9240
631.209	9014
631.272	9090
631.334	9616
631.397	9623
631.459	8859
631.522	10784
631.584	11197
631.646	11972
631.709	13376
631.771	12953
631.834	11986
631.896	12005
631.958	10123
632.021	9738
632.083	9142
632.145	10045
632.208	8881
632.270	9696
632.332	7915
632.395	7897
632.457	8943
632.519	7986
632.581	9975
632.643	7877
632.706	9415
632.768	7780
632.830	8474
632.892	8303
632.954	8235
633.016	9412
633.078	8179
633.141	9009
633.203	8319
633.265	8748
633.327	9173
633.389	8285
633.451	9544
633.513	8813
633.575	9778
633.637	9367
633.698	8669
633.760	9961
633.822	10490
633.884	10462
633.946	10517
634.008	11315
634.070	12372
634.132	13814
634.193	13878
634.255	15773
634.317	16092
634.379	16769
634.441	12653
634.502	11777
634.564	11146
634.626	9762
634.687	9951
634.749	9411
634.811	8795
634.873	7829
634.934	8598
634.996	9880
635.057	7947
635.119	8806
635.181	9080
635.242	9634
635.304	6193
635.365	11138
635.427	8351
635.488	8584
635.550	7986
635.611	9210
635.673	7711
635.734	11790
635.796	10901
635.857	13966
635.918	13080
635.980	15088
636.041	14573
636.102	16786
636.164	16946
636.225	17651
636.286	12972
636.348	13096
636.409	11279
636.470	9781
636.531	8943
636.593	8526
636.654	9802
636.715	8361
636.776	6898
636.838	6616
636.899	6889
636.960	7032
637.021	6712
637.082	7307
637.143	7510
637.204	6554
637.265	6337
637.326	7268
637.387	6846
637.448	6195
637.509	7377
637.570	5581
637.631	7325
637.692	5737
637.753	5013
637.814	5644
637.875	5786
637.936	6678
637.997	5876
638.058	6225
638.119	6529
638.179	5819
638.240	5791
638.301	5959
638.362	4663
638.423	5031
638.483	6405
638.544	4999
638.605	5641
638.666	4733
638.726	5513
638.787	6771
638.848	5276
638.908	4826
638.969	5525
639.030	5411
639.090	3999
639.151	4314
639.211	5662
639.272	6330
639.332	6375
639.393	6434
639.453	5258
639.514	6212
639.574	5755
639.635	4059
639.695	5189
639.756	4815
639.816	5213
639.877	4813
639.937	6663
639.997	6903
640.058	4481
640.118	4099
640.178	5930
640.239	4364
640.299	4999
640.359	5444
640.420	6284
640.480	6984
640.540	7754
640.600	8878
640.661	6796
640.721	6313
640.781	10359
640.841	7602
640.901	5716
640.961	5594
641.021	5168
641.082	5649
641.142	4873
641.202	5677
641.262	3249
641.322	5149
641.382	3287
641.442	4355
641.502	4450
641.562	5252
641.622	4117
641.682	5843
641.742	6569
641.802	5776
641.861	4899
641.921	4557
641.981	4979
642.041	4220
642.101	5128
642.161	2921
642.221	4040
642.280	5246
642.340	3699
642.400	3452
642.460	4716
642.519	3966
642.579	4677
642.639	5539
642.698	2609
642.758	6827
642.818	4256
642.877	3932
642.937	4437
642.997	5342
643.056	5686
643.116	4336
643.175	6183
643.235	4679
643.294	5812
643.354	5992
643.414	8028
643.473	9959
643.532	13025
643.592	19547
643.651	34609
643.711	65873
643.770	138411
643.830	347722
643.889	684024
643.948	153782
644.008	26092
644.067	14325
644.126	10036
644.186	8514
644.245	7421
644.304	4861
644.363	7963
644.423	4528
644.482	6048
644.541	7092
644.600	5115
644.659	9652
644.719	12124
644.778	19934
644.837	37170
644.896	83842
644.955	191249
645.014	55855
645.073	11481
645.132	7834
645.191	7422
645.250	5546
645.309	7899
645.368	7500
645.427	11059
645.486	19795
645.545	35891
645.604	8958
645.663	6374
645.722	5722
645.781	6892
645.840	8990
645.898	11516
645.957	19565
646.016	32459
646.075	63260
646.134	129857
646.192	361799
646.251	489350
646.310	67190
646.369	17628
646.427	14104
646.486	9272
646.545	6524
646.603	6548
646.662	5555
646.721	5280
646.779	4419
646.838	3884
646.896	8524
646.955	11610
647.014	21526
647.072	44253
647.131	123319
647.189	52163
647.248	6202
647.306	5078
647.365	5285
647.423	2301
647.481	4847
647.540	2237
647.598	3768
647.657	3092
647.715	3919
647.773	2039
647.832	4119
647.890	2185
647.948	3084
648.007	2741
648.065	1730
648.123	2380
648.181	4391
648.240	3408
648.298	2307
648.356	1996
648.414	2686
648.472	1806
648.531	2966
648.589	2394
648.647	2703
648.705	2432
648.763	2840
648.821	2985
648.879	3388
648.937	3510
648.995	6133
649.053	8446
649.111	15122
649.169	26305
649.227	50964
649.285	113869
649.343	324156
649.401	135175
649.459	18491
649.516	10907
649.574	8290
649.632	16576
649.690	18163
649.748	10940
649.806	16265
649.863	34215
649.921	86672
649.979	51457
650.037	6809
650.094	2663
650.152	3149
650.210	1507
650.268	3103
650.325	3131
650.383	4331
650.440	1343
650.498	2463
650.556	2068
650.613	1242
650.671	1856
650.728	2247
650.786	1838
650.843	3584
650.901	962
650.958	2001
651.016	1363
651.073	1686
651.131	-5
651.188	351
651.246	895
651.303	-209
651.360	1752
651.418	1095
651.475	1763
651.532	581
651.590	1275
651.647	187
651.704	631
651.762	1721
651.819	1136
651.876	150
651.933	728
651.990	1664
652.048	-183
652.105	-231
652.162	590
652.219	1128
652.276	1334
652.333	2137
652.390	-271
652.448	1615
652.505	384
652.562	981
652.619	1844
652.676	2889
652.733	2395
652.790	1538
652.847	-137
652.904	1879
652.961	-585
653.017	-47
653.074	694
653.131	474
653.188	-538
653.245	475
653.302	1020
653.359	-156
653.415	799
653.472	-122
653.529	1098
653.586	-66
653.642	740
653.699	1170
653.756	42
653.813	263
653.869	1036
653.926	1128
653.983	-329
654.039	1493
654.096	621
654.152	1943
654.209	-852
654.266	857
654.322	-302
654.379	1060
654.435	532
654.492	472
654.548	839
654.605	779
654.661	1587
654.717	917
654.774	1879
654.830	922
654.887	-27
654.943	793
655.000	1943
655.056	710
655.112	41
655.168	209
655.225	919
655.281	770
655.337	1112
655.394	-205
655.450	872
655.506	1389
655.562	742
655.618	655
655.675	-594
655.731	-183
655.787	502
655.843	620
655.899	-688
655.955	833
656.011	547
656.067	416
656.123	1755
656.179	491
656.235	1614
656.291	-464
656.347	1361
656.403	983
656.459	298
656.515	398
656.571	878
656.627	-19
656.683	441
656.739	928
656.795	898
656.850	874
656.906	1150
656.962	1284
657.018	-228
657.074	965
657.129	2306
657.185	2484
657.241	8454
657.297	3307
657.352	1411
657.408	557
657.464	743
657.519	288
657.575	-309
657.630	-20
657.686	999
657.742	-576
657.797	-16
657.853	72
657.908	626
657.964	-623
658.019	548
658.075	460
658.130	833
658.186	-539
658.241	923
658.297	-260
658.352	121
658.407	405
658.463	-410
658.518	776
658.573	-62
658.629	-42
658.684	-681
658.739	646
658.795	-435
658.850	962
658.905	464
658.960	466
659.016	-329
659.071	456
659.126	919
659.181	-394
659.236	1535
659.291	2279
659.346	-273
659.401	1546
659.457	1018
659.512	894
659.567	897
659.622	-45
659.677	-197
659.732	98
659.787	-160
659.842	-105
659.897	494
659.952	841
660.007	-58
660.061	738
660.116	-701
660.171	80
660.226	-146
660.281	1021
660.336	-1226
660.391	730
660.445	-1090
660.500	247
660.555	370
660.610	156
660.664	-508
660.719	-516
660.774	-78
660.828	832
660.883	-74
660.938	470
660.992	-948
661.047	111
661.101	129
661.156	244
661.211	-446
661.265	-363
661.320	83
661.374	-181
661.429	93
661.483	757
661.538	-315
661.592	-349
661.647	694
661.701	2076
661.755	427
661.810	633
661.864	-414
661.919	-373
661.973	-365
662.027	-863
662.081	-339
662.136	211
662.190	89
662.244	-518
662.299	-106
662.353	-501
662.407	-136
662.461	-1077
662.515	430
662.569	80
662.624	857
662.678	-501
662.732	-573
662.786	-85
662.840	-364
662.894	338
662.948	-299
663.002	-366
663.056	101
663.110	-259
663.164	267
663.218	60
663.272	-439
663.326	537
663.380	17
663.434	-50
663.488	-126
663.542	-367
663.595	-139
663.649	-208
663.703	454
663.757	273
663.811	-125
663.864	-334
663.918	356
663.972	-487
664.026	-278
664.079	-406
664.133	3
664.187	421
664.240	-498
664.294	-11
664.348	686
664.401	206
664.455	305
664.508	-571
664.562	-238
664.615	-318
664.669	-166
664.722	-707
664.776	-230
664.829	-43
664.883	224
664.936	-821
664.990	14
665.043	-117
665.097	-1016
665.150	365
665.203	-449
665.257	-267
665.310	-243
665.363	540
665.417	-247
665.470	-441
665.523	68
665.576	-391
665.630	-99
665.683	34
665.736	103
665.789	-204
665.842	-394
665.895	-586
665.949	-673
666.002	-536
666.055	26
666.108	416
666.161	-380
666.214	242
666.267	-8
666.320	672
666.373	829
666.426	-54
666.479	-683
666.532	118
666.585	-391
666.638	101
666.691	-595
666.744	-297
666.796	-657
666.849	-471
666.902	-379
666.955	-630
667.008	-455
667.060	34
667.113	-362
667.166	-275
667.219	331
667.271	-62
667.324	-179
667.377	-9
667.430	319
667.482	41
667.535	316
667.587	-523
667.640	-878
667.693	-322
667.745	-294
667.798	989
667.850	-122
667.903	71
667.955	7
668.008	-173
668.060	-75
668.113	62
668.165	-511
668.218	-240
668.270	93
668.322	-215
668.375	-536
668.427	467
668.479	-119
668.532	287
668.584	-414
668.636	-239
668.689	108
668.741	-487
668.793	-418
668.845	275
668.898	398
668.950	-290
669.002	-469
669.054	-480
669.106	-257
669.158	-14
669.211	205
669.263	268
669.315	671
669.367	244
669.419	352
669.471	2421
669.523	1463
669.575	3717
669.627	1675
669.679	1258
669.731	780
669.783	1299
669.835	1562
669.886	314
669.938	316
669.990	-440
670.042	-16
670.094	71
670.146	-77
670.197	-137
670.249	570
670.301	294
670.353	1088
670.404	2184
670.456	3106
670.508	5140
670.560	9985
670.611	17641
670.663	29706
670.715	80632
670.766	119707
670.818	29012
670.869	4038
670.921	2373
670.972	885
671.024	649
671.075	524
671.127	597
671.178	129
671.230	162
671.281	316
671.333	676
671.384	318
671.436	1174
671.487	2208
671.538	4527
671.590	7963
671.641	14081
671.692	26584
671.744	50942
671.795	32163
671.846	10130
671.897	3267
671.949	2827
672.000	1439
672.051	-77
672.102	564
672.153	-372
672.204	290
672.256	-489
672.307	-249
672.358	185
672.409	-744
672.460	56
672.511	-953
672.562	-987
672.613	-67
672.664	-338
672.715	-822
672.766	-510
672.817	-202
672.868	-682
672.919	-351
672.970	-707
673.021	-164
673.071	-581
673.122	-488
673.173	-463
673.224	-360
673.275	-726
673.326	-1394
673.376	-774
673.427	-1112
673.478	-1018
673.528	138
673.579	-866
673.630	-1125
673.680	20
673.731	-874
673.782	-710
673.832	-1074
673.883	-114
673.934	-437
673.984	-1303
674.035	-822
674.085	-1162
674.136	-215
674.186	153
674.237	-102
674.287	-820
674.338	-714
674.388	-1067
674.438	-786
674.489	203
674.539	-357
674.589	-239
674.640	-471
674.690	-765
674.740	-976
674.791	-1195
674.841	-701
674.891	-274
674.942	-837
674.992	-629
675.042	-336
675.092	-992
675.142	-847
675.193	-778
675.243	-1177
675.293	-294
675.343	-841
675.393	-1192
675.443	-116
675.493	-366
675.543	-613
675.593	-546
675.643	-785
675.693	-76
675.743	-813
675.793	-567
675.843	-1294
675.893	-947
675.943	-121
675.993	-711
676.043	-913
676.093	-757
676.142	-2087
676.192	-1100
676.242	-1071
676.292	-735
676.341	-666
676.391	-572
676.441	-678
676.491	-1474
676.540	-997
676.590	-1024
676.640	-578
676.689	-613
676.739	-1012
676.789	-674
676.838	-450
676.888	161
676.937	-1501
676.987	-1157
677.037	-967
677.086	-1098
677.136	-711
677.185	-1429
677.235	-1357
677.284	-950
677.333	-1205
677.383	-707
677.432	-1135
677.482	-1690
677.531	-1234
677.580	-1207
677.630	-794
677.679	-1403
677.728	-907
677.778	-903
677.827	-769
677.876	-1131
677.925	-1408
677.975	-704
678.024	-828
678.073	-186
678.122	-955
678.171	-1024
678.220	-783
678.269	-207
678.319	-482
678.368	-488
678.417	23
678.466	-405
678.515	-468
678.564	-442
678.613	-886
678.662	-1111
678.711	-1319
678.760	-1006
678.809	-1161
678.857	-812
678.906	55
678.955	-1053
679.004	-532
679.053	-422
679.102	-914
679.151	-1071
679.199	-1684
679.248	-1437
679.297	-1210
679.346	-837
679.394	-1491
679.443	-1094
679.492	-1377
679.540	-922
679.589	-441
679.638	-2132
679.686	-908
679.735	-540
679.784	-594
679.832	-1589
679.881	-1741
679.929	-816
679.978	-1356
680.026	-723
680.075	-693
680.123	-1712
680.172	-1120
680.220	-794
680.268	-1787
680.317	-1836
680.365	-1552
680.414	-1026
680.462	-1381
680.510	-759
680.559	-1713
680.607	-996
680.655	-1356
680.703	-2148
680.752	-1169
680.800	-1344
680.848	-1539
680.896	-836
680.945	-1390
680.993	-1525
681.041	-1560
681.089	-713
681.137	-1124
681.185	-1025
681.233	-986
681.258	-1194
681.281	-1400
681.329	-910
681.377	-1759
681.380	-1704
681.425	-901
681.473	-750
681.502	-1113
681.521	-1385
681.569	-178
681.617	-1558
681.624	-1513
681.665	-1291
681.713	-1139
681.745	-1162
681.761	-1187
681.809	-1307
681.857	-435
681.867	-716
681.904	-1724
681.952	-411
681.989	-590
682.000	-656
682.048	-1433
682.096	-1179
682.111	-1102
682.143	-958
682.191	-631
682.233	-234
682.239	-187
682.286	-707
682.334	-657
682.354	-806
682.382	-1026
682.430	-741
682.476	-796
682.477	-805
682.525	-1168
682.572	-1554
682.598	-923
682.620	-379
682.667	-608
682.715	-939
682.720	-925
682.763	-961
682.810	-1041
682.841	-1033
682.857	-1026
682.905	-248
682.952	-450
682.963	-573
683.000	-1024
683.047	-660
683.085	-576
683.095	-571
683.142	429
683.190	-662
683.206	-847
683.237	-1235
683.284	-654
683.328	-1000
683.332	-1035
683.379	15
683.426	-398
683.449	-314
683.473	-217
683.521	-227
683.568	-216
683.571	-205
683.615	-208
683.662	204
683.693	-135
683.709	-329
683.757	-647
683.804	-342
683.814	-354
683.851	-376
683.898	-67
683.936	25
683.945	24
683.992	-338
684.039	-10
684.057	-57
684.086	-114
684.133	-98
684.179	-312
684.180	-326
684.227	-238
684.274	444
684.300	303
684.321	159
684.368	-523
684.415	558
684.422	447
684.462	-219
684.509	318
684.543	-15
684.556	-129
684.603	574
684.649	-50
684.665	135
684.696	458
684.743	-139
684.786	328
684.790	372
684.837	-825
684.883	502
684.908	247
684.930	-90
684.977	68
685.023	501
685.029	456
685.070	145
685.117	-113
685.150	-189
685.164	-217
685.210	240
685.257	991
685.272	860
685.303	570
685.350	491
685.393	-277
685.396	-341
685.443	330
685.490	1320
685.514	913
685.536	518
685.583	638
685.629	375
685.636	364
685.675	296
685.722	378
685.757	143
685.768	57
685.815	185
685.861	816
685.878	639
685.908	384
685.954	531
686.000	816
686.000	817
686.047	773
686.093	902
686.121	669
686.139	530
686.185	720
686.232	357
686.242	548
686.278	1064
686.324	451
686.363	497
686.370	525
686.416	567
686.463	1482
686.484	1386
686.509	1304
686.555	1057
686.601	743
686.606	823
686.647	1324
686.693	788
686.727	589
686.739	567
686.785	523
686.831	390
686.848	498
686.877	658
686.923	823
686.969	485
686.969	482
687.015	1014
687.061	1229
687.090	1317
687.107	1323
687.153	1266
687.199	1220
687.211	1165
687.245	1110
687.291	959
687.332	1489
687.336	1541
687.382	1095
687.428	910
687.453	1216
687.474	1404
687.520	1114
687.565	1440
687.574	1344
687.611	1269
687.657	1464
687.695	2290
687.702	2486
687.748	2678
687.794	3872
687.816	4045
687.839	3613
687.885	2894
687.931	2377
687.937	2237
687.976	1703
688.022	1212
688.058	1378
688.067	1475
688.113	1752
688.158	1027
688.179	1236
688.204	1513
688.249	1576
688.295	1161
688.300	1218
688.340	1603
688.386	1721
688.421	1310
688.431	1194
688.477	1581
688.522	1503
688.542	1625
688.567	1881
688.613	1797
688.658	1713
688.663	1720
688.703	1634
688.749	1596
688.784	1710
688.794	1767
688.839	2008
688.884	2089
688.905	1931
688.930	1730
688.975	2289
689.020	2010
689.026	1972
689.065	1687
689.110	1760
689.146	1902
689.155	1973
689.201	2123
689.246	2668
689.267	2523
689.291	2191
689.336	2256
689.381	1915
689.388	1875
689.426	1993
689.471	2363
689.509	1891
689.516	1764
689.561	1945
689.606	2027
689.630	1828
689.651	1759
689.696	1727
689.741	2073
689.750	2077
689.785	2171
689.830	2360
689.871	2335
689.875	2316
689.920	2240
689.965	2308
689.992	2128
690.010	2007
690.054	1748
690.099	1862
690.112	1800
690.144	1812
690.189	1710
690.233	1933
690.233	1939
690.278	2069
690.323	2129
690.354	1983
690.367	1969
690.412	2526
690.457	2343
690.474	2543
690.501	2675
690.546	2177
690.590	2506
690.595	2452
690.635	2357
690.680	2359
690.716	2862
690.724	2974
690.769	2813
690.813	3439
690.836	3245
690.857	3265
690.902	3931
690.946	4778
690.957	4857
690.991	5897
691.035	7599
691.077	9305
691.080	9313
691.124	8516
691.168	8085
691.198	7657
691.213	7217
691.257	5805
691.301	4815
691.318	4363
691.346	4126
691.390	3502
691.434	3202
691.439	3090
691.478	2520
691.522	2770
691.559	2667
691.567	2695
691.611	2790
691.655	2792
691.680	2850
691.699	2793
691.743	2773
691.787	2248
691.800	2262
691.831	2478
691.875	1996
691.919	2224
691.921	2218
691.964	2428
692.008	2758
692.041	2851
692.052	2871
692.096	2901
692.139	3230
692.162	3226
692.183	3079
692.227	2744
692.271	2416
692.282	2387
692.315	2610
692.359	2717
692.402	2728
692.403	2737
692.447	2879
692.490	3011
692.523	3247
692.534	3294
692.578	3204
692.622	3186
692.643	2995
692.666	2754
692.709	2838
692.753	2408
692.763	2351
692.797	2426
692.840	2545
692.884	2687
692.884	2698
692.928	3121
692.971	3111
693.004	3174
693.015	3196
693.059	3113
693.102	3776
693.124	3626
693.146	3453
693.189	3383
693.233	3420
693.245	3431
693.276	3398
693.320	3217
693.363	3027
693.365	3013
693.407	3456
693.450	3820
693.485	4134
693.493	4225
693.537	4733
693.580	4880
693.605	5250
693.624	5876
693.667	7110
693.710	8444
693.725	8884
693.753	11302
693.797	15059
693.840	19015
693.845	19409
693.883	18472
693.926	16872
693.966	15929
693.970	15656
694.013	12156
694.056	9262
694.086	6830
694.099	6491
694.142	5752
694.185	4876
694.206	4520
694.229	4631
694.272	4634
694.315	4498
694.326	4468
694.358	4313
694.401	4267
694.444	4169
694.446	4146
694.487	4166
694.530	4193
694.566	4307
694.573	4294
694.616	3683
694.659	3791
694.686	3508
694.702	3574
694.745	4064
694.787	4211
694.806	4412
694.830	4404
694.873	4198
694.916	3756
694.926	3706
694.959	3712
695.002	3600
695.044	3577
695.046	3573
695.087	3916
695.130	3559
695.166	3812
695.172	3881
695.215	3856
695.258	4142
695.286	4288
695.301	4352
695.343	4240
695.386	4312
695.406	4272
695.428	4209
695.471	4145
695.514	4290
695.526	4202
695.556	4249
695.599	4543
695.641	4766
695.646	4788
695.684	4700
695.726	4438
695.766	4233
695.769	4250
695.811	4259
695.854	4424
695.886	4333
695.896	4262
695.938	4080
695.981	3726
696.005	3593
696.023	3700
696.065	4013
696.108	4334
696.125	4322
696.150	4202
696.192	4257
696.235	4150
696.245	4159
696.277	4427
696.319	4648
696.361	4735
696.365	4744
696.404	5121
696.446	5471
696.485	5569
696.488	5563
696.530	5444
696.572	5373
696.604	5129
696.614	5124
696.656	5209
696.698	5266
696.724	5253
696.740	5201
696.783	5243
696.825	5010
696.844	4884
696.867	4930
696.909	5112
696.951	5217
696.964	5252
696.992	5220
697.034	4983
697.076	4937
697.083	4900
697.118	5243
697.160	5740
697.202	6133
697.203	6126
697.244	5853
697.286	5477
697.323	5117
697.327	5169
697.369	5510
697.411	5894
697.442	6080
697.453	6002
697.494	5636
697.536	5371
697.562	5123
697.578	5153
697.620	5297
697.661	5290
697.682	5280
697.703	5389
697.744	5657
697.786	5930
697.801	5974
697.828	5904
697.869	5791
697.911	5680
697.921	5638
697.952	5491
697.994	5243
698.035	5054
698.040	5008
698.077	5260
698.118	5521
698.160	5871
698.160	5854
698.201	5849
698.243	5753
698.279	5761
698.284	5815
698.325	6068
698.367	6382
698.399	6552
698.408	6522
698.449	6334
698.491	6136
698.518	5967
698.532	6100
698.573	6486
698.614	6853
698.638	7036
698.656	6839
698.697	6339
698.738	5828
698.757	5571
698.779	5689
698.820	5883
698.862	6081
698.877	6132
698.903	6170
698.944	6205
698.985	6240
698.996	6231
699.026	6261
699.067	6279
699.116	6282
699.235	6827
699.354	6867
699.474	5812
699.593	6000
699.713	6897
699.832	6151
699.951	6394
700.070	6094
700.190	5698
700.309	6348
700.428	6091
700.547	5561
700.667	5507
700.786	6264
700.905	6307
701.024	5774
701.143	5159
701.262	6074
701.381	5299
701.500	5897
701.619	6191
701.738	6077
701.857	6257
701.976	6327
702.095	5451
702.214	6134
702.333	5685
702.452	5612
702.571	5765
702.690	6242
702.809	5528
702.928	5595
703.047	5958
703.165	5476
703.284	4910
703.403	5460
703.522	5143
703.640	5650
703.759	5520
703.878	6884
703.997	5310
704.115	5043
704.234	4874
704.353	5975
704.471	5141
704.590	4923
704.708	4661
704.827	5974
704.946	4613
705.064	3720
705.183	4378
705.301	4748
705.420	5085
705.538	4461
705.656	4565
705.775	5603
705.893	10306
706.012	12369
706.130	5904
706.249	5297
706.367	4315
706.485	4402
706.604	3279
706.722	5026
706.840	6463
706.958	11414
707.077	6999
707.195	4116
707.313	4855
707.431	4010
707.549	4131
707.668	4060
707.786	4367
707.904	4036
708.022	4280
708.140	4542
708.258	4000
708.376	4657
708.494	4458
708.612	4701
708.730	4572
708.848	4974
708.966	4375
709.084	5151
709.202	4097
709.320	4306
709.438	4336
709.556	4340
709.674	3752
709.791	4980
709.909	3770
710.027	4900
710.145	4196
710.263	5018
710.380	3528
710.498	3750
710.616	3281
710.733	3932
710.851	4879
710.969	4294
711.086	3759
711.204	4202
711.322	4054
711.439	3555
711.557	4161
711.674	4220
711.792	3828
711.909	4502
712.027	4656
712.144	3626
712.262	3861
712.379	3973
712.497	4129
712.614	3865
712.732	3689
712.849	3607
712.966	3929
713.084	4471
713.201	4146
713.318	4481
713.436	3700
713.553	3952
713.670	5276
713.787	5106
713.905	4075
714.022	4889
714.139	5024
714.256	8031
714.373	13860
714.490	29798
714.608	91557
714.725	417553
714.842	406698
714.959	24792
715.076	9360
715.193	7313
715.310	6061
715.427	4137
715.544	3953
715.661	4339
715.778	4020
715.895	4495
716.011	4236
716.128	4575
716.245	3714
716.362	5093
716.479	3688
716.596	3676
716.713	4693
716.829	3733
716.946	4348
717.063	3307
717.180	3493
717.296	3588
717.413	3355
717.530	4332
717.646	3336
717.763	3190
717.880	2802
717.996	2918
718.113	2165
718.229	2839
718.346	2590
718.462	2703
718.579	3190
718.695	4998
718.812	4486
718.928	4030
719.045	3686
719.161	2615
719.277	2827
719.394	3930
719.510	4069
719.626	3721
719.743	5819
719.859	11099
719.975	24285
720.092	115480
720.208	262757
720.324	24486
720.440	5567
720.557	4681
720.673	4652
720.789	4078
720.905	5197
721.021	3747
721.137	2556
721.253	2947
721.369	2866
721.486	2733
721.602	3485
721.718	2986
721.834	2720
721.950	2561
722.066	3179
722.181	2213
722.297	2470
722.413	3141
722.529	3023
722.645	3234
722.761	2145
722.877	2640
722.993	3168
723.108	4579
723.224	3711
723.340	3458
723.456	3101
723.571	3154
723.687	1853
723.803	3207
723.918	2508
724.034	3044
724.150	2553
724.265	2253
724.381	2758
724.497	3021
724.612	2496
724.728	1636
724.843	2180
724.959	3039
725.074	3577
725.190	4017
725.305	2487
725.421	2506
725.536	1807
725.651	2429
725.767	2206
725.882	2143
725.997	2373
726.113	2556
726.228	2304
726.343	1867
726.459	2509
726.574	2658
726.689	1541
726.804	1630
726.920	2709
727.035	2041
727.150	1640
727.265	2009
727.380	1552
727.495	3400
727.610	2240
727.725	2558
727.841	2973
727.956	5876
728.071	4655
728.186	1641
728.301	1995
728.416	1399
728.531	1987
728.645	2089
728.760	2586
728.875	3453
728.990	2892
729.105	2619
729.220	3197
729.335	2414
729.449	2466
729.564	2909
729.679	1679
729.794	1517
729.908	1862
730.023	2183
730.138	1488
730.253	1965
730.367	1736
730.482	1839
730.596	2174
730.711	2675
730.826	4392
730.940	4113
731.055	2549
731.169	2125
731.284	2544
731.398	2221
731.513	2604
731.627	3326
731.742	3797
731.856	4043
731.970	4328
732.085	5391
732.199	7990
732.313	16878
732.428	46558
732.542	142215
732.656	77364
732.771	12930
732.885	6440
732.999	5054
733.113	5242
733.227	4486
733.342	3676
733.456	3566
733.570	3481
733.684	3382
733.798	3346
733.912	3411
734.026	3224
734.140	3669
734.254	3455
734.368	3252
734.482	3881
734.596	2329
734.710	3278
734.824	2797
734.938	3490
735.052	2744
735.166	3195
735.280	3487
735.393	2438
735.507	2753
735.621	1995
735.735	3609
735.849	1975
735.962	3541
736.076	2330
736.190	3067
736.303	3029
736.417	3953
736.531	2715
736.644	2990
736.758	2623
736.872	2279
736.985	2505
737.099	3695
737.212	2477
737.326	2519
737.439	2276
737.553	3153
737.666	2985
737.780	2870
737.893	3427
738.007	3095
738.120	3083
738.233	2882
738.347	2399
738.460	2587
738.573	3170
738.687	2137
738.800	2523
738.913	3016
739.026	2847
739.140	3110
739.253	3353
739.366	3093
739.479	2620
739.592	2133
739.705	2413
739.818	1763
739.932	2186
740.045	2541
740.158	1915
740.271	3027
740.384	2003
740.497	3441
740.610	2886
740.723	3920
740.836	3527
740.949	3685
741.062	2709
741.174	3001
741.287	2627
741.400	2061
741.513	3055
741.626	3242
741.739	2984
741.851	2377
741.964	2621
742.077	1325
742.189	2781
742.302	3868
742.415	3214
742.527	3121
742.640	2201
742.753	2344
742.865	1977
742.978	1609
743.090	1974
743.203	2428
743.316	2669
743.428	2136
743.541	1284
743.653	1563
743.766	1411
743.878	1743
743.990	2279
744.103	1770
744.215	2172
744.327	1701
744.440	1856
744.552	2108
744.664	2097
744.777	1724
744.889	1734
745.001	2827
745.113	1452
745.226	2239
745.338	1867
745.450	857
745.562	1539
745.674	2020
745.786	2269
745.898	1255
746.010	1313
746.122	1231
746.234	982
746.347	1154
746.459	2113
746.570	1230
746.682	2110
746.794	2403
746.906	1431
747.018	2051
747.130	2067
747.242	1627
747.354	1833
747.466	2459
747.577	1813
747.689	2402
747.801	2291
747.913	2516
748.024	1153
748.136	890
748.248	1523
748.359	1443
748.471	2738
748.583	1077
748.694	1952
748.806	1604
748.918	1617
749.029	1507
749.141	1487
749.252	1509
749.364	934
749.475	1574
749.587	1411
749.698	1455
749.809	2041
749.921	1387
750.032	1463
750.144	1406
750.255	1723
750.366	1374
750.478	1164
750.589	1828
750.700	604
750.811	1295
750.923	2067
751.034	2857
751.145	2940
751.256	743
751.367	2389
751.479	1432
751.590	1956
751.701	1531
751.812	760
751.923	1762
752.034	2205
752.145	1416
752.256	962
752.367	1561
752.478	697
752.589	1678
752.700	1337
752.811	1196
752.922	1879
753.032	154
753.143	1119
753.254	728
753.365	1550
753.476	1888
753.586	1686
753.697	1417
753.808	1045
753.919	239
754.029	1126
754.140	2049
754.251	1365
754.361	1491
754.472	795
754.582	1679
754.693	1525
754.804	1529
754.914	400
755.025	785
755.135	705
755.246	968
755.356	230
755.466	1080
755.577	1688
755.687	1906
755.798	1019
755.908	1532
756.018	969
756.129	1986
756.239	966
756.349	1936
756.460	1166
756.570	1893
756.680	1531
756.790	1732
756.900	1535
757.011	931
757.121	301
757.231	813
757.341	922
757.451	1053
757.561	1709
757.671	1041
757.781	812
757.891	2308
758.001	1079
758.111	1181
758.221	1750
758.331	2213
758.441	1776
758.551	1604
758.661	1667
758.771	1376
758.880	1363
758.990	820
759.100	1644
759.210	861
759.320	1865
759.429	2113
759.539	1948
759.649	2497
759.758	2030
759.868	2181
759.978	1523
760.087	2536
760.197	2686
760.307	2360
760.416	2511
760.526	1236
760.635	2353
760.745	2451
760.854	2294
760.964	3537
761.073	2983
761.182	3365
761.292	2134
761.401	2756
761.511	1327
761.620	1831
761.729	1574
761.839	1176
761.948	1604
762.057	1761
762.166	2254
762.276	1242
762.385	2333
762.494	1837
762.603	1854
762.712	2126
762.822	1294
762.931	1443
763.040	1938
763.149	1395
763.258	1811
763.367	2349
763.476	1225
763.585	1666
763.694	1922
763.803	1828
763.912	2365
764.021	2638
764.130	2305
764.238	2216
764.347	2460
764.456	3124
764.565	2431
764.674	4207
764.783	3113
764.891	2642
765.000	4237
765.109	4038
765.217	3724
765.326	6052
765.435	6273
765.543	9644
765.652	9727
765.761	13720
765.869	19915
765.978	32122
766.086	60866
766.195	121042
766.303	302114
766.412	637841
766.520	531302
766.629	184886
766.737	70367
766.846	40050
766.954	24464
767.062	19088
767.171	14454
767.279	10938
767.387	8071
767.496	8062
767.604	6603
767.712	5758
767.820	5010
767.928	5055
768.037	3868
768.145	5112
768.253	4790
768.361	4168
768.469	3567
768.577	3996
768.685	4665
768.793	5006
768.901	4837
769.009	6073
769.117	6687
769.225	8881
769.333	13495
769.441	22700
769.549	45583
769.657	107851
769.765	319958
769.873	528071
769.981	209950
770.088	54382
770.196	23869
770.304	17205
770.412	11495
770.519	9045
770.627	7158
770.735	5891
770.842	5074
770.950	4193
771.058	2674
771.165	4702
771.273	3442
771.380	3753
771.488	3512
771.595	3347
771.703	3225
771.810	2838
771.918	2537
772.025	3179
772.133	2443
772.240	2745
772.348	3766
772.455	2785
772.562	2619
772.670	2226
772.777	2358
772.884	2685
772.991	2776
773.099	2965
773.206	1676
773.313	2072
773.420	1562
773.528	1965
773.635	1794
773.742	2278
773.849	2551
773.956	2220
774.063	1735
774.170	2309
774.277	1889
774.384	2591
774.491	2000
774.598	1739
774.705	2072
774.812	1717
774.919	2293
775.026	1527
775.133	1604
775.239	2115
775.346	1581
775.453	1616
775.560	2036
775.667	1937
775.773	1236
775.880	2264
775.987	1699
776.093	2315
776.200	2053
776.307	1021
776.413	2694
776.520	1901
776.627	1616
776.733	2017
776.840	912
776.946	3425
777.053	1878
777.159	2818
777.266	339
777.372	3520
777.478	2622
777.585	2305
777.691	659
777.798	1539
777.904	1914
778.010	1759
778.117	2537
778.223	2325
778.329	899
778.435	1492
778.542	2220
778.648	1159
778.754	1154
778.860	1167
778.966	1168
779.072	2298
779.178	1252
779.284	1940
779.391	1064
779.497	-135
779.603	3735
779.708	789
779.815	3545
779.920	11827
780.026	17870
780.132	2570
780.238	1102
780.344	2299
780.450	1417
780.556	1054
780.661	653
780.767	784
780.873	856
780.979	1023
781.085	1215
781.190	1716
781.296	1092
781.402	715
781.507	1256
781.613	1091
781.719	169
781.824	1376
781.930	2374
782.035	1032
782.141	1413
782.246	861
782.352	952
782.457	920
782.563	950
782.668	1122
782.773	1600
782.879	1237
782.984	927
783.090	1912
783.195	1165
783.300	961
783.405	1008
783.511	1289
783.616	1106
783.721	795
783.826	1599
783.932	1862
784.037	1537
784.142	2175
784.247	1024
784.352	1552
784.457	1420
784.562	842
784.667	1319
784.772	1244
784.877	168
784.982	1959
785.087	1209
785.192	1896
785.297	632
785.402	887
785.507	1297
785.611	1439
785.716	845
785.821	465
785.926	344
786.031	1030
786.135	1029
786.240	1039
786.345	207
786.450	1331
786.554	105
786.659	-188
786.763	938
786.868	1349
786.973	1324
787.077	1011
787.182	97
787.286	1093
787.391	560
787.495	433
787.600	1058
787.704	483
787.809	1176
787.913	372
788.017	955
788.122	29
788.226	122
788.330	-516
788.435	997
788.539	760
788.643	672
788.747	1169
788.852	-505
788.956	806
789.060	844
789.164	465
789.268	339
789.372	1066
789.476	-371
789.580	532
789.684	-562
789.788	775
789.892	-126
789.996	1212
790.100	-380
790.204	295
790.308	357
790.412	206
790.516	-91
790.620	78
790.724	729
790.828	195
790.931	-459
791.035	1737
791.139	224
791.242	-557
791.346	928
791.450	399
791.554	444
791.657	-129
791.761	635
791.864	1416
791.968	257
792.072	417
792.175	889
792.279	515
792.382	-328
792.486	560
792.589	516
792.693	729
792.796	337
792.899	954
793.003	758
793.106	-801
793.209	316
793.313	1983
793.416	-908
793.519	1267
793.623	1110
793.726	730
793.829	438
793.932	1140
794.035	-93
794.138	1971
794.242	725
794.345	97
794.448	954
794.551	489
794.654	5426
794.757	8550
794.860	1276
794.963	694
795.066	-172
795.169	1353
795.272	-246
795.375	673
795.477	-1169
795.580	850
795.683	-692
795.786	464
795.889	-828
795.991	701
796.094	494
796.197	-385
796.300	742
796.402	220
796.505	-590
796.608	427
796.710	666
796.813	355
796.915	104
797.018	319
797.120	996
797.223	-173
797.326	1941
797.428	-212
797.530	17
797.633	136
797.735	649
797.838	241
797.940	828
798.042	-172
798.145	-277
798.247	376
798.349	-871
798.452	150
798.554	-108
798.656	-301
798.758	1040
798.860	142
798.962	-251
799.065	-330
799.167	-464
799.269	1546
799.371	1312
799.473	900
799.575	-407
799.677	601
799.779	1309
799.881	-384
799.983	626
800.085	443
800.187	-403
800.289	-1318
800.390	169
800.492	585
800.594	1130
800.696	204
800.798	341
800.899	89
801.001	-895
801.103	-293
801.205	149
801.306	493
801.408	-1151
801.509	-144
801.611	377
801.713	885
801.814	-236
801.916	-308
802.017	126
802.119	-104
802.220	-72
802.322	-1759
802.423	1110
802.525	-1321
802.626	77
802.727	965
802.829	695
802.930	-1380
803.031	917
803.133	202
803.234	190
803.335	195
803.436	-967
803.538	595
803.639	-689
803.740	220
803.841	-747
803.942	171
804.043	55
804.144	-936
804.245	-154
804.346	-777
804.447	-691
804.548	658
804.649	683
804.750	-124
804.851	-27
804.952	-582
805.053	303
805.154	-1354
805.255	39
805.355	-248
805.456	-539
805.557	-733
805.658	-1728
805.758	406
805.859	303
805.960	972
806.061	-701
806.161	-63
806.262	282
806.362	0
806.463	-516
806.564	287
806.664	382
806.765	-567
806.865	113
806.966	-134
807.066	-1258
807.166	1170
807.267	464
807.367	-444
807.468	928
807.568	-928
807.668	672
807.769	783
807.869	-543
807.969	0
808.069	75
808.170	165
808.270	428
808.370	741
808.470	725
808.570	74
808.670	-130
808.770	840
808.870	209
808.970	490
809.070	-1135
809.170	-127
809.271	160
809.370	112
809.470	-311
809.570	-197
809.670	15
809.770	-107
809.870	263
809.970	-510
810.070	-96
810.169	61
810.269	-991
810.369	633
810.469	-41
810.568	-271
810.668	-607
810.768	-69
810.867	-306
810.967	-784
811.066	-662
811.166	389
811.265	-8
811.365	-921
811.464	-949
811.564	482
811.663	311
811.763	-596
811.862	884
811.962	847
812.061	-1007
812.160	-44
812.260	-332
812.359	843
812.458	-626
812.557	554
812.657	-153
812.756	635
812.855	-437
812.954	-131
813.053	328
813.153	810
813.252	-1060
813.351	70
813.450	71
813.549	-62
813.648	-89
813.747	141
813.846	165
813.945	-1160
814.044	-131
814.143	133
814.242	884
814.341	-157
814.439	216
814.538	627
814.637	581
814.736	145
814.835	1277
814.933	138
815.032	610
815.131	875
815.229	1118
815.328	1894
815.427	692
815.525	1125
815.624	848
815.722	903
815.821	770
815.919	1483
816.018	492
816.116	2914
816.215	1019
816.313	1819
816.412	2241
816.510	1887
816.609	2400
816.707	2554
816.805	2257
816.904	1414
817.002	2809
817.100	3398
817.198	3998
817.296	3915
817.395	4203
817.493	6497
817.591	5642
817.689	8948
817.787	12723
817.885	20148
817.983	35282
818.081	72872
818.179	171448
818.277	392787
818.375	341125
818.473	107910
818.571	43982
818.669	27939
818.767	24106
818.865	23150
818.963	27633
819.061	40515
819.158	67794
819.256	138002
819.354	304793
819.452	575885
819.549	404216
819.647	141254
819.745	61096
819.842	35790
819.940	23407
820.038	17017
820.135	13673
820.233	12026
820.330	7975
820.428	6498
820.525	6576
820.623	4713
820.720	3734
820.818	4463
820.915	3355
821.012	4041
821.110	1959
821.207	2558
821.304	1971
821.402	2356
821.499	2765
821.596	2872
821.693	1961
821.791	2884
821.888	1944
821.985	2517
822.082	1798
822.179	1526
822.276	1308
822.373	1402
822.470	1081
822.567	1108
822.664	271
822.761	1409
822.858	161
822.955	1778
823.052	21
823.149	236
823.246	557
823.343	450
823.440	1553
823.536	348
823.633	1164
823.730	700
823.827	622
823.923	956
824.020	1793
824.117	601
824.213	-181
824.310	1581
824.407	256
824.503	377
824.600	930
824.696	319
824.793	850
824.889	479
824.986	652
825.082	768
825.179	527
825.275	346
825.371	582
825.468	940
825.564	-560
825.660	324
825.757	-177
825.853	1164
825.949	-499
826.045	711
826.142	332
826.238	-502
826.334	-446
826.430	-879
826.526	368
826.622	221
826.718	-52
826.814	-1034
826.910	544
827.006	230
827.102	-390
827.198	707
827.294	345
827.390	615
827.486	683
827.582	-1020
827.678	-927
827.774	643
827.869	-1118
827.965	965
828.061	-580
828.157	-591
828.252	291
828.348	-620
828.444	1228
828.539	-790
828.635	-435
828.731	134
828.826	-1530
828.922	739
829.017	178
829.113	299
829.208	-817
829.304	-66
829.399	1664
829.495	-660
829.590	465
829.685	-488
829.781	265
829.876	415
829.971	-509
830.066	69
830.162	-700
830.257	-492
830.352	-489
830.447	745
830.543	20
830.638	-1264
830.733	-94
830.828	-829
830.923	693
831.018	103
831.113	-553
831.208	-990
831.303	-91
831.398	-37
831.493	-934
831.588	876
831.683	-1044
831.778	-421
831.873	-426
831.967	663
832.062	-736
832.157	-607
832.252	920
832.346	-268
832.441	1089
832.536	132
832.631	439
832.725	410
832.820	56
832.914	-424
833.009	-688
833.104	-270
833.198	317
833.293	-956
833.387	11
833.482	23
833.576	-185
833.670	752
833.765	184
833.859	-308
833.954	289
834.048	624
834.142	350
834.237	50
834.331	-520
834.425	87
834.519	-595
834.613	-577
834.708	-278
834.802	-272
834.896	-1081
834.990	-2
835.084	-517
835.178	711
835.272	-474
835.366	-1195
835.460	694
835.554	-105
835.648	-1350
835.742	-390
835.836	38
835.930	-1328
836.024	-306
836.117	125
836.211	-717
836.305	-20
836.399	-167
836.493	-802
836.586	346
836.680	-1344
836.774	-732
836.867	106
836.961	-789
837.055	-177
837.148	-590
837.242	-61
837.335	-1043
837.429	-859
837.522	-518
837.616	-800
837.709	110
837.803	-393
837.896	398
837.989	-907
838.083	-209
838.176	-308
838.269	-1604
838.363	675
838.456	-1161
838.549	446
838.642	-757
838.735	556
838.829	-33
838.922	-583
839.015	-750
839.108	-510
839.201	-3
839.294	-325
839.387	-509
839.480	-1088
839.573	-544
839.666	166
839.759	-566
839.852	-1398
839.945	39
840.038	-348
840.131	-1199
840.223	-447
840.316	-312
840.409	-127
840.502	-1518
840.594	389
840.687	-829
840.780	-558
840.873	-1140
840.965	-1021
841.058	-295
841.150	-212
841.243	-1151
841.336	-374
841.428	-1038
841.521	-648
841.613	-860
841.706	-318
841.798	-609
841.890	-1
841.983	-1450
842.075	-93
842.167	-1210
842.260	-583
842.352	711
842.444	-635
842.537	-586
842.629	-126
842.721	-1375
842.813	-513
842.905	-792
842.997	-785
843.090	-1306
843.182	-499
843.274	-959
843.366	-192
843.458	19
843.550	730
843.642	-307
843.734	-585
843.826	-570
843.918	-182
844.009	-1257
844.101	-835
844.193	-1078
844.285	-470
844.377	-129
844.469	76
844.560	-556
844.652	-18
844.744	-827
844.835	-442
844.927	-561
845.019	-759
845.110	-1024
845.202	-1050
845.293	-885
845.385	-361
845.476	-215
845.568	202
845.659	-650
845.751	-107
845.842	-613
845.934	-1472
846.025	-713
846.116	-340
846.208	-455
846.299	-1584
846.390	-165
846.482	-541
846.573	-55
846.664	-296
846.755	-1526
846.846	-589
846.937	-1176
847.029	-689
847.120	-957
847.211	-688
847.302	201
847.393	-974
847.484	-1028
847.575	-614
847.666	-554
847.757	-1571
847.847	-578
847.938	-829
848.029	-987
848.120	-1060
848.211	-660
848.302	-1276
848.392	-1254
848.483	-215
848.574	-1218
848.664	-622
848.755	-1050
848.846	-523
848.936	-799
849.027	-178
849.118	-33
849.208	-783
849.299	505
849.389	1778
849.480	5375
849.570	11396
849.661	21253
849.751	39512
849.841	14111
849.932	498
850.022	-829
850.112	505
850.203	-760
850.293	-808
850.383	-351
850.474	-1228
850.564	-1155
850.654	-577
850.744	-604
850.834	-1082
850.924	-730
851.014	-567
851.104	-855
851.194	-721
851.284	-236
851.374	-544
851.464	-1321
851.554	-446
851.644	-250
851.734	-86
851.824	-1110
851.914	-1268
852.004	-544
852.094	-1839
852.183	-771
852.273	10
852.363	-1213
852.452	-427
852.542	-600
852.632	-485
852.721	-101
852.811	-704
852.901	-450
852.990	144
853.080	122
853.169	-652
853.259	442
853.348	-118
853.438	1163
853.527	1925
853.617	3743
853.706	7106
853.795	14995
853.885	35289
853.974	67371
854.063	123872
854.152	196932
854.242	77549
854.331	12519
854.420	5215
854.509	2665
854.598	1763
854.687	1023
854.777	953
854.866	550
854.955	468
855.044	-1095
855.133	-375
855.222	-643
855.311	-717
855.400	48
855.488	-340
855.577	-456
855.666	-300
855.755	579
855.844	31
855.933	156
856.021	-308
856.110	-580
856.199	-927
856.288	-1140
856.376	-246
856.465	-1485
856.554	-263
856.642	-1045
856.731	-445
856.819	-612
856.908	-958
856.996	-733
857.085	-702
857.173	-1530
857.262	-673
857.350	-644
857.438	-630
857.527	-356
857.615	-1005
857.703	-1002
857.792	-1744
857.880	-435
857.968	-1182
858.056	-680
858.145	-766
858.233	-1007
858.321	-345
858.409	-145
858.497	-1588
858.585	-1582
858.673	-463
858.761	-1086
858.849	-1296
858.937	-949
859.025	-449
859.113	-653
859.201	-1705
859.289	-453
859.377	-983
859.465	-480
859.552	-1310
859.640	-925
859.728	-1247
859.816	-1561
859.903	-443
859.991	-1399
860.079	-1406
860.166	-378
860.254	-1188
860.342	-868
860.429	-1040
860.517	-770
860.604	-1585
860.692	157
860.779	-893
860.867	-935
860.954	-1604
861.042	-876
861.129	-1071
861.216	-823
861.304	-655
861.391	-928
861.478	-258
861.565	-293
861.653	-894
861.740	-1910
861.827	-1379
861.914	-1047
862.001	-910
862.089	-420
862.176	-946
862.263	-1285
862.350	-805
862.437	-705
862.524	-670
862.611	-526
862.698	-678
862.785	-1187
862.871	-752
862.958	-1210
863.045	-871
863.132	198
863.219	-1276
863.306	-1862
863.392	410
863.479	-721
863.566	-291
863.652	-519
863.739	-1017
863.826	-212
863.912	-55
863.999	-1076
864.086	-828
864.172	-1176
864.259	-950
864.345	-682
864.432	-1126
864.518	-536
864.604	-694
864.691	-964
864.777	-379
864.863	-125
864.950	269
865.036	-1043
865.122	445
865.209	1550
865.295	1459
865.381	1676
865.467	2152
865.553	1826
865.639	3901
865.726	7214
865.812	17303
865.898	35546
865.984	51855
866.070	94754
866.156	108341
866.242	28273
866.328	5471
866.414	2021
866.499	2081
866.585	1011
866.671	236
866.757	900
866.843	1038
866.928	893
867.014	-127
867.100	574
867.186	-225
867.271	94
867.357	279
867.442	-108
867.528	68
867.614	-281
867.699	116
867.785	148
867.870	192
867.956	310
868.041	888
868.127	59
868.212	-98
868.297	141
868.383	601
868.468	-113
868.553	850
868.639	-202
868.724	1034
868.809	-484
868.894	330
868.979	347
869.065	159
869.150	-772
869.235	-502
869.320	42
869.405	299
869.490	-389
869.575	-89
869.660	-771
869.745	166
869.830	-813
869.915	-917
870.000	-952
870.085	47
870.169	-148
870.254	-89
870.339	-1234
870.424	-608
870.509	-526
870.593	-792
870.678	-461
870.763	-183
870.847	-852
870.932	-780
871.016	-285
871.101	-1454
871.186	-504
871.270	-534
871.355	-1048
871.439	-204
871.523	-897
871.608	-1296
871.692	-373
871.777	-59
871.861	-423
871.945	-807
872.030	94
872.114	-298
872.198	-670
872.282	121
872.367	-948
872.451	-661
872.535	-752
872.619	272
872.703	-281
872.787	-758
872.871	-303
872.955	-187
873.039	-905
873.123	252
873.207	-341
873.291	-633
873.375	-446
873.459	17
873.543	-370
873.627	-567
873.711	-1146
873.794	-199
873.878	-802
873.962	-378
874.045	-794
874.129	-1544
874.137	-1415
874.213	-128
874.245	-289
874.296	-553
874.352	-711
874.380	-787
874.460	-1516
874.464	-1546
874.547	-633
874.568	-529
874.631	-217
874.676	-569
874.714	-860
874.784	-529
874.798	-467
874.881	750
874.892	651
874.965	-5
874.999	200
875.048	465
875.107	-283
875.131	-584
875.215	-126
875.215	-126
875.298	-120
875.323	-374
875.381	-1000
875.430	-556
875.465	-210
875.538	-216
875.548	-221
875.631	-616
875.646	-646
875.714	-882
875.753	-678
875.798	-356
875.861	-536
875.881	-594
875.964	160
875.968	105
876.047	-942
876.076	-523
876.130	292
876.183	44
876.213	-113
876.291	524
876.296	564
876.379	-903
876.398	-844
876.462	-554
876.506	-669
876.545	-755
876.613	-74
876.628	43
876.711	20
876.721	94
876.794	782
876.828	400
876.877	-249
876.935	-269
876.960	-172
877.043	109
877.043	110
877.125	297
877.150	463
877.208	893
877.258	1003
877.291	1062
877.365	768
877.374	733
877.456	750
877.472	711
877.539	720
877.579	981
877.622	1094
877.687	589
877.704	476
877.787	603
877.794	577
877.869	381
877.901	383
877.952	319
878.008	380
878.034	393
878.115	-229
878.117	-238
878.199	-603
878.222	-406
878.282	265
878.329	535
878.364	576
878.437	569
878.447	606
878.529	-48
878.544	32
878.611	172
878.651	-12
878.694	-56
878.758	12
878.776	-21
878.858	201
878.865	203
878.941	277
878.972	145
879.023	-103
879.078	-380
879.105	-423
879.185	-438
879.187	-435
879.269	219
879.292	205
879.351	-153
879.399	-139
879.433	22
879.506	336
879.516	360
879.598	60
879.613	11
879.680	13
879.720	279
879.762	452
879.827	-177
879.844	-365
879.926	-166
879.933	-207
880.007	-290
880.040	-199
880.089	-225
880.147	58
880.171	266
880.253	172
880.254	170
880.335	-182
880.360	-338
880.417	-121
880.467	432
880.499	480
880.574	605
880.580	632
880.662	440
880.680	396
880.744	311
880.787	131
880.825	-60
880.893	-34
880.907	-25
880.989	199
881.000	155
881.070	101
881.106	117
881.152	-23
881.213	-221
881.233	-260
881.315	-161
881.319	-159
881.396	87
881.426	55
881.478	-94
881.532	181
881.559	317
881.639	-191
881.641	-201
881.722	-264
881.745	-192
881.803	68
881.852	-147
881.885	-234
881.958	-121
881.966	-109
882.047	31
882.064	-15
882.129	-275
882.171	-72
882.210	268
882.277	422
882.291	390
882.372	351
882.383	251
882.454	-219
882.489	7
882.535	221
882.596	121
882.616	98
882.697	-112
882.702	-131
882.778	-130
882.808	15
882.859	100
882.914	-108
882.940	-169
883.020	-74
883.021	-66
883.102	511
883.127	534
883.183	104
883.233	-62
883.264	-53
883.339	215
883.345	234
883.426	-324
883.445	-281
883.507	164
883.551	326
883.587	453
883.657	681
883.668	694
883.749	464
883.763	514
883.830	739
883.869	714
883.910	508
883.975	174
883.991	174
884.072	380
884.081	386
884.152	557
884.187	366
884.233	528
884.292	1269
884.314	973
884.394	-517
884.398	-577
884.475	203
884.504	393
884.555	570
884.610	770
884.636	638
884.716	190
884.716	194
884.797	188
884.821	116
884.877	373
884.927	549
884.958	455
885.033	312
885.038	296
885.118	108
885.139	-13
885.199	32
885.244	124
885.279	211
885.350	360
885.359	412
885.439	997
885.456	989
885.520	254
885.561	163
885.600	348
885.667	309
885.680	301
885.760	219
885.773	237
885.840	445
885.878	390
885.920	354
885.984	504
886.000	522
886.080	314
886.089	321
886.160	563
886.195	757
886.240	835
886.300	382
886.320	332
886.400	606
886.406	611
886.480	221
886.511	80
886.560	480
886.616	810
886.640	564
886.720	-122
886.722	-143
886.800	599
886.827	833
886.879	769
886.932	658
886.959	698
887.038	1160
887.039	1173
887.119	1194
887.143	1282
887.198	845
887.248	298
887.278	319
887.354	701
887.358	731
887.437	983
887.459	1081
887.517	880
887.564	486
887.596	361
887.669	523
887.676	527
887.755	256
887.774	176
887.835	521
887.880	867
887.914	969
887.985	1108
887.994	1102
888.073	850
888.090	826
888.153	432
888.195	126
888.232	337
888.300	732
888.311	727
888.391	764
888.405	733
888.470	614
888.510	520
888.549	566
888.615	715
888.628	762
888.708	1058
888.720	1089
888.787	1280
888.825	1341
888.866	982
888.930	501
888.945	539
889.024	651
889.035	667
889.103	1066
889.140	1257
889.182	723
889.245	-54
889.261	48
889.340	510
889.349	560
889.419	377
889.454	282
889.498	773
889.559	1462
889.577	1362
889.656	887
889.664	837
889.735	843
889.768	843
889.814	1139
889.873	1522
889.978	559
890.083	1159
890.187	613
890.292	348
890.397	376
890.501	717
890.606	415
890.710	1582
890.815	452
890.919	1282
891.024	793
891.128	1063
891.233	1169
891.337	448
891.442	392
891.546	1168
891.650	950
891.755	775
891.859	1663
891.963	889
892.068	1076
892.172	137
892.276	-265
892.380	982
892.484	1112
892.589	959
892.693	1532
892.797	962
892.901	1070
893.005	678
893.109	1986
893.213	835
893.317	602
893.421	1363
893.525	632
893.629	261
893.733	836
893.837	601
893.941	53
894.045	1043
894.148	700
894.252	-373
894.356	1048
894.460	1206
894.564	257
894.667	958
894.771	838
894.875	812
894.978	841
895.082	324
895.186	1460
895.289	822
895.393	585
895.496	543
895.600	767
895.703	-31
895.807	564
895.910	1073
896.014	488
896.117	-581
896.221	885
896.324	79
896.427	306
896.531	690
896.634	562
896.737	670
896.840	949
896.944	1518
897.047	-111
897.150	707
897.253	730
897.356	1240
897.460	91
897.563	-73
897.666	-58
897.769	877
897.872	220
897.975	504
898.078	832
898.181	462
898.284	54
898.387	939
898.490	517
898.593	921
898.695	-14
898.798	287
898.901	1136
899.004	430
899.107	566
899.209	826
899.312	760
899.415	316
899.518	65
899.620	497
899.723	839
899.826	2043
899.928	947
900.031	58
900.133	334
900.236	662
900.338	-962
900.441	-6
900.543	375
900.646	-161
900.748	1184
900.851	943
900.953	916
901.055	872
901.158	456
901.260	454
901.362	946
901.465	302
901.567	319
901.669	698
901.771	190
901.873	327
901.976	-376
902.078	238
902.180	339
902.282	391
902.384	982
902.486	845
902.588	563
902.690	1142
902.792	4
902.894	315
902.996	305
903.098	442
903.200	-174
903.302	-166
903.404	202
903.505	-238
903.607	537
903.709	838
903.811	404
903.913	450
904.014	477
904.116	448
904.218	931
904.319	886
904.421	1011
904.523	653
904.624	879
904.726	578
904.827	795
904.929	-176
905.030	594
905.132	1448
905.233	334
905.335	488
905.436	1094
905.537	-47
905.639	1075
905.740	104
905.841	190
905.943	764
906.044	899
906.145	1
906.247	-246
906.348	760
906.449	500
906.550	275
906.651	918
906.752	188
906.854	258
906.955	123
907.056	583
907.157	597
907.258	-375
907.359	117
907.460	909
907.561	572
907.662	683
907.762	979
907.863	92
907.964	-140
908.065	656
908.166	721
908.267	502
908.367	-123
908.468	201
908.569	567
908.670	614
908.770	1099
908.871	463
908.971	-254
909.072	652
909.173	25
909.273	536
909.374	505
909.474	223
909.575	826
909.675	-429
909.776	623
909.876	523
909.977	654
910.077	1045
910.177	-73
910.278	1002
910.378	413
910.478	-321
910.579	757
910.679	287
910.779	347
910.879	690
910.980	792
911.080	-137
911.180	-206
911.280	382
911.380	822
911.480	45
911.580	391
911.680	-261
911.780	602
911.880	719
911.980	-40
912.080	-272
912.180	357
912.280	-373
912.380	652
912.480	937
912.580	434
912.679	-585
912.779	759
912.879	155
912.979	616
913.078	754
913.178	577
913.278	917
913.377	708
913.477	103
913.577	791
913.676	-14
913.776	495
913.875	696
913.975	831
914.074	161
914.174	571
914.273	-95
914.373	744
914.472	544
914.572	-78
914.671	129
914.770	475
914.870	572
914.969	358
915.068	846
915.167	917
915.267	832
915.366	182
915.465	522
915.564	578
915.663	249
915.763	636
915.862	765
915.961	438
916.060	784
916.159	661
916.258	391
916.357	-819
916.456	419
916.555	215
916.654	510
916.752	903
916.851	740
916.950	-1
917.049	299
917.148	-217
917.247	372
917.345	37
917.444	-483
917.543	676
917.642	-162
917.740	314
917.839	674
917.937	842
918.036	1182
918.135	639
918.233	363
918.332	228
918.430	646
918.529	697
918.627	-47
918.726	822
918.824	992
918.923	462
919.021	820
919.119	-277
919.218	-271
919.316	971
919.414	480
919.512	648
919.611	647
919.709	-46
919.807	884
919.905	99
920.003	605
920.102	122
920.200	269
920.298	743
920.396	974
920.494	536
920.592	-538
920.690	222
920.788	454
920.886	226
920.984	-38
921.082	613
921.180	1145
921.277	259
921.375	-20
921.473	407
921.571	1200
921.669	463
921.766	1079
921.864	1076
921.962	887
922.060	514
922.157	1070
922.255	376
922.352	933
922.450	1548
922.548	217
922.645	873
922.743	1302
922.840	1586
922.938	2061
923.035	2394
923.133	1577
923.230	1637
923.327	2726
923.425	2393
923.522	2606
923.619	2214
923.717	1516
923.814	1397
923.911	1813
924.008	2186
924.106	1685
924.203	2017
924.300	1243
924.397	1141
924.494	2024
924.591	926
924.688	2020
924.786	1270
924.883	2033
924.979	1929
925.077	2217
925.173	1414
925.270	1610
925.367	1610
925.464	2249
925.561	2600
925.658	1948
925.755	2904
925.852	2374
925.948	1355
926.045	2728
926.142	1172
926.239	1839
926.335	1164
926.432	1280
926.529	982
926.625	1986
926.722	1611
926.818	2004
926.915	1700
927.011	1910
927.108	1741
927.204	2068
927.301	1163
927.397	1184
927.494	1639
927.590	1276
927.687	490
927.783	1741
927.879	1413
927.976	1213
928.072	985
928.168	1813
928.264	1778
928.361	1311
928.457	908
928.553	829
928.649	1109
928.745	1695
928.841	1291
928.937	1297
929.033	1570
929.129	1384
929.225	1413
929.321	801
929.417	1359
929.513	1762
929.609	845
929.705	862
929.801	1644
929.897	973
929.993	1427
930.089	1830
930.184	1414
930.280	1335
930.376	1667
930.471	881
930.567	953
930.663	708
930.758	906
930.854	888
930.950	1566
931.045	767
931.141	1903
931.236	1320
931.332	552
931.427	1498
931.523	1353
931.618	990
931.714	956
931.809	728
931.905	1660
932.000	1395
932.095	963
932.191	677
932.286	963
932.381	1233
932.476	381
932.572	78
932.667	668
932.762	622
932.857	517
932.952	502
933.047	256
933.142	474
933.237	617
933.332	1717
933.427	1329
933.522	996
933.617	173
933.712	905
933.807	832
933.902	1444
933.997	792
934.092	1176
934.187	485
934.282	908
934.376	484
934.471	1149
934.566	196
934.661	888
934.755	1143
934.850	1504
934.945	373
935.039	987
935.134	960
935.228	724
935.323	1189
935.417	172
935.512	993
935.606	100
935.701	982
935.795	383
935.890	1000
935.984	906
936.079	925
936.173	949
936.267	703
936.362	-5
936.456	1030
936.550	687
936.644	994
936.738	795
936.833	364
936.927	401
937.021	145
937.115	-601
937.209	120
937.303	1302
937.397	210
937.491	781
937.585	1309
937.679	910
937.773	454
937.867	-471
937.961	650
938.055	589
938.149	942
938.243	-194
938.337	417
938.430	475
938.524	-197
938.618	411
938.712	643
938.805	412
938.899	781
938.993	540
939.086	172
939.180	156
939.274	515
939.367	422
939.461	507
939.554	70
939.648	77
939.741	875
939.835	877
939.928	623
940.022	626
940.115	548
940.208	763
940.302	1237
940.395	578
940.488	-168
940.582	1381
940.675	-35
940.768	806
940.861	942
940.954	804
941.048	448
941.141	720
941.234	264
941.327	1145
941.420	2417
941.513	577
941.606	100
941.699	829
941.792	923
941.885	257
941.978	1013
942.071	389
942.164	448
942.257	308
942.349	-110
942.442	598
942.535	-180
942.628	206
942.721	98
942.813	172
942.906	1212
942.999	213
943.091	-107
943.184	396
943.277	267
943.369	885
943.462	18
943.554	395
943.647	636
943.739	882
943.832	609
943.924	-1067
944.017	879
944.109	-584
944.201	716
944.294	435
944.386	448
944.478	492
944.571	-529
944.663	14
944.755	277
944.847	166
944.940	527
945.032	25
945.124	180
945.216	1384
945.308	637
945.400	106
945.492	147
945.584	782
945.676	702
945.768	560
945.860	1001
945.952	777
946.044	586
946.136	775
946.228	-82
946.320	290
946.412	571
946.503	154
946.595	1107
946.687	-342
946.779	718
946.870	-209
946.962	-20
947.054	408
947.145	769
947.237	-377
947.329	-87
947.420	32
947.512	356
947.603	-553
947.695	1147
947.786	-669
947.878	-128
947.969	573
948.061	-177
948.152	642
948.243	-442
948.335	-14
948.426	95
948.517	-112
948.609	456
948.700	161
948.791	-5
948.882	246
948.973	723
949.065	90
949.156	939
949.247	-735
949.338	2
949.429	-479
949.520	456
949.611	-478
949.702	336
949.793	449
949.884	-754
949.975	-776
950.066	329
950.157	-1008
950.247	-84
950.338	-195
950.429	384
950.520	846
950.611	-695
950.701	552
950.792	432
950.883	70
950.973	525
951.064	609
951.155	194
951.245	296
951.336	553
951.427	-70
951.517	42
951.608	1252
951.698	78
951.788	181
951.879	11
951.969	392
952.060	-459
952.150	552
952.240	1241
952.331	-2382
952.421	1681
952.511	-590
952.602	-443
952.692	-590
952.782	323
952.872	919
952.962	390
953.052	41
953.143	-81
953.233	413
953.323	887
953.413	-358
953.503	235
953.593	723
953.683	123
953.773	7
953.863	-718
953.953	-46
954.042	155
954.132	519
954.222	670
954.312	-1135
954.402	-286
954.492	69
954.581	370
954.671	91
954.761	244
954.850	1052
954.940	1
955.030	230
955.119	-5
955.209	465
955.298	-991
955.388	869
955.477	951
955.567	-914
955.656	154
955.746	446
955.835	-648
955.925	-363
956.014	549
956.103	11
956.193	1251
956.282	486
956.371	-476
956.461	623
956.550	-366
956.639	441
956.728	-326
956.817	-162
956.906	-149
956.995	564
957.085	-350
957.174	504
957.263	94
957.352	306
957.441	-127
957.530	-27
957.619	398
957.708	-141
957.796	333
957.885	265
957.974	-36
958.063	-25
958.152	-1027
958.241	151
958.329	202
958.418	-396
958.507	-929
958.596	669
958.684	-468
958.773	630
958.861	-801
958.950	-206
959.039	747
959.127	301
959.216	339
959.304	308
959.393	-380
959.481	177
959.570	823
959.658	-52
959.746	-15
959.835	147
959.923	370
960.011	-622
960.100	-167
960.188	569
960.276	444
960.365	-59
960.453	175
960.541	67
960.629	663
960.717	-135
960.805	-1031
960.893	246
960.981	-776
961.069	1796
961.158	-28
961.245	703
961.333	314
961.421	-502
961.509	524
961.597	-100
961.685	-455
961.773	244
961.861	-625
961.949	-203
962.036	245
962.124	159
962.212	93
962.299	-26
962.387	-451
962.475	7
962.562	-1115
962.650	96
962.738	329
962.825	289
962.913	-154
963.000	179
963.088	-311
963.175	-691
963.263	571
963.350	-1144
963.438	-64
963.525	-658
963.612	-142
963.700	-162
963.787	442
963.874	-148
963.962	48
964.049	-276
964.136	109
964.223	-371
964.310	-69
964.398	166
964.485	-724
964.572	-551
964.659	-69
964.746	-602
964.833	-409
964.920	-276
965.007	-135
965.094	-11
965.181	-129
965.268	-249
965.355	-304
965.441	-755
965.528	-757
965.615	330
965.702	-219
965.789	-504
965.875	-349
965.962	-478
966.049	-694
966.136	589
966.222	28
966.309	-323
966.395	-514
966.482	-356
966.569	-524
966.655	-1112
966.742	-689
966.828	3
966.915	46
967.001	-150
967.087	-700
967.174	-634
967.260	-244
967.347	-330
967.433	-643
967.519	378
967.605	-397
967.692	139
967.778	134
967.864	-625
967.950	51
968.036	-58
968.123	67
968.209	-287
968.295	-574
968.381	800
968.467	-468
968.553	-1010
968.639	358
968.725	-231
968.811	339
968.897	-31
968.983	-258
969.069	-940
969.154	-93
969.240	4
969.326	-776
969.412	-816
969.497	-676
969.583	-1030
969.669	-89
969.755	-1006
969.840	-365
969.926	-170
970.012	-519
970.097	962
970.183	103
970.268	-869
970.354	-412
970.439	-1330
970.525	695
970.610	-1081
970.696	-16
970.781	-769
970.866	-1152
970.952	273
971.037	-397
971.122	-1174
971.208	475
971.293	71
971.378	-1199
971.463	-822
971.549	-300
971.634	-192
971.719	-508
971.804	-369
971.889	50
971.974	-625
972.059	-316
972.144	-8
972.229	-429
972.314	-863
972.399	-271
972.484	-1031
972.569	-283
972.654	-1708
972.739	44
972.824	-1023
972.908	-1003
972.993	-1338
973.078	-93
973.163	-882
973.247	496
973.332	-1935
973.417	320
973.501	-1153
973.586	-49
973.671	-493
973.755	-663
973.840	-133
973.924	-426
974.009	-72
974.093	-129
974.178	-103
974.262	-1240
974.346	-146
974.431	-659
974.515	-509
974.600	-454
974.684	-16
974.768	-1278
974.852	182
974.937	-1331
975.021	-233
975.105	-789
975.189	212
975.273	545
975.358	-803
975.442	-557
975.526	-253
975.610	-1325
975.694	-1224
975.778	-156
975.862	-761
975.946	-3167
976.030	73
976.114	-705
976.198	-459
976.281	-1327
976.365	-327
976.449	-577
976.533	-483
976.617	-692
976.700	134
976.784	-588
976.868	-1671
976.951	-198
977.035	-685
977.119	-99
977.202	-302
977.286	-274
977.369	-502
977.453	-333
977.536	-675
977.620	-230
977.703	-18
977.787	-1572
977.870	157
977.953	31
978.037	-1798
978.120	355
978.203	-1434
978.287	-131
978.370	-536
978.453	-696
978.536	-183
978.620	-90
978.703	-1109
978.786	-1059
978.869	-1055
978.952	-2169
979.035	186
979.118	340
979.201	-1157
979.284	112
979.367	-999
979.450	-553
979.533	-539
979.616	-696
979.699	-1307
979.782	144
979.865	-150
979.948	135
980.030	-1221
980.113	-780
980.196	-1695
980.279	-1035
980.361	-414
980.444	-901
980.526	-433
980.609	-207
980.692	-773
980.774	-329
980.857	-1331
980.939	726
981.022	-154
981.104	-737
981.187	-499
981.269	-189
981.352	-787
981.434	-1464
981.516	-954
981.599	434
981.681	-442
981.763	-725
981.846	-611
981.928	261
982.010	-752
982.092	-519
982.174	-110
982.256	-799
982.339	-608
982.421	-1118
982.503	-192
982.585	-1519
982.667	-466
982.749	-372
982.831	-325
982.913	-1777
982.995	11
983.077	-1518
983.158	104
983.240	-1236
983.322	185
983.404	48
983.486	-1128
983.568	-256
983.649	-271
983.731	-148
983.813	-775
983.894	241
983.976	-1403
984.058	-398
984.139	69
984.221	-1609
984.302	-201
984.384	-512
984.465	-650
984.547	371
984.628	-838
984.710	200
984.791	25
984.872	-600
984.954	-973
985.035	-804
985.116	-561
985.198	-625
985.279	520
985.360	-772
985.441	-487
985.522	-225
985.604	-349
985.685	-1519
985.766	121
985.847	138
985.928	-1154
986.009	-415
986.090	-1279
986.171	710
986.252	-1037
986.333	-903
986.414	-482
986.495	-267
986.576	-978
986.656	-759
986.737	-829
986.818	-310
986.899	-777
986.980	-543
987.060	-284
987.141	-538
987.222	178
987.302	-114
987.383	-365
987.464	-243
987.544	-870
987.625	162
987.705	189
987.786	-823
987.866	-279
987.947	-295
988.027	-1578
988.108	-911
988.188	-74
988.268	-963
988.349	-287
988.429	-608
988.509	270
988.589	-663
988.670	-1132
988.750	1297
988.830	-1238
988.910	-484
988.990	-331
989.070	-77
989.151	231
989.231	-1198
989.311	-668
989.391	-838
989.471	-600
989.551	-314
989.631	-979
989.711	87
989.791	-1661
989.870	-393
989.950	543
990.030	-896
990.110	-204
990.190	-713
990.269	-989
990.349	-149
990.429	-818
990.509	-228
990.588	-979
990.668	-57
990.747	-626
990.827	-628
990.907	-65
990.986	-194
991.066	-529
991.145	-1202
991.225	-336
991.304	-643
991.383	117
991.463	-1434
991.542	201
991.622	-201
991.701	-600
991.780	-798
991.859	-821
991.939	-655
992.018	-933
992.097	-672
992.176	305
992.256	-98
992.335	-1580
992.414	-236
992.493	-1236
992.572	-512
992.651	-292
992.730	-851
992.809	-379
992.888	-770
992.967	18
993.046	-401
993.125	-1231
993.203	-899
993.282	-524
993.361	-327
993.440	-200
993.519	-1314
993.597	-700
993.676	-1778
993.755	515
993.834	-18
993.912	-704
993.991	138
994.069	-488
994.148	-720
994.226	-1264
994.305	235
994.384	-1078
994.462	288
994.540	-1161
994.619	-1423
994.697	-77
994.776	-1619
994.854	47
994.932	-1088
995.011	-393
995.089	-1177
995.167	-1131
995.245	-565
995.324	-1405
995.402	-533
995.480	-967
995.558	-687
995.636	-1964
995.714	-558
995.792	-172
995.870	-887
995.948	-1076
996.026	-490
996.104	-1032
996.182	-501
996.260	-772
996.338	-842
996.416	-2165
996.494	-477
996.572	204
996.649	-678
996.727	-1464
996.805	-921
996.883	-1037
996.960	-1135
997.038	-36
997.116	581
997.193	-1054
997.271	-629
997.348	-1347
997.426	-546
997.504	-1719
997.581	-192
997.658	-702
997.736	-1477
997.813	-1409
997.891	36
997.968	-1522
998.046	-679
998.123	-758
998.200	-32
998.277	-1744
998.355	-606
998.432	-1809
998.509	-686
998.586	-131
998.663	-570
998.741	-639
998.818	-523
998.895	-1207
998.972	-1100
999.049	-676
999.126	-1473
999.203	-1014
999.280	-894
999.357	-1800
999.434	-1997
999.511	-1325
999.587	31
999.664	-989
999.741	-1973
999.818	104
999.895	-1219
999.971	-1115
1000.048	-1055
1000.125	-317
1000.202	-1601
1000.278	-1091
1000.355	-574
1000.431	-1071
1000.508	-1335
1000.584	-621
1000.661	-336
1000.738	-1917
1000.814	-1271
1000.890	-710
1000.967	-1067
1001.043	-827
1001.120	-1464
1001.196	-1479
1001.272	-1178
1001.349	-838
1001.425	-649
1001.501	-437
1001.577	-2173
1001.654	-302
1001.730	-1060
1001.806	250
1001.882	-2035
1001.958	-56
1002.034	-846
1002.110	-1036
1002.186	-931
1002.262	-655
1002.338	-1532
1002.414	-616
1002.490	-855
1002.566	-1468
1002.642	-1187
1002.718	-718
1002.794	-1175
1002.870	-1760
1002.945	-690
1003.021	-1148
1003.097	-1347
1003.173	-895
1003.248	-1520
1003.324	-1085
1003.400	-1194
1003.475	-1261
1003.551	-992
1003.626	-108
1003.702	-1905
1003.777	-1141
1003.853	-1906
1003.928	-1843
1004.004	-1625
1004.079	-765
1004.155	-1573
1004.230	-1644
1004.305	-252
1004.381	-2029
1004.456	-1154
1004.531	-1379
1004.607	-1871
1004.682	-823
1004.757	-994
1004.832	-1101
1004.907	-1643
1004.982	-2318
1005.057	-1258
1005.133	-1427
1005.208	-688
1005.283	-1252
1005.358	-475
1005.433	-1895
1005.508	-887
1005.583	-1910
1005.657	-1069
1005.732	-305
1005.807	-1247
1005.882	-645
1005.957	-1454
1006.032	-336
1006.106	-1299
1006.181	-1871
1006.256	-1365
1006.331	-901
1006.405	-1932
1006.480	-1306
1006.554	-1609
1006.629	-1158
1006.704	-1234
1006.778	-1106
1006.853	-417
1006.927	-1702
1007.002	-2237
1007.076	-1239
1007.150	-1262
1007.225	-1127
1007.299	-507
1007.373	-1766
1007.448	-1714
1007.522	-600
1007.596	-1786
1007.671	-2183
1007.745	-605
1007.819	-2319
1007.893	-1272
1007.967	-260
1008.041	-2014
1008.115	-1007
1008.190	-1707
1008.264	-1138
1008.338	-2289
1008.412	-2349
1008.486	-2088
1008.560	-1158
1008.633	-1600
1008.707	-1694
1008.781	-887
1008.855	-1312
1008.929	-1021
1009.003	-1702
1009.076	-1300
1009.150	-687
1009.224	-1403
1009.298	-1047
1009.371	-2206
1009.445	-1079
1009.519	-992
1009.592	-2485
1009.666	-2072
1009.739	-1473
1009.813	-2106
1009.886	-1086
1009.960	-2477
1010.033	-1472
1010.107	-1733
1010.180	-2477
1010.253	-956
1010.327	-1598
1010.400	-570
1010.473	-2156
1010.547	-766
1010.620	-1849
1010.693	-665
1010.766	-1804
1010.840	-2022
1010.913	-1637
1010.986	-1854
1011.059	-1462
1011.132	-456
1011.205	-1061
1011.278	-1580
1011.351	-1245
1011.424	-1478
1011.497	-1588
1011.570	-913
1011.643	-1990
1011.716	-1212
1011.789	-1172
1011.862	-573
1011.934	-1489
1012.007	-2280
1012.080	-28
1012.153	-1451
1012.225	-1143
1012.298	-2364
1012.371	-1370
1012.443	-1320
1012.516	-2280
1012.588	-1399
1012.661	-1362
1012.733	-2482
1012.806	-1267
1012.879	-1833
1012.951	-449
1013.023	-1994
1013.096	-2150
1013.168	-933
1013.241	-1418
1013.313	-1521
1013.385	-1465
1013.458	-1398
1013.530	-881
1013.602	-2013
1013.674	-859
1013.746	-1819
1013.819	-1463
1013.891	-937
1013.963	-2133
1014.035	-1242
1014.107	-1282
1014.179	-616
1014.251	-926
1014.323	-1473
1014.395	-1196
1014.467	-1426
1014.539	-1469
1014.611	-928
1014.683	-2147
1014.754	-1161
1014.826	-1704
1014.898	-1436
1014.970	-1256
1015.042	-1419
1015.113	-1460
1015.185	-1607
1015.257	-2005
1015.328	-985
1015.400	-2016
1015.471	-1507
1015.543	-2716
1015.615	-1782
1015.686	-767
1015.757	-1942
1015.829	-960
1015.901	-1490
1015.972	-1010
1016.043	-1155
1016.115	-1182
1016.186	-1395
1016.257	-1701
1016.328	-1777
1016.400	-754
1016.471	-2202
1016.542	-1345
1016.613	-1736
1016.685	-1676
1016.756	-652
1016.827	-1816
1016.898	-2398
1016.969	-103
1017.040	-2109
1017.111	-1175
1017.182	-1933
1017.253	-1304
1017.324	-1463
1017.395	-1814
1017.466	-1714
1017.537	-888
1017.608	-2034
1017.678	-1338
1017.749	-1658
1017.820	-952
1017.891	-1858
1017.961	-731
1018.032	-1318
1018.103	-1336
1018.173	-1851
1018.244	-1448
1018.315	-664
1018.385	-580
1018.456	-1239
1018.526	-1723
1018.597	-1914
1018.667	-983
1018.738	-1631
1018.808	-1129
1018.878	-2117
1018.949	-1421
1019.019	-563
1019.089	-1371
1019.160	-1437
1019.230	-2352
1019.300	-519
1019.371	-2202
1019.441	-1021
1019.511	-1535
1019.581	-1339
1019.651	-1358
1019.721	-599
1019.791	-1156
1019.861	-1555
1019.931	-1493
1020.001	-1448
1020.071	-1389
1020.141	-1907
1020.211	-1672
1020.281	-1133
1020.351	-1437
1020.421	-1687
1020.491	-952
1020.560	-1711
1020.630	-1742
1020.700	-1591
1020.770	-1317
1020.839	-2069
1020.909	-951
1020.979	-2106
1021.048	-1814
1021.118	-1048
1021.187	-1191
1021.257	-1097
1021.326	-1795
1021.396	-1650
1021.465	-1528
1021.535	-1331
1021.604	-1818
1021.674	-1465
1021.743	-2182
1021.812	-1253
1021.882	-1692
1021.951	-1494
1022.020	-745
1022.089	-1559
1022.159	-1819
1022.228	-822
1022.297	-1446
1022.366	-1564
1022.435	-1296
1022.504	-1668
1022.573	-1209
1022.642	-1210
1022.711	-1565
1022.781	-1042
1022.849	-1195
1022.918	-1340
1022.987	-1323
1023.056	-2215
1023.125	-1558
1023.194	-1490
1023.263	-1321
1023.331	-922
1023.400	-1781
1023.469	-1447
1023.538	-1414
1023.606	-1580
1023.675	-1401
1023.744	-1426
1023.812	-2329
1023.881	-1666
1023.949	-2162
1024.018	-2147
1024.086	-1585
1024.155	-1047
1024.223	-2005
1024.292	-1104
1024.360	-1227
1024.429	-950
1024.497	-1261
1024.565	-799
1024.634	-2324
1024.702	-1154
1024.770	-1776
1024.838	-1601
1024.907	-1167
1024.975	-1921
1025.043	-1552
1025.111	-1570
1025.179	-1956
1025.247	-841
1025.315	-1461
1025.383	-1596
1025.451	-1240
1025.519	-1629
1025.587	-1575
1025.655	-1812
1025.723	-1840
1025.791	-1602
1025.859	-1302
1025.927	-556
1025.995	-781
1026.062	-1451
1026.130	-1292
1026.198	-1780
1026.266	-2091
1026.333	-1658
1026.401	-1553
1026.469	-1772
1026.536	-2013
1026.604	-2088
1026.671	-1329
1026.739	-1158
1026.806	-1955
1026.874	-1513
1026.941	-1177
1027.009	-1445
1027.076	-1655
1027.144	-1115
1027.211	-1469
1027.278	-946
1027.345	-1756
1027.413	-1381
1027.480	-2547
1027.547	-1464
1027.614	-1946
1027.682	-1950
1027.749	-1520
1027.816	-1595
1027.883	-1261
1027.950	-1370
1028.017	-1835
1028.084	-1394
1028.151	-1889
1028.218	-1724
1028.285	-1113
1028.352	-2107
1028.419	-1817
1028.486	-1291
1028.553	-2270
1028.619	-1373
1028.686	-2012
1028.753	-1658
1028.820	-1847
1028.886	-1739
1028.953	-1933
1029.020	-1275
1029.086	-2399
1029.153	-1834
1029.220	-1888
1029.286	-2294
1029.353	-1581
1029.419	-1587
1029.486	-1756
1029.552	-1284
1029.619	-2439
1029.685	-1884
1029.751	-1337
1029.818	-1179
1029.884	-1895
1029.951	-1233
1030.017	-563
1030.083	-1997
1030.149	-2395
1030.216	-1223
1030.282	-2254
1030.348	-2378
1030.414	-1597
1030.480	-963
1030.546	-1644
1030.612	-1502
1030.678	-2001
1030.744	-1212
1030.810	-2665
1030.876	-1598
1030.942	-1964
1031.008	-1682
1031.074	-1524
1031.140	-1429
1031.206	-1225
1031.272	-1681
1031.337	-2363
1031.403	-1693
1031.469	-1528
1031.534	-2297
1031.600	-2020
1031.666	-1451
1031.731	-2551
1031.797	-1994
1031.863	-1718
1031.928	-2038
1031.994	-1936
1032.059	-2190
1032.125	-1024
1032.190	-2157
1032.256	-2667
1032.321	-2046
1032.386	-2440
1032.452	-1014
1032.517	-1534
1032.582	-1816
1032.647	-1735
1032.713	-1594
1032.778	-1960
1032.843	-1073
1032.908	-1483
1032.974	-1081
1033.039	-1559
1033.104	-1748
1033.169	-1866
1033.234	-1563
1033.299	-1435
1033.364	-2404
1033.429	-1366
1033.494	-1235
1033.559	-1778
1033.624	-1388
1033.688	-963
1033.753	-2057
1033.818	-1769
1033.883	-1876
1033.948	-1870
1034.013	-995
1034.077	-1165
1034.142	-911
1034.207	-2128
1034.271	-403
1034.336	-477
1034.400	-418
1034.465	-940
1034.530	-1548
1034.594	-1993
1034.658	-1363
1034.723	-2285
1034.787	-1769
1034.852	-2001
1034.916	-1789
1034.981	-2320
1035.045	-897
1035.109	-1926
1035.173	-1048
1035.238	-1623
1035.302	-1866
1035.366	-1703
1035.430	-1851
1035.495	-1499
1035.559	-2218
1035.623	-1551
1035.687	-1863
1035.751	-1460
1035.815	-2119
1035.879	-1461
1035.943	-646
1036.007	-1649
1036.071	-1778
1036.135	-1513
1036.198	-1409
1036.262	-1494
1036.326	-1741
1036.390	-1207
1036.454	-1743
1036.517	-1503
1036.581	-1727
1036.645	-1060
1036.709	-2133
1036.772	-1665
1036.836	-2269
1036.900	-1969
1036.963	-1766
1037.026	-2050
1037.090	-1315
1037.154	-1342
1037.217	-1871
1037.280	-1876
1037.344	-2005
1037.407	-2206
1037.471	-2408
1037.534	-1803
1037.597	-2059
1037.661	-2066
1037.724	-2283
1037.787	-2472
1037.850	-1486
1037.913	-1906
1037.977	-1183
1038.040	-1507
1038.103	-1521
1038.166	-2550
1038.229	-1576
1038.292	-2008
1038.355	-1462
1038.418	-1917
1038.481	-1557
1038.544	-1960
1038.607	-1914
1038.670	-891
1038.732	-2158
1038.795	-1599
1038.858	-2001
1038.921	-1640
1038.984	-1920
1039.046	-2562
1039.109	-1765
1039.172	-2145
1039.234	-1741
1039.297	-1807
1039.360	-958
1039.422	-2587
1039.485	-2102
1039.547	-2357
1039.610	-1932
1039.672	-2393
1039.734	-1361
1039.797	-1677
1039.859	-1856
1039.922	-1110
1039.984	-1172
1040.046	-1032
1040.109	-1623
1040.171	-2529
1040.233	-2111
1040.295	-1918
1040.358	-1582
1040.420	-1239
1040.482	-1812
1040.544	-1413
1040.606	-1486
1040.668	-1824
1040.730	-1458
1040.792	-1760
1040.854	-1376
1040.916	-653
1040.978	-1584
1041.040	-1333
1041.102	-2411
1041.164	-2221
1041.225	-1144
1041.287	-2001
1041.349	-1706
1041.411	-1644
1041.472	-1434
1041.534	-2573
1041.596	-2684
1041.657	-1721
1041.719	-1816
1041.781	-1746
1041.842	-2667
1041.904	-1811
1041.965	-1798
1042.027	-2116
1042.088	-1910
1042.150	-2098
1042.211	-1471
1042.272	-1799
1042.334	-1741
1042.395	-1583
1042.456	-1217
1042.518	-1761
1042.579	-1456
1042.640	-1834
1042.701	-1508
1042.763	-2378
1042.824	-2142
1042.885	-2237
1042.946	-1955
1043.007	-2173
1043.068	-1732
1043.129	-2032
1043.190	-1799
1043.251	-705
1043.312	-1923
1043.373	-1601
1043.434	-948
1043.495	-1198
1043.556	-1014
1043.616	-1675
1043.677	-1250
1043.738	-1002
1043.799	-1547
1043.859	-1094
1043.920	-1010
1043.981	-1459
1044.041	-1446
1044.102	-2164
1044.162	-943
1044.223	-1603
1044.284	-1444
1044.344	-1241
1044.405	-1040
1044.465	-1583
1044.525	-1995
1044.586	-1245
1044.646	-2218
1044.707	-946
1044.767	-1190
1044.827	-2159
1044.887	-1704
1044.948	-1003
1045.008	-907
1045.068	-1984
1045.128	-1675
1045.188	-1574
1045.249	-627
1045.309	-944
1045.369	-755
1045.429	-1530
1045.489	-1537
1045.549	-1177
1045.609	-991
1045.669	-1606
1045.729	-1522
1045.789	-1865
1045.848	-1493
1045.908	-723
1045.968	-1134
1046.028	-1073
1046.088	-1648
1046.147	-1103
1046.207	-499
1046.267	-495
1046.326	-483
1046.386	-728
1046.446	-541
1046.505	-179
1046.565	-790
1046.624	-343
1046.684	-702
1046.743	-365
1046.803	10
1046.862	-280
1046.922	0
