'Start Wavelength	183.907
'End Wavelength	1046.922
'Gate Delay	5.000
'Gate Width (ms)	1.050
'Laser Output Level	0.000
'X Position	0.000
'Y Position	0.000
'Z Position	0.000
'Grid Point Number	1.000
'Shot Number	100.000
183.907	1217.000
183.977	548.000
184.047	396
184.116	576
184.186	40
184.256	-87
184.325	-249
184.395	-295
184.465	869
184.534	-2
184.604	280
184.674	524
184.743	-179
184.813	758
184.883	-43
184.952	-154
185.022	548
185.092	452
185.161	43
185.231	-83
185.301	189
185.370	366
185.440	-232
185.509	-134
185.579	303
185.649	257
185.718	137
185.788	483
185.857	12
185.927	-115
185.996	1161
186.066	-41
186.136	4
186.205	43
186.275	6
186.344	612
186.414	490
186.483	-417
186.553	1275
186.622	1149
186.692	706
186.761	-131
186.831	82
186.900	299
186.970	1080
187.039	-329
187.109	1190
187.178	287
187.248	-132
187.317	216
187.387	290
187.456	-150
187.526	113
187.595	417
187.664	188
187.734	392
187.803	2
187.873	-356
187.942	496
188.012	-13
188.081	42
188.150	225
188.220	174
188.289	444
188.358	224
188.428	751
188.497	142
188.567	95
188.636	-90
188.705	-517
188.775	-100
188.844	352
188.913	500
188.983	-294
189.052	-386
189.121	139
189.191	577
189.260	427
189.329	504
189.399	-250
189.468	709
189.537	-51
189.606	1211
189.676	217
189.745	724
189.814	794
189.883	-20
189.953	-241
190.022	1195
190.091	865
190.161	1104
190.230	501
190.299	1284
190.368	348
190.437	32
190.507	-576
190.576	-357
190.645	313
190.714	458
190.783	-199
190.853	382
190.922	193
190.991	-1
191.060	587
191.129	-460
191.198	298
191.268	406
191.337	67
191.406	458
191.475	27
191.544	112
191.613	207
191.682	-210
191.752	208
191.821	100
191.890	1206
191.959	34
192.028	80
192.097	234
192.166	455
192.235	-219
192.304	430
192.373	-34
192.442	-35
192.511	53
192.580	341
192.650	356
192.719	-503
192.788	300
192.857	-9
192.926	15
192.995	505
193.064	66
193.133	283
193.202	-356
193.271	120
193.340	580
193.409	456
193.478	603
193.547	252
193.615	267
193.684	295
193.753	324
193.822	548
193.891	-550
193.960	94
194.029	40
194.098	755
194.167	130
194.236	702
194.305	352
194.374	537
194.443	-227
194.512	385
194.580	584
194.649	1028
194.718	418
194.787	220
194.856	-336
194.925	106
194.994	410
195.062	310
195.131	184
195.200	68
195.269	427
195.338	-145
195.407	500
195.475	242
195.544	355
195.613	257
195.682	655
195.751	700
195.819	410
195.888	123
195.957	1224
196.026	187
196.094	766
196.163	615
196.232	468
196.301	570
196.369	315
196.438	258
196.507	59
196.576	222
196.644	447
196.713	-196
196.782	-346
196.850	169
196.919	147
196.988	215
197.056	-35
197.125	439
197.194	140
197.262	53
197.331	92
197.400	52
197.468	727
197.537	43
197.606	306
197.674	783
197.743	396
197.812	814
197.880	859
197.949	-16
198.017	668
198.086	511
198.155	312
198.223	895
198.292	845
198.360	-96
198.429	644
198.497	161
198.566	865
198.635	832
198.703	998
198.772	330
198.840	38
198.909	786
198.977	609
199.046	33
199.114	617
199.183	504
199.251	762
199.320	260
199.388	-199
199.457	-14
199.525	59
199.594	168
199.662	665
199.731	641
199.799	13
199.867	916
199.936	468
200.004	622
200.073	716
200.141	704
200.210	-420
200.278	461
200.346	367
200.415	468
200.483	568
200.552	163
200.620	464
200.688	57
200.757	-106
200.825	-327
200.893	78
200.962	1042
201.030	58
201.098	21
201.167	1122
201.235	316
201.303	600
201.372	733
201.440	892
201.508	433
201.577	323
201.645	332
201.713	919
201.781	377
201.850	844
201.918	588
201.986	618
202.055	478
202.123	511
202.191	17
202.259	540
202.327	-191
202.396	664
202.464	1138
202.532	252
202.600	1957
202.669	413
202.737	914
202.805	388
202.873	85
202.941	245
203.009	1023
203.078	315
203.146	326
203.214	681
203.282	48
203.350	-371
203.418	-123
203.487	-16
203.555	586
203.623	-54
203.691	435
203.759	107
203.827	58
203.895	730
203.963	-458
204.031	248
204.099	89
204.168	220
204.236	360
204.304	412
204.372	644
204.440	100
204.508	95
204.576	201
204.644	487
204.712	387
204.780	221
204.848	414
204.916	272
204.984	847
205.052	727
205.120	6
205.188	1041
205.256	236
205.324	-280
205.392	-198
205.460	573
205.528	-159
205.596	65
205.664	-449
205.732	-680
205.799	416
205.867	986
205.935	179
206.003	785
206.071	56
206.139	-469
206.207	803
206.275	-396
206.343	534
206.411	201
206.478	-103
206.546	951
206.614	-33
206.682	408
206.750	244
206.818	606
206.885	618
206.953	59
207.021	1122
207.089	347
207.157	97
207.225	-507
207.292	380
207.360	143
207.428	-660
207.496	9
207.563	-79
207.631	434
207.699	-319
207.767	514
207.834	296
207.902	426
207.970	632
208.038	225
208.105	-219
208.173	83
208.241	808
208.309	607
208.376	195
208.444	499
208.512	-451
208.579	-423
208.647	315
208.715	875
208.782	316
208.850	464
208.918	-358
208.985	501
209.053	287
209.120	1098
209.188	851
209.256	265
209.323	-209
209.391	277
209.459	1033
209.526	791
209.594	190
209.661	309
209.729	218
209.796	174
209.864	669
209.932	-351
209.999	1065
210.067	914
210.134	729
210.202	138
210.269	1730
210.337	1035
210.404	106
210.472	181
210.539	1196
210.607	22
210.674	405
210.742	530
210.809	30
210.877	498
210.944	1095
211.012	186
211.079	1660
211.146	32
211.214	-324
211.281	192
211.349	229
211.416	425
211.484	606
211.551	-75
211.618	1083
211.686	483
211.753	29
211.821	-182
211.888	315
211.955	979
212.023	-30
212.090	842
212.157	-187
212.225	90
212.292	649
212.359	1711
212.427	3520
212.494	1442
212.561	461
212.629	59
212.696	393
212.763	870
212.831	14
212.898	861
212.965	563
213.032	176
213.100	441
213.167	783
213.234	581
213.301	309
213.369	383
213.436	306
213.503	-51
213.570	645
213.638	671
213.705	128
213.772	38
213.839	-2
213.906	1387
213.973	-141
214.041	255
214.108	877
214.175	418
214.242	471
214.309	300
214.376	348
214.444	1298
214.511	1150
214.578	-31
214.645	1214
214.712	566
214.779	304
214.846	349
214.913	731
214.980	711
215.048	696
215.115	1222
215.182	567
215.249	1074
215.316	839
215.383	274
215.450	357
215.517	792
215.584	476
215.651	-422
215.718	646
215.785	754
215.852	1270
215.919	924
215.986	604
216.053	554
216.120	130
216.187	899
216.254	659
216.321	536
216.388	317
216.455	684
216.522	1123
216.589	626
216.656	1832
216.722	903
216.789	1453
216.856	1066
216.923	1127
216.990	802
217.057	306
217.124	1200
217.191	398
217.258	581
217.324	1198
217.391	1237
217.458	660
217.525	139
217.592	518
217.659	-892
217.725	1937
217.792	1043
217.859	1360
217.926	-86
217.993	489
218.059	472
218.126	-162
218.193	-103
218.260	115
218.327	539
218.393	132
218.460	788
218.527	-14
218.594	174
218.660	398
218.727	1802
218.794	1162
218.860	1026
218.927	865
218.994	106
219.061	55
219.127	637
219.194	0
219.261	190
219.327	70
219.394	358
219.461	336
219.527	175
219.594	548
219.661	407
219.727	-399
219.794	270
219.860	411
219.927	1032
219.994	365
220.060	1121
220.127	1294
220.193	877
220.260	62
220.326	305
220.393	1343
220.460	2751
220.526	1233
220.593	393
220.659	2076
220.726	888
220.792	1823
220.859	933
220.925	1844
220.992	3268
221.058	2826
221.125	3642
221.191	2258
221.258	1329
221.324	686
221.391	490
221.457	881
221.524	333
221.590	492
221.657	2289
221.723	509
221.789	1298
221.856	1406
221.922	222
221.989	670
222.055	387
222.121	-805
222.188	2240
222.254	1172
222.321	-134
222.387	-102
222.453	110
222.520	-163
222.586	417
222.652	688
222.719	786
222.785	362
222.851	319
222.918	532
222.984	408
223.050	266
223.116	-709
223.183	1440
223.249	219
223.315	199
223.382	712
223.448	504
223.514	-402
223.580	111
223.647	187
223.713	39
223.779	1058
223.845	116
223.911	439
223.978	-481
224.044	244
224.110	-196
224.176	938
224.242	323
224.309	-460
224.375	716
224.441	159
224.507	-169
224.573	-1290
224.639	1066
224.705	-296
224.772	230
224.838	229
224.904	1537
224.970	-470
225.036	169
225.102	-718
225.168	1307
225.234	222
225.300	-49
225.366	431
225.432	59
225.499	85
225.565	391
225.631	-88
225.697	281
225.763	223
225.829	-144
225.895	717
225.961	679
226.027	663
226.093	-425
226.159	1128
226.225	1432
226.291	2696
226.357	5363
226.423	3079
226.489	1478
226.554	1614
226.620	1331
226.686	1058
226.752	2177
226.818	2339
226.884	7019
226.950	5773
227.016	1644
227.082	956
227.148	1370
227.214	531
227.279	1082
227.345	-205
227.411	590
227.477	708
227.543	2108
227.609	1654
227.674	1265
227.740	436
227.806	581
227.872	642
227.938	506
228.003	1064
228.069	462
228.135	129
228.201	851
228.267	339
228.332	651
228.398	-99
228.464	891
228.530	-100
228.595	331
228.661	-650
228.727	638
228.792	1196
228.858	-101
228.924	-1243
228.990	2047
229.055	393
229.121	1315
229.187	1263
229.252	269
229.318	652
229.384	1016
229.449	548
229.515	-932
229.581	-30
229.646	1373
229.712	-350
229.777	958
229.843	689
229.909	926
229.974	1290
230.040	1052
230.105	222
230.171	-254
230.236	804
230.302	1203
230.368	1148
230.433	-53
230.499	809
230.564	910
230.630	-83
230.695	164
230.761	878
230.826	-469
230.892	1952
230.957	528
231.023	313
231.088	1033
231.154	369
231.219	1022
231.284	75
231.350	1624
231.415	-225
231.481	633
231.546	-363
231.612	222
231.677	639
231.742	-581
231.808	1005
231.873	39
231.939	-703
232.004	1742
232.069	1453
232.135	553
232.200	-313
232.265	638
232.331	-749
232.396	-82
232.461	157
232.527	333
232.592	-568
232.657	-43
232.723	205
232.788	529
232.853	702
232.918	650
232.984	-96
233.049	-449
233.114	-471
233.179	1036
233.245	1116
233.310	1304
233.375	-319
233.440	7
233.506	43
233.571	104
233.636	854
233.701	179
233.766	-347
233.832	-97
233.897	96
233.962	-1182
234.027	1087
234.092	922
234.157	-631
234.222	797
234.288	758
234.353	2955
234.418	3162
234.483	2135
234.548	1024
234.613	518
234.678	1080
234.743	49
234.808	3906
234.873	1101
234.938	1748
235.004	1263
235.069	488
235.134	-86
235.199	1224
235.264	203
235.329	38
235.394	1133
235.459	2081
235.524	228
235.589	610
235.654	72
235.719	-767
235.784	1458
235.849	750
235.913	1665
235.978	2198
236.043	2132
236.108	720
236.173	-281
236.238	831
236.303	581
236.368	582
236.433	793
236.498	1050
236.563	880
236.627	1910
236.692	7857
236.757	5859
236.822	2425
236.887	1937
236.952	2280
237.017	-218
237.081	2095
237.146	892
237.211	3358
237.276	7369
237.341	14662
237.405	5155
237.470	2200
237.535	1618
237.600	1045
237.664	1606
237.729	441
237.794	748
237.859	2780
237.923	1354
237.988	1428
238.053	1480
238.118	1053
238.182	2920
238.247	4805
238.312	1537
238.376	1993
238.441	-394
238.506	1658
238.570	-657
238.635	1314
238.700	921
238.764	-104
238.829	1192
238.893	1205
238.958	1395
239.023	790
239.087	599
239.152	579
239.216	-298
239.281	622
239.346	470
239.410	-652
239.475	673
239.539	4153
239.604	2255
239.668	969
239.733	921
239.797	1687
239.862	3724
239.926	3821
239.991	1667
240.055	392
240.120	440
240.184	1353
240.249	311
240.313	-182
240.378	540
240.442	1188
240.507	4013
240.571	1532
240.635	735
240.700	1909
240.764	978
240.829	262
240.893	-120
240.957	735
241.022	2226
241.086	3852
241.151	1313
241.215	336
241.279	1920
241.344	630
241.408	1699
241.472	442
241.537	1440
241.601	1192
241.665	444
241.730	868
241.794	1766
241.858	191
241.922	412
241.987	1384
242.051	490
242.115	-10
242.179	775
242.244	269
242.308	498
242.372	411
242.436	-163
242.501	1306
242.565	227
242.629	192
242.693	1673
242.757	225
242.822	558
242.886	366
242.950	935
243.014	523
243.078	1575
243.142	694
243.206	547
243.271	1193
243.335	-637
243.399	1268
243.463	3796
243.527	11534
243.591	3866
243.655	1279
243.719	891
243.783	1992
243.847	1819
243.911	2188
243.975	2817
244.040	1277
244.104	2248
244.168	1030
244.232	1451
244.296	2429
244.360	2375
244.424	1149
244.488	1238
244.552	1701
244.615	-781
244.679	632
244.743	624
244.807	801
244.871	1100
244.935	705
244.999	425
245.063	821
245.127	1446
245.191	1534
245.255	1363
245.319	1009
245.383	-84
245.446	1846
245.510	83
245.574	1367
245.638	1555
245.702	-175
245.766	2758
245.829	2666
245.893	200
245.957	368
246.021	1537
246.085	640
246.149	1960
246.212	4002
246.276	3809
246.340	1959
246.404	1365
246.467	2443
246.531	624
246.595	2537
246.659	2245
246.722	1063
246.786	2837
246.850	2143
246.913	2033
246.977	87
247.041	982
247.104	744
247.168	1396
247.232	2867
247.295	6590
247.359	3656
247.423	1984
247.486	3834
247.550	2547
247.614	1881
247.677	2724
247.741	1377
247.804	570
247.868	1624
247.932	2380
247.995	6788
248.059	2441
248.122	1185
248.186	2003
248.249	3710
248.313	9645
248.376	11622
248.440	6798
248.503	1931
248.567	3342
248.630	2941
248.694	4945
248.757	6978
248.821	11402
248.884	8092
248.948	6004
249.011	9725
249.075	12765
249.138	12204
249.202	4846
249.265	2838
249.328	3816
249.392	2220
249.455	3224
249.519	2317
249.582	2748
249.645	3717
249.709	2465
249.772	1539
249.835	1531
249.899	1750
249.962	2021
250.025	1647
250.089	4417
250.152	7236
250.215	3680
250.279	2021
250.342	2407
250.405	3055
250.468	1996
250.532	2490
250.595	4120
250.658	10761
250.721	19081
250.785	6922
250.848	4401
250.911	2169
250.974	2611
251.038	3323
251.101	7675
251.164	3641
251.227	4463
251.290	2911
251.354	4903
251.417	15774
251.480	15812
251.543	10239
251.606	28686
251.669	21124
251.732	8688
251.795	9433
251.859	9028
251.922	18793
251.985	11692
252.048	5229
252.111	4122
252.174	3260
252.237	6409
252.300	15122
252.363	13670
252.426	25304
252.489	10831
252.552	5802
252.615	3329
252.678	4394
252.741	10579
252.804	11219
252.867	24812
252.930	15850
252.993	8029
253.056	5832
253.119	3502
253.182	2739
253.245	4355
253.308	4879
253.371	3226
253.434	3803
253.497	3780
253.559	7202
253.622	4207
253.685	5576
253.748	7269
253.811	3133
253.874	3626
253.937	3018
254.000	3040
254.062	5205
254.125	6434
254.188	6474
254.251	6123
254.314	2295
254.376	5449
254.439	6442
254.502	5401
254.565	3838
254.628	8444
254.690	5311
254.753	3324
254.816	2332
254.878	3130
254.941	5594
255.004	5209
255.067	2518
255.129	2202
255.192	1560
255.255	309
255.317	2125
255.380	928
255.443	-127
255.505	1235
255.568	180
255.631	1159
255.693	1191
255.756	962
255.819	2121
255.881	395
255.944	1635
256.006	125
256.069	968
256.132	647
256.194	1576
256.257	2750
256.319	2298
256.382	2274
256.444	1506
256.507	553
256.569	637
256.632	870
256.694	913
256.757	5303
256.819	13852
256.882	3951
256.944	2396
257.007	2687
257.069	2140
257.132	815
257.194	1308
257.257	57
257.319	-367
257.381	197
257.444	4335
257.506	14863
257.569	17217
257.631	8407
257.693	5997
257.756	2729
257.818	1538
257.880	370
257.943	2219
258.005	679
258.067	906
258.130	953
258.192	2278
258.254	3243
258.317	2317
258.379	1688
258.441	2733
258.503	4884
258.566	3183
258.628	6444
258.690	1268
258.753	3038
258.815	3910
258.877	1641
258.939	1008
259.001	1777
259.064	932
259.126	421
259.188	1027
259.250	994
259.312	1382
259.375	3716
259.437	2732
259.499	1219
259.561	1163
259.623	884
259.685	806
259.747	1501
259.809	3788
259.872	7580
259.934	10545
259.996	10282
260.058	2682
260.120	1310
260.182	1082
260.244	572
260.306	634
260.368	1548
260.430	341
260.492	1242
260.554	4184
260.616	2809
260.678	6299
260.740	8248
260.802	2488
260.864	2248
260.926	627
260.988	941
261.050	1185
261.112	1125
261.174	7024
261.236	5911
261.298	2014
261.359	3417
261.421	5306
261.483	1194
261.545	2034
261.607	-29
261.669	766
261.731	2719
261.793	6177
261.854	2431
261.916	2488
261.978	737
262.040	899
262.102	1259
262.164	1379
262.225	1422
262.287	1333
262.349	2978
262.411	3207
262.472	2001
262.534	1221
262.596	4225
262.658	1965
262.719	384
262.781	1999
262.843	4045
262.904	2855
262.966	1738
263.028	1980
263.090	7672
263.151	19954
263.213	6606
263.275	3395
263.336	1787
263.398	1426
263.459	366
263.521	882
263.583	3470
263.644	2752
263.706	776
263.767	-177
263.829	733
263.891	421
263.952	1041
264.014	-14
264.075	360
264.137	1668
264.198	2205
264.260	-211
264.321	662
264.383	1987
264.444	4224
264.506	1260
264.567	935
264.629	1659
264.690	564
264.752	1582
264.813	1394
264.875	455
264.936	763
264.998	6
265.059	577
265.120	527
265.182	1004
265.243	7677
265.305	6535
265.366	1425
265.427	1140
265.489	1203
265.550	-232
265.611	1165
265.673	77
265.734	502
265.795	1458
265.857	196
265.918	7
265.979	2725
266.040	10803
266.102	8509
266.163	2454
266.224	2053
266.286	686
266.347	-186
266.408	1411
266.469	1792
266.530	701
266.592	470
266.653	2315
266.714	4195
266.775	1370
266.836	1446
266.898	236
266.959	141
267.020	731
267.081	1728
267.142	352
267.203	359
267.264	-632
267.326	1445
267.387	1334
267.448	660
267.509	428
267.570	786
267.631	288
267.692	-132
267.753	841
267.814	142
267.875	2486
267.936	4981
267.997	1348
268.058	2320
268.119	699
268.180	827
268.241	124
268.302	885
268.363	1162
268.424	658
268.485	526
268.546	254
268.607	743
268.668	775
268.729	-276
268.790	-446
268.851	734
268.912	2292
268.972	4363
269.033	418
269.094	-360
269.155	636
269.216	1007
269.277	746
269.338	471
269.398	448
269.459	779
269.520	2107
269.581	1733
269.642	3636
269.702	898
269.763	1902
269.824	672
269.885	1224
269.945	2670
270.006	931
270.067	-463
270.128	313
270.188	306
270.249	-142
270.310	-202
270.370	626
270.431	137
270.492	-213
270.553	1288
270.613	1790
270.674	5468
270.734	1891
270.795	116
270.856	1412
270.916	976
270.977	1033
271.038	1780
271.098	1193
271.159	2519
271.219	2050
271.280	727
271.340	651
271.401	446
271.462	2151
271.522	1860
271.583	1235
271.643	486
271.704	792
271.764	908
271.825	3741
271.885	11889
271.946	15685
272.006	5886
272.066	6527
272.127	11363
272.187	3868
272.248	2390
272.308	1501
272.369	7667
272.429	4851
272.489	3807
272.550	2990
272.610	3623
272.671	3812
272.731	1755
272.791	3876
272.852	3154
272.912	2151
272.972	638
273.033	718
273.093	1608
273.153	2479
273.214	1522
273.274	1113
273.334	5698
273.394	11442
273.455	5395
273.515	4910
273.575	11544
273.635	5248
273.696	5646
273.756	12411
273.816	5279
273.876	3319
273.936	4221
273.997	9699
274.057	2338
274.117	1447
274.177	4207
274.237	15058
274.297	13301
274.358	7990
274.418	8910
274.478	8263
274.538	2883
274.598	1615
274.658	6236
274.718	9916
274.778	4125
274.838	1300
274.898	2665
274.958	12415
275.018	11611
275.078	8411
275.138	2884
275.198	1249
275.258	1189
275.318	2156
275.378	2964
275.438	4848
275.498	2711
275.558	4876
275.618	12059
275.678	9053
275.738	6619
275.798	4270
275.858	2096
275.918	691
275.978	1600
276.038	1921
276.098	923
276.157	3054
276.217	9718
276.277	4892
276.337	3056
276.397	2036
276.457	2582
276.517	876
276.576	1009
276.636	632
276.696	1972
276.756	6711
276.815	4306
276.875	866
276.935	1800
276.995	1806
277.055	726
277.114	1807
277.174	1482
277.234	8030
277.293	3913
277.353	1289
277.413	777
277.472	1358
277.532	1070
277.592	2073
277.651	7571
277.711	16120
277.771	4331
277.830	18026
277.890	15052
277.950	8436
278.009	25955
278.069	10326
278.128	9949
278.188	16458
278.248	6676
278.307	16494
278.367	10449
278.426	2209
278.486	1979
278.545	1778
278.605	813
278.664	387
278.724	1142
278.783	4945
278.843	12772
278.902	3222
278.962	2400
279.021	2236
279.081	3039
279.140	3053
279.199	2541
279.259	3013
279.318	2210
279.378	3406
279.437	5874
279.496	20935
279.556	61967
279.615	53533
279.675	14928
279.734	8435
279.793	11458
279.853	15861
279.912	6871
279.971	3892
280.031	2975
280.090	5744
280.149	12212
280.208	9508
280.268	41128
280.327	47618
280.386	12028
280.445	7595
280.505	8370
280.564	3586
280.623	3194
280.682	4661
280.742	7908
280.801	2345
280.860	1624
280.919	985
280.978	1178
281.037	1060
281.097	430
281.156	1755
281.215	1521
281.274	1420
281.333	8279
281.392	6653
281.451	1449
281.510	697
281.569	961
281.628	742
281.688	871
281.747	1343
281.806	975
281.865	1570
281.924	1262
281.983	1049
282.042	-87
282.101	-183
282.160	748
282.219	417
282.278	932
282.337	5310
282.396	4872
282.454	661
282.513	2862
282.572	9356
282.631	6289
282.690	1924
282.749	916
282.808	904
282.867	1167
282.926	1287
282.985	883
283.043	526
283.102	1394
283.161	773
283.220	2938
283.279	8970
283.338	2966
283.396	1603
283.455	1106
283.514	1550
283.573	3128
283.631	1276
283.690	1474
283.749	1243
283.808	3665
283.866	5574
283.925	1047
283.984	1614
284.043	2689
284.101	3077
284.160	2326
284.219	2563
284.277	2420
284.336	3589
284.395	13214
284.453	11254
284.512	3675
284.570	5228
284.629	5802
284.688	4757
284.746	5587
284.805	6502
284.863	9650
284.922	12806
284.981	13329
285.039	18329
285.098	31724
285.156	59870
285.215	73397
285.273	72979
285.332	68944
285.390	40464
285.449	26289
285.507	17720
285.566	12478
285.624	9709
285.683	7856
285.741	5678
285.799	4579
285.858	4290
285.916	3307
285.975	2884
286.033	3206
286.091	2114
286.150	1894
286.208	2353
286.267	1876
286.325	2293
286.383	4653
286.442	3681
286.500	1557
286.558	1901
286.616	1809
286.675	2107
286.733	1575
286.791	1618
286.850	2055
286.908	2912
286.966	6141
287.024	1746
287.083	831
287.141	884
287.199	1718
287.257	2427
287.315	1773
287.374	2039
287.432	4917
287.490	4183
287.548	1209
287.606	1101
287.664	673
287.723	2339
287.781	3173
287.839	998
287.897	1425
287.955	2132
288.013	2249
288.071	7417
288.129	28405
288.187	88737
288.245	43144
288.303	12281
288.361	6232
288.419	4215
288.477	2957
288.535	2312
288.593	2068
288.651	901
288.709	1099
288.767	982
288.825	279
288.883	524
288.941	417
288.999	424
289.057	317
289.115	73
289.173	249
289.231	969
289.289	448
289.346	100
289.404	914
289.462	2820
289.520	2732
289.578	1546
289.636	178
289.694	-363
289.751	-423
289.809	900
289.867	-222
289.925	438
289.983	1628
290.040	-106
290.098	195
290.156	1349
290.214	1020
290.271	1049
290.329	200
290.387	-268
290.444	92
290.502	-416
290.560	744
290.617	27
290.675	612
290.733	418
290.790	313
290.848	346
290.906	839
290.963	1125
291.021	84
291.078	854
291.136	970
291.194	3225
291.251	10149
291.309	3282
291.366	1342
291.424	91
291.481	1629
291.539	1266
291.596	828
291.654	750
291.711	-338
291.769	932
291.826	3245
291.884	2235
291.941	653
291.999	332
292.056	671
292.114	900
292.171	270
292.228	1154
292.286	1057
292.343	3397
292.401	4250
292.458	2427
292.515	1118
292.573	1796
292.630	1352
292.687	1428
292.745	1026
292.802	1244
292.859	5728
292.917	11477
292.974	7271
293.031	2356
293.089	1024
293.146	597
293.203	-230
293.260	-131
293.318	615
293.375	2079
293.432	683
293.489	823
293.546	320
293.604	1673
293.661	5595
293.718	17100
293.775	9554
293.832	4768
293.889	3874
293.947	3288
294.004	1891
294.061	1834
294.118	5201
294.175	11193
294.232	12286
294.289	6258
294.346	2258
294.403	1662
294.460	1569
294.517	1605
294.574	1403
294.631	805
294.688	1237
294.745	5266
294.802	17388
294.859	20084
294.916	9023
294.973	4530
295.030	3266
295.087	3413
295.144	1909
295.201	2204
295.258	1186
295.315	1956
295.372	6948
295.429	14050
295.486	7377
295.542	2713
295.599	5960
295.656	13390
295.713	10428
295.770	13937
295.827	5706
295.883	2094
295.940	2549
295.997	4461
296.054	4738
296.111	2091
296.167	2114
296.224	488
296.281	887
296.338	-198
296.394	1110
296.451	1900
296.508	5250
296.564	12425
296.621	8345
296.678	13952
296.734	22306
296.791	9565
296.848	4497
296.904	4459
296.961	11164
297.018	16895
297.074	13735
297.131	5254
297.187	2203
297.244	4443
297.301	13611
297.357	27004
297.414	11414
297.470	4054
297.527	2307
297.583	2206
297.640	2331
297.696	899
297.753	437
297.809	153
297.866	272
297.922	696
297.979	834
298.035	1030
298.092	2228
298.148	8509
298.204	9454
298.261	4964
298.317	6773
298.374	18396
298.430	12317
298.486	4466
298.543	3022
298.599	2883
298.656	3242
298.712	5919
298.768	16114
298.824	11408
298.881	3202
298.937	1620
298.993	1602
299.050	2020
299.106	2660
299.162	1763
299.218	2384
299.275	1398
299.331	2041
299.387	4239
299.443	16377
299.500	20476
299.556	10135
299.612	3490
299.668	3448
299.724	4555
299.780	5699
299.837	2480
299.893	4087
299.949	15555
300.005	22246
300.061	16866
300.117	24544
300.173	14536
300.229	5693
300.285	6190
300.341	9479
300.397	4163
300.453	2499
300.510	1590
300.566	2013
300.622	3485
300.678	10230
300.734	20807
300.790	17091
300.845	19123
300.901	13363
300.957	19490
301.013	15788
301.069	5876
301.125	3725
301.181	3754
301.237	3343
301.293	1931
301.349	870
301.405	1124
301.461	1296
301.516	736
301.572	2232
301.628	4888
301.684	4652
301.740	6125
301.796	11613
301.851	7760
301.907	13025
301.963	14700
302.019	18847
302.074	46731
302.130	51011
302.186	25759
302.242	10092
302.297	5963
302.353	5512
302.409	10732
302.464	11132
302.520	8662
302.576	18649
302.631	25065
302.687	15734
302.743	5926
302.798	3993
302.854	2092
302.910	2175
302.965	3175
303.021	6770
303.076	6502
303.132	9385
303.187	10827
303.243	5700
303.299	3036
303.354	1528
303.410	1928
303.465	1326
303.521	1270
303.576	1552
303.632	2450
303.687	4696
303.743	14478
303.798	15052
303.853	6719
303.909	2791
303.964	2521
304.020	4495
304.075	8458
304.130	7738
304.186	13424
304.241	14919
304.297	11927
304.352	6223
304.358	5971
304.407	3931
304.449	3529
304.463	3398
304.518	2991
304.539	3117
304.573	3305
304.629	2913
304.630	2935
304.684	4056
304.720	8764
304.739	11158
304.794	19499
304.811	16743
304.850	10212
304.902	4504
304.905	4134
304.960	2778
304.992	2121
305.015	1629
305.071	2203
305.083	2045
305.126	1466
305.173	1330
305.181	1324
305.236	1022
305.264	1284
305.292	1471
305.347	1923
305.354	2113
305.402	3427
305.445	2984
305.457	2838
305.512	3616
305.535	3738
305.567	3912
305.622	3969
305.626	4068
305.678	5987
305.716	12390
305.733	14961
305.788	19971
305.807	17334
305.843	12416
305.897	14328
305.898	14347
305.953	15655
305.988	10938
306.008	8207
306.063	4962
306.078	4545
306.118	3515
306.168	2232
306.173	2112
306.228	1631
306.259	1278
306.283	1082
306.338	1105
306.349	1060
306.393	725
306.440	1371
306.448	1518
306.503	1642
306.530	2144
306.558	2738
306.613	6679
306.620	7351
306.668	12160
306.711	16125
306.723	16758
306.778	14158
306.801	10963
306.833	7118
306.888	2896
306.892	2816
306.943	1948
306.982	1541
306.997	1475
307.052	2001
307.072	1951
307.107	1618
307.162	2031
307.163	2049
307.217	3652
307.253	4382
307.272	4736
307.327	5796
307.343	5411
307.381	4446
307.434	3795
307.436	3797
307.491	5544
307.524	9250
307.546	11268
307.600	14752
307.614	13298
307.655	8256
307.704	3806
307.710	3417
307.765	3076
307.795	3773
307.819	4289
307.874	7398
307.885	7312
307.929	6911
307.975	5886
307.984	5701
308.038	5236
308.065	6055
308.093	8794
308.148	18853
308.156	22185
308.202	40343
308.246	51583
308.257	52347
308.312	31020
308.336	23834
308.366	17644
308.421	11945
308.426	11406
308.475	6821
308.517	4904
308.530	4431
308.585	3421
308.607	3226
308.639	2996
308.694	2758
308.697	2849
308.748	4390
308.787	6156
308.803	6770
308.857	7281
308.877	6527
308.912	5208
308.967	4556
308.967	4573
309.021	6097
309.058	8477
309.076	10179
309.130	18066
309.148	21332
309.185	32921
309.238	54047
309.239	54166
309.293	71528
309.328	66163
309.348	58891
309.402	30303
309.418	23911
309.457	15315
309.508	9635
309.511	9391
309.566	9569
309.598	10441
309.620	12719
309.674	21810
309.688	24234
309.729	24589
309.778	18911
309.783	18297
309.837	11265
309.868	8249
309.892	8467
309.946	11611
309.959	13251
310.001	18035
310.049	21905
310.055	21470
310.109	13485
310.139	8649
310.163	6305
310.218	3555
310.229	3214
310.272	2500
310.319	2004
310.326	1898
310.381	1706
310.409	1463
310.435	1348
310.489	1215
310.499	1226
310.543	1197
310.589	1232
310.598	1204
310.652	1231
310.679	1082
310.706	1155
310.760	1417
310.769	1458
310.814	894
310.859	363
310.868	389
310.923	628
310.948	764
310.977	860
311.031	1133
311.038	1177
311.085	1140
311.128	945
311.139	919
311.193	947
311.218	968
311.247	1149
311.301	1503
311.308	1533
311.356	1058
311.398	691
311.410	613
311.464	321
311.488	253
311.518	496
311.572	769
311.578	814
311.626	1346
311.668	1902
311.680	1794
311.734	1205
311.758	964
311.788	858
311.842	689
311.847	687
311.896	892
311.937	1113
311.950	1084
312.004	1052
312.027	1031
312.058	934
312.112	821
312.117	825
312.165	798
312.207	804
312.297	1083
312.386	762
312.476	940
312.566	3209
312.656	421
312.745	177
312.835	608
312.925	1348
313.015	1201
313.104	50
313.194	757
313.284	369
313.374	1310
313.463	796
313.553	821
313.643	869
313.732	889
313.822	179
313.912	389
314.001	889
314.091	821
314.180	1255
314.270	1604
314.360	1110
314.449	1449
314.539	393
314.628	878
314.718	302
314.808	1342
314.897	250
314.987	517
315.076	1247
315.166	1648
315.255	289
315.345	1051
315.434	1192
315.524	763
315.613	974
315.703	1786
315.792	2377
315.881	3383
315.971	1575
316.060	2429
316.150	2069
316.239	1936
316.328	708
316.418	661
316.507	1204
316.597	1413
316.686	1196
316.775	890
316.865	1459
316.954	696
317.043	442
317.133	859
317.222	965
317.311	477
317.400	117
317.490	2093
317.579	1182
317.668	1253
317.757	2299
317.847	3258
317.936	6812
318.025	4645
318.114	2819
318.203	2192
318.293	2940
318.382	5025
318.471	4101
318.560	3764
318.649	3426
318.738	753
318.828	1231
318.917	1447
319.006	977
319.095	2465
319.184	5766
319.273	6000
319.362	4579
319.451	935
319.540	848
319.629	3489
319.718	6341
319.807	1759
319.896	2600
319.985	7445
320.074	4516
320.163	857
320.252	242
320.341	1321
320.430	830
320.519	2257
320.608	1360
320.697	913
320.786	720
320.875	1852
320.964	1951
321.053	4063
321.142	6150
321.230	6192
321.319	3449
321.408	9484
321.497	4073
321.586	4409
321.675	2249
321.764	3426
321.852	1660
321.941	5453
322.030	3198
322.119	2858
322.207	9542
322.296	3538
322.385	1272
322.474	3858
322.562	12528
322.651	6284
322.740	3900
322.829	4907
322.917	1725
323.006	2868
323.095	2969
323.183	1512
323.272	2133
323.361	3421
323.449	5442
323.538	1613
323.626	4172
323.715	2324
323.804	1408
323.892	4031
323.981	3151
324.069	1929
324.158	1436
324.246	769
324.335	2179
324.424	3863
324.512	1411
324.601	1953
324.689	2821
324.778	3358
324.866	1736
324.954	1069
325.043	525
325.131	1702
325.220	1856
325.308	871
325.397	2561
325.485	1355
325.574	-270
325.662	413
325.750	4
325.839	1432
325.927	686
326.015	736
326.104	322
326.192	1129
326.280	747
326.369	1160
326.457	1259
326.545	3533
326.634	1635
326.722	344
326.810	594
326.898	557
326.987	952
327.075	2559
327.163	2254
327.251	803
327.340	1362
327.428	1648
327.516	1496
327.604	845
327.692	750
327.781	833
327.869	704
327.957	937
328.045	803
328.133	1178
328.221	630
328.309	1379
328.397	361
328.485	1291
328.574	1394
328.662	5990
328.750	2088
328.838	155
328.926	853
329.014	408
329.102	1022
329.190	2686
329.278	1158
329.366	899
329.454	1154
329.542	-84
329.630	-97
329.718	1096
329.806	968
329.893	712
329.981	175
330.069	1173
330.157	2896
330.245	8285
330.333	4448
330.421	1476
330.509	2434
330.597	8792
330.684	4286
330.772	668
330.860	460
330.948	1095
331.036	474
331.123	554
331.211	549
331.299	268
331.387	1189
331.475	1523
331.562	369
331.650	213
331.738	289
331.825	672
331.913	-270
332.001	-278
332.089	-139
332.176	633
332.264	1030
332.352	1045
332.439	948
332.527	557
332.614	-329
332.702	619
332.790	679
332.877	792
332.965	1761
333.052	1559
333.140	1657
333.228	4145
333.315	614
333.403	631
333.490	990
333.578	2179
333.665	6299
333.753	2284
333.840	-208
333.928	690
334.015	1008
334.103	2014
334.190	4331
334.278	1925
334.365	1256
334.452	1532
334.540	1335
334.627	316
334.715	839
334.802	1764
334.889	3679
334.977	5855
335.064	2922
335.151	1079
335.239	1054
335.326	639
335.413	3194
335.501	3606
335.588	783
335.675	1113
335.762	390
335.850	888
335.937	949
336.024	1439
336.111	7106
336.199	6418
336.286	2599
336.373	1226
336.460	19
336.547	593
336.635	378
336.722	190
336.809	1016
336.896	1159
336.983	2397
337.070	4503
337.157	4706
337.245	3054
337.332	2158
337.419	887
337.506	-349
337.593	816
337.680	1287
337.767	3304
337.854	1451
337.941	1760
338.028	1415
338.115	-530
338.202	1107
338.289	971
338.376	3284
338.463	1765
338.550	1307
338.637	1794
338.724	1424
338.811	802
338.898	770
338.984	790
339.071	550
339.158	1102
339.245	3260
339.332	2304
339.419	1490
339.506	1323
339.593	-301
339.679	470
339.766	86
339.853	-64
339.940	2242
340.027	1352
340.113	1136
340.200	1423
340.287	653
340.374	585
340.460	2825
340.547	73
340.634	1510
340.720	8558
340.807	3865
340.894	403
340.980	999
341.067	1007
341.154	1145
341.240	1451
341.327	4159
341.414	1168
341.500	1140
341.587	1239
341.674	658
341.760	2342
341.847	3149
341.933	1609
342.020	513
342.106	678
342.193	596
342.279	1658
342.366	449
342.452	2317
342.539	1114
342.625	4224
342.712	8923
342.798	3616
342.885	1048
342.971	-651
343.058	59
343.144	-15
343.230	491
343.317	1108
343.403	938
343.490	1
343.576	87
343.662	665
343.749	853
343.835	514
343.921	1906
344.008	14278
344.094	30108
344.180	7012
344.267	2180
344.353	8708
344.439	7605
344.525	3250
344.612	1801
344.698	1653
344.784	39
344.870	1511
344.957	642
345.043	2286
345.129	-55
345.215	3286
345.301	1366
345.387	1111
345.474	712
345.560	122
345.646	-287
345.732	664
345.818	378
345.904	1254
345.990	1271
346.076	237
346.162	-193
346.249	999
346.335	-484
346.421	1071
346.507	3550
346.593	11939
346.679	2650
346.765	1737
346.851	1004
346.937	818
347.023	1203
347.108	1579
347.194	431
347.280	1215
347.366	897
347.452	4261
347.538	14147
347.624	12453
347.710	8483
347.796	1606
347.882	670
347.967	396
348.053	504
348.139	107
348.225	-20
348.311	359
348.397	-62
348.482	1174
348.568	1458
348.654	480
348.740	1054
348.825	761
348.911	1739
348.997	6980
349.083	13470
349.168	1647
349.254	157
349.340	1609
349.425	647
349.511	1049
349.597	869
349.682	2512
349.768	10462
349.854	4854
349.939	243
350.025	64
350.110	1343
350.196	190
350.282	32
350.367	339
350.453	728
350.538	875
350.624	-93
350.709	1136
350.795	-130
350.880	501
350.966	1642
351.051	1643
351.137	680
351.222	738
351.308	3761
351.393	9533
351.479	1849
351.564	568
351.649	1010
351.735	296
351.820	314
351.906	1243
351.991	804
352.076	5536
352.162	9495
352.247	2001
352.332	1031
352.418	1924
352.503	2543
352.588	14177
352.673	11658
352.759	3381
352.844	909
352.929	1468
353.014	1484
353.100	869
353.185	1939
353.270	2900
353.355	3368
353.441	1640
353.526	1268
353.611	2614
353.696	3269
353.781	2250
353.866	315
353.952	1491
354.037	2667
354.122	7198
354.207	5560
354.292	2508
354.377	607
354.462	797
354.547	309
354.632	1811
354.717	2091
354.802	787
354.887	884
354.972	1689
355.057	1008
355.142	403
355.227	1806
355.312	2018
355.397	4347
355.482	11357
355.567	4748
355.652	4579
355.737	4058
355.822	10975
355.907	9298
355.991	2510
356.076	556
356.161	934
356.246	110
356.331	1222
356.416	2140
356.501	18165
356.585	16463
356.670	2441
356.755	2586
356.840	1915
356.924	12162
357.009	39750
357.094	15556
357.179	3301
357.263	2607
357.348	2146
357.433	2213
357.517	1867
357.602	1444
357.687	692
357.771	2000
357.856	2075
357.941	1570
358.025	9353
358.110	37999
358.195	18153
358.279	2583
358.364	2428
358.448	8702
358.533	23818
358.617	16018
358.702	16239
358.787	5866
358.871	4191
358.956	3556
359.040	1430
359.125	1094
359.209	1035
359.294	693
359.378	1569
359.462	2051
359.547	1458
359.631	1174
359.716	730
359.800	125
359.885	1266
359.969	-145
360.053	1314
360.138	247
360.222	1442
360.306	2894
360.391	2110
360.475	3123
360.559	5950
360.644	7829
360.728	4772
360.812	9816
360.896	24419
360.981	9230
361.065	4778
361.149	2228
361.233	1972
361.318	689
361.402	1944
361.486	1412
361.570	714
361.654	2208
361.739	4487
361.823	15630
361.907	25616
361.991	4350
362.075	2508
362.159	5903
362.243	4438
362.327	3558
362.411	7445
362.495	3054
362.580	1930
362.664	493
362.748	605
362.832	973
362.916	113
363.000	9510
363.084	27635
363.168	29758
363.252	7069
363.336	2943
363.420	3448
363.503	4813
363.587	4898
363.671	2239
363.755	1851
363.839	3404
363.923	581
364.007	2338
364.091	2149
364.175	187
364.258	8983
364.342	8425
364.426	22949
364.510	12009
364.594	4990
364.677	4984
364.761	21343
364.845	15668
364.929	6317
365.013	5338
365.096	4626
365.180	3601
365.264	2505
365.347	7903
365.431	2520
365.515	808
365.598	547
365.682	2161
365.766	-1
365.849	486
365.933	1176
366.017	2289
366.100	208
366.184	-5
366.267	1667
366.351	1227
366.435	898
366.518	552
366.602	1131
366.685	1171
366.769	580
366.852	1128
366.936	2537
367.019	2023
367.103	570
367.186	2162
367.270	1042
367.353	-644
367.436	1967
367.520	266
367.603	1022
367.687	1586
367.770	3400
367.853	2915
367.937	7987
368.020	11906
368.104	2031
368.187	2808
368.270	4992
368.353	4176
368.437	3199
368.520	3234
368.603	3337
368.687	7746
368.770	17259
368.853	3966
368.936	3169
369.020	2158
369.103	1088
369.186	67
369.269	1124
369.352	1889
369.436	2285
369.519	2334
369.602	273
369.685	2210
369.768	146
369.851	1263
369.934	943
370.018	1004
370.101	2549
370.184	4614
370.267	1856
370.350	2705
370.433	4068
370.516	11634
370.599	13500
370.682	3012
370.765	10892
370.848	12032
370.931	19199
371.014	6631
371.097	191
371.180	1760
371.263	1595
371.346	327
371.429	2387
371.511	588
371.594	2185
371.677	3191
371.760	3492
371.843	3677
371.926	16491
372.009	34196
372.091	14515
372.174	8619
372.257	17971
372.340	7249
372.423	4680
372.505	5525
372.588	1857
372.671	6901
372.754	19098
372.836	9634
372.919	3770
373.002	4986
373.085	2795
373.167	4569
373.250	9320
373.332	17700
373.415	23869
373.498	43747
373.580	16865
373.663	20917
373.746	27493
373.828	6669
373.911	3621
373.993	2061
374.076	3966
374.159	3903
374.241	4750
374.324	16567
374.406	11759
374.489	14470
374.571	36570
374.654	14126
374.736	7458
374.819	22057
374.901	33334
374.983	31526
375.066	6365
375.148	2086
375.231	3355
375.313	6742
375.395	3480
375.478	1175
375.560	1763
375.643	2333
375.725	6873
375.807	26771
375.890	18340
375.972	3091
376.054	3874
376.136	2546
376.219	1289
376.301	8227
376.383	23404
376.465	9334
376.548	5933
376.630	6956
376.712	20715
376.794	9235
376.877	2003
376.959	493
377.041	1448
377.123	408
377.205	1173
377.287	-173
377.369	1050
377.452	780
377.534	1147
377.616	1179
377.698	428
377.780	995
377.862	1532
377.944	1351
378.026	-337
378.108	912
378.190	625
378.272	952
378.354	-11
378.436	339
378.518	254
378.600	3125
378.682	4788
378.764	12013
378.846	9094
378.928	1930
379.010	3659
379.091	2992
379.173	963
379.255	-248
379.337	711
379.419	4832
379.501	17477
379.583	6205
379.664	940
379.746	3412
379.828	12643
379.910	16661
379.991	13993
380.073	2240
380.155	560
380.237	637
380.318	659
380.400	1451
380.482	2500
380.564	3262
380.645	3022
380.727	2847
380.809	2293
380.890	1441
380.972	26
381.053	744
381.135	2014
381.217	4488
381.298	13686
381.380	6777
381.461	4835
381.543	20744
381.624	25053
381.706	5344
381.787	3016
381.869	2656
381.951	9200
382.032	34501
382.113	24410
382.195	4576
382.276	4842
382.358	6378
382.439	19308
382.521	22146
382.602	33472
382.684	15442
382.765	26654
382.846	31346
382.928	54994
383.009	29233
383.090	15975
383.172	62822
383.253	99190
383.334	33457
383.416	30123
383.497	16330
383.578	6761
383.659	12236
383.741	48847
383.822	131772
383.903	67561
383.984	23969
384.066	39384
384.147	22835
384.228	5313
384.309	3877
384.390	2979
384.471	2299
384.553	2587
384.634	3419
384.715	3263
384.796	1584
384.877	1664
384.958	12035
385.039	13844
385.120	5055
385.201	3122
385.282	2163
385.363	1869
385.444	1208
385.525	4066
385.606	15094
385.687	12834
385.768	2841
385.849	2919
385.930	17303
386.011	29347
386.092	7168
386.173	1797
386.254	1337
386.335	1745
386.416	1045
386.496	7089
386.577	12204
386.658	2520
386.739	1363
386.820	1779
386.901	-106
386.981	1678
387.062	820
387.143	2043
387.224	12005
387.304	11706
387.385	4228
387.466	-115
387.547	1540
387.627	1590
387.708	4406
387.789	21165
387.869	23870
387.950	6557
388.031	623
388.111	-1656
388.192	1573
388.273	1863
388.353	790
388.434	1262
388.514	3577
388.595	17732
388.676	23831
388.756	12766
388.837	11532
388.917	7012
388.998	-288
389.078	1441
389.159	754
389.239	-523
389.320	3473
389.400	481
389.480	3932
389.561	11792
389.641	5943
389.722	1846
389.802	2969
389.883	5507
389.963	14573
390.043	6529
390.124	507
390.204	4248
390.284	13507
390.365	7015
390.445	3954
390.525	9044
390.605	11763
390.686	6118
390.766	2339
390.846	1152
390.927	419
391.007	136
391.087	1403
391.167	756
391.247	-696
391.328	1152
391.408	2111
391.488	215
391.568	-590
391.648	1395
391.728	3390
391.808	2535
391.888	1917
391.969	6384
392.049	10295
392.129	4351
392.209	3755
392.289	14468
392.369	6591
392.449	1843
392.529	2278
392.609	2930
392.689	3120
392.769	12042
392.849	10394
392.929	6764
393.009	14917
393.089	11406
393.169	8754
393.248	29126
393.328	115063
393.408	121407
393.488	30090
393.568	8398
393.648	4037
393.728	2465
393.807	619
393.887	2395
393.967	1154
394.047	2294
394.127	2309
394.206	3541
394.286	12691
394.366	62304
394.446	65916
394.525	13129
394.605	2505
394.685	1889
394.764	3200
394.844	4505
394.924	3193
395.003	2054
395.083	444
395.163	1598
395.242	569
395.322	1560
395.402	-629
395.481	2692
395.561	1980
395.640	7789
395.720	8850
395.799	5862
395.879	3925
395.958	4216
396.038	18426
396.117	82434
396.197	85926
396.276	19921
396.356	5352
396.435	2776
396.515	2860
396.594	4097
396.673	9177
396.753	33331
396.832	108344
396.912	80882
396.991	18948
397.070	5477
397.150	1304
397.229	2840
397.308	3753
397.388	6539
397.467	2547
397.546	905
397.625	-1329
397.705	2387
397.784	1367
397.863	118
397.942	253
398.022	4
398.101	353
398.180	4405
398.259	1292
398.338	1754
398.417	124
398.497	-316
398.576	1582
398.655	-258
398.734	334
398.813	88
398.892	1023
398.971	5101
399.050	1561
399.129	-794
399.208	98
399.287	629
399.366	-245
399.445	-291
399.524	-123
399.603	-1550
399.682	1359
399.761	2786
399.840	4862
399.919	3465
399.998	-169
400.077	-620
400.156	-1294
400.235	1983
400.313	-597
400.392	249
400.471	6445
400.550	10861
400.629	1458
400.708	1062
400.786	-422
400.865	-130
400.944	402
401.023	2521
401.102	-644
401.180	268
401.259	-489
401.338	72
401.416	709
401.495	-438
401.574	375
401.652	-1129
401.731	474
401.810	-557
401.888	-986
401.967	-123
402.046	-382
402.124	1140
402.203	-381
402.281	921
402.360	302
402.438	1488
402.517	-400
402.596	779
402.674	-621
402.753	-230
402.831	107
402.910	439
402.988	2371
403.066	13053
403.145	8028
403.223	4186
403.302	10778
403.380	9233
403.459	7827
403.537	2539
403.615	-646
403.694	-1022
403.772	534
403.850	-93
403.929	-947
404.007	-372
404.085	1093
404.164	858
404.242	-142
404.320	684
404.398	394
404.477	4975
404.555	28227
404.633	23197
404.711	2814
404.789	719
404.868	-130
404.946	-494
405.024	-602
405.102	-264
405.180	-692
405.258	-1732
405.336	552
405.415	-1176
405.493	370
405.571	636
405.649	-1238
405.727	-1153
405.805	947
405.883	494
405.961	75
406.039	0
406.117	-1669
406.195	658
406.273	5066
406.351	24986
406.429	13468
406.507	455
406.585	-556
406.663	871
406.740	344
406.818	65
406.896	-149
406.974	1255
407.052	199
407.130	14235
407.208	20171
407.285	3853
407.363	-1055
407.441	286
407.519	-610
407.596	713
407.674	331
407.752	1300
407.830	1322
407.907	558
407.985	-797
408.063	-274
408.141	-693
408.218	366
408.296	-1059
408.373	-734
408.451	706
408.529	556
408.606	-351
408.684	-474
408.762	-215
408.839	-977
408.917	-269
408.994	-333
409.072	-1331
409.149	-372
409.227	172
409.304	1361
409.382	132
409.459	399
409.537	1884
409.614	944
409.692	286
409.769	-179
409.846	1758
409.924	2142
410.001	-260
410.079	476
410.156	803
410.233	200
410.311	-1532
410.388	-115
410.465	428
410.543	-205
410.620	488
410.697	773
410.775	563
410.852	-166
410.929	368
411.006	1577
411.083	-483
411.161	738
411.238	690
411.315	-421
411.392	-186
411.469	888
411.547	183
411.624	-1537
411.701	-10
411.778	71
411.855	1932
411.932	387
412.009	-459
412.086	-295
412.163	-151
412.240	-1106
412.317	-216
412.394	94
412.471	555
412.548	-35
412.625	-378
412.702	103
412.779	202
412.856	1293
412.933	-1690
413.010	-1069
413.087	287
413.164	6171
413.241	10139
413.318	940
413.395	761
413.471	627
413.548	-486
413.625	666
413.702	-415
413.779	-236
413.855	-1005
413.932	-884
414.009	-1350
414.086	-684
414.162	-230
414.239	-252
414.316	4991
414.393	14985
414.469	3528
414.546	478
414.623	-528
414.699	-156
414.776	425
414.853	-354
414.929	-145
415.006	-580
415.082	-351
415.159	225
415.236	-775
415.312	474
415.389	1229
415.465	575
415.542	-18
415.618	-554
415.695	531
415.771	-308
415.848	-389
415.924	-25
416.000	-226
416.077	440
416.153	-1193
416.230	-1088
416.306	-1134
416.383	17
416.459	-580
416.535	-719
416.612	-1088
416.688	-946
416.764	-648
416.841	-567
416.917	-1548
416.993	-206
417.069	285
417.146	215
417.222	1019
417.298	-90
417.374	-543
417.451	161
417.527	-202
417.603	-807
417.679	-315
417.755	-684
417.831	-1471
417.908	-871
417.984	-821
418.060	-1835
418.136	1055
418.212	1142
418.288	700
418.364	-19
418.440	-1168
418.516	-154
418.592	-769
418.668	1879
418.744	3081
418.820	2280
418.896	-72
418.972	-1316
419.048	-341
419.124	2347
419.200	-51
419.276	437
419.352	-1397
419.428	-249
419.504	-645
419.579	-325
419.655	-940
419.731	25
419.807	2349
419.883	4602
419.959	2708
420.034	635
420.110	1327
420.186	8845
420.262	7845
420.337	110
420.413	-416
420.489	-424
420.565	-68
420.640	-410
420.716	796
420.792	-2072
420.867	258
420.943	-773
421.019	635
421.094	-337
421.170	287
421.245	-837
421.321	334
421.397	-461
421.472	939
421.548	635
421.623	2058
421.699	545
421.774	654
421.850	-602
421.925	1361
422.001	1436
422.076	950
422.152	964
422.227	3469
422.302	4611
422.378	4757
422.453	11137
422.529	28099
422.604	78964
422.679	119122
422.755	83628
422.830	33971
422.905	13723
422.981	7106
423.056	4293
423.131	3183
423.207	2300
423.282	2392
423.357	3449
423.432	2176
423.508	1695
423.583	4093
423.658	3287
423.733	613
423.808	-166
423.883	1528
423.959	628
424.034	560
424.109	1039
424.184	-753
424.259	-506
424.334	54
424.409	-670
424.484	-206
424.559	-72
424.634	-383
424.709	281
424.784	155
424.859	-357
424.934	252
425.009	6613
425.084	11163
425.159	3108
425.234	575
425.309	-1502
425.384	35
425.459	-308
425.534	-446
425.609	-1276
425.683	-873
425.758	-330
425.833	-420
425.908	391
425.983	1946
426.058	11438
426.132	4215
426.207	-353
426.282	42
426.357	-688
426.431	-574
426.506	-775
426.581	-966
426.655	-105
426.730	-169
426.805	-873
426.879	365
426.954	394
427.029	718
427.103	9738
427.178	23707
427.253	9934
427.327	998
427.402	-33
427.476	-355
427.551	-243
427.625	-1163
427.700	-379
427.774	-1071
427.849	192
427.923	-711
427.998	-1012
428.072	-882
428.147	508
428.221	7167
428.296	22700
428.370	10763
428.444	1102
428.519	-1297
428.593	358
428.667	-796
428.742	632
428.816	1890
428.890	10905
428.965	20003
429.039	4395
429.113	434
429.188	576
429.262	315
429.336	1173
429.410	4561
429.485	3234
429.559	379
429.633	458
429.707	-383
429.781	604
429.855	10694
429.930	21463
430.004	7030
430.078	3864
430.152	8648
430.226	27244
430.300	29709
430.374	3284
430.448	699
430.522	992
430.596	4298
430.670	6312
430.744	24656
430.818	38256
430.892	7787
430.966	448
431.040	-206
431.114	-1364
431.188	-1061
431.262	-1458
431.336	-1176
431.410	92
431.484	643
431.557	2573
431.631	-643
431.705	63
431.779	2438
431.853	19619
431.927	13762
432.000	1381
432.074	-1234
432.148	-284
432.222	-669
432.295	-536
432.369	-761
432.443	-197
432.516	8184
432.590	24373
432.664	9281
432.737	558
432.811	-1136
432.885	-861
432.958	201
433.032	-562
433.106	-1624
433.179	-754
433.253	-470
433.326	-573
433.400	-1406
433.473	-785
433.547	-656
433.620	-654
433.694	246
433.767	701
433.841	-945
433.914	-739
433.988	-920
434.061	-709
434.134	-661
434.208	-477
434.281	-2083
434.355	-783
434.428	-726
434.501	-873
434.575	-1268
434.648	-1177
434.721	-1380
434.795	-1806
434.868	-797
434.941	-242
435.014	-875
435.088	-846
435.161	-26
435.234	673
435.307	812
435.381	-378
435.454	50
435.527	660
435.600	500
435.673	-449
435.746	-1281
435.819	-398
435.892	-1273
435.966	-639
436.039	-944
436.112	-163
436.185	-1168
436.258	-1168
436.331	-1470
436.404	-843
436.477	-1513
436.550	-961
436.623	-166
436.696	-816
436.769	-771
436.842	-869
436.915	-1523
436.987	-427
437.060	-770
437.133	-577
437.206	-1303
437.279	-72
437.352	-1260
437.425	-517
437.498	-997
437.570	1559
437.643	1243
437.716	131
437.789	-960
437.861	-361
437.934	2806
438.007	868
438.080	-656
438.152	-278
438.225	1652
438.298	11860
438.370	37795
438.443	16710
438.516	3218
438.588	133
438.661	-1304
438.734	-741
438.806	-713
438.879	-613
438.951	482
439.024	1045
439.096	42
439.169	-994
439.241	-951
439.314	-999
439.386	-586
439.459	-407
439.531	648
439.604	-781
439.676	-88
439.749	-1093
439.821	-1203
439.893	-1081
439.966	-1304
440.038	-627
440.110	-729
440.183	-437
440.255	-1063
440.327	-314
440.400	4453
440.472	23928
440.544	17868
440.617	2305
440.689	1386
440.761	1463
440.833	2239
440.905	1798
440.978	-1065
441.050	-1691
441.122	-862
441.194	-1404
441.266	-874
441.338	-982
441.411	935
441.483	7152
441.555	15438
441.627	3147
441.699	405
441.771	-6
441.843	-265
441.915	-350
441.987	-1045
442.059	-924
442.131	-55
442.203	-311
442.275	309
442.347	774
442.419	779
442.491	9831
442.563	30209
442.635	15175
442.706	4711
442.778	4770
442.850	982
442.922	-117
442.994	-354
443.066	473
443.137	811
443.209	-277
443.281	404
443.353	1237
443.425	12265
443.496	50350
443.568	58250
443.640	23504
443.711	3714
443.783	-461
443.855	216
443.926	-634
443.998	-437
444.070	203
444.141	558
444.213	2003
444.285	1743
444.356	616
444.428	634
444.499	-751
444.571	-767
444.642	-782
444.714	-673
444.785	688
444.857	214
444.928	677
445.000	1175
445.071	407
445.143	1120
445.214	1576
445.285	1523
445.357	6286
445.428	29061
445.500	79949
445.571	57339
445.642	32140
445.714	10059
445.785	5763
445.856	1941
445.928	2279
445.999	1504
446.070	1431
446.141	512
446.213	2711
446.284	345
446.355	172
446.426	-271
446.497	-611
446.569	-146
446.640	760
446.711	1924
446.782	-226
446.853	-487
446.924	101
446.995	-268
447.066	259
447.138	40
447.209	736
447.280	-1415
447.351	-557
447.422	-1116
447.493	-761
447.564	-72
447.635	1417
447.706	-1008
447.777	-726
447.847	-1127
447.918	-1365
447.989	-1203
448.060	-17
448.131	1233
448.202	2434
448.273	1702
448.344	1169
448.414	-514
448.485	-52
448.556	-475
448.627	-1293
448.698	-204
448.768	-689
448.839	-1207
448.910	-612
448.981	1071
449.051	-607
449.122	-790
449.193	-544
449.263	-452
449.334	-759
449.405	-201
449.475	2008
449.546	1502
449.616	371
449.687	729
449.758	-88
449.828	-548
449.899	-921
449.969	-1357
450.040	-641
450.110	-1015
450.181	-276
450.251	-623
450.322	-1003
450.392	-407
450.463	-379
450.533	-911
450.604	-871
450.674	-845
450.744	-612
450.815	-540
450.885	186
450.955	-160
451.026	-483
451.096	-410
451.166	-35
451.237	424
451.307	3143
451.377	1436
451.447	-193
451.518	-574
451.588	-1472
451.658	-375
451.728	-470
451.799	1635
451.869	3455
451.939	182
452.009	-327
452.079	-1485
452.149	-269
452.219	253
452.289	3018
452.360	3518
452.430	-54
452.500	-191
452.570	722
452.640	1051
452.710	3736
452.780	7046
452.850	6316
452.920	6226
452.990	2322
453.060	370
453.129	743
453.199	225
453.269	2041
453.339	9620
453.409	17245
453.479	11377
453.549	19573
453.619	21671
453.688	14494
453.758	1497
453.828	0
453.898	-212
453.968	362
454.037	-542
454.087	-824
454.107	-950
454.168	-640
454.177	-608
454.247	-720
454.249	-701
454.316	-535
454.330	-486
454.386	-350
454.411	-59
454.456	179
454.492	1887
454.525	3407
454.574	1939
454.595	1314
454.655	71
454.665	-129
454.734	321
454.736	356
454.804	575
454.817	1173
454.873	3065
454.898	3697
454.943	4642
454.979	3069
455.013	1751
455.060	1098
455.082	940
455.141	360
455.152	172
455.221	2771
455.222	2841
455.291	4281
455.303	3922
455.360	2441
455.384	1916
455.430	1200
455.465	1640
455.499	1800
455.546	2594
455.569	2656
455.627	3761
455.638	4064
455.707	39
455.708	48
455.777	-461
455.789	-379
455.846	-21
455.869	-227
455.916	-578
455.950	-274
455.985	-27
456.031	58
456.054	82
456.112	14
456.124	-23
456.193	370
456.193	360
456.262	-194
456.274	60
456.332	1258
456.355	1085
456.401	538
456.436	497
456.470	415
456.516	325
456.540	336
456.597	-378
456.609	-511
456.678	217
456.678	206
456.747	-433
456.759	-473
456.817	-257
456.840	-264
456.886	-510
456.920	-184
456.955	211
457.001	564
457.024	793
457.082	597
457.093	547
457.162	1688
457.163	1702
457.232	527
457.243	547
457.301	823
457.324	509
457.370	-31
457.405	188
457.439	471
457.485	436
457.508	477
457.566	666
457.577	689
457.646	1330
457.647	1348
457.715	3268
457.727	3845
457.784	7884
457.808	9947
457.853	11533
457.889	12962
457.922	12072
457.969	8054
457.991	8913
458.050	11966
458.060	12540
458.129	20895
458.130	21168
458.198	17284
458.211	15297
458.267	8806
458.292	5677
458.336	3732
458.372	3823
458.405	5897
458.453	9114
458.474	12138
458.533	23123
458.543	23803
458.611	32873
458.614	33192
458.680	19286
458.694	14320
458.749	6143
458.775	4190
458.818	2620
458.855	2129
458.887	1672
458.936	1145
458.955	1019
459.016	912
459.024	932
459.093	1393
459.097	1404
459.162	1617
459.177	1781
459.230	2481
459.257	2830
459.299	2907
459.338	2652
459.368	2504
459.418	2601
459.437	2421
459.499	2073
459.505	2105
459.574	1535
459.579	1538
459.643	1457
459.659	1449
459.711	1253
459.740	988
459.780	1220
459.820	1837
459.849	1826
459.900	1828
459.917	1864
459.981	1657
459.986	1622
460.054	1198
460.061	1171
460.123	1813
460.141	2028
460.191	2777
460.222	3115
460.260	3061
460.302	3575
460.328	3570
460.382	3115
460.397	3030
460.462	1774
460.465	1761
460.534	2615
460.543	2615
460.602	4501
460.623	5609
460.671	8649
460.703	11020
460.739	10100
460.783	8276
460.808	7025
460.864	2358
460.876	2085
460.944	1892
460.945	1886
461.013	1793
461.024	1782
461.081	1841
461.104	2147
461.150	2552
461.184	2520
461.218	2313
461.264	2058
461.286	2069
461.345	1775
461.355	1719
461.423	2170
461.425	2160
461.491	1641
461.505	1714
461.559	3759
461.585	4439
461.628	6758
461.665	9272
461.696	10321
461.745	12247
461.764	10456
461.825	3986
461.832	3996
461.901	3010
461.905	2998
461.969	2280
461.985	2146
462.037	2308
462.065	2284
462.105	2097
462.145	2141
462.173	3334
462.225	5315
462.241	5882
462.305	8934
462.310	8689
462.378	4754
462.385	4199
462.446	3103
462.465	2749
462.514	2320
462.545	2370
462.582	2363
462.625	2114
462.650	2003
462.705	1757
462.718	1730
462.785	2192
462.786	2215
462.854	2961
462.865	3147
462.922	4388
462.945	4769
462.990	3759
463.025	3011
463.058	2742
463.104	2305
463.126	2091
463.184	1618
463.194	1816
463.262	2962
463.264	3013
463.330	3041
463.344	3030
463.398	3126
463.424	3048
463.466	2910
463.504	2797
463.533	2712
463.583	2904
463.601	3175
463.663	3661
463.669	3727
463.737	4680
463.743	4774
463.805	7061
463.823	7696
463.873	10619
463.903	12375
463.940	13206
463.982	14472
464.008	11466
464.062	4503
464.076	4212
464.142	2272
464.144	2262
464.211	2268
464.221	2305
464.279	2543
464.301	2585
464.347	3412
464.381	4118
464.414	3768
464.461	3229
464.482	3515
464.540	4298
464.550	4159
464.617	2924
464.620	2886
464.685	4146
464.699	4380
464.753	4267
464.779	4215
464.820	4742
464.859	5319
464.888	5287
464.938	5028
464.956	5192
465.018	5826
465.023	5718
465.091	4182
465.098	4012
465.158	4173
465.177	4263
465.226	4187
465.257	4015
465.293	4342
465.336	4894
465.361	5448
465.416	6449
465.428	6718
465.495	8404
465.496	8448
465.563	13026
465.575	13848
465.631	15446
465.654	16137
465.698	10321
465.734	5300
465.765	4871
465.813	3900
465.833	3792
465.893	3897
465.900	3908
465.968	3891
465.972	3891
466.035	4606
466.052	4757
466.102	4275
466.131	4035
466.170	4364
466.210	4651
466.237	4832
466.290	5146
466.304	5204
466.369	5414
466.372	5437
466.439	5875
466.449	5918
466.506	6549
466.528	6786
466.573	8503
466.607	9733
466.641	14369
466.687	20853
466.708	22276
466.766	26093
466.775	24430
466.842	11662
466.845	11031
466.909	7574
466.925	6752
466.977	6884
467.004	6969
467.044	6988
467.083	7011
467.111	7170
467.163	7422
467.178	7687
467.242	8732
467.245	8708
467.312	7912
467.321	7795
467.379	7458
467.400	7315
467.446	7768
467.480	8076
467.559	6821
467.638	5942
467.717	7180
467.796	7807
467.875	9276
467.955	7611
468.034	10025
468.113	21770
468.192	31435
468.271	9203
468.350	8099
468.429	11347
468.508	10833
468.588	7886
468.667	6770
468.746	6129
468.825	5632
468.904	5508
468.983	5995
469.062	10077
469.141	12058
469.220	4501
469.299	5637
469.378	4929
469.456	7550
469.535	6334
469.614	5992
469.693	5943
469.772	8212
469.851	10690
469.930	7576
470.009	5744
470.088	6267
470.166	9604
470.245	16926
470.324	19771
470.403	12187
470.482	8196
470.560	7192
470.639	7316
470.718	8208
470.797	5987
470.875	7002
470.954	10010
471.033	9720
471.111	3973
471.190	4391
471.269	5249
471.347	3633
471.426	5343
471.505	6774
471.583	6070
471.662	5741
471.740	4858
471.819	4649
471.898	4806
471.976	5096
472.055	4860
472.133	5551
472.212	7750
472.290	6957
472.369	5505
472.447	4700
472.526	3797
472.604	5160
472.683	5642
472.761	6157
472.839	5939
472.918	5121
472.996	5245
473.075	5354
473.153	6620
473.231	5097
473.310	7621
473.388	6732
473.466	6246
473.545	6401
473.623	9707
473.701	8910
473.780	6031
473.858	4105
473.936	6932
474.014	5863
474.093	5878
474.171	7832
474.249	11212
474.327	7061
474.405	4396
474.484	4840
474.562	4453
474.640	5849
474.718	5562
474.796	4951
474.874	5461
474.952	4538
475.030	4007
475.108	4246
475.187	5485
475.265	7890
475.343	9649
475.421	11476
475.499	4216
475.577	5470
475.655	6692
475.733	12236
475.811	21513
475.889	18466
475.966	12451
476.044	5293
476.122	8090
476.200	9716
476.278	7358
476.356	4311
476.434	5828
476.512	6448
476.590	10138
476.667	7874
476.745	4276
476.823	5283
476.901	4003
476.979	4587
477.056	4941
477.134	4901
477.212	5616
477.290	4935
477.367	3950
477.445	4270
477.523	3961
477.601	4558
477.678	3703
477.756	5270
477.834	6146
477.911	3855
477.989	5005
478.066	3735
478.144	4374
478.222	7336
478.299	12543
478.377	10034
478.454	4580
478.532	4351
478.609	5109
478.687	5835
478.764	3898
478.842	4886
478.919	5057
478.997	4912
479.074	4437
479.152	4556
479.229	5692
479.307	3090
479.384	3611
479.461	3307
479.539	3324
479.616	5406
479.694	4101
479.771	4471
479.848	4407
479.926	5243
480.003	7544
480.080	3918
480.157	4052
480.235	3204
480.312	4101
480.389	3233
480.467	6849
480.544	7943
480.621	4744
480.698	4754
480.775	5611
480.853	4323
480.930	4526
481.007	3951
481.084	4203
481.161	4297
481.238	4722
481.315	4001
481.392	3730
481.470	3443
481.547	3753
481.624	3630
481.701	3717
481.778	3313
481.855	4537
481.932	6962
482.009	12099
482.086	6909
482.163	5195
482.240	8738
482.317	16817
482.393	11473
482.470	5602
482.547	4277
482.624	4978
482.701	4948
482.778	3820
482.855	3117
482.932	3981
483.009	3378
483.085	5025
483.162	5607
483.239	6014
483.316	4020
483.393	5294
483.469	4408
483.546	5311
483.623	5083
483.699	3704
483.776	4352
483.853	5279
483.930	6703
484.006	16022
484.083	28050
484.160	13558
484.236	18634
484.313	15089
484.389	10926
484.466	10517
484.543	9771
484.619	10203
484.696	12422
484.772	11468
484.849	11632
484.925	8776
485.002	8829
485.078	9193
485.155	10492
485.231	8403
485.308	8617
485.384	9088
485.461	11309
485.537	18438
485.614	20989
485.690	8822
485.766	8219
485.843	11101
485.919	16408
485.995	17243
486.072	8030
486.148	7377
486.224	7374
486.301	7751
486.377	9793
486.453	10757
486.530	9257
486.606	12122
486.682	13419
486.758	16141
486.835	18176
486.911	13664
486.987	26154
487.063	34408
487.139	47102
487.215	29557
487.292	11787
487.368	9945
487.444	12195
487.520	18426
487.596	16844
487.672	29950
487.748	89679
487.824	130457
487.900	35223
487.976	11803
488.052	12120
488.128	15707
488.204	11032
488.280	9511
488.356	10082
488.432	21346
488.508	30746
488.584	11831
488.660	9085
488.736	8388
488.812	9472
488.888	13257
488.964	18377
489.039	47953
489.115	74722
489.191	36553
489.267	8801
489.343	7945
489.418	6545
489.494	6569
489.570	5439
489.646	7916
489.722	7069
489.797	7426
489.873	10505
489.949	23337
490.024	16989
490.100	6742
490.176	7097
490.251	10105
490.327	15173
490.403	7582
490.478	7429
490.554	5732
490.629	5497
490.705	6001
490.781	7207
490.856	6500
490.932	8140
491.007	7995
491.083	7592
491.158	6262
491.234	9136
491.309	18241
491.385	16650
491.460	6437
491.536	7761
491.611	7674
491.686	8347
491.762	13243
491.837	30052
491.913	49766
491.988	71179
492.063	87941
492.139	18504
492.214	8839
492.289	5691
492.365	5784
492.440	6967
492.515	5799
492.590	5573
492.666	5280
492.741	7922
492.816	10404
492.891	5119
492.967	5405
493.042	4588
493.117	3871
493.192	4566
493.267	6450
493.342	9688
493.418	9266
493.493	5532
493.568	4333
493.643	5012
493.718	6711
493.793	11064
493.868	13624
493.943	8754
494.018	6466
494.093	4218
494.168	5346
494.243	4363
494.318	3729
494.393	4963
494.468	4239
494.543	4917
494.618	6085
494.693	3962
494.768	4676
494.842	4129
494.917	4288
494.992	5027
495.067	4370
495.142	4260
495.217	4797
495.292	5852
495.366	6529
495.441	7931
495.516	11564
495.591	17209
495.665	66936
495.740	164132
495.815	50904
495.890	8527
495.964	4425
496.039	7095
496.114	5154
496.188	5420
496.263	5536
496.338	4523
496.412	6235
496.487	7212
496.561	9748
496.636	9291
496.710	6433
496.785	6716
496.860	7706
496.934	5300
497.009	7081
497.083	5440
497.158	6246
497.232	8300
497.307	10329
497.381	7928
497.455	8391
497.530	12359
497.604	8115
497.679	9049
497.753	14613
497.827	19585
497.902	17837
497.976	21119
498.050	43307
498.125	162938
498.199	148975
498.273	30932
498.348	25269
498.422	18284
498.496	16861
498.570	15221
498.645	10643
498.719	9304
498.793	12100
498.867	18541
498.941	21249
499.016	60326
499.090	170483
499.164	44810
499.238	7905
499.312	6090
499.386	9796
499.460	8422
499.534	8560
499.609	10040
499.683	13344
499.757	12491
499.831	26898
499.905	109171
499.979	88161
500.053	14957
500.127	16365
500.201	13966
500.275	7543
500.349	7611
500.422	8899
500.496	15330
500.570	35341
500.644	65218
500.718	110670
500.792	19309
500.866	6483
500.940	8037
501.013	7822
501.087	6963
501.161	16954
501.235	18738
501.309	35072
501.382	93049
501.456	73270
501.530	18659
501.603	30160
501.677	9493
501.751	4512
501.825	8415
501.898	12170
501.972	37006
502.046	18987
502.119	6797
502.193	18906
502.266	42097
502.340	16536
502.413	17342
502.487	33789
502.561	19023
502.634	5953
502.708	6280
502.781	4569
502.855	5076
502.928	3347
503.002	3917
503.075	2750
503.149	3215
503.222	3995
503.295	4447
503.369	4893
503.442	7811
503.516	27859
503.589	70304
503.662	40132
503.736	13941
503.809	33812
503.882	23972
503.956	40733
504.029	38170
504.102	50004
504.175	68343
504.249	18363
504.322	8059
504.395	5950
504.468	5365
504.542	3729
504.615	2770
504.688	4688
504.761	2578
504.834	5972
504.907	7525
504.980	13144
505.053	5854
505.127	7044
505.200	10077
505.273	5909
505.346	2916
505.419	2886
505.492	3714
505.565	2398
505.638	3254
505.711	2328
505.784	2004
505.857	2169
505.930	3573
506.003	2443
506.076	5448
506.149	3948
506.221	5106
506.294	6207
506.367	13945
506.440	51562
506.513	21799
506.586	6712
506.659	3342
506.731	4073
506.804	4993
506.877	7521
506.950	4780
507.022	3493
507.095	3611
507.168	5818
507.241	4482
507.313	3128
507.386	2852
507.459	7661
507.531	3761
507.604	2603
507.677	3083
507.749	985
507.822	5007
507.894	9129
507.967	10405
508.040	5738
508.112	5194
508.185	5291
508.257	4784
508.330	9248
508.402	3543
508.475	3971
508.547	4303
508.620	3938
508.692	7628
508.765	3942
508.837	2383
508.909	3655
508.982	3602
509.054	4681
509.127	3483
509.199	3333
509.271	2344
509.344	2642
509.416	3758
509.488	3504
509.560	3948
509.633	4403
509.705	4709
509.777	3778
509.849	8550
509.922	3848
509.994	2366
510.066	4775
510.138	2437
510.210	8535
510.283	6091
510.355	5337
510.427	5045
510.499	5045
510.571	4048
510.643	4106
510.715	10460
510.787	7847
510.859	6217
510.931	5937
511.003	9363
511.076	8424
511.148	3534
511.219	3805
511.291	6883
511.363	7612
511.435	4007
511.507	2229
511.579	3942
511.651	3823
511.723	3199
511.795	3041
511.867	3500
511.939	6090
512.010	9428
512.082	7518
512.154	4429
512.226	3305
512.298	6899
512.369	10203
512.441	7899
512.513	8991
512.585	4418
512.656	5561
512.728	6779
512.800	5128
512.871	5529
512.943	5570
513.015	3622
513.086	5218
513.158	5926
513.230	4916
513.301	8838
513.373	12077
513.444	5431
513.516	4361
513.588	4363
513.659	5252
513.731	8863
513.802	5847
513.874	16203
513.945	29860
514.016	7022
514.088	5492
514.159	5089
514.231	8304
514.302	9244
514.374	6248
514.445	5052
514.516	13117
514.588	7128
514.659	5143
514.730	9496
514.802	10296
514.873	6108
514.944	7189
515.016	6177
515.087	6831
515.158	8266
515.229	10911
515.301	6746
515.372	9070
515.443	5327
515.514	4441
515.585	2917
515.656	6199
515.728	4955
515.799	3464
515.870	5508
515.941	5377
516.012	5132
516.083	7207
516.154	7808
516.225	13705
516.296	13169
516.367	10698
516.438	12387
516.509	18919
516.580	28415
516.651	92609
516.722	341671
516.793	117930
516.864	23855
516.935	23450
517.006	27544
517.077	40055
517.148	96389
517.219	385568
517.289	533462
517.360	91619
517.431	23635
517.502	9606
517.573	10598
517.643	8785
517.714	8885
517.785	10711
517.856	11936
517.926	17266
517.997	20980
518.068	28358
518.138	40453
518.209	63048
518.280	238382
518.350	877865
518.421	258226
518.492	30313
518.562	16360
518.633	16412
518.703	14173
518.774	29784
518.845	78439
518.915	72358
518.986	20397
519.056	15306
519.127	24341
519.197	34676
519.268	58717
519.338	29379
519.408	10353
519.479	16233
519.549	8375
519.620	7264
519.690	5011
519.760	4456
519.831	5084
519.901	4608
519.971	3368
520.042	4425
520.112	5217
520.182	8450
520.253	8352
520.323	4136
520.393	3321
520.463	6629
520.534	1867
520.604	7915
520.674	6479
520.744	4993
520.814	8331
520.885	9700
520.955	15437
521.025	59332
521.095	16518
521.165	5607
521.235	4650
521.305	4013
521.375	3986
521.445	5561
521.515	7578
521.585	8925
521.655	6681
521.725	7650
521.795	5351
521.865	1883
521.935	7763
522.005	4749
522.075	3467
522.145	4834
522.215	3416
522.285	7348
522.355	9746
522.424	18767
522.494	13448
522.564	9091
522.634	23044
522.704	72638
522.774	21320
522.843	5687
522.913	5369
522.983	7577
523.053	5393
523.122	5777
523.192	8586
523.262	38770
523.331	32608
523.401	6312
523.471	3377
523.540	4562
523.610	2284
523.680	3475
523.749	2929
523.819	4299
523.888	3430
523.958	2225
524.027	3508
524.097	3435
524.166	3267
524.236	3146
524.305	5389
524.375	2635
524.444	1511
524.514	4601
524.583	3338
524.653	3302
524.722	5489
524.791	2685
524.861	4291
524.930	3204
524.999	2807
525.069	7474
525.138	3424
525.207	4086
525.277	4079
525.346	3975
525.415	4117
525.484	4500
525.554	3727
525.623	5163
525.692	4998
525.761	6232
525.830	7430
525.900	9516
525.969	14441
526.038	25946
526.107	50951
526.176	155701
526.245	113380
526.314	37139
526.383	80475
526.452	101003
526.522	180724
526.591	161339
526.660	46026
526.729	23461
526.797	28799
526.867	54855
526.935	234199
527.004	414229
527.073	189822
527.142	16660
527.211	8200
527.280	7983
527.349	8303
527.418	3136
527.487	4547
527.555	2654
527.624	2289
527.693	2162
527.762	4608
527.831	2626
527.899	3400
527.968	2923
528.037	2631
528.106	5272
528.174	10801
528.243	6293
528.312	11220
528.380	14005
528.449	3436
528.518	4332
528.586	877
528.655	3535
528.723	2385
528.792	1995
528.861	2333
528.929	1226
528.998	3658
529.066	1685
529.135	2623
529.203	1079
529.272	696
529.340	3273
529.409	3968
529.477	1613
529.545	3239
529.614	5304
529.682	2060
529.751	4340
529.819	5086
529.887	3278
529.956	2025
530.024	3338
530.092	2130
530.161	4779
530.229	7729
530.297	3118
530.365	3154
530.434	2657
530.502	225
530.570	1660
530.638	963
530.707	3023
530.775	3517
530.843	1720
530.911	1993
530.979	2375
531.047	1652
531.115	2930
531.183	2611
531.252	3409
531.320	2064
531.388	1882
531.456	2705
531.524	24
531.592	3194
531.660	4206
531.728	1499
531.796	1988
531.864	2287
531.932	3418
532.000	2515
532.067	2466
532.135	3922
532.203	5222
532.271	3435
532.339	9673
532.407	29314
532.475	15082
532.542	6596
532.610	9037
532.678	11256
532.746	53735
532.814	130532
532.881	26167
532.949	5724
533.017	4390
533.084	3414
533.152	2789
533.220	2941
533.287	3596
533.355	3273
533.423	3403
533.490	1975
533.558	3271
533.625	2076
533.693	2761
533.761	3995
533.828	3275
533.896	2932
533.963	9355
534.031	11031
534.098	15539
534.166	6206
534.233	3243
534.300	4253
534.368	3749
534.435	2783
534.503	4002
534.570	4681
534.637	4849
534.705	5981
534.772	8096
534.840	14010
534.907	68572
534.974	79261
535.041	8258
535.109	5463
535.176	3716
535.243	2972
535.310	4341
535.378	3249
535.445	2912
535.512	2994
535.579	3245
535.646	1983
535.714	3992
535.781	4516
535.848	3617
535.915	4122
535.982	2293
536.049	3290
536.116	4942
536.183	2407
536.250	3559
536.317	3323
536.384	4987
536.451	8735
536.518	9394
536.585	4485
536.652	8523
536.719	12196
536.786	7384
536.853	5967
536.920	10546
536.987	18125
537.053	16446
537.120	66757
537.187	53434
537.254	5201
537.321	4536
537.388	5302
537.454	3301
537.521	3691
537.588	2790
537.654	4616
537.721	4475
537.788	5873
537.855	2856
537.921	4996
537.988	3661
538.055	3836
538.121	3222
538.188	5520
538.254	8607
538.321	19108
538.388	9738
538.454	5101
538.521	4089
538.587	3427
538.654	3095
538.720	3943
538.787	3303
538.853	4270
538.920	5342
538.986	4565
539.053	4424
539.119	4553
539.185	4632
539.252	5855
539.318	9354
539.385	6835
539.451	4566
539.517	5888
539.583	7318
539.650	17693
539.716	46557
539.782	11538
539.849	5112
539.915	5970
539.981	3879
540.047	6523
540.114	6346
540.180	7024
540.246	6064
540.312	8421
540.378	17209
540.444	18358
540.510	19350
540.576	54503
540.643	14543
540.709	3621
540.775	3931
540.841	4623
540.907	6543
540.973	8078
541.039	8229
541.105	9955
541.171	5321
541.237	4296
541.303	5819
541.369	7845
541.435	8909
541.500	14751
541.566	8262
541.632	4143
541.698	3805
541.764	5269
541.830	4041
541.896	3560
541.961	4773
542.027	4306
542.093	5311
542.159	4653
542.224	4604
542.290	8034
542.356	14670
542.421	17481
542.487	6856
542.553	4660
542.618	4745
542.684	5343
542.750	5818
542.815	7256
542.881	11839
542.947	46676
543.012	32689
543.078	5278
543.143	4640
543.209	6005
543.274	4792
543.340	7297
543.405	17596
543.471	26533
543.536	5765
543.602	5074
543.667	3590
543.732	6025
543.798	3463
543.863	4365
543.928	4476
543.994	3328
544.059	4666
544.124	4515
544.190	4700
544.255	4843
544.320	5136
544.386	5404
544.451	8805
544.516	9365
544.581	8952
544.646	28354
544.712	43058
544.777	7697
544.842	6053
544.907	5533
544.972	5106
545.037	5454
545.102	6335
545.168	5362
545.233	6217
545.298	6695
545.363	7315
545.428	8859
545.493	17539
545.558	37271
545.623	13882
545.688	4615
545.753	5471
545.818	5696
545.883	6668
545.947	5857
546.012	6018
546.077	5735
546.142	7025
546.207	6765
546.272	9833
546.337	9669
546.401	8061
546.466	7529
546.531	5956
546.596	8796
546.661	8205
546.725	8984
546.790	7089
546.855	9110
546.919	8008
546.984	10812
547.049	10141
547.113	12702
547.178	11462
547.243	14194
547.307	17295
547.372	19654
547.436	19124
547.501	18851
547.565	20758
547.630	20577
547.695	20034
547.759	19498
547.823	18960
547.888	18816
547.952	18043
548.017	19345
548.081	20454
548.146	22936
548.210	21903
548.274	20795
548.339	21286
548.403	19629
548.468	18481
548.532	17664
548.596	18490
548.660	18415
548.725	20135
548.789	23240
548.853	22370
548.917	20198
548.982	21890
549.046	19877
549.110	16171
549.174	16806
549.238	18481
549.303	19806
549.367	22839
549.431	21681
549.495	19408
549.559	19667
549.623	23086
549.687	25597
549.751	29594
549.815	29672
549.879	29286
549.943	26920
550.007	29327
550.071	29054
550.135	29081
550.199	24830
550.263	25243
550.327	23861
550.391	25224
550.455	26185
550.519	27627
550.582	30064
550.646	35788
550.710	36985
550.774	31843
550.838	32668
550.901	32882
550.965	34826
551.029	37081
551.093	40259
551.156	45681
551.220	58084
551.284	66337
551.347	46496
551.411	47105
551.475	43648
551.538	35919
551.602	32239
551.666	30729
551.729	28308
551.793	27746
551.856	28220
551.920	26074
551.983	26984
552.047	27067
552.110	27542
552.174	26801
552.237	28322
552.301	25319
552.364	25297
552.428	24939
552.491	26059
552.554	26887
552.618	27171
552.681	28020
552.745	27551
552.808	36925
552.871	45965
552.934	30799
552.998	27256
553.061	25063
553.124	24749
553.187	24793
553.251	24713
553.314	24836
553.377	24592
553.440	27017
553.503	27080
553.567	29029
553.630	26469
553.693	26199
553.756	26412
553.819	25867
553.882	25164
553.945	25222
554.008	25078
554.071	25235
554.134	26176
554.197	23474
554.260	23777
554.323	25530
554.386	25281
554.449	25440
554.512	26172
554.575	23759
554.638	24670
554.701	23871
554.764	24575
554.827	22074
554.889	22340
554.952	21635
555.015	20056
555.078	20177
555.141	21433
555.203	20034
555.266	20657
555.329	21178
555.391	19351
555.454	20955
555.517	19976
555.580	18914
555.642	17988
555.705	17346
555.768	18281
555.830	17373
555.893	15464
555.955	16624
556.018	15528
556.080	16141
556.143	16386
556.206	15254
556.268	15915
556.330	16142
556.393	15600
556.455	15347
556.518	16836
556.580	16542
556.643	14204
556.705	13667
556.767	12785
556.830	14380
556.892	14794
556.955	20055
557.017	15295
557.079	12732
557.142	12513
557.204	14197
557.266	22292
557.328	18085
557.391	11209
557.453	11495
557.515	11116
557.577	13776
557.639	13524
557.701	11608
557.764	10944
557.826	11504
557.888	12634
557.950	13650
558.012	14623
558.074	18263
558.136	41933
558.198	99060
558.260	32265
558.322	14236
558.384	15659
558.446	18560
558.508	21416
558.570	26642
558.632	39070
558.694	53484
558.756	64334
558.818	188203
558.880	430241
558.942	116557
559.003	103829
559.065	47504
559.127	21530
559.189	22412
559.251	26204
559.312	37554
559.374	86133
559.436	290225
559.498	119291
559.559	23409
559.621	21928
559.683	25441
559.744	41997
559.806	135051
559.868	188578
559.929	32413
559.991	22050
560.052	34262
560.114	97384
560.176	56289
560.237	54413
560.299	86395
560.360	17650
560.422	8557
560.483	8289
560.545	7221
560.606	6952
560.667	7238
560.729	6759
560.790	6745
560.852	6711
560.913	6730
560.974	6781
561.036	6016
561.097	6666
561.158	7093
561.220	7717
561.281	6598
561.342	7181
561.403	8434
561.465	10107
561.526	25149
561.587	30667
561.648	7993
561.709	6533
561.771	7136
561.832	6542
561.893	6877
561.954	5829
562.015	6671
562.076	7128
562.137	6225
562.198	6869
562.259	6569
562.320	7144
562.381	7427
562.442	10124
562.503	8228
562.564	6477
562.625	6550
562.686	6598
562.747	6169
562.808	6705
562.869	5766
562.930	6289
562.991	6168
563.051	5490
563.112	5465
563.173	5369
563.234	5026
563.294	5439
563.355	5919
563.416	7119
563.477	5880
563.537	5880
563.598	6485
563.659	5455
563.720	5738
563.780	6133
563.841	5676
563.901	6474
563.962	5798
564.023	5980
564.083	5856
564.144	6255
564.204	6030
564.265	5962
564.325	7051
564.386	9842
564.446	8226
564.507	5047
564.567	5888
564.628	6042
564.688	5826
564.749	6183
564.809	7189
564.869	7901
564.930	6108
564.990	7175
565.050	5514
565.111	6916
565.171	5713
565.231	6162
565.292	6521
565.352	5232
565.412	6560
565.472	6255
565.532	6500
565.593	6428
565.653	6258
565.713	6496
565.773	7456
565.833	7950
565.893	10762
565.953	5850
566.013	6223
566.074	6665
566.134	7659
566.194	10159
566.254	10373
566.314	7424
566.374	5777
566.434	6340
566.494	7190
566.554	6444
566.614	6923
566.673	7001
566.733	8096
566.793	7972
566.853	7136
566.913	6800
566.973	7477
567.033	7906
567.092	7870
567.152	7440
567.212	8152
567.272	7842
567.331	7811
567.391	7943
567.451	7987
567.511	9728
567.570	9098
567.630	8183
567.690	7712
567.749	7833
567.809	8440
567.868	8717
567.928	9555
567.988	10351
568.047	10886
568.107	13381
568.166	17421
568.226	26620
568.285	35385
568.345	27780
568.404	21370
568.464	17351
568.523	16330
568.582	17770
568.642	19549
568.701	24721
568.761	36265
568.820	58241
568.879	50711
568.939	33692
568.998	23538
569.057	18037
569.116	14323
569.176	11743
569.235	10288
569.294	9537
569.353	8839
569.413	8544
569.472	8558
569.531	7114
569.590	7770
569.649	6887
569.708	6786
569.767	7892
569.827	9448
569.886	6836
569.945	6544
570.004	7905
570.063	7203
570.122	8110
570.181	7484
570.240	7667
570.299	7859
570.358	8418
570.417	6751
570.475	6727
570.534	7211
570.593	7290
570.652	8092
570.711	7366
570.770	6775
570.829	8175
570.887	7548
570.946	8291
571.005	6428
571.064	7224
571.122	8445
571.181	8214
571.240	6078
571.299	6017
571.357	6197
571.416	5720
571.475	6429
571.533	6542
571.592	6361
571.650	7082
571.709	5812
571.768	7064
571.826	7071
571.885	6799
571.943	5807
572.002	6085
572.060	5687
572.119	5735
572.177	5946
572.236	5690
572.294	5763
572.352	6812
572.411	6752
572.469	6264
572.528	6104
572.586	6224
572.644	6593
572.703	8818
572.761	6538
572.819	6607
572.877	5523
572.936	5845
572.994	5388
573.052	6419
573.110	6031
573.169	5335
573.227	6149
573.285	6018
573.343	6156
573.401	5466
573.459	5765
573.517	6095
573.576	6582
573.634	5870
573.692	5190
573.750	5117
573.808	5282
573.866	5574
573.924	7011
573.982	6090
574.040	6064
574.098	5116
574.155	5239
574.213	5645
574.271	5239
574.329	6138
574.387	5180
574.445	4577
574.503	5274
574.560	5315
574.618	5749
574.676	4931
574.734	5041
574.792	6115
574.849	5306
574.907	4699
574.965	5311
575.022	5419
575.080	4576
575.138	4994
575.195	5296
575.253	5436
575.311	6604
575.368	6319
575.426	4371
575.483	6129
575.541	5011
575.598	5277
575.656	4721
575.713	4930
575.771	5414
575.828	4947
575.886	4862
575.943	5311
576.001	5474
576.058	5304
576.115	5335
576.173	5272
576.230	6562
576.287	7125
576.345	6327
576.402	5647
576.459	5277
576.517	5434
576.574	5498
576.631	6287
576.688	5387
576.746	5239
576.803	4932
576.860	5038
576.917	6414
576.974	5007
577.031	5313
577.089	5394
577.146	4850
577.203	5651
577.260	5701
577.317	5232
577.374	5750
577.431	5226
577.488	5740
577.545	5214
577.602	5973
577.659	4969
577.716	4854
577.773	5199
577.830	4297
577.886	4472
577.943	4949
578.000	4983
578.057	5821
578.114	5385
578.171	5065
578.227	4643
578.284	4651
578.341	6088
578.398	5047
578.454	5438
578.511	5409
578.568	6390
578.625	5697
578.681	4629
578.738	4912
578.794	5562
578.851	6055
578.908	6273
578.964	6284
579.021	6974
579.077	6178
579.134	5748
579.190	5390
579.247	5852
579.303	5665
579.360	5466
579.416	5266
579.473	5750
579.529	4816
579.586	5637
579.642	5926
579.698	6083
579.755	5745
579.811	5377
579.867	6171
579.924	5436
579.980	5636
580.036	5195
580.093	5824
580.149	5851
580.205	6370
580.261	5415
580.317	5613
580.374	6444
580.430	7404
580.486	7002
580.542	6037
580.598	5224
580.619	5671
580.654	6449
580.692	6230
580.710	6124
580.765	6583
580.767	6597
580.823	5512
580.838	5759
580.879	6411
580.911	6124
580.935	5909
580.984	5671
580.991	5643
581.047	6712
581.057	6703
581.103	6632
581.130	6481
581.159	6320
581.203	6644
581.215	6725
581.270	6063
581.276	6067
581.326	6148
581.349	6045
581.382	5890
581.422	6563
581.438	6828
581.494	6200
581.494	6201
581.550	6069
581.567	6468
581.606	7356
581.640	7272
581.661	7213
581.713	7526
581.717	7554
581.773	6622
581.786	6736
581.829	7023
581.859	7161
581.885	7326
581.932	7200
581.940	7149
581.996	7199
582.004	7168
582.052	7023
582.077	6775
582.107	6495
582.150	7457
582.163	7736
582.219	6942
582.223	6975
582.274	7322
582.296	7251
582.330	7140
582.368	7696
582.386	7993
582.441	7884
582.441	7880
582.497	7676
582.514	7420
582.552	6866
582.587	6859
582.608	6894
582.659	7266
582.663	7285
582.719	7677
582.732	7732
582.774	8001
582.805	7803
582.830	7564
582.877	8002
582.885	8088
582.941	7529
582.950	7670
582.996	8352
583.023	8532
583.052	8799
583.095	8240
583.107	8017
583.162	7907
583.168	7976
583.218	8922
583.240	8952
583.273	8805
583.313	8708
583.328	8788
583.384	9319
583.385	9321
583.439	8855
583.458	8769
583.494	8704
583.531	8720
583.549	8845
583.603	9118
583.605	9115
583.660	8936
583.676	9006
583.715	9456
583.748	9508
583.770	9449
583.820	9049
583.825	9005
583.881	9649
583.893	9561
583.936	9469
583.965	9859
583.991	10097
584.038	9868
584.046	9862
584.101	9622
584.110	9644
584.156	9652
584.183	9796
584.211	10120
584.255	10864
584.266	10996
584.321	9637
584.328	9736
584.376	10886
584.400	10982
584.431	10878
584.472	10650
584.486	10640
584.541	10984
584.545	10997
584.596	11046
584.617	10854
584.651	11112
584.689	12057
584.706	12086
584.761	11253
584.762	11240
584.816	11887
584.834	12077
584.871	12057
584.906	12370
584.926	12640
584.978	11489
584.980	11460
585.035	13216
585.051	13298
585.090	13791
585.123	14152
585.145	14028
585.195	14399
585.200	14505
585.254	15133
585.267	15453
585.309	16557
585.340	17008
585.364	17358
585.412	18583
585.419	18773
585.473	20893
585.484	21308
585.528	23917
585.556	27212
585.583	31787
585.628	43891
585.637	47709
585.692	89230
585.700	96818
585.747	127019
585.772	99803
585.801	59753
585.845	27273
585.856	22555
585.910	19271
585.917	18976
585.965	17812
585.989	17374
586.019	17101
586.061	16927
586.074	16953
586.128	17378
586.133	17424
586.183	17832
586.205	17651
586.237	17519
586.277	17420
586.292	17499
586.346	17210
586.349	17221
586.401	18079
586.421	18257
586.455	18229
586.493	18801
586.509	19265
586.564	18987
586.565	19005
586.618	21432
586.637	21604
586.672	21500
586.709	21168
586.727	21187
586.781	22212
586.781	22249
586.835	22172
586.853	22342
586.889	21613
586.925	21163
586.944	21409
586.996	21324
586.998	21377
587.052	22791
587.068	23094
587.106	23581
587.140	23845
587.161	23741
587.212	23133
587.215	23234
587.269	25009
587.284	25249
587.323	25055
587.356	25318
587.377	25916
587.427	26668
587.431	26711
587.485	27248
587.499	27140
587.539	27601
587.571	28182
587.593	28581
587.643	29030
587.648	29173
587.702	30234
587.715	30536
587.755	31103
587.786	31281
587.810	31578
587.858	31907
587.864	32133
587.917	35067
587.930	35457
587.971	36398
588.001	37385
588.025	38565
588.073	40085
588.079	40429
588.133	43775
588.145	44564
588.187	47694
588.217	49960
588.241	52046
588.288	55709
588.295	56551
588.348	64533
588.360	66319
588.402	73311
588.431	78218
588.456	82706
588.503	92489
588.510	94440
588.564	111148
588.575	115048
588.617	132774
588.646	146472
588.671	164306
588.718	202297
588.725	212020
588.778	297136
588.789	316830
588.832	441660
588.861	535246
588.886	621924
588.932	775876
588.939	779935
588.993	745446
589.004	741571
589.047	672144
589.075	591268
589.100	492469
589.147	321874
589.154	309289
589.207	233684
589.218	220041
589.261	202810
589.290	195252
589.314	201638
589.361	218823
589.368	227530
589.421	309278
589.433	329219
589.475	468077
589.504	573078
589.528	633227
589.576	714261
589.582	703326
589.635	572569
589.647	536268
589.689	360641
589.718	247664
589.742	205279
589.790	134583
589.795	130927
589.849	101554
589.861	95119
589.902	83375
589.932	75228
589.955	70990
590.004	62491
590.009	62114
590.062	57524
590.075	56363
590.115	53785
590.146	51700
590.168	51257
590.218	49872
590.222	49814
590.275	48113
590.289	47507
590.328	46246
590.360	44995
590.381	44691
590.431	43669
590.435	43695
590.488	42233
590.503	41773
590.541	42066
590.574	42105
590.594	41910
590.645	40887
590.647	40969
590.700	40144
590.716	39808
590.753	39676
590.787	39234
590.806	39608
590.859	40530
590.859	40628
590.912	39178
590.930	38564
590.965	39606
591.001	40574
591.018	40845
591.071	41241
591.072	41118
591.124	41605
591.143	41583
591.177	41113
591.214	40591
591.230	41330
591.283	43096
591.285	43025
591.336	41539
591.356	40774
591.389	41424
591.427	41935
591.442	41539
591.495	39501
591.498	39221
591.547	39170
591.569	39000
591.600	39069
591.640	38820
591.653	39058
591.706	39623
591.711	39544
591.759	39954
591.782	39996
591.811	40368
591.853	40581
591.864	40748
591.917	40811
591.924	40689
591.969	41831
591.995	42264
592.022	42214
592.066	41773
592.075	41952
592.127	42142
592.137	42023
592.180	40719
592.208	39662
592.233	40133
592.279	40640
592.285	40855
592.338	41477
592.350	41482
592.390	41362
592.421	41003
592.443	41390
592.491	41802
592.495	41968
592.548	42207
592.562	42122
592.600	41305
592.633	40337
592.653	40681
592.704	40980
592.705	41220
592.775	41349
592.846	41431
592.916	41489
592.987	42732
593.058	41032
593.128	40326
593.199	40292
593.270	41304
593.341	40637
593.411	39464
593.482	41360
593.553	41528
593.623	39821
593.694	41196
593.764	40616
593.835	41136
593.906	40827
593.976	39902
594.047	40721
594.117	42744
594.188	40493
594.258	41919
594.329	40260
594.399	41604
594.470	40790
594.540	41736
594.611	40949
594.681	42682
594.751	40252
594.822	42605
594.892	41511
594.963	42299
595.033	42920
595.103	43266
595.174	43497
595.244	45059
595.314	45020
595.384	44268
595.455	43591
595.525	44275
595.595	45733
595.665	46128
595.736	44497
595.806	46187
595.876	45794
595.946	45076
596.016	45593
596.087	47237
596.157	46233
596.227	47503
596.297	48690
596.367	50015
596.437	50493
596.507	52148
596.577	49939
596.647	52740
596.717	53428
596.787	52762
596.857	53334
596.927	53000
596.997	53472
597.067	54322
597.137	54635
597.207	55826
597.277	55480
597.347	53473
597.417	53998
597.487	57124
597.557	56918
597.626	55672
597.696	55179
597.766	55273
597.836	54221
597.906	51127
597.975	51874
598.045	50345
598.115	51996
598.185	54096
598.254	58182
598.324	62170
598.394	61504
598.464	60065
598.533	57652
598.603	56829
598.672	55619
598.742	55453
598.812	55636
598.881	56405
598.951	54774
599.020	56837
599.090	56397
599.159	58611
599.229	55829
599.299	54478
599.368	57063
599.437	56549
599.507	53169
599.576	51963
599.646	53057
599.715	50943
599.785	50643
599.854	50003
599.924	48114
599.993	49008
600.062	48158
600.132	50492
600.201	51792
600.270	57456
600.340	60451
600.409	58351
600.478	57191
600.547	59252
600.617	55618
600.686	49134
600.755	46480
600.824	44162
600.894	43542
600.963	43555
601.032	42445
601.101	42147
601.170	40858
601.239	40013
601.308	41166
601.378	40337
601.447	40623
601.516	41444
601.585	41937
601.654	42547
601.723	40528
601.792	43441
601.861	41755
601.930	44476
601.999	45307
602.068	43096
602.137	44845
602.206	44378
602.275	44062
602.343	46517
602.412	46316
602.481	43060
602.550	44467
602.619	45386
602.688	45747
602.756	46215
602.825	45387
602.894	47154
602.963	46442
603.032	47017
603.100	47730
603.169	46949
603.238	48078
603.307	47553
603.375	49024
603.444	49865
603.513	47614
603.581	49190
603.650	49131
603.719	48828
603.787	48880
603.856	51023
603.924	50632
603.993	54369
604.061	53540
604.130	56431
604.198	56941
604.267	57467
604.335	58489
604.404	58604
604.472	59083
604.541	58801
604.609	59606
604.678	60022
604.746	60357
604.815	62014
604.883	61381
604.951	62994
605.020	62369
605.088	63003
605.156	62448
605.225	64501
605.293	64576
605.361	65979
605.429	65538
605.498	67036
605.566	67763
605.634	70986
605.702	72546
605.771	75326
605.839	74328
605.907	71744
605.975	69928
606.043	69057
606.111	68898
606.180	69970
606.248	67968
606.316	68203
606.384	67823
606.452	70190
606.520	72849
606.588	72577
606.656	72276
606.724	70311
606.792	67825
606.860	60336
606.928	56243
606.996	55887
607.064	53890
607.132	55457
607.200	58244
607.267	59456
607.335	61002
607.403	62705
607.471	59154
607.539	59766
607.607	59546
607.674	54053
607.742	53385
607.810	54238
607.878	53619
607.946	54927
608.013	55136
608.081	56633
608.149	57736
608.216	59063
608.284	60938
608.352	60309
608.419	58936
608.487	60035
608.555	58030
608.622	59607
608.690	63337
608.757	68033
608.825	68349
608.893	68098
608.960	65936
609.028	63337
609.095	63965
609.163	62962
609.230	57283
609.298	55321
609.365	57560
609.432	61287
609.500	65744
609.567	74573
609.635	83901
609.702	85154
609.769	81479
609.837	65556
609.904	57797
609.971	58416
610.039	61655
610.106	70104
610.173	101086
610.241	189340
610.308	134300
610.375	85328
610.442	61599
610.509	58885
610.577	59141
610.644	60225
610.711	62592
610.778	65579
610.845	65814
610.912	70111
610.980	70687
611.047	69638
611.114	69456
611.181	68125
611.248	67112
611.315	71592
611.382	69869
611.449	73240
611.516	75035
611.583	73972
611.650	73562
611.717	75134
611.784	74420
611.851	76815
611.918	79151
611.984	86898
612.051	106541
612.118	168935
612.185	341971
612.252	209713
612.319	92171
612.386	88194
612.452	83488
612.519	82299
612.586	81135
612.653	82301
612.719	84856
612.786	82697
612.853	76506
612.919	76439
612.986	78365
613.053	72996
613.120	69788
613.186	67192
613.253	69288
613.319	67920
613.386	68435
613.453	70861
613.519	71900
613.586	73357
613.652	80323
613.719	75953
613.785	74226
613.852	69968
613.918	68967
613.985	70835
614.051	72609
614.118	72250
614.184	69269
614.250	70231
614.317	71207
614.383	70128
614.449	70972
614.516	71437
614.582	72761
614.648	70270
614.715	69594
614.781	68691
614.847	69209
614.914	69460
614.980	66354
615.046	68741
615.112	68420
615.179	69382
615.245	69533
615.311	71022
615.377	73098
615.443	72536
615.509	70317
615.575	72936
615.642	71284
615.708	73443
615.774	75753
615.840	77884
615.906	80239
615.972	89865
616.038	116885
616.104	197995
616.170	399387
616.236	310639
616.302	107735
616.368	91161
616.434	78005
616.500	77281
616.565	79474
616.631	86633
616.697	78792
616.763	82653
616.829	99718
616.895	141610
616.961	128195
617.026	77921
617.092	71046
617.158	69413
617.224	71371
617.289	66031
617.355	63940
617.421	64691
617.487	64653
617.552	62519
617.618	62008
617.684	61851
617.749	63426
617.815	62019
617.880	59042
617.946	60203
618.012	64299
618.077	64605
618.143	62441
618.208	62530
618.274	66251
618.339	66943
618.405	57836
618.470	59124
618.536	58032
618.601	59041
618.667	54542
618.732	52860
618.798	53357
618.863	52949
618.928	53134
618.994	54134
619.059	54471
619.124	59945
619.190	54273
619.255	51506
619.320	51793
619.386	52772
619.451	51152
619.516	51918
619.581	51936
619.647	53812
619.712	52324
619.777	52005
619.842	52062
619.907	52480
619.972	52825
620.038	52920
620.103	51320
620.168	51069
620.233	53054
620.298	52002
620.363	52360
620.428	53186
620.493	53944
620.558	55314
620.623	55167
620.688	55356
620.753	53714
620.818	55198
620.883	56522
620.948	56024
621.013	55584
621.078	55391
621.143	53272
621.207	56966
621.272	54802
621.337	54785
621.402	53142
621.467	54153
621.532	54088
621.596	55215
621.661	53726
621.726	53817
621.791	54815
621.855	57589
621.920	56142
621.985	55997
622.049	56523
622.114	54947
622.179	57498
622.243	57046
622.308	57760
622.373	60761
622.437	59794
622.502	57672
622.566	57096
622.631	55185
622.695	58605
622.760	58472
622.824	58740
622.889	58886
622.953	60331
623.018	69438
623.082	66323
623.147	61268
623.211	60720
623.276	60186
623.340	57683
623.404	57451
623.469	56790
623.533	56534
623.597	54379
623.662	58038
623.726	53613
623.790	51340
623.854	50588
623.919	51235
623.983	50731
624.047	52936
624.111	52577
624.176	54217
624.240	53069
624.304	55858
624.368	52179
624.432	52637
624.496	53457
624.560	57712
624.625	56458
624.689	55708
624.753	56097
624.817	54546
624.881	52528
624.945	51010
625.009	48812
625.073	50343
625.137	52253
625.201	57246
625.265	55822
625.329	50985
625.393	51495
625.456	52469
625.520	51642
625.584	53565
625.648	53281
625.712	55100
625.776	54872
625.839	54935
625.903	46371
625.967	44094
626.031	47845
626.095	51746
626.158	47847
626.222	41041
626.286	41462
626.349	39048
626.413	37638
626.477	40282
626.540	36875
626.604	36855
626.668	37445
626.731	37561
626.795	35393
626.858	38060
626.922	35159
626.986	36975
627.049	34166
627.113	37675
627.176	36445
627.240	35157
627.303	34661
627.366	34629
627.430	35408
627.493	35986
627.557	34217
627.620	35977
627.684	35246
627.747	34818
627.810	31969
627.874	31489
627.937	29455
628.000	33830
628.064	31295
628.127	28789
628.190	29290
628.253	29642
628.317	28270
628.380	26961
628.443	27078
628.506	27329
628.569	27118
628.632	26342
628.696	25732
628.759	25109
628.822	24689
628.885	24544
628.948	24690
629.011	25224
629.074	24102
629.137	23432
629.200	23220
629.263	24176
629.326	22629
629.389	24054
629.452	22926
629.515	23641
629.578	22608
629.641	23924
629.704	23387
629.767	24560
629.830	23280
629.892	23134
629.955	22687
630.018	24927
630.081	23023
630.144	25548
630.207	22915
630.269	25165
630.332	22533
630.395	23046
630.458	22404
630.520	21919
630.583	22328
630.646	22187
630.708	20727
630.771	20627
630.834	22040
630.896	21083
630.959	21564
631.021	20477
631.084	20532
631.146	20555
631.209	20742
631.272	20482
631.334	20673
631.397	20692
631.459	20059
631.522	20980
631.584	21636
631.646	20983
631.709	21957
631.771	22948
631.834	21165
631.896	20869
631.958	20244
632.021	20960
632.083	19086
632.145	20862
632.208	19193
632.270	20743
632.332	18885
632.395	19432
632.457	20957
632.519	19828
632.581	20817
632.643	18783
632.706	18942
632.768	18907
632.830	19731
632.892	19730
632.954	18802
633.016	19943
633.078	19159
633.141	19521
633.203	19056
633.265	19847
633.327	19144
633.389	18624
633.451	20273
633.513	19823
633.575	19481
633.637	20196
633.698	19553
633.760	20092
633.822	19590
633.884	19830
633.946	19607
634.008	18779
634.070	18360
634.132	19019
634.193	19656
634.255	20407
634.317	18105
634.379	20271
634.441	18115
634.502	18730
634.564	18609
634.626	17601
634.687	18165
634.749	17979
634.811	18590
634.873	17378
634.934	16623
634.996	18242
635.057	16448
635.119	17438
635.181	17598
635.242	18252
635.304	16345
635.365	20248
635.427	16622
635.488	17193
635.550	15913
635.611	17654
635.673	15400
635.734	18310
635.796	16996
635.857	19236
635.918	16978
635.980	19577
636.041	17475
636.102	18989
636.164	17849
636.225	19620
636.286	15802
636.348	18185
636.409	16118
636.470	16176
636.531	16484
636.593	16165
636.654	16769
636.715	15801
636.776	15868
636.838	15821
636.899	15797
636.960	16633
637.021	15551
637.082	15004
637.143	15122
637.204	14563
637.265	13866
637.326	15980
637.387	16411
637.448	15144
637.509	15774
637.570	15302
637.631	16237
637.692	14435
637.753	13596
637.814	16461
637.875	14995
637.936	15930
637.997	13593
638.058	15020
638.119	15407
638.179	15323
638.240	14250
638.301	14256
638.362	13538
638.423	14988
638.483	15817
638.544	11985
638.605	14738
638.666	14011
638.726	13934
638.787	15257
638.848	13122
638.908	13914
638.969	13633
639.030	13634
639.090	12664
639.151	14237
639.211	15096
639.272	15839
639.332	19302
639.393	15768
639.453	12809
639.514	13121
639.574	13350
639.635	13364
639.695	13591
639.756	12889
639.816	13313
639.877	14558
639.937	17692
639.997	19271
640.058	12719
640.118	12804
640.178	13795
640.239	13837
640.299	12318
640.359	12555
640.420	12726
640.480	13421
640.540	12778
640.600	12996
640.661	13067
640.721	12717
640.781	13578
640.841	12238
640.901	12432
640.961	13816
641.021	12562
641.082	12830
641.142	14665
641.202	13996
641.262	10305
641.322	12665
641.382	11403
641.442	12979
641.502	11730
641.562	12001
641.622	11656
641.682	12847
641.742	11775
641.802	12584
641.861	12569
641.921	12003
641.981	12388
642.041	12056
642.101	13672
642.161	11598
642.221	10185
642.280	12143
642.340	10412
642.400	10405
642.460	11511
642.519	12051
642.579	11541
642.639	12789
642.698	8427
642.758	12629
642.818	11569
642.877	11015
642.937	12823
642.997	12634
643.056	15330
643.116	11693
643.175	12904
643.235	11689
643.294	11796
643.354	12566
643.414	11927
643.473	13771
643.532	12689
643.592	15546
643.651	19398
643.711	29271
643.770	48912
643.830	105388
643.889	208466
643.948	51875
644.008	15906
644.067	13183
644.126	11916
644.186	11887
644.245	10758
644.304	10134
644.363	11207
644.423	9859
644.482	10398
644.541	11440
644.600	8743
644.659	12185
644.719	10968
644.778	12698
644.837	18235
644.896	29972
644.955	58077
645.014	23679
645.073	12406
645.132	11395
645.191	10885
645.250	11800
645.309	11830
645.368	10310
645.427	11603
645.486	13740
645.545	17279
645.604	10749
645.663	10466
645.722	10416
645.781	10684
645.840	11044
645.898	11802
645.957	14434
646.016	15682
646.075	26680
646.134	43146
646.192	108367
646.251	147991
646.310	25593
646.369	12650
646.427	11527
646.486	10250
646.545	11297
646.603	9763
646.662	10896
646.721	9199
646.779	9165
646.838	8513
646.896	11313
646.955	10912
647.014	13904
647.072	18279
647.131	39569
647.189	20896
647.248	9885
647.306	9500
647.365	8411
647.423	7012
647.481	9822
647.540	7769
647.598	9188
647.657	8637
647.715	10157
647.773	8113
647.832	9204
647.890	7012
647.948	7787
648.007	8658
648.065	7535
648.123	7563
648.181	9247
648.240	7813
648.298	6998
648.356	7738
648.414	8800
648.472	7568
648.531	7499
648.589	7257
648.647	7192
648.705	7307
648.763	7823
648.821	7834
648.879	7327
648.937	7887
648.995	8903
649.053	8305
649.111	11260
649.169	14181
649.227	21315
649.285	36156
649.343	94044
649.401	45742
649.459	20446
649.516	13538
649.574	7966
649.632	7823
649.690	7858
649.748	8970
649.806	8722
649.863	13583
649.921	28427
649.979	18782
650.037	7795
650.094	6276
650.152	7921
650.210	5902
650.268	7934
650.325	7084
650.383	6760
650.440	5718
650.498	7039
650.556	6060
650.613	6564
650.671	5957
650.728	6621
650.786	6414
650.843	6749
650.901	4553
650.958	6859
651.016	5936
651.073	6826
651.131	5835
651.188	5650
651.246	6050
651.303	5739
651.360	6797
651.418	5590
651.475	6005
651.532	5279
651.590	6101
651.647	4975
651.704	5824
651.762	5390
651.819	5732
651.876	5691
651.933	5954
651.990	6264
652.048	4816
652.105	5217
652.162	5416
652.219	5596
652.276	5673
652.333	6830
652.390	4884
652.448	6521
652.505	5638
652.562	5583
652.619	5405
652.676	5707
652.733	5782
652.790	6753
652.847	4357
652.904	7019
652.961	4895
653.017	5610
653.074	6519
653.131	5664
653.188	4402
653.245	5579
653.302	5579
653.359	5648
653.415	5970
653.472	4827
653.529	5784
653.586	4987
653.642	5412
653.699	6217
653.756	3832
653.813	6270
653.869	6132
653.926	4928
653.983	4377
654.039	5723
654.096	5172
654.152	6596
654.209	4652
654.266	5334
654.322	4454
654.379	6102
654.435	5406
654.492	5925
654.548	5825
654.605	6787
654.661	5903
654.717	6179
654.774	5400
654.830	5388
654.887	5403
654.943	4636
655.000	4463
655.056	6233
655.112	4933
655.168	3899
655.225	3965
655.281	5778
655.337	4930
655.394	5334
655.450	4853
655.506	5765
655.562	4830
655.618	6509
655.675	3952
655.731	5492
655.787	4535
655.843	5508
655.899	3318
655.955	5169
656.011	4691
656.067	3808
656.123	4732
656.179	5137
656.235	5979
656.291	3375
656.347	5219
656.403	4923
656.459	4054
656.515	5304
656.571	4393
656.627	6046
656.683	4775
656.739	5770
656.795	4478
656.850	4891
656.906	5441
656.962	5545
657.018	3580
657.074	5725
657.129	5844
657.185	6483
657.241	8617
657.297	6683
657.352	5225
657.408	5083
657.464	5343
657.519	5528
657.575	3948
657.630	5229
657.686	5163
657.742	4906
657.797	4216
657.853	5093
657.908	5747
657.964	4778
658.019	4276
658.075	5479
658.130	5097
658.186	4194
658.241	4985
658.297	3623
658.352	4493
658.407	4910
658.463	4200
658.518	4676
658.573	4856
658.629	3829
658.684	4540
658.739	5256
658.795	4177
658.850	5123
658.905	3843
658.960	4363
659.016	4311
659.071	4827
659.126	4531
659.181	5011
659.236	7199
659.291	8417
659.346	4287
659.401	5135
659.457	4806
659.512	4809
659.567	5025
659.622	4140
659.677	3601
659.732	3104
659.787	3948
659.842	4416
659.897	4590
659.952	5239
660.007	4210
660.061	3866
660.116	3269
660.171	3963
660.226	3950
660.281	4895
660.336	3926
660.391	4845
660.445	3888
660.500	4479
660.555	4312
660.610	3931
660.664	4511
660.719	5085
660.774	5270
660.828	4269
660.883	4144
660.938	4782
660.992	3458
661.047	4878
661.101	4264
661.156	4396
661.211	3828
661.265	4363
661.320	3654
661.374	4578
661.429	3732
661.483	6061
661.538	3281
661.592	4270
661.647	3841
661.701	4804
661.755	4081
661.810	4032
661.864	3454
661.919	4342
661.973	3911
662.027	4515
662.081	3293
662.136	3563
662.190	4109
662.244	4675
662.299	3442
662.353	5693
662.407	3602
662.461	4164
662.515	4006
662.569	3681
662.624	4243
662.678	4048
662.732	3817
662.786	4049
662.840	3936
662.894	4890
662.948	3781
663.002	4340
663.056	3288
663.110	4150
663.164	3771
663.218	4970
663.272	3961
663.326	5155
663.380	4016
663.434	4065
663.488	3451
663.542	4159
663.595	3349
663.649	3535
663.703	4003
663.757	3992
663.811	3693
663.864	4309
663.918	3200
663.972	3591
664.026	3702
664.079	3622
664.133	4578
664.187	3965
664.240	3606
664.294	3412
664.348	3833
664.401	4231
664.455	3367
664.508	4071
664.562	3952
664.615	4513
664.669	3876
664.722	3740
664.776	3698
664.829	4039
664.883	3088
664.936	3242
664.990	3316
665.043	3779
665.097	3104
665.150	5405
665.203	2813
665.257	3593
665.310	3195
665.363	4078
665.417	3580
665.470	4039
665.523	3552
665.576	3064
665.630	3769
665.683	3767
665.736	3535
665.789	3857
665.842	3167
665.895	3831
665.949	3189
666.002	3318
666.055	3434
666.108	4403
666.161	4149
666.214	4224
666.267	3768
666.320	4728
666.373	3896
666.426	4440
666.479	3294
666.532	3420
666.585	3303
666.638	3953
666.691	3052
666.744	3981
666.796	2524
666.849	3570
666.902	4543
666.955	3895
667.008	4126
667.060	3439
667.113	2670
667.166	3812
667.219	3743
667.271	3117
667.324	2821
667.377	3525
667.430	3063
667.482	3366
667.535	3666
667.587	3807
667.640	3802
667.693	4021
667.745	5789
667.798	5182
667.850	3324
667.903	4189
667.955	3267
668.008	2945
668.060	3740
668.113	3366
668.165	2572
668.218	3537
668.270	3149
668.322	3731
668.375	3508
668.427	4962
668.479	2681
668.532	3635
668.584	3954
668.636	3384
668.689	2801
668.741	2713
668.793	3186
668.845	2996
668.898	2986
668.950	3911
669.002	3149
669.054	2801
669.106	2843
669.158	3446
669.211	2487
669.263	3856
669.315	3737
669.367	3330
669.419	2415
669.471	4376
669.523	3481
669.575	3440
669.627	2952
669.679	3308
669.731	3028
669.783	3512
669.835	3700
669.886	3376
669.938	3432
669.990	3626
670.042	2583
670.094	4422
670.146	3645
670.197	4310
670.249	4654
670.301	5754
670.353	6178
670.404	9420
670.456	11761
670.508	18796
670.560	29661
670.611	52564
670.663	91015
670.715	212292
670.766	307366
670.818	90996
670.869	18644
670.921	11775
670.972	7496
671.024	6523
671.075	5228
671.127	4461
671.178	3873
671.230	4341
671.281	3745
671.333	3780
671.384	2718
671.436	3502
671.487	3826
671.538	4111
671.590	4085
671.641	7805
671.692	10501
671.744	19810
671.795	10815
671.846	5230
671.897	2570
671.949	3330
672.000	2312
672.051	3574
672.102	2526
672.153	2766
672.204	3049
672.256	3384
672.307	2744
672.358	3270
672.409	2746
672.460	2828
672.511	2291
672.562	2216
672.613	2546
672.664	2672
672.715	1847
672.766	2466
672.817	2782
672.868	3028
672.919	2982
672.970	2162
673.021	1290
673.071	2066
673.122	1734
673.173	2799
673.224	2422
673.275	2003
673.326	2171
673.376	2777
673.427	1818
673.478	2174
673.528	2188
673.579	2203
673.630	2097
673.680	3481
673.731	1894
673.782	2598
673.832	2531
673.883	2437
673.934	2034
673.984	2840
674.035	1692
674.085	2493
674.136	2668
674.186	1823
674.237	1798
674.287	2744
674.338	1972
674.388	2634
674.438	2036
674.489	2472
674.539	1151
674.589	1960
674.640	2409
674.690	2848
674.740	2131
674.791	2552
674.841	2159
674.891	1622
674.942	1372
674.992	1880
675.042	1012
675.092	2736
675.142	1373
675.193	2644
675.243	424
675.293	2298
675.343	1523
675.393	1677
675.443	2125
675.493	1709
675.543	1730
675.593	2011
675.643	1685
675.693	1469
675.743	1425
675.793	1630
675.843	1939
675.893	1978
675.943	2075
675.993	2092
676.043	1488
676.093	2232
676.142	958
676.192	2479
676.242	1683
676.292	1985
676.341	1256
676.391	2006
676.441	1197
676.491	1678
676.540	1995
676.590	2563
676.640	1391
676.689	2267
676.739	1736
676.789	2000
676.838	1534
676.888	1592
676.937	1292
676.987	1736
677.037	1765
677.086	980
677.136	2190
677.185	1416
677.235	1726
677.284	2354
677.333	1685
677.383	1538
677.432	495
677.482	1740
677.531	1480
677.580	1159
677.630	1535
677.679	1729
677.728	915
677.778	1989
677.827	769
677.876	2068
677.925	1239
677.975	1633
678.024	1184
678.073	1893
678.122	1959
678.171	1997
678.220	876
678.269	2248
678.319	1268
678.368	1067
678.417	971
678.466	2249
678.515	1791
678.564	1564
678.613	1804
678.662	1855
678.711	993
678.760	1598
678.809	1428
678.857	1499
678.906	1238
678.955	904
679.004	1184
679.053	1845
679.102	1064
679.151	1545
679.199	1054
679.248	1182
679.297	905
679.346	1454
679.394	979
679.443	1296
679.492	975
679.540	1434
679.589	858
679.638	1476
679.686	1251
679.735	2171
679.784	263
679.832	1581
679.881	991
679.929	1901
679.978	880
680.026	837
680.075	1693
680.123	1454
680.172	520
680.220	1680
680.268	547
680.317	953
680.365	1116
680.414	1517
680.462	497
680.510	2224
680.559	1245
680.607	1736
680.655	550
680.703	1162
680.752	1139
680.800	1614
680.848	1365
680.896	1635
680.945	500
680.993	1149
681.041	583
681.089	1667
681.137	670
681.185	1479
681.233	757
681.258	1012
681.281	1217
681.329	909
681.377	912
681.380	965
681.425	1264
681.473	1721
681.502	1431
681.521	1159
681.569	1551
681.617	1728
681.624	1718
681.665	1416
681.713	1884
681.745	2215
681.761	2313
681.809	1131
681.857	2797
681.867	2599
681.904	1791
681.952	2006
681.989	2170
682.000	2167
682.048	1665
682.096	1903
682.111	2100
682.143	2423
682.191	1898
682.233	3450
682.239	3648
682.286	2057
682.334	2850
682.354	2481
682.382	1899
682.430	3259
682.476	3061
682.477	3024
682.525	2858
682.572	2768
682.598	2794
682.620	2789
682.667	3006
682.715	2771
682.720	2850
682.763	3227
682.810	4117
682.841	3732
682.857	3492
682.905	3170
682.952	4001
682.963	4098
683.000	4251
683.047	3580
683.085	4405
683.095	4620
683.142	3608
683.190	4385
683.206	4353
683.237	4159
683.284	4513
683.328	3935
683.332	3856
683.379	5304
683.426	4668
683.449	4502
683.473	4318
683.521	3445
683.568	4621
683.571	4658
683.615	4725
683.662	5422
683.693	4727
683.709	4290
683.757	5198
683.804	5465
683.814	5399
683.851	5169
683.898	5358
683.936	6065
683.945	6192
683.992	5730
684.039	6187
684.057	6097
684.086	5882
684.133	6074
684.179	6262
684.180	6244
684.227	5985
684.274	6485
684.300	6674
684.321	6800
684.368	6061
684.415	6421
684.422	6388
684.462	5963
684.509	6305
684.543	6695
684.556	6842
684.603	7118
684.649	6072
684.665	6246
684.696	6548
684.743	6611
684.786	7265
684.790	7304
684.837	6885
684.883	7381
684.908	7097
684.930	6733
684.977	7358
685.023	6619
685.029	6721
685.070	7353
685.117	7054
685.150	7295
685.164	7427
685.210	6939
685.257	8012
685.272	7935
685.303	7569
685.350	7722
685.393	7030
685.396	6983
685.443	8166
685.490	8463
685.514	8568
685.536	8478
685.583	7904
685.629	8326
685.636	8309
685.675	8289
685.722	8612
685.757	8560
685.768	8501
685.815	9232
685.861	8489
685.878	8674
685.908	8953
685.954	8489
686.000	9347
686.000	9352
686.047	8137
686.093	9307
686.121	9168
686.139	9047
686.185	8980
686.232	8956
686.242	8976
686.278	8957
686.324	8716
686.363	8803
686.370	8845
686.416	8610
686.463	9236
686.484	9062
686.509	8823
686.555	9388
686.601	8993
686.606	9100
686.647	9848
686.693	9498
686.727	9654
686.739	9801
686.785	9242
686.831	9841
686.848	9948
686.877	9914
686.923	9708
686.969	10065
686.969	10066
687.015	9805
687.061	9220
687.090	9635
687.107	9856
687.153	10076
687.199	10121
687.211	10104
687.245	10174
687.291	10122
687.332	10080
687.336	10071
687.382	10616
687.428	9990
687.453	10457
687.474	10799
687.520	10944
687.565	10659
687.574	10702
687.611	10927
687.657	10743
687.695	10964
687.702	11000
687.748	11428
687.794	10884
687.816	10883
687.839	10915
687.885	10713
687.931	11380
687.937	11250
687.976	10528
688.022	10968
688.058	11356
688.067	11456
688.113	11236
688.158	10960
688.179	11266
688.204	11659
688.249	11416
688.295	12037
688.300	12007
688.340	11971
688.386	12270
688.421	11969
688.431	11859
688.477	12280
688.522	12864
688.542	13014
688.567	13197
688.613	12441
688.658	12924
688.663	12899
688.703	12608
688.749	12701
688.784	11806
688.794	11630
688.839	12681
688.884	12205
688.905	12373
688.930	12512
688.975	12353
689.020	12423
689.026	12340
689.065	12065
689.110	12591
689.146	12786
689.155	12851
689.201	13127
689.246	13263
689.267	13151
689.291	12944
689.336	13143
689.381	13325
689.388	13312
689.426	13328
689.471	12984
689.509	12681
689.516	12658
689.561	13275
689.606	13334
689.630	13380
689.651	13432
689.696	12851
689.741	13590
689.750	13496
689.785	13343
689.830	13660
689.871	13688
689.875	13684
689.920	13994
689.965	13299
689.992	13387
690.010	13538
690.054	12983
690.099	13386
690.112	13337
690.144	13231
690.189	13327
690.233	12761
690.233	12777
690.278	13452
690.323	13239
690.354	13311
690.367	13474
690.412	13722
690.457	14126
690.474	14248
690.501	14071
690.546	13949
690.590	13233
690.595	13197
690.635	13762
690.680	14010
690.716	14655
690.724	14715
690.769	14250
690.813	14487
690.836	13980
690.857	13855
690.902	14986
690.946	14643
690.957	14766
690.991	15063
691.035	15054
691.077	15521
691.080	15566
691.124	15577
691.168	15836
691.198	15523
691.213	15358
691.257	15283
691.301	14931
691.318	14935
691.346	15241
691.390	15304
691.434	16000
691.439	15972
691.478	15632
691.522	15995
691.559	15159
691.567	15091
691.611	15886
691.655	15696
691.680	15826
691.699	15923
691.743	16363
691.787	16354
691.800	16335
691.831	16406
691.875	16813
691.919	16569
691.921	16544
691.964	16469
692.008	16252
692.041	16235
692.052	16375
692.096	16276
692.139	16670
692.162	16736
692.183	16696
692.227	17034
692.271	16622
692.282	16580
692.315	16575
692.359	16540
692.402	16697
692.403	16731
692.447	16545
692.490	16776
692.523	16394
692.534	16306
692.578	16719
692.622	16509
692.643	16239
692.666	16065
692.709	16465
692.753	16309
692.763	16284
692.797	16401
692.840	16851
692.884	16870
692.884	16905
692.928	17048
692.971	17169
693.004	17345
693.015	17426
693.059	17219
693.102	17682
693.124	17473
693.146	17325
693.189	17402
693.233	17350
693.245	17336
693.276	17484
693.320	17698
693.363	17538
693.365	17507
693.407	17758
693.450	17900
693.485	17753
693.493	17749
693.537	18108
693.580	17728
693.605	17902
693.624	18161
693.667	18168
693.710	18335
693.725	18230
693.753	18196
693.797	18500
693.840	18857
693.845	18869
693.883	18977
693.926	18609
693.966	18706
693.970	18760
694.013	18313
694.056	18388
694.086	18228
694.099	18247
694.142	18166
694.185	17975
694.206	18034
694.229	18431
694.272	18780
694.315	19354
694.326	19367
694.358	19468
694.401	19898
694.444	20035
694.446	20022
694.487	20512
694.530	20043
694.566	20173
694.573	20134
694.616	19437
694.659	18940
694.686	18290
694.702	18265
694.745	18744
694.787	18551
694.806	18644
694.830	18792
694.873	18601
694.916	18497
694.926	18418
694.959	18524
695.002	18931
695.044	18960
695.046	18929
695.087	19453
695.130	19672
695.166	20045
695.172	20094
695.215	19696
695.258	19765
695.286	19564
695.301	19549
695.343	19511
695.386	19165
695.406	19159
695.428	19388
695.471	19517
695.514	19743
695.526	19685
695.556	19912
695.599	20507
695.641	20805
695.646	20813
695.684	20741
695.726	20348
695.766	20188
695.769	20236
695.811	20098
695.854	19972
695.886	19767
695.896	19840
695.938	19993
695.981	20021
696.005	20075
696.023	20193
696.065	20353
696.108	20611
696.125	20556
696.150	20529
696.192	20572
696.235	20499
696.245	20453
696.277	20608
696.319	20653
696.361	20961
696.365	20900
696.404	20689
696.446	20779
696.485	20550
696.488	20623
696.530	21008
696.572	21414
696.604	21645
696.614	21576
696.656	21123
696.698	20568
696.724	20186
696.740	20255
696.783	20301
696.825	20364
696.844	20345
696.867	20602
696.909	20842
696.951	21302
696.964	21356
696.992	21246
697.034	21030
697.076	20699
697.083	20633
697.118	21154
697.160	21471
697.202	22029
697.203	21981
697.244	21936
697.286	22033
697.323	21963
697.327	22012
697.369	22017
697.411	21978
697.442	21947
697.453	22052
697.494	22099
697.536	22287
697.562	22344
697.578	22356
697.620	22151
697.661	21991
697.682	21849
697.703	22249
697.744	22917
697.786	23649
697.801	23826
697.828	23959
697.869	24122
697.911	24200
697.921	24195
697.952	23779
697.994	22970
698.035	22257
698.040	22107
698.077	22058
698.118	21991
698.160	21858
698.160	21799
698.201	22107
698.243	22368
698.279	22611
698.284	22694
698.325	22816
698.367	23026
698.399	23049
698.408	23026
698.449	22688
698.491	22347
698.518	22046
698.532	22252
698.573	22706
698.614	23166
698.638	23368
698.656	23305
698.697	23003
698.738	22730
698.757	22529
698.779	22777
698.820	23119
698.862	23485
698.877	23555
698.903	23559
698.944	23473
698.985	23370
698.996	23282
699.026	23340
699.067	23335
699.116	23268
699.235	22330
699.354	23244
699.474	23319
699.593	23831
699.713	22594
699.832	23549
699.951	24238
700.070	24268
700.190	21806
700.309	22812
700.428	21691
700.547	22525
700.667	22633
700.786	22626
700.905	21970
701.024	22220
701.143	21771
701.262	21651
701.381	22333
701.500	23041
701.619	23869
701.738	22681
701.857	21458
701.976	21185
702.095	21612
702.214	22938
702.333	22687
702.452	22015
702.571	21576
702.690	21381
702.809	20904
702.928	20209
703.047	20622
703.165	20670
703.284	19842
703.403	20272
703.522	21320
703.640	21150
703.759	22336
703.878	20890
703.997	20120
704.115	20697
704.234	20201
704.353	20083
704.471	19302
704.590	19915
704.708	19946
704.827	20033
704.946	19731
705.064	19220
705.183	19887
705.301	19661
705.420	21448
705.538	20578
705.656	19404
705.775	19659
705.893	20544
706.012	20965
706.130	19837
706.249	20775
706.367	19721
706.485	20661
706.604	19815
706.722	19602
706.840	21036
706.958	20768
707.077	19716
707.195	19281
707.313	19466
707.431	19300
707.549	18971
707.668	17949
707.786	18339
707.904	19665
708.022	19037
708.140	19064
708.258	17994
708.376	19270
708.494	18113
708.612	19836
708.730	20831
708.848	19694
708.966	19631
709.084	19827
709.202	19235
709.320	19070
709.438	19664
709.556	19414
709.674	18151
709.791	19080
709.909	18849
710.027	18691
710.145	18629
710.263	19294
710.380	17900
710.498	19037
710.616	17621
710.733	17800
710.851	17766
710.969	18906
711.086	17804
711.204	18319
711.322	17178
711.439	17746
711.557	16512
711.674	17671
711.792	17336
711.909	16958
712.027	16788
712.144	16204
712.262	17010
712.379	17085
712.497	18402
712.614	18811
712.732	18066
712.849	18332
712.966	18140
713.084	21335
713.201	18328
713.318	18471
713.436	17820
713.553	18446
713.670	18245
713.787	18560
713.905	17549
714.022	17871
714.139	17870
714.256	19306
714.373	19397
714.490	26583
714.608	45772
714.725	158325
714.842	163867
714.959	23470
715.076	18527
715.193	17902
715.310	16798
715.427	15923
715.544	16252
715.661	16550
715.778	17567
715.895	16340
716.011	16166
716.128	16417
716.245	15953
716.362	18485
716.479	18072
716.596	16647
716.713	15903
716.829	16052
716.946	15565
717.063	15650
717.180	15465
717.296	16151
717.413	15615
717.530	15603
717.646	15027
717.763	15644
717.880	14685
717.996	15399
718.113	15015
718.229	15769
718.346	14765
718.462	15073
718.579	17317
718.695	23791
718.812	17410
718.928	16000
719.045	14646
719.161	14955
719.277	14777
719.394	15597
719.510	15295
719.626	14724
719.743	15486
719.859	17437
719.975	21314
720.092	53867
720.208	106613
720.324	22414
720.440	15317
720.557	16159
720.673	19284
720.789	18107
720.905	17333
721.021	14959
721.137	13663
721.253	13803
721.369	13160
721.486	13736
721.602	13358
721.718	14238
721.834	13636
721.950	14304
722.066	13029
722.181	12832
722.297	13658
722.413	13407
722.529	13447
722.645	13350
722.761	12741
722.877	13601
722.993	12855
723.108	12913
723.224	12985
723.340	13403
723.456	12431
723.571	12178
723.687	11509
723.803	12283
723.918	12430
724.034	12950
724.150	10542
724.265	12425
724.381	12519
724.497	12593
724.612	11370
724.728	12583
724.843	12731
724.959	11403
725.074	13244
725.190	13833
725.305	11921
725.421	12489
725.536	11530
725.651	12181
725.767	11713
725.882	11145
725.997	11645
726.113	11864
726.228	10517
726.343	11323
726.459	11175
726.574	11488
726.689	11456
726.804	11814
726.920	11008
727.035	11906
727.150	10600
727.265	10855
727.380	11299
727.495	10834
727.610	10080
727.725	10815
727.841	11027
727.956	10710
728.071	12390
728.186	10847
728.301	10297
728.416	11934
728.531	11183
728.645	10406
728.760	10659
728.875	12215
728.990	10154
729.105	10666
729.220	11286
729.335	11350
729.449	10867
729.564	10887
729.679	9785
729.794	10342
729.908	10012
730.023	10311
730.138	10678
730.253	10325
730.367	9726
730.482	10091
730.596	10780
730.711	10647
730.826	11202
730.940	10645
731.055	10405
731.169	10258
731.284	10002
731.398	10117
731.513	10141
731.627	10244
731.742	11240
731.856	11209
731.970	10532
732.085	11840
732.199	12100
732.313	14292
732.428	22204
732.542	58983
732.656	37913
732.771	13434
732.885	10982
732.999	11128
733.113	11046
733.227	11244
733.342	10864
733.456	11754
733.570	11227
733.684	11311
733.798	10386
733.912	10451
734.026	9862
734.140	11069
734.254	10090
734.368	11253
734.482	11403
734.596	10293
734.710	10666
734.824	10299
734.938	10185
735.052	10498
735.166	11386
735.280	10473
735.393	9554
735.507	10346
735.621	10123
735.735	11489
735.849	9687
735.962	10267
736.076	10232
736.190	10100
736.303	9255
736.417	9953
736.531	9004
736.644	9320
736.758	9396
736.872	9474
736.985	10173
737.099	10138
737.212	9516
737.326	10031
737.439	9319
737.553	10119
737.666	9822
737.780	8487
737.893	8821
738.007	9553
738.120	8753
738.233	8880
738.347	9112
738.460	9555
738.573	10058
738.687	9850
738.800	10377
738.913	11376
739.026	10017
739.140	8964
739.253	9106
739.366	8783
739.479	9238
739.592	8443
739.705	8377
739.818	9343
739.932	8756
740.045	9056
740.158	9738
740.271	9253
740.384	8487
740.497	9040
740.610	8203
740.723	8496
740.836	8568
740.949	9109
741.062	10727
741.174	9389
741.287	8875
741.400	9137
741.513	7222
741.626	8684
741.739	7435
741.851	8717
741.964	8043
742.077	8174
742.189	7995
742.302	9240
742.415	7424
742.527	8490
742.640	7914
742.753	8100
742.865	7498
742.978	7437
743.090	7493
743.203	7402
743.316	8641
743.428	8589
743.541	7848
743.653	8312
743.766	8077
743.878	8661
743.990	7838
744.103	8900
744.215	7155
744.327	7760
744.440	9376
744.552	11016
744.664	8245
744.777	7926
744.889	8189
745.001	7500
745.113	7167
745.226	7883
745.338	8389
745.450	7676
745.562	7852
745.674	7419
745.786	7433
745.898	7767
746.010	7631
746.122	7820
746.234	7753
746.347	7624
746.459	7529
746.570	7454
746.682	7671
746.794	7671
746.906	6881
747.018	6596
747.130	7854
747.242	7669
747.354	7274
747.466	7936
747.577	6684
747.689	7665
747.801	8082
747.913	7000
748.024	7160
748.136	7649
748.248	7156
748.359	7482
748.471	7223
748.583	7394
748.694	6585
748.806	6850
748.918	7450
749.029	7134
749.141	7308
749.252	8329
749.364	7792
749.475	11906
749.587	7354
749.698	7123
749.809	7327
749.921	7477
750.032	6756
750.144	6716
750.255	7051
750.366	6527
750.478	6678
750.589	6962
750.700	6775
750.811	7163
750.923	8425
751.034	12859
751.145	11798
751.256	6632
751.367	6425
751.479	6882
751.590	6775
751.701	7000
751.812	6007
751.923	6761
752.034	7034
752.145	5476
752.256	5946
752.367	6334
752.478	6574
752.589	7126
752.700	7009
752.811	6542
752.922	6193
753.032	6692
753.143	7331
753.254	6286
753.365	6462
753.476	6969
753.586	5810
753.697	6498
753.808	5689
753.919	6255
754.029	5438
754.140	6802
754.251	6018
754.361	6353
754.472	5737
754.582	6058
754.693	6002
754.804	6215
754.914	5723
755.025	6131
755.135	5598
755.246	5739
755.356	5568
755.466	6836
755.577	6486
755.687	6124
755.798	5637
755.908	6199
756.018	5879
756.129	6063
756.239	6051
756.349	6682
756.460	5965
756.570	5892
756.680	5898
756.790	6020
756.900	6652
757.011	5077
757.121	5830
757.231	5853
757.341	6292
757.451	5916
757.561	4768
757.671	5801
757.781	5138
757.891	6841
758.001	5480
758.111	5987
758.221	6290
758.331	6514
758.441	6952
758.551	7903
758.661	7109
758.771	6362
758.880	5165
758.990	5956
759.100	6177
759.210	6028
759.320	5603
759.429	5958
759.539	5375
759.649	5106
759.758	6200
759.868	5953
759.978	5464
760.087	6378
760.197	5787
760.307	5726
760.416	5122
760.526	5632
760.635	5756
760.745	5259
760.854	5200
760.964	5556
761.073	5614
761.182	4955
761.292	5557
761.401	5718
761.511	5326
761.620	6144
761.729	5946
761.839	4230
761.948	5358
762.057	5606
762.166	4959
762.276	5045
762.385	5235
762.494	5307
762.603	5271
762.712	4913
762.822	5375
762.931	5946
763.040	4485
763.149	5370
763.258	4649
763.367	5479
763.476	5372
763.585	5606
763.694	5220
763.803	5367
763.912	6416
764.021	6064
764.130	5401
764.238	5615
764.347	5065
764.456	4739
764.565	4964
764.674	5428
764.783	4878
764.891	4511
765.000	5853
765.109	5387
765.217	4579
765.326	5976
765.435	5901
765.543	5622
765.652	5936
765.761	5737
765.869	6255
765.978	8902
766.086	11468
766.195	18632
766.303	48523
766.412	166831
766.520	153187
766.629	25706
766.737	10870
766.846	7947
766.954	7184
767.062	7592
767.171	5734
767.279	6120
767.387	4912
767.496	5396
767.604	4503
767.712	5446
767.820	3971
767.928	5134
768.037	4387
768.145	5517
768.253	5520
768.361	4885
768.469	5154
768.577	4690
768.685	5318
768.793	5360
768.901	3704
769.009	6326
769.117	4694
769.225	5985
769.333	6367
769.441	7653
769.549	9978
769.657	18935
769.765	60119
769.873	158939
769.981	43364
770.088	8903
770.196	6226
770.304	6356
770.412	6128
770.519	5411
770.627	5495
770.735	4877
770.842	4928
770.950	5357
771.058	5696
771.165	5787
771.273	5123
771.380	5561
771.488	5529
771.595	5792
771.703	4768
771.810	6898
771.918	4568
772.025	6185
772.133	5079
772.240	6152
772.348	7056
772.455	6069
772.562	5258
772.670	5401
772.777	5406
772.884	6182
772.991	5376
773.099	5370
773.206	4724
773.313	6475
773.420	5176
773.528	5142
773.635	4755
773.742	5350
773.849	5005
773.956	5428
774.063	4492
774.170	4636
774.277	5383
774.384	4358
774.491	4552
774.598	5559
774.705	4820
774.812	7235
774.919	5795
775.026	4950
775.133	4630
775.239	5409
775.346	4774
775.453	4751
775.560	4863
775.667	5520
775.773	3961
775.880	5887
775.987	5255
776.093	5659
776.200	4714
776.307	4326
776.413	5007
776.520	4926
776.627	4656
776.733	4741
776.840	4435
776.946	6293
777.053	4699
777.159	5380
777.266	3731
777.372	5551
777.478	4800
777.585	5591
777.691	3753
777.798	4460
777.904	5253
778.010	6679
778.117	5685
778.223	4875
778.329	4308
778.435	4627
778.542	4820
778.648	4444
778.754	3675
778.860	4713
778.966	4015
779.072	3741
779.178	3832
779.284	4806
779.391	3457
779.497	3632
779.603	5293
779.708	3995
779.815	4945
779.920	5243
780.026	6559
780.132	4751
780.238	4065
780.344	4391
780.450	4216
780.556	3635
780.661	3854
780.767	5097
780.873	4192
780.979	5175
781.085	3039
781.190	4494
781.296	3898
781.402	4533
781.507	4208
781.613	3916
781.719	3477
781.824	4959
781.930	4748
782.035	4867
782.141	5250
782.246	4169
782.352	4401
782.457	4191
782.563	4211
782.668	3891
782.773	4012
782.879	3517
782.984	4158
783.090	5560
783.195	6200
783.300	4948
783.405	3871
783.511	3811
783.616	4022
783.721	4725
783.826	3717
783.932	4603
784.037	3971
784.142	3868
784.247	3351
784.352	4353
784.457	4452
784.562	4240
784.667	3821
784.772	4296
784.877	3809
784.982	5119
785.087	3826
785.192	4069
785.297	3366
785.402	3731
785.507	3336
785.611	4091
785.716	4424
785.821	4260
785.926	3869
786.031	3217
786.135	3471
786.240	3750
786.345	2573
786.450	3746
786.554	3883
786.659	4191
786.763	2401
786.868	4548
786.973	4481
787.077	3777
787.182	2980
787.286	4525
787.391	3925
787.495	3479
787.600	3964
787.704	3620
787.809	3156
787.913	3522
788.017	4150
788.122	3435
788.226	3073
788.330	3668
788.435	3498
788.539	3576
788.643	3041
788.747	3822
788.852	3706
788.956	3637
789.060	3584
789.164	3238
789.268	3317
789.372	3931
789.476	2889
789.580	2849
789.684	2333
789.788	4278
789.892	2616
789.996	4038
790.100	3254
790.204	2743
790.308	3809
790.412	2694
790.516	3248
790.620	3329
790.724	3182
790.828	3020
790.931	2646
791.035	3769
791.139	2431
791.242	3043
791.346	3263
791.450	3205
791.554	2979
791.657	2538
791.761	2916
791.864	3585
791.968	3105
792.072	3390
792.175	3240
792.279	3034
792.382	3349
792.486	3582
792.589	2986
792.693	3611
792.796	2452
792.899	3965
793.003	3867
793.106	1721
793.209	2904
793.313	4378
793.416	1390
793.519	4580
793.623	5481
793.726	4835
793.829	2921
793.932	2942
794.035	2668
794.138	3785
794.242	3446
794.345	2413
794.448	2912
794.551	4438
794.654	4902
794.757	4731
794.860	3281
794.963	3229
795.066	2291
795.169	3964
795.272	3093
795.375	3386
795.477	2538
795.580	3366
795.683	2058
795.786	3687
795.889	1680
795.991	3414
796.094	3256
796.197	2082
796.300	3382
796.402	3255
796.505	1691
796.608	2660
796.710	2694
796.813	2153
796.915	3174
797.018	2198
797.120	3214
797.223	1900
797.326	3677
797.428	2342
797.530	2403
797.633	2524
797.735	2817
797.838	2882
797.940	3213
798.042	2042
798.145	2011
798.247	3785
798.349	1436
798.452	4271
798.554	1959
798.656	1980
798.758	3218
798.860	2555
798.962	2128
799.065	2689
799.167	1627
799.269	3223
799.371	3472
799.473	4059
799.575	1994
799.677	2197
799.779	4844
799.881	3706
799.983	2380
800.085	2966
800.187	2916
800.289	1544
800.390	2694
800.492	1981
800.594	3231
800.696	2903
800.798	2829
800.899	1901
801.001	1308
801.103	2657
801.205	2739
801.306	3484
801.408	2073
801.509	2746
801.611	2078
801.713	3353
801.814	1552
801.916	2224
802.017	1980
802.119	1321
802.220	2934
802.322	815
802.423	2431
802.525	1909
802.626	1881
802.727	3004
802.829	2500
802.930	694
803.031	2869
803.133	2093
803.234	2318
803.335	2701
803.436	1913
803.538	2651
803.639	1763
803.740	2652
803.841	1895
803.942	3591
804.043	2625
804.144	1883
804.245	2840
804.346	2700
804.447	1385
804.548	3616
804.649	3473
804.750	3236
804.851	1385
804.952	2072
805.053	2136
805.154	1402
805.255	2900
805.355	1848
805.456	2201
805.557	2137
805.658	1393
805.758	2524
805.859	1495
805.960	2120
806.061	1107
806.161	2299
806.262	2158
806.362	1663
806.463	2288
806.564	2998
806.664	1705
806.765	1175
806.865	2382
806.966	1984
807.066	1410
807.166	3072
807.267	2721
807.367	1930
807.468	2677
807.568	1723
807.668	2652
807.769	3358
807.869	1782
807.969	2590
808.069	2015
808.170	2882
808.270	2026
808.370	2833
808.470	2223
808.570	1495
808.670	1972
808.770	3001
808.870	1251
808.970	1916
809.070	1453
809.170	1638
809.271	2324
809.370	2327
809.470	2166
809.570	2087
809.670	1500
809.770	2273
809.870	2827
809.970	1782
810.070	1436
810.169	2671
810.269	752
810.369	2257
810.469	2053
810.568	1671
810.668	984
810.768	1844
810.867	1646
810.967	2257
811.066	1973
811.166	2279
811.265	2417
811.365	1536
811.464	1077
811.564	2139
811.663	2483
811.763	528
811.862	2228
811.962	2816
812.061	1553
812.160	2139
812.260	2474
812.359	2145
812.458	1623
812.557	5338
812.657	5653
812.756	3118
812.855	1916
812.954	2016
813.053	2190
813.153	2086
813.252	354
813.351	2174
813.450	1739
813.549	1104
813.648	1437
813.747	1575
813.846	2008
813.945	1766
814.044	1462
814.143	2096
814.242	2632
814.341	1470
814.439	2021
814.538	2697
814.637	1913
814.736	2037
814.835	2167
814.933	1150
815.032	2885
815.131	2228
815.229	2619
815.328	2959
815.427	2403
815.525	3239
815.624	2472
815.722	2217
815.821	2188
815.919	1671
816.018	1765
816.116	3452
816.215	1650
816.313	2235
816.412	2411
816.510	2781
816.609	3490
816.707	2900
816.805	1940
816.904	1927
817.002	3029
817.100	3644
817.198	2719
817.296	2744
817.395	2064
817.493	3843
817.591	2628
817.689	3617
817.787	4016
817.885	6279
817.983	9462
818.081	20172
818.179	48517
818.277	128659
818.375	97282
818.473	20559
818.571	8458
818.669	6208
818.767	5990
818.865	6212
818.963	7384
819.061	9640
819.158	15840
819.256	36989
819.354	86393
819.452	196920
819.549	108753
819.647	24575
819.745	9901
819.842	8670
819.940	5156
820.038	5112
820.135	4120
820.233	4059
820.330	3389
820.428	3116
820.525	3965
820.623	2671
820.720	2300
820.818	3445
820.915	2656
821.012	2545
821.110	1489
821.207	3485
821.304	1865
821.402	2648
821.499	2694
821.596	2515
821.693	3351
821.791	3251
821.888	2908
821.985	5776
822.082	3630
822.179	2980
822.276	1011
822.373	2938
822.470	1476
822.567	1853
822.664	1193
822.761	2461
822.858	1291
822.955	2951
823.052	1832
823.149	2236
823.246	1951
823.343	1760
823.440	2247
823.536	2612
823.633	1824
823.730	2335
823.827	1888
823.923	1944
824.020	3102
824.117	1664
824.213	1146
824.310	1453
824.407	2094
824.503	2057
824.600	2249
824.696	1861
824.793	2356
824.889	1446
824.986	985
825.082	1875
825.179	1926
825.275	2292
825.371	1917
825.468	2997
825.564	684
825.660	1808
825.757	2295
825.853	1747
825.949	1063
826.045	2653
826.142	1020
826.238	1741
826.334	1735
826.430	1252
826.526	1331
826.622	1560
826.718	1789
826.814	1688
826.910	2608
827.006	1044
827.102	593
827.198	2794
827.294	1507
827.390	2136
827.486	2077
827.582	792
827.678	823
827.774	2390
827.869	901
827.965	2128
828.061	870
828.157	1605
828.252	1978
828.348	553
828.444	1237
828.539	1201
828.635	1199
828.731	3084
828.826	902
828.922	1796
829.017	1693
829.113	1222
829.208	666
829.304	871
829.399	1994
829.495	1488
829.590	1790
829.685	1662
829.781	1494
829.876	678
829.971	1334
830.066	402
830.162	793
830.257	985
830.352	763
830.447	2692
830.543	2163
830.638	436
830.733	1879
830.828	1030
830.923	1784
831.018	1708
831.113	2050
831.208	1153
831.303	2067
831.398	1439
831.493	2179
831.588	1401
831.683	1636
831.778	1637
831.873	1239
831.967	2107
832.062	57
832.157	1233
832.252	2052
832.346	1610
832.441	2324
832.536	2674
832.631	5923
832.725	5364
832.820	1544
832.914	2078
833.009	1211
833.104	1418
833.198	2509
833.293	2066
833.387	2054
833.482	1632
833.576	1073
833.670	1907
833.765	466
833.859	1935
833.954	1257
834.048	924
834.142	1243
834.237	1711
834.331	2090
834.425	1156
834.519	756
834.613	2229
834.708	1530
834.802	1929
834.896	623
834.990	1572
835.084	802
835.178	1553
835.272	744
835.366	598
835.460	1335
835.554	1462
835.648	1564
835.742	1264
835.836	963
835.930	137
836.024	683
836.117	1641
836.211	1385
836.305	1963
836.399	1101
836.493	1180
836.586	2166
836.680	860
836.774	271
836.867	2490
836.961	377
837.055	629
837.148	812
837.242	761
837.335	439
837.429	1615
837.522	785
837.616	887
837.709	1269
837.803	904
837.896	1746
837.989	560
838.083	1404
838.176	1629
838.269	1101
838.363	827
838.456	1357
838.549	2952
838.642	2512
838.735	8230
838.829	3640
838.922	873
839.015	1006
839.108	1489
839.201	1719
839.294	1375
839.387	1847
839.480	678
839.573	1109
839.666	1425
839.759	725
839.852	944
839.945	1774
840.038	1816
840.131	1163
840.223	1622
840.316	616
840.409	1560
840.502	323
840.594	2298
840.687	130
840.780	1212
840.873	1215
840.965	1384
841.058	759
841.150	1138
841.243	105
841.336	1170
841.428	1485
841.521	720
841.613	593
841.706	349
841.798	2126
841.890	1566
841.983	-182
842.075	1888
842.167	1088
842.260	1315
842.352	1711
842.444	886
842.537	944
842.629	1543
842.721	159
842.813	1204
842.905	578
842.997	1339
843.090	422
843.182	1092
843.274	230
843.366	2596
843.458	1716
843.550	3284
843.642	700
843.734	1101
843.826	475
843.918	1698
844.009	1072
844.101	779
844.193	317
844.285	968
844.377	1214
844.469	1089
844.560	-310
844.652	1133
844.744	1872
844.835	1631
844.927	688
845.019	971
845.110	805
845.202	877
845.293	1044
845.385	703
845.476	-205
845.568	2017
845.659	785
845.751	1130
845.842	660
845.934	425
846.025	-80
846.116	955
846.208	38
846.299	327
846.390	1000
846.482	1961
846.573	905
846.664	1046
846.755	2112
846.846	1836
846.937	-70
847.029	1284
847.120	711
847.211	670
847.302	1222
847.393	-311
847.484	1591
847.575	88
847.666	1161
847.757	452
847.847	432
847.938	831
848.029	607
848.120	604
848.211	584
848.302	1096
848.392	1204
848.483	1106
848.574	311
848.664	1001
848.755	-264
848.846	1882
848.936	-121
849.027	283
849.118	426
849.208	1
849.299	1021
849.389	1303
849.480	1714
849.570	3175
849.661	5175
849.751	9132
849.841	3361
849.932	863
850.022	234
850.112	1543
850.203	382
850.293	1122
850.383	597
850.474	667
850.564	28
850.654	1354
850.744	625
850.834	-64
850.924	835
851.014	714
851.104	1051
851.194	959
851.284	1763
851.374	1632
851.464	104
851.554	1279
851.644	-11
851.734	1145
851.824	57
851.914	573
852.004	1045
852.094	595
852.183	1032
852.273	1247
852.363	1511
852.452	1222
852.542	393
852.632	1566
852.721	-1
852.811	947
852.901	392
852.990	766
853.080	736
853.169	1013
853.259	858
853.348	130
853.438	110
853.527	1183
853.617	34
853.706	3048
853.795	3431
853.885	9473
853.974	15553
854.063	31275
854.152	46714
854.242	16339
854.331	2583
854.420	1583
854.509	1129
854.598	1542
854.687	1194
854.777	1335
854.866	749
854.955	1644
855.044	1072
855.133	942
855.222	-389
855.311	457
855.400	966
855.488	924
855.577	-83
855.666	609
855.755	1403
855.844	432
855.933	538
856.021	793
856.110	662
856.199	201
856.288	63
856.376	754
856.465	-447
856.554	1310
856.642	-16
856.731	1577
856.819	818
856.908	695
856.996	504
857.085	656
857.173	-408
857.262	482
857.350	575
857.438	714
857.527	361
857.615	370
857.703	1118
857.792	102
857.880	142
857.968	1149
858.056	581
858.145	578
858.233	587
858.321	413
858.409	1011
858.497	-488
858.585	987
858.673	983
858.761	165
858.849	756
858.937	368
859.025	1157
859.113	790
859.201	101
859.289	1218
859.377	129
859.465	906
859.552	654
859.640	3
859.728	1042
859.816	507
859.903	1080
859.991	-296
860.079	695
860.166	355
860.254	229
860.342	646
860.429	694
860.517	-945
860.604	1177
860.692	430
860.779	772
860.867	76
860.954	759
861.042	879
861.129	1074
861.216	552
861.304	1074
861.391	658
861.478	625
861.565	535
861.653	1353
861.740	-324
861.827	274
861.914	841
862.001	411
862.089	926
862.176	404
862.263	-130
862.350	1032
862.437	-599
862.524	-146
862.611	-135
862.698	28
862.785	426
862.871	1126
862.958	586
863.045	195
863.132	582
863.219	1084
863.306	-589
863.392	1850
863.479	1324
863.566	894
863.652	656
863.739	1016
863.826	547
863.912	66
863.999	-797
864.086	500
864.172	298
864.259	183
864.345	246
864.432	1037
864.518	36
864.604	804
864.691	-459
864.777	854
864.863	437
864.950	1266
865.036	647
865.122	1845
865.209	1393
865.295	1291
865.381	1309
865.467	2104
865.553	659
865.639	2023
865.726	2912
865.812	4715
865.898	7952
865.984	13622
866.070	24361
866.156	28193
866.242	6709
866.328	1682
866.414	718
866.499	1035
866.585	1013
866.671	1129
866.757	1176
866.843	1768
866.928	674
867.014	1537
867.100	968
867.186	1529
867.271	1945
867.357	1850
867.442	951
867.528	1609
867.614	813
867.699	265
867.785	1304
867.870	1237
867.956	113
868.041	1696
868.127	1482
868.212	436
868.297	1198
868.383	1233
868.468	2802
868.553	3152
868.639	3802
868.724	7180
868.809	6838
868.894	1776
868.979	1103
869.065	1014
869.150	-187
869.235	-17
869.320	-85
869.405	1283
869.490	134
869.575	219
869.660	196
869.745	897
869.830	687
869.915	349
870.000	666
870.085	598
870.169	1075
870.254	1082
870.339	363
870.424	451
870.509	832
870.593	947
870.678	723
870.763	1241
870.847	-28
870.932	1315
871.016	442
871.101	707
871.186	182
871.270	567
871.355	-610
871.439	639
871.523	-236
871.608	630
871.692	-79
871.777	1152
871.861	12
871.945	376
872.030	1589
872.114	825
872.198	72
872.282	321
872.367	207
872.451	415
872.535	361
872.619	324
872.703	214
872.787	253
872.871	-520
872.955	674
873.039	184
873.123	910
873.207	1192
873.291	242
873.375	18
873.459	647
873.543	275
873.627	523
873.711	375
873.794	488
873.878	-158
873.962	76
874.045	303
874.129	519
874.137	441
874.213	-336
874.245	-295
874.296	-227
874.352	-290
874.380	-326
874.460	557
874.464	592
874.547	474
874.568	485
874.631	529
874.676	458
874.714	399
874.784	1209
874.798	1368
874.881	868
874.892	790
874.965	291
874.999	321
875.048	309
875.107	23
875.131	-75
875.215	-34
875.215	-34
875.298	-460
875.323	-198
875.381	511
875.430	735
875.465	868
875.538	-8
875.548	-133
875.631	48
875.646	28
875.714	-78
875.753	69
875.798	299
875.861	-151
875.881	-311
875.964	451
875.968	413
876.047	-286
876.076	-15
876.130	498
876.183	199
876.213	32
876.291	652
876.296	695
876.379	-484
876.398	-252
876.462	637
876.506	365
876.545	9
876.613	386
876.628	486
876.711	233
876.721	285
876.794	755
876.828	462
876.877	-17
876.935	157
876.960	245
877.043	-256
877.043	-253
877.125	442
877.150	437
877.208	480
877.258	402
877.291	370
877.365	233
877.374	221
877.456	440
877.472	315
877.539	-272
877.579	193
877.622	613
877.687	244
877.704	175
877.787	55
877.794	40
877.869	-40
877.901	212
877.952	591
878.008	107
878.034	-166
878.115	-57
878.117	-53
878.199	252
878.222	238
878.282	112
878.329	23
878.364	116
878.437	721
878.447	767
878.529	-528
878.544	-306
878.611	904
878.651	409
878.694	-304
878.758	17
878.776	184
878.858	206
878.865	230
878.941	255
878.972	189
879.023	180
879.078	152
879.105	190
879.185	146
879.187	145
879.269	572
879.292	464
879.351	-132
879.399	-99
879.433	208
879.506	181
879.516	120
879.598	124
879.613	132
879.680	572
879.720	824
879.762	870
879.827	351
879.844	213
879.926	38
879.933	64
880.007	490
880.040	506
880.089	665
880.147	895
880.171	878
880.253	2246
880.254	2248
880.335	2472
880.360	2857
880.417	3971
880.467	5203
880.499	6057
880.574	7812
880.580	7782
880.662	2090
880.680	1691
880.744	1230
880.787	965
880.825	567
880.893	-198
880.907	-237
880.989	-98
881.000	-28
881.070	519
881.106	436
881.152	128
881.213	186
881.233	246
881.315	314
881.319	306
881.396	136
881.426	186
881.478	182
881.532	528
881.559	745
881.639	43
881.641	28
881.722	237
881.745	207
881.803	387
881.852	572
881.885	255
881.958	-462
881.966	-411
882.047	1138
882.064	1202
882.129	911
882.171	924
882.210	1012
882.277	1390
882.291	1404
882.372	516
882.383	420
882.454	252
882.489	397
882.535	358
882.596	74
882.616	37
882.697	271
882.702	265
882.778	265
882.808	405
882.859	584
882.914	470
882.940	297
883.020	-96
883.021	-92
883.102	565
883.127	669
883.183	895
883.233	1069
883.264	992
883.339	475
883.345	435
883.426	152
883.445	112
883.507	401
883.551	401
883.587	224
883.657	427
883.668	488
883.749	300
883.763	350
883.830	303
883.869	-27
883.910	-322
883.975	-212
883.991	-111
884.072	-132
884.081	-71
884.152	608
884.187	576
884.233	339
884.292	516
884.314	534
884.394	186
884.398	175
884.475	-228
884.504	-316
884.555	49
884.610	105
884.636	-68
884.716	-121
884.716	-116
884.797	517
884.821	502
884.877	57
884.927	147
884.958	311
885.033	273
885.038	247
885.118	-199
885.139	-271
885.199	59
885.244	328
885.279	328
885.350	323
885.359	341
885.439	528
885.456	479
885.520	392
885.561	410
885.600	149
885.667	13
885.680	44
885.760	-197
885.773	-211
885.840	-49
885.878	202
885.920	370
885.984	262
886.000	291
886.080	382
886.089	429
886.160	633
886.195	651
886.240	513
886.300	283
886.320	266
886.400	385
886.406	380
886.480	360
886.511	417
886.560	466
886.616	227
886.640	257
886.720	747
886.722	752
886.800	31
886.827	-165
886.879	465
886.932	920
886.959	711
887.038	180
887.039	187
887.119	636
887.143	775
887.198	307
887.248	-97
887.278	135
887.354	687
887.358	704
887.437	794
887.459	904
887.517	619
887.564	309
887.596	230
887.669	42
887.676	55
887.755	142
887.774	159
887.835	11
887.880	9
887.914	330
887.985	800
887.994	722
888.073	19
888.090	-126
888.153	-200
888.195	-246
888.232	-324
888.300	-442
888.311	-277
888.391	802
888.405	1021
888.470	472
888.510	93
888.549	490
888.615	1120
888.628	988
888.708	209
888.720	94
888.787	389
888.825	473
888.866	344
888.930	246
888.945	244
889.024	178
889.035	177
889.103	367
889.140	418
889.182	648
889.245	1050
889.261	926
889.340	290
889.349	219
889.419	660
889.454	870
889.498	140
889.559	-861
889.577	-638
889.656	365
889.664	465
889.735	745
889.768	876
889.814	850
889.873	811
889.978	323
890.083	12
890.187	459
890.292	1249
890.397	437
890.501	-90
890.606	292
890.710	844
890.815	-266
890.919	442
891.024	-326
891.128	263
891.233	-86
891.337	722
891.442	-136
891.546	522
891.650	666
891.755	-200
891.859	1540
891.963	522
892.068	650
892.172	588
892.276	-335
892.380	678
892.484	1073
892.589	-92
892.693	-22
892.797	129
892.901	276
893.005	327
893.109	803
893.213	350
893.317	525
893.421	-5
893.525	-105
893.629	-470
893.733	1306
893.837	-56
893.941	85
894.045	646
894.148	-397
894.252	772
894.356	269
894.460	1296
894.564	490
894.667	910
894.771	912
894.875	-211
894.978	-225
895.082	1166
895.186	53
895.289	943
895.393	681
895.496	158
895.600	-757
895.703	452
895.807	-486
895.910	-31
896.014	-292
896.117	-621
896.221	500
896.324	496
896.427	-348
896.531	-463
896.634	-344
896.737	-387
896.840	-143
896.944	-435
897.047	-469
897.150	-95
897.253	-142
897.356	742
897.460	87
897.563	268
897.666	-228
897.769	451
897.872	-245
897.975	187
898.078	-293
898.181	598
898.284	-529
898.387	57
898.490	-180
898.593	440
898.695	-254
898.798	-63
898.901	933
899.004	1209
899.107	-679
899.209	543
899.312	-421
899.415	688
899.518	-162
899.620	143
899.723	127
899.826	422
899.928	201
900.031	-296
900.133	202
900.236	-161
900.338	-555
900.441	187
900.543	-117
900.646	618
900.748	-309
900.851	607
900.953	-578
901.055	-63
901.158	152
901.260	57
901.362	-167
901.465	768
901.567	39
901.669	91
901.771	-420
901.873	0
901.976	134
902.078	-748
902.180	223
902.282	73
902.384	-361
902.486	-342
902.588	-828
902.690	-211
902.792	-321
902.894	-1
902.996	-579
903.098	166
903.200	571
903.302	-242
903.404	-458
903.505	-551
903.607	-151
903.709	1042
903.811	103
903.913	6
904.014	-273
904.116	261
904.218	-712
904.319	-32
904.421	176
904.523	339
904.624	516
904.726	605
904.827	-398
904.929	-114
905.030	664
905.132	167
905.233	459
905.335	-329
905.436	171
905.537	-389
905.639	-31
905.740	14
905.841	-164
905.943	-112
906.044	-785
906.145	-979
906.247	34
906.348	-48
906.449	429
906.550	871
906.651	-392
906.752	-271
906.854	-267
906.955	-281
907.056	-142
907.157	-106
907.258	-952
907.359	39
907.460	-1128
907.561	27
907.662	-745
907.762	26
907.863	-937
907.964	219
908.065	386
908.166	429
908.267	-140
908.367	-13
908.468	-201
908.569	11
908.670	-31
908.770	455
908.871	-89
908.971	240
909.072	-321
909.173	825
909.273	-446
909.374	-283
909.474	-856
909.575	299
909.675	-409
909.776	281
909.876	-779
909.977	-548
910.077	-597
910.177	246
910.278	-357
910.378	-232
910.478	-678
910.579	153
910.679	-339
910.779	499
910.879	-561
910.980	-326
911.080	-439
911.180	37
911.280	-177
911.380	540
911.480	-197
911.580	-716
911.680	272
911.780	389
911.880	155
911.980	-327
912.080	-393
912.180	157
912.280	-771
912.380	-707
912.480	-924
912.580	557
912.679	-891
912.779	-128
912.879	-426
912.979	-13
913.078	-911
913.178	205
913.278	-597
913.377	252
913.477	-450
913.577	-367
913.676	-123
913.776	-237
913.875	-191
913.975	88
914.074	-486
914.174	-629
914.273	-743
914.373	548
914.472	23
914.572	160
914.671	-632
914.770	-308
914.870	-417
914.969	-388
915.068	-672
915.167	-1160
915.267	-690
915.366	-815
915.465	-387
915.564	-779
915.663	-498
915.763	542
915.862	-556
915.961	-145
916.060	-1507
916.159	-365
916.258	-498
916.357	-56
916.456	-158
916.555	-232
916.654	-647
916.752	397
916.851	-333
916.950	-607
917.049	-612
917.148	-456
917.247	173
917.345	-493
917.444	-757
917.543	-769
917.642	-1438
917.740	-601
917.839	-96
917.937	269
918.036	-152
918.135	-819
918.233	-844
918.332	103
918.430	-208
918.529	-925
918.627	-350
918.726	-702
918.824	-804
918.923	-473
919.021	-122
919.119	-834
919.218	-42
919.316	123
919.414	-511
919.512	565
919.611	38
919.709	-108
919.807	-1242
919.905	36
920.003	-870
920.102	221
920.200	-708
920.298	5
920.396	38
920.494	521
920.592	-678
920.690	43
920.788	-468
920.886	-198
920.984	-492
921.082	-595
921.180	-173
921.277	164
921.375	104
921.473	259
921.571	406
921.669	-375
921.766	-938
921.864	131
921.962	-70
922.060	60
922.157	-195
922.255	-45
922.352	-349
922.450	821
922.548	290
922.645	-177
922.743	378
922.840	755
922.938	774
923.035	1688
923.133	240
923.230	303
923.327	34
923.425	926
923.522	848
923.619	840
923.717	955
923.814	185
923.911	-110
924.008	5
924.106	-626
924.203	1116
924.300	107
924.397	765
924.494	994
924.591	1010
924.688	-104
924.786	842
924.883	944
924.979	487
925.077	850
925.173	390
925.270	466
925.367	1045
925.464	847
925.561	-12
925.658	472
925.755	704
925.852	228
925.948	411
926.045	1351
926.142	-146
926.239	848
926.335	814
926.432	583
926.529	645
926.625	685
926.722	31
926.818	572
926.915	376
927.011	-23
927.108	-583
927.204	-75
927.301	80
927.397	190
927.494	635
927.590	-12
927.687	412
927.783	202
927.879	735
927.976	-191
928.072	167
928.168	-418
928.264	288
928.361	-476
928.457	377
928.553	-140
928.649	71
928.745	-206
928.841	-10
928.937	-154
929.033	319
929.129	537
929.225	117
929.321	-330
929.417	507
929.513	504
929.609	-482
929.705	-603
929.801	-48
929.897	-498
929.993	-3
930.089	30
930.184	293
930.280	-646
930.376	811
930.471	284
930.567	205
930.663	-79
930.758	-287
930.854	554
930.950	252
931.045	10
931.141	1109
931.236	568
931.332	263
931.427	-246
931.523	24
931.618	-156
931.714	-50
931.809	-803
931.905	-182
932.000	-723
932.095	-500
932.191	-77
932.286	913
932.381	-82
932.476	-49
932.572	-326
932.667	-247
932.762	-319
932.857	35
932.952	-160
933.047	-41
933.142	-406
933.237	221
933.332	-827
933.427	-107
933.522	-444
933.617	-408
933.712	494
933.807	378
933.902	280
933.997	536
934.092	-70
934.187	23
934.282	-784
934.376	138
934.471	-93
934.566	-592
934.661	-112
934.755	-39
934.850	-509
934.945	445
935.039	-216
935.134	-732
935.228	-398
935.323	573
935.417	-719
935.512	-487
935.606	-1278
935.701	-431
935.795	-1400
935.890	-76
935.984	-859
936.079	-766
936.173	-119
936.267	-343
936.362	-363
936.456	-380
936.550	199
936.644	16
936.738	-477
936.833	-424
936.927	-556
937.021	-151
937.115	-458
937.209	-203
937.303	-40
937.397	-537
937.491	-834
937.585	23
937.679	-118
937.773	-208
937.867	-1162
937.961	-590
938.055	-115
938.149	-782
938.243	-308
938.337	-1098
938.430	-906
938.524	91
938.618	-1089
938.712	-1159
938.805	-84
938.899	-403
938.993	-85
939.086	-448
939.180	-797
939.274	-339
939.367	-1440
939.461	-227
939.554	-1388
939.648	-1007
939.741	-658
939.835	98
939.928	178
940.022	-312
940.115	-370
940.208	-282
940.302	-299
940.395	-675
940.488	-1451
940.582	39
940.675	-878
940.768	-559
940.861	-978
940.954	-296
941.048	-1089
941.141	-652
941.234	-751
941.327	-408
941.420	49
941.513	-464
941.606	-978
941.699	-73
941.792	-60
941.885	-402
941.978	-532
942.071	-774
942.164	-1095
942.257	-924
942.349	-276
942.442	331
942.535	-852
942.628	-638
942.721	-1246
942.813	-1206
942.906	-256
942.999	-230
943.091	-457
943.184	-156
943.277	-620
943.369	-237
943.462	-1296
943.554	-1185
943.647	-1311
943.739	-826
943.832	-629
943.924	-810
944.017	-92
944.109	-1664
944.201	-148
944.294	-488
944.386	-677
944.478	-478
944.571	-1063
944.663	-1330
944.755	-1520
944.847	-854
944.940	-1289
945.032	-1066
945.124	-834
945.216	702
945.308	-1649
945.400	-96
945.492	-371
945.584	-347
945.676	-413
945.768	-436
945.860	-737
945.952	-765
946.044	-841
946.136	-801
946.228	-1431
946.320	-470
946.412	-1264
946.503	-442
946.595	-328
946.687	-289
946.779	-1269
946.870	-773
946.962	-1136
947.054	-562
947.145	-1509
947.237	-561
947.329	-292
947.420	-498
947.512	-990
947.603	-676
947.695	-1490
947.786	-1545
947.878	-1001
947.969	-486
948.061	-832
948.152	-564
948.243	-1005
948.335	-807
948.426	-1364
948.517	-945
948.609	-539
948.700	-409
948.791	-1026
948.882	-499
948.973	-1684
949.065	223
949.156	-543
949.247	-767
949.338	-187
949.429	-795
949.520	-566
949.611	-1800
949.702	-553
949.793	195
949.884	-1518
949.975	-646
950.066	-818
950.157	-819
950.247	-1132
950.338	-643
950.429	-787
950.520	-1290
950.611	-1237
950.701	-977
950.792	-662
950.883	-332
950.973	-1032
951.064	-793
951.155	-1121
951.245	-87
951.336	-329
951.427	-1036
951.517	734
951.608	-687
951.698	-1075
951.788	-1227
951.879	-965
951.969	-597
952.060	-356
952.150	-853
952.240	-611
952.331	-1449
952.421	403
952.511	-590
952.602	-993
952.692	-662
952.782	-391
952.872	-1159
952.962	-1350
953.052	-571
953.143	-1546
953.233	-1469
953.323	-245
953.413	-1033
953.503	-568
953.593	-404
953.683	-1596
953.773	-835
953.863	-681
953.953	-1054
954.042	-866
954.132	-1152
954.222	-903
954.312	-1015
954.402	-931
954.492	-1459
954.581	-1015
954.671	-557
954.761	-2322
954.850	-312
954.940	-1251
955.030	-924
955.119	-1664
955.209	-323
955.298	-1033
955.388	-619
955.477	-384
955.567	-963
955.656	-872
955.746	-365
955.835	-780
955.925	-1134
956.014	-1382
956.103	-301
956.193	-1174
956.282	-275
956.371	-338
956.461	-1062
956.550	-971
956.639	-1448
956.728	-1548
956.817	-1039
956.906	-1397
956.995	-562
957.085	-1601
957.174	-982
957.263	-1640
957.352	-1277
957.441	-978
957.530	-1042
957.619	-720
957.708	-1015
957.796	-836
957.885	-1678
957.974	-1528
958.063	-799
958.152	-1207
958.241	-1071
958.329	-1278
958.418	-1292
958.507	-1291
958.596	-148
958.684	-1309
958.773	-458
958.861	-1266
958.950	-1482
959.039	-773
959.127	-905
959.216	-1473
959.304	-842
959.393	-1681
959.481	-1066
959.570	-1194
959.658	-983
959.746	-839
959.835	-376
959.923	-1650
960.011	-1149
960.100	-1640
960.188	-1813
960.276	-950
960.365	-79
960.453	-1083
960.541	-1534
960.629	-1440
960.717	-1153
960.805	-1221
960.893	-1307
960.981	-1278
961.069	-555
961.158	-590
961.245	-527
961.333	-1629
961.421	-1125
961.509	-1479
961.597	-1116
961.685	-1132
961.773	-800
961.861	-1458
961.949	-260
962.036	-1963
962.124	-285
962.212	-1250
962.299	-1293
962.387	-1565
962.475	-728
962.562	-1620
962.650	-216
962.738	-432
962.825	-671
962.913	-1010
963.000	-1414
963.088	-1850
963.175	-1485
963.263	-1891
963.350	-1301
963.438	-1979
963.525	-1115
963.612	-888
963.700	-1077
963.787	-431
963.874	-1702
963.962	-754
964.049	-1009
964.136	-1319
964.223	-1090
964.310	-1385
964.398	-660
964.485	-850
964.572	-1585
964.659	-881
964.746	-1323
964.833	-1117
964.920	-1034
965.007	-2206
965.094	-1321
965.181	-2038
965.268	-1251
965.355	-1615
965.441	-502
965.528	-1122
965.615	-412
965.702	-1315
965.789	-1374
965.875	-1094
965.962	-1150
966.049	-2108
966.136	-1292
966.222	-1563
966.309	-771
966.395	-1937
966.482	-1294
966.569	-952
966.655	-1135
966.742	-691
966.828	-1539
966.915	-1282
967.001	-1176
967.087	-2429
967.174	-891
967.260	-267
967.347	-1398
967.433	-1868
967.519	-757
967.605	-1602
967.692	-1450
967.778	-1711
967.864	-1063
967.950	-1153
968.036	-1294
968.123	-1518
968.209	-1361
968.295	-1756
968.381	-881
968.467	-1426
968.553	-2430
968.639	-280
968.725	-1821
968.811	-1876
968.897	-609
968.983	-585
969.069	-1437
969.154	-612
969.240	-491
969.326	-1578
969.412	-994
969.497	-1097
969.583	-2118
969.669	-7
969.755	-341
969.840	-2204
969.926	-737
970.012	-1954
970.097	76
970.183	-1125
970.268	-1571
970.354	-1172
970.439	-2392
970.525	-32
970.610	-2033
970.696	-789
970.781	-1867
970.866	-1769
970.952	-1817
971.037	-1992
971.122	-1676
971.208	-1954
971.293	-192
971.378	-2563
971.463	-1456
971.549	-1260
971.634	-1412
971.719	-1159
971.804	-1544
971.889	-618
971.974	-1526
972.059	-1757
972.144	-2143
972.229	-1341
972.314	-1995
972.399	-1568
972.484	-1231
972.569	-1464
972.654	-1667
972.739	-895
972.824	-1504
972.908	-1678
972.993	-1415
973.078	-2294
973.163	-1966
973.247	-1580
973.332	-1802
973.417	-985
973.501	-1239
973.586	-1162
973.671	-1492
973.755	-1343
973.840	-291
973.924	-1576
974.009	-1273
974.093	-2472
974.178	-1008
974.262	-2030
974.346	-1422
974.431	-1528
974.515	-1365
974.600	-941
974.684	-662
974.768	-1882
974.852	-660
974.937	-2507
975.021	-622
975.105	-2112
975.189	-1496
975.273	-1758
975.358	-1581
975.442	-2495
975.526	-1429
975.610	-1737
975.694	-1357
975.778	-619
975.862	-742
975.946	-3170
976.030	-318
976.114	-2512
976.198	-334
976.281	-1989
976.365	-201
976.449	-926
976.533	-978
976.617	-2322
976.700	-873
976.784	-1382
976.868	-1500
976.951	-1823
977.035	-1105
977.119	-1117
977.202	-1795
977.286	-1416
977.369	-999
977.453	-1483
977.536	-2168
977.620	-1819
977.703	-757
977.787	-2002
977.870	-975
977.953	-331
978.037	-1638
978.120	-578
978.203	-1745
978.287	-1787
978.370	-1017
978.453	-1868
978.536	-899
978.620	-557
978.703	-1126
978.786	-1813
978.869	-1471
978.952	-2430
979.035	-836
979.118	-928
979.201	-1368
979.284	-1403
979.367	-838
979.450	-1769
979.533	-1680
979.616	-1871
979.699	-1080
979.782	-971
979.865	-1886
979.948	-1450
980.030	-1104
980.113	-1404
980.196	-1793
980.279	-1456
980.361	-1856
980.444	-1969
980.526	-942
980.609	-1659
980.692	-936
980.774	-405
980.857	-1361
980.939	-772
981.022	-1920
981.104	-1108
981.187	-1872
981.269	-1688
981.352	-1253
981.434	-2112
981.516	-1245
981.599	-408
981.681	-569
981.763	-1295
981.846	-1213
981.928	-2157
982.010	-1551
982.092	-1731
982.174	-1136
982.256	-2341
982.339	-1408
982.421	-1548
982.503	-1777
982.585	-2544
982.667	-1364
982.749	-1261
982.831	-921
982.913	-2198
982.995	-896
983.077	-2227
983.158	-227
983.240	-2677
983.322	-1103
983.404	-970
983.486	-2293
983.568	-1861
983.649	-1625
983.731	-1417
983.813	-1740
983.894	-1515
983.976	-1977
984.058	-2299
984.139	-1335
984.221	-2461
984.302	-620
984.384	-1681
984.465	-2290
984.547	-1377
984.628	-1487
984.710	-847
984.791	-899
984.872	-1343
984.954	-1803
985.035	-992
985.116	-1846
985.198	-1604
985.279	-772
985.360	-2589
985.441	-1585
985.522	-1537
985.604	-1673
985.685	-2225
985.766	-20
985.847	108
985.928	-1602
986.009	-2151
986.090	-1815
986.171	-929
986.252	-1635
986.333	-1936
986.414	-1054
986.495	-1034
986.576	-1048
986.656	-1303
986.737	-1254
986.818	-2226
986.899	-1983
986.980	-2094
987.060	-988
987.141	-2082
987.222	-763
987.302	-1484
987.383	-1158
987.464	-1451
987.544	-519
987.625	-2054
987.705	-677
987.786	-2126
987.866	-1039
987.947	-1514
988.027	-2322
988.108	-1544
988.188	-1191
988.268	-1668
988.349	-1524
988.429	-1766
988.509	-270
988.589	-1361
988.670	-2562
988.750	-277
988.830	-1814
988.910	-1702
988.990	-961
989.070	-2455
989.151	-1116
989.231	-1139
989.311	-959
989.391	-1503
989.471	-1304
989.551	-1992
989.631	-1725
989.711	-1788
989.791	-1646
989.870	-1846
989.950	-409
990.030	-2109
990.110	-1674
990.190	-2434
990.269	-814
990.349	-1892
990.429	-1278
990.509	-1622
990.588	-1757
990.668	-1213
990.747	-1152
990.827	-1668
990.907	-1042
990.986	-2791
991.066	-1320
991.145	-2488
991.225	-769
991.304	-1142
991.383	-440
991.463	-1947
991.542	-1414
991.622	-1980
991.701	-2323
991.780	-2218
991.859	-1558
991.939	-2870
992.018	-1785
992.097	-1233
992.176	-1944
992.256	-1693
992.335	-1757
992.414	-914
992.493	-1842
992.572	-2774
992.651	-969
992.730	-3030
992.809	-1306
992.888	-1199
992.967	-2392
993.046	-1187
993.125	-1966
993.203	-2309
993.282	-1542
993.361	-1701
993.440	-1162
993.519	-2593
993.597	-2088
993.676	-1936
993.755	-1115
993.834	-1572
993.912	-2384
993.991	-789
994.069	-2166
994.148	-1729
994.226	-1613
994.305	-624
994.384	-1771
994.462	-1091
994.540	-2116
994.619	-2599
994.697	-1152
994.776	-2152
994.854	-889
994.932	-2018
995.011	-901
995.089	-1428
995.167	-1753
995.245	-1266
995.324	-1787
995.402	-1737
995.480	-1726
995.558	-1727
995.636	-2248
995.714	-2025
995.792	-818
995.870	-1678
995.948	-2048
996.026	-1499
996.104	-2674
996.182	-2067
996.260	-1410
996.338	-1381
996.416	-3149
996.494	-2107
996.572	-762
996.649	-2105
996.727	-2411
996.805	-1844
996.883	-1739
996.960	-1636
997.038	-1705
997.116	-1809
997.193	-3476
997.271	-1075
997.348	-1863
997.426	-2184
997.504	-2049
997.581	-1051
997.658	-1711
997.736	-2820
997.813	-2606
997.891	-1698
997.968	-1877
998.046	-1866
998.123	-2188
998.200	-1580
998.277	-3049
998.355	-1965
998.432	-2476
998.509	-1629
998.586	-1008
998.663	-1310
998.741	-1905
998.818	-1607
998.895	-2856
998.972	-1163
999.049	-2248
999.126	-2311
999.203	-1362
999.280	-1453
999.357	-1311
999.434	-1926
999.511	-1345
999.587	-1502
999.664	-1917
999.741	-2093
999.818	-1478
999.895	-2440
999.971	-2037
1000.048	-2142
1000.125	-964
1000.202	-1963
1000.278	-1523
1000.355	-2187
1000.431	-1442
1000.508	-1710
1000.584	-996
1000.661	-1481
1000.738	-2547
1000.814	-2126
1000.890	-1571
1000.967	-1874
1001.043	-2368
1001.120	-2969
1001.196	-2530
1001.272	-3234
1001.349	-1435
1001.425	-1747
1001.501	-2332
1001.577	-3066
1001.654	-1288
1001.730	-2219
1001.806	-838
1001.882	-2977
1001.958	-1721
1002.034	-1682
1002.110	-1631
1002.186	-2750
1002.262	-2499
1002.338	-2396
1002.414	-1569
1002.490	-1987
1002.566	-1616
1002.642	-2680
1002.718	-1392
1002.794	-2329
1002.870	-1230
1002.945	-1903
1003.021	-2400
1003.097	-3178
1003.173	-1350
1003.248	-2540
1003.324	-1655
1003.400	-1960
1003.475	-1550
1003.551	-2424
1003.626	-1400
1003.702	-2575
1003.777	-2110
1003.853	-1880
1003.928	-2405
1004.004	-2490
1004.079	-685
1004.155	-2307
1004.230	-2640
1004.305	-1410
1004.381	-2001
1004.456	-2340
1004.531	-2612
1004.607	-2312
1004.682	-1675
1004.757	-1833
1004.832	-2449
1004.907	-1905
1004.982	-2117
1005.057	-2085
1005.133	-1656
1005.208	-2574
1005.283	-3020
1005.358	-1654
1005.433	-2176
1005.508	-2109
1005.583	-3004
1005.657	-1749
1005.732	-1391
1005.807	-2469
1005.882	-2810
1005.957	-1944
1006.032	-1512
1006.106	-1629
1006.181	-1988
1006.256	-1944
1006.331	-2495
1006.405	-2572
1006.480	-1681
1006.554	-2305
1006.629	-1830
1006.704	-2421
1006.778	-1585
1006.853	-1502
1006.927	-2109
1007.002	-2203
1007.076	-1618
1007.150	-2710
1007.225	-2246
1007.299	-2536
1007.373	-2814
1007.448	-3018
1007.522	-1333
1007.596	-2680
1007.671	-2603
1007.745	-2202
1007.819	-1958
1007.893	-2063
1007.967	-1754
1008.041	-2399
1008.115	-1671
1008.190	-2255
1008.264	-1208
1008.338	-3223
1008.412	-1964
1008.486	-1929
1008.560	-1768
1008.633	-2449
1008.707	-1674
1008.781	-1604
1008.855	-1853
1008.929	-1483
1009.003	-2292
1009.076	-2865
1009.150	-1781
1009.224	-2739
1009.298	-1869
1009.371	-2724
1009.445	-1708
1009.519	-2451
1009.592	-2758
1009.666	-2412
1009.739	-1918
1009.813	-2252
1009.886	-1481
1009.960	-3065
1010.033	-2315
1010.107	-1528
1010.180	-2249
1010.253	-2018
1010.327	-1771
1010.400	-3095
1010.473	-1644
1010.547	-860
1010.620	-2454
1010.693	-1913
1010.766	-2524
1010.840	-1608
1010.913	-1910
1010.986	-2252
1011.059	-2441
1011.132	-1749
1011.205	-1474
1011.278	-2295
1011.351	-1617
1011.424	-1595
1011.497	-1845
1011.570	-2110
1011.643	-2439
1011.716	-2468
1011.789	-2288
1011.862	-2322
1011.934	-1579
1012.007	-2575
1012.080	-1952
1012.153	-1900
1012.225	-1775
1012.298	-2740
1012.371	-2152
1012.443	-1795
1012.516	-2223
1012.588	-2849
1012.661	-1761
1012.733	-1616
1012.806	-1270
1012.879	-1977
1012.951	-2638
1013.023	-2414
1013.096	-2030
1013.168	-2308
1013.241	-958
1013.313	-2364
1013.385	-1832
1013.458	-2228
1013.530	-2179
1013.602	-3000
1013.674	-2134
1013.746	-2704
1013.819	-2836
1013.891	-2179
1013.963	-2216
1014.035	-1571
1014.107	-1815
1014.179	-1712
1014.251	-3086
1014.323	-2166
1014.395	-2209
1014.467	-1965
1014.539	-1782
1014.611	-2425
1014.683	-1779
1014.754	-2439
1014.826	-2800
1014.898	-2017
1014.970	-2676
1015.042	-1971
1015.113	-1129
1015.185	-2457
1015.257	-3344
1015.328	-2000
1015.400	-1360
1015.471	-2396
1015.543	-2700
1015.615	-1850
1015.686	-2646
1015.757	-2939
1015.829	-1901
1015.901	-2480
1015.972	-2221
1016.043	-2520
1016.115	-1686
1016.186	-2011
1016.257	-3186
1016.328	-1864
1016.400	-1859
1016.471	-2963
1016.542	-1859
1016.613	-1890
1016.685	-2564
1016.756	-2674
1016.827	-1961
1016.898	-2244
1016.969	-745
1017.040	-2377
1017.111	-2192
1017.182	-2709
1017.253	-2194
1017.324	-2248
1017.395	-1853
1017.466	-2607
1017.537	-1742
1017.608	-2416
1017.678	-1882
1017.749	-1985
1017.820	-1966
1017.891	-2999
1017.961	-3062
1018.032	-2194
1018.103	-1563
1018.173	-1996
1018.244	-2617
1018.315	-2092
1018.385	-1267
1018.456	-2299
1018.526	-2377
1018.597	-2163
1018.667	-1980
1018.738	-2969
1018.808	-1995
1018.878	-2655
1018.949	-2166
1019.019	-1660
1019.089	-1840
1019.160	-2552
1019.230	-3339
1019.300	-1982
1019.371	-2294
1019.441	-2376
1019.511	-1999
1019.581	-2511
1019.651	-2714
1019.721	-1857
1019.791	-2351
1019.861	-1928
1019.931	-2301
1020.001	-2549
1020.071	-1997
1020.141	-2843
1020.211	-2061
1020.281	-2493
1020.351	-2322
1020.421	-1874
1020.491	-1837
1020.560	-3406
1020.630	-2659
1020.700	-1937
1020.770	-2449
1020.839	-2691
1020.909	-1726
1020.979	-2844
1021.048	-1687
1021.118	-3566
1021.187	-1924
1021.257	-1593
1021.326	-2318
1021.396	-2989
1021.465	-1988
1021.535	-1955
1021.604	-2961
1021.674	-2689
1021.743	-2364
1021.812	-2121
1021.882	-1961
1021.951	-2136
1022.020	-2302
1022.089	-2533
1022.159	-2169
1022.228	-2221
1022.297	-2269
1022.366	-2203
1022.435	-2437
1022.504	-2952
1022.573	-2644
1022.642	-2539
1022.711	-2270
1022.781	-2801
1022.849	-2468
1022.918	-3074
1022.987	-1941
1023.056	-2672
1023.125	-1950
1023.194	-2268
1023.263	-1753
1023.331	-2543
1023.400	-2654
1023.469	-2881
1023.538	-1939
1023.606	-2667
1023.675	-2447
1023.744	-2796
1023.812	-1674
1023.881	-2335
1023.949	-1910
1024.018	-2978
1024.086	-1961
1024.155	-2987
1024.223	-2516
1024.292	-1980
1024.360	-2083
1024.429	-3101
1024.497	-1932
1024.565	-2555
1024.634	-1460
1024.702	-1722
1024.770	-1483
1024.838	-2244
1024.907	-1992
1024.975	-3183
1025.043	-2342
1025.111	-2700
1025.179	-1754
1025.247	-2658
1025.315	-2235
1025.383	-2347
1025.451	-2542
1025.519	-2365
1025.587	-1754
1025.655	-2230
1025.723	-2124
1025.791	-2660
1025.859	-1836
1025.927	-1898
1025.995	-2376
1026.062	-2275
1026.130	-2829
1026.198	-2539
1026.266	-1938
1026.333	-1449
1026.401	-2316
1026.469	-2523
1026.536	-1704
1026.604	-2425
1026.671	-2635
1026.739	-2141
1026.806	-2181
1026.874	-2212
1026.941	-1788
1027.009	-2599
1027.076	-2221
1027.144	-1735
1027.211	-2543
1027.278	-3273
1027.345	-2506
1027.413	-2653
1027.480	-2276
1027.547	-2112
1027.614	-1911
1027.682	-2106
1027.749	-2767
1027.816	-3387
1027.883	-2137
1027.950	-2256
1028.017	-2179
1028.084	-2080
1028.151	-2168
1028.218	-2428
1028.285	-2468
1028.352	-2896
1028.419	-2687
1028.486	-3041
1028.553	-2491
1028.619	-2768
1028.686	-2106
1028.753	-3147
1028.820	-2187
1028.886	-3117
1028.953	-2121
1029.020	-2531
1029.086	-2426
1029.153	-3073
1029.220	-1643
1029.286	-1415
1029.353	-2013
1029.419	-3416
1029.486	-2212
1029.552	-2318
1029.619	-1674
1029.685	-2260
1029.751	-2242
1029.818	-1977
1029.884	-1825
1029.951	-2692
1030.017	-2151
1030.083	-2556
1030.149	-2249
1030.216	-2727
1030.282	-1803
1030.348	-2800
1030.414	-2460
1030.480	-2729
1030.546	-1883
1030.612	-2839
1030.678	-2988
1030.744	-3108
1030.810	-2294
1030.876	-2318
1030.942	-1971
1031.008	-2774
1031.074	-2346
1031.140	-1859
1031.206	-1898
1031.272	-2160
1031.337	-1923
1031.403	-2683
1031.469	-1764
1031.534	-3144
1031.600	-1919
1031.666	-2681
1031.731	-2299
1031.797	-3004
1031.863	-2521
1031.928	-2483
1031.994	-1923
1032.059	-1820
1032.125	-2715
1032.190	-2698
1032.256	-2947
1032.321	-3311
1032.386	-2135
1032.452	-2285
1032.517	-2444
1032.582	-2905
1032.647	-2350
1032.713	-3405
1032.778	-2556
1032.843	-3156
1032.908	-2940
1032.974	-2102
1033.039	-2436
1033.104	-2348
1033.169	-2433
1033.234	-2722
1033.299	-1752
1033.364	-2553
1033.429	-1967
1033.494	-2050
1033.559	-2452
1033.624	-2374
1033.688	-2113
1033.753	-2865
1033.818	-2909
1033.883	-3137
1033.948	-2473
1034.013	-3027
1034.077	-2189
1034.142	-1646
1034.207	-2025
1034.271	-1489
1034.336	-1061
1034.400	-2243
1034.465	-1400
1034.530	-2719
1034.594	-2567
1034.658	-2585
1034.723	-2778
1034.787	-2205
1034.852	-2561
1034.916	-2531
1034.981	-2659
1035.045	-2880
1035.109	-2639
1035.173	-2002
1035.238	-3573
1035.302	-2655
1035.366	-1634
1035.430	-2313
1035.495	-2578
1035.559	-2834
1035.623	-2154
1035.687	-2193
1035.751	-2191
1035.815	-2429
1035.879	-2545
1035.943	-2243
1036.007	-2428
1036.071	-2232
1036.135	-1805
1036.198	-2165
1036.262	-2606
1036.326	-2050
1036.390	-2086
1036.454	-2520
1036.517	-2690
1036.581	-1600
1036.645	-1519
1036.709	-2575
1036.772	-1872
1036.836	-2473
1036.900	-1861
1036.963	-2755
1037.026	-2507
1037.090	-2130
1037.154	-2691
1037.217	-2152
1037.280	-2380
1037.344	-2997
1037.407	-2539
1037.471	-2102
1037.534	-2544
1037.597	-2294
1037.661	-2124
1037.724	-2676
1037.787	-3175
1037.850	-2547
1037.913	-2108
1037.977	-1867
1038.040	-2199
1038.103	-2860
1038.166	-2350
1038.229	-2477
1038.292	-2214
1038.355	-2236
1038.418	-2418
1038.481	-2958
1038.544	-3724
1038.607	-2874
1038.670	-2670
1038.732	-3293
1038.795	-2825
1038.858	-2295
1038.921	-2219
1038.984	-2244
1039.046	-2678
1039.109	-2133
1039.172	-2869
1039.234	-2706
1039.297	-2480
1039.360	-2897
1039.422	-2694
1039.485	-3441
1039.547	-3203
1039.610	-2409
1039.672	-2248
1039.734	-2401
1039.797	-2611
1039.859	-2507
1039.922	-2184
1039.984	-3299
1040.046	-2246
1040.109	-2098
1040.171	-2823
1040.233	-2530
1040.295	-2594
1040.358	-2186
1040.420	-2903
1040.482	-2473
1040.544	-2595
1040.606	-2849
1040.668	-2015
1040.730	-2613
1040.792	-2298
1040.854	-3134
1040.916	-1864
1040.978	-2428
1041.040	-2019
1041.102	-2375
1041.164	-2176
1041.225	-3102
1041.287	-1727
1041.349	-2397
1041.411	-2859
1041.472	-2487
1041.534	-2106
1041.596	-2541
1041.657	-2100
1041.719	-3284
1041.781	-2493
1041.842	-2904
1041.904	-2407
1041.965	-3197
1042.027	-2342
1042.088	-2717
1042.150	-2589
1042.211	-2492
1042.272	-2017
1042.334	-2495
1042.395	-2721
1042.456	-2300
1042.518	-2604
1042.579	-3320
1042.640	-3232
1042.701	-2662
1042.763	-2107
1042.824	-2841
1042.885	-2321
1042.946	-2151
1043.007	-1635
1043.068	-1763
1043.129	-2730
1043.190	-2441
1043.251	-2305
1043.312	-1441
1043.373	-1932
1043.434	-2573
1043.495	-2186
1043.556	-2631
1043.616	-1662
1043.677	-3109
1043.738	-1953
1043.799	-2924
1043.859	-3013
1043.920	-2660
1043.981	-1952
1044.041	-2705
1044.102	-2431
1044.162	-2414
1044.223	-2079
1044.284	-2541
1044.344	-2010
1044.405	-2603
1044.465	-1883
1044.525	-2783
1044.586	-2056
1044.646	-2528
1044.707	-2187
1044.767	-2843
1044.827	-1765
1044.887	-2616
1044.948	-2461
1045.008	-2610
1045.068	-2648
1045.128	-1583
1045.188	-2842
1045.249	-1730
1045.309	-1712
1045.369	-2545
1045.429	-1527
1045.489	-2529
1045.549	-2632
1045.609	-2791
1045.669	-2862
1045.729	-2423
1045.789	-1910
1045.848	-2292
1045.908	-2101
1045.968	-2198
1046.028	-2210
1046.088	-2638
1046.147	-1367
1046.207	-1452
1046.267	-2616
1046.326	-2410
1046.386	-2262
1046.446	-1725
1046.505	-1498
1046.565	-1857
1046.624	-913
1046.684	-970
1046.743	-139
1046.803	-1224
1046.862	-1397
1046.922	0
