'Start Wavelength	183.907
'End Wavelength	1046.922
'Gate Delay	5.000
'Gate Width (ms)	1.050
'Laser Output Level	0.000
'X Position	0.000
'Y Position	0.000
'Z Position	0.000
'Grid Point Number	1.000
'Shot Number	100.000
183.907	328.000
183.977	229.000
184.047	-345
184.116	239
184.186	-587
184.256	-435
184.325	84
184.395	154
184.465	716
184.534	-102
184.604	-677
184.674	-14
184.743	-232
184.813	951
184.883	-448
184.952	143
185.022	-682
185.092	8
185.161	42
185.231	375
185.301	-680
185.370	175
185.440	-490
185.509	495
185.579	-505
185.649	369
185.718	-535
185.788	706
185.857	-212
185.927	-287
185.996	-268
186.066	1008
186.136	-580
186.205	288
186.275	-725
186.344	150
186.414	343
186.483	-107
186.553	686
186.622	1552
186.692	280
186.761	-345
186.831	-461
186.900	-513
186.970	406
187.039	293
187.109	671
187.178	789
187.248	-229
187.317	1071
187.387	-228
187.456	50
187.526	115
187.595	-22
187.664	-1088
187.734	648
187.803	-580
187.873	910
187.942	1050
188.012	246
188.081	-51
188.150	-289
188.220	-378
188.289	653
188.358	288
188.428	1419
188.497	-240
188.567	548
188.636	-363
188.705	-463
188.775	-605
188.844	-166
188.913	614
188.983	95
189.052	265
189.121	-20
189.191	-711
189.260	1127
189.329	841
189.399	636
189.468	561
189.537	532
189.606	-642
189.676	429
189.745	335
189.814	834
189.883	98
189.953	589
190.022	576
190.091	1092
190.161	1601
190.230	723
190.299	-630
190.368	635
190.437	-364
190.507	146
190.576	-620
190.645	372
190.714	-33
190.783	330
190.853	630
190.922	769
190.991	311
191.060	205
191.129	529
191.198	1032
191.268	122
191.337	360
191.406	648
191.475	844
191.544	-35
191.613	800
191.682	625
191.752	823
191.821	-369
191.890	-152
191.959	-28
192.028	684
192.097	412
192.166	226
192.235	-1008
192.304	568
192.373	-159
192.442	458
192.511	38
192.580	783
192.650	-13
192.719	461
192.788	398
192.857	729
192.926	349
192.995	580
193.064	-162
193.133	582
193.202	480
193.271	1494
193.340	596
193.409	1375
193.478	1734
193.547	2119
193.615	1311
193.684	1920
193.753	1191
193.822	770
193.891	302
193.960	798
194.029	-501
194.098	392
194.167	-140
194.236	465
194.305	400
194.374	382
194.443	295
194.512	996
194.580	156
194.649	923
194.718	607
194.787	398
194.856	-211
194.925	687
194.994	-41
195.062	1027
195.131	383
195.200	1480
195.269	935
195.338	1153
195.407	1121
195.475	617
195.544	498
195.613	920
195.682	605
195.751	1306
195.819	279
195.888	1292
195.957	911
196.026	636
196.094	913
196.163	1772
196.232	704
196.301	1144
196.369	485
196.438	656
196.507	774
196.576	786
196.644	-251
196.713	703
196.782	-529
196.850	96
196.919	348
196.988	986
197.056	314
197.125	661
197.194	357
197.262	478
197.331	-152
197.400	1221
197.468	334
197.537	131
197.606	124
197.674	1111
197.743	1551
197.812	1
197.880	1188
197.949	1150
198.017	1299
198.086	931
198.155	196
198.223	1361
198.292	1084
198.360	979
198.429	738
198.497	1031
198.566	1117
198.635	1673
198.703	202
198.772	1060
198.840	832
198.909	2602
198.977	-63
199.046	75
199.114	618
199.183	1515
199.251	-57
199.320	1193
199.388	114
199.457	899
199.525	937
199.594	729
199.662	685
199.731	124
199.799	538
199.867	1061
199.936	196
200.004	1011
200.073	419
200.141	651
200.210	-266
200.278	101
200.346	1076
200.415	1644
200.483	918
200.552	915
200.620	335
200.688	1256
200.757	-321
200.825	9
200.893	666
200.962	650
201.030	247
201.098	533
201.167	277
201.235	887
201.303	-266
201.372	1262
201.440	-363
201.508	1081
201.577	241
201.645	1073
201.713	344
201.781	516
201.850	116
201.918	1308
201.986	-34
202.055	1111
202.123	344
202.191	930
202.259	-33
202.327	756
202.396	-247
202.464	1253
202.532	11
202.600	2093
202.669	1394
202.737	1184
202.805	-898
202.873	949
202.941	345
203.009	911
203.078	586
203.146	944
203.214	-578
203.282	327
203.350	1350
203.418	1556
203.487	757
203.555	1273
203.623	857
203.691	1456
203.759	-91
203.827	724
203.895	820
203.963	880
204.031	144
204.099	870
204.168	-116
204.236	1049
204.304	184
204.372	1161
204.440	316
204.508	727
204.576	-676
204.644	521
204.712	116
204.780	803
204.848	635
204.916	168
204.984	-247
205.052	1089
205.120	334
205.188	991
205.256	673
205.324	949
205.392	195
205.460	1361
205.528	-13
205.596	1132
205.664	325
205.732	-207
205.799	1485
205.867	2995
205.935	-118
206.003	1365
206.071	616
206.139	825
206.207	566
206.275	1495
206.343	-899
206.411	262
206.478	185
206.546	920
206.614	263
206.682	1202
206.750	749
206.818	1791
206.885	969
206.953	534
207.021	819
207.089	1763
207.157	-387
207.225	906
207.292	-140
207.360	1268
207.428	410
207.496	370
207.563	-264
207.631	923
207.699	348
207.767	823
207.834	923
207.902	1024
207.970	355
208.038	1475
208.105	594
208.173	1375
208.241	1412
208.309	1476
208.376	1098
208.444	3071
208.512	875
208.579	168
208.647	1294
208.715	1469
208.782	506
208.850	1153
208.918	503
208.985	796
209.053	1299
209.120	1035
209.188	481
209.256	969
209.323	563
209.391	1030
209.459	2727
209.526	568
209.594	1053
209.661	948
209.729	444
209.796	1774
209.864	492
209.932	1237
209.999	1744
210.067	2192
210.134	1328
210.202	1832
210.269	2141
210.337	2503
210.404	715
210.472	1256
210.539	831
210.607	588
210.674	1320
210.742	2156
210.809	487
210.877	1953
210.944	1877
211.012	903
211.079	2870
211.146	1647
211.214	437
211.281	1063
211.349	1885
211.416	1929
211.484	1717
211.551	940
211.618	1136
211.686	2208
211.753	1280
211.821	2201
211.888	616
211.955	1779
212.023	599
212.090	2063
212.157	1715
212.225	2273
212.292	1816
212.359	4069
212.427	8600
212.494	3996
212.561	1320
212.629	1726
212.696	1375
212.763	1273
212.831	471
212.898	1756
212.965	401
213.032	1673
213.100	812
213.167	2061
213.234	2389
213.301	2351
213.369	1203
213.436	2001
213.503	1229
213.570	2017
213.638	925
213.705	1380
213.772	206
213.839	1864
213.906	1948
213.973	1988
214.041	1462
214.108	2210
214.175	1736
214.242	2455
214.309	914
214.376	2281
214.444	1751
214.511	2528
214.578	1369
214.645	1966
214.712	1689
214.779	2149
214.846	979
214.913	2426
214.980	2091
215.048	2948
215.115	3617
215.182	3295
215.249	2380
215.316	2021
215.383	1589
215.450	2872
215.517	1023
215.584	2082
215.651	1385
215.718	1569
215.785	2241
215.852	2053
215.919	3261
215.986	2882
216.053	1587
216.120	1133
216.187	2190
216.254	2462
216.321	1026
216.388	2399
216.455	1459
216.522	2371
216.589	2948
216.656	5306
216.722	4605
216.789	2946
216.856	3245
216.923	2946
216.990	1979
217.057	2423
217.124	2812
217.191	3352
217.258	4070
217.324	4988
217.391	5719
217.458	3405
217.525	2377
217.592	2750
217.659	1371
217.725	3403
217.792	2522
217.859	4035
217.926	938
217.993	1623
218.059	856
218.126	1511
218.193	825
218.260	1590
218.327	688
218.393	1673
218.460	318
218.527	1078
218.594	753
218.660	4149
218.727	4234
218.794	1460
218.860	1658
218.927	627
218.994	1348
219.061	599
219.127	1139
219.194	3430
219.261	1305
219.327	1064
219.394	1638
219.461	79
219.527	924
219.594	2371
219.661	1927
219.727	900
219.794	1200
219.860	1672
219.927	903
219.994	3294
220.060	5187
220.127	3947
220.193	1683
220.260	1899
220.326	3026
220.393	4795
220.460	6829
220.526	5089
220.593	1883
220.659	3902
220.726	1755
220.792	5243
220.859	5247
220.925	8888
220.992	12077
221.058	10243
221.125	8133
221.191	5136
221.258	2068
221.324	3071
221.391	2034
221.457	1272
221.524	756
221.590	2006
221.657	5958
221.723	3934
221.789	3536
221.856	4566
221.922	1665
221.989	2179
222.055	693
222.121	507
222.188	3569
222.254	1796
222.321	828
222.387	747
222.453	51
222.520	2278
222.586	832
222.652	1935
222.719	1510
222.785	1392
222.851	151
222.918	1344
222.984	1822
223.050	4158
223.116	1009
223.183	1960
223.249	173
223.315	-410
223.382	1134
223.448	1377
223.514	228
223.580	904
223.647	197
223.713	125
223.779	-340
223.845	1716
223.911	1824
223.978	612
224.044	1088
224.110	428
224.176	-347
224.242	498
224.309	-915
224.375	808
224.441	783
224.507	155
224.573	-1178
224.639	1182
224.705	-230
224.772	959
224.838	237
224.904	1714
224.970	567
225.036	962
225.102	433
225.168	1369
225.234	1453
225.300	793
225.366	196
225.432	1158
225.499	1301
225.565	1136
225.631	748
225.697	1174
225.763	442
225.829	2453
225.895	2272
225.961	4358
226.027	2467
226.093	3431
226.159	3908
226.225	4963
226.291	10008
226.357	18928
226.423	11709
226.489	6279
226.554	3406
226.620	2892
226.686	4338
226.752	8584
226.818	10510
226.884	22515
226.950	20523
227.016	8446
227.082	4165
227.148	4085
227.214	4893
227.279	6061
227.345	4733
227.411	3528
227.477	2155
227.543	6677
227.609	7535
227.674	6998
227.740	3114
227.806	2456
227.872	1229
227.938	2137
228.003	6707
228.069	2225
228.135	298
228.201	1732
228.267	297
228.332	2343
228.398	2140
228.464	2168
228.530	783
228.595	1616
228.661	224
228.727	3672
228.792	2941
228.858	1335
228.924	-55
228.990	2790
229.055	860
229.121	2485
229.187	1302
229.252	2131
229.318	334
229.384	2677
229.449	3082
229.515	650
229.581	-620
229.646	1917
229.712	1155
229.777	5477
229.843	5129
229.909	4273
229.974	5183
230.040	5418
230.105	2277
230.171	2505
230.236	3168
230.302	6723
230.368	4356
230.433	2111
230.499	1420
230.564	6136
230.630	2457
230.695	1693
230.761	1438
230.826	383
230.892	3988
230.957	1608
231.023	1096
231.088	1627
231.154	142
231.219	2195
231.284	1719
231.350	3556
231.415	715
231.481	1071
231.546	443
231.612	626
231.677	427
231.742	610
231.808	1664
231.873	845
231.939	-260
232.004	3580
232.069	3365
232.135	713
232.200	437
232.265	1376
232.331	-512
232.396	916
232.461	-70
232.527	1047
232.592	-385
232.657	437
232.723	1985
232.788	2054
232.853	1461
232.918	1312
232.984	926
233.049	635
233.114	1577
233.179	2869
233.245	3187
233.310	4946
233.375	467
233.440	2366
233.506	127
233.571	1261
233.636	316
233.701	1359
233.766	1912
233.832	3883
233.897	1903
233.962	1869
234.027	3486
234.092	2337
234.157	1557
234.222	2007
234.288	2899
234.353	9431
234.418	9041
234.483	5942
234.548	3836
234.613	2845
234.678	1915
234.743	2339
234.808	9825
234.873	5483
234.938	2856
235.004	2452
235.069	1439
235.134	1532
235.199	1834
235.264	1177
235.329	827
235.394	2751
235.459	1750
235.524	1442
235.589	1043
235.654	1275
235.719	-895
235.784	2212
235.849	1279
235.913	5213
235.978	4948
236.043	7294
236.108	1828
236.173	1891
236.238	2843
236.303	1592
236.368	1646
236.433	3643
236.498	5443
236.563	4384
236.627	7597
236.692	26142
236.757	21506
236.822	8913
236.887	6624
236.952	5769
237.017	3327
237.081	5561
237.146	5598
237.211	13183
237.276	26623
237.341	44072
237.405	21827
237.470	9509
237.535	6256
237.600	4623
237.664	2502
237.729	2352
237.794	3898
237.859	9262
237.923	5626
237.988	3898
238.053	5363
238.118	5555
238.182	12159
238.247	12260
238.312	5303
238.376	4633
238.441	3617
238.506	4613
238.570	608
238.635	3146
238.700	1143
238.764	884
238.829	5085
238.893	6628
238.958	3805
239.023	3720
239.087	1036
239.152	3088
239.216	1508
239.281	1676
239.346	1587
239.410	1836
239.475	1498
239.539	11959
239.604	8986
239.668	3193
239.733	1615
239.797	3308
239.862	9170
239.926	11332
239.991	4440
240.055	2425
240.120	1667
240.184	2330
240.249	866
240.313	1693
240.378	1956
240.442	7319
240.507	12497
240.571	4499
240.635	5283
240.700	7596
240.764	2206
240.829	2532
240.893	751
240.957	2602
241.022	6049
241.086	13215
241.151	5623
241.215	1046
241.279	3312
241.344	6857
241.408	3119
241.472	2027
241.537	2770
241.601	3248
241.665	1320
241.730	1306
241.794	3075
241.858	2729
241.922	1357
241.987	3005
242.051	953
242.115	2555
242.179	3344
242.244	1865
242.308	1394
242.372	2578
242.436	4022
242.501	3128
242.565	1282
242.629	1141
242.693	1980
242.757	1550
242.822	1824
242.886	2863
242.950	1812
243.014	2203
243.078	2710
243.142	3230
243.206	1960
243.271	2507
243.335	2998
243.399	4098
243.463	8569
243.527	28100
243.591	9444
243.655	5342
243.719	2246
243.783	3332
243.847	4620
243.911	5800
243.975	10605
244.040	7937
244.104	5805
244.168	3322
244.232	4988
244.296	6843
244.360	5673
244.424	3883
244.488	2810
244.552	2758
244.615	986
244.679	3247
244.743	3651
244.807	4398
244.871	2465
244.935	2714
244.999	671
245.063	2433
245.127	2527
245.191	4552
245.255	3943
245.319	4572
245.383	3568
245.446	3507
245.510	2500
245.574	3261
245.638	2824
245.702	2532
245.766	8562
245.829	5803
245.893	2256
245.957	3017
246.021	3982
246.085	3017
246.149	3482
246.212	13210
246.276	21043
246.340	9163
246.404	5088
246.467	6248
246.531	8862
246.595	5891
246.659	4853
246.722	4543
246.786	5947
246.850	7236
246.913	8835
246.977	3129
247.041	2648
247.104	4478
247.168	4040
247.232	11723
247.295	27315
247.359	13511
247.423	4618
247.486	10987
247.550	7076
247.614	5054
247.677	6899
247.741	4333
247.804	3495
247.868	5383
247.932	11434
247.995	25939
248.059	9172
248.122	4397
248.186	6163
248.249	10391
248.313	41619
248.376	44980
248.440	27769
248.503	9527
248.567	8760
248.630	11545
248.694	16764
248.757	20407
248.821	45086
248.884	27386
248.948	22200
249.011	34002
249.075	50801
249.138	45043
249.202	17054
249.265	9524
249.328	9964
249.392	8446
249.455	7074
249.519	5461
249.582	6093
249.645	12043
249.709	7949
249.772	4439
249.835	4457
249.899	5592
249.962	4499
250.025	4658
250.089	15450
250.152	24175
250.215	9958
250.279	6610
250.342	6614
250.405	6246
250.468	5402
250.532	6647
250.595	8847
250.658	26311
250.721	45634
250.785	18880
250.848	11707
250.911	6345
250.974	6196
251.038	9661
251.101	24669
251.164	11628
251.227	11251
251.290	9595
251.354	10047
251.417	38353
251.480	38643
251.543	22684
251.606	69291
251.669	52562
251.732	22252
251.795	29316
251.859	26659
251.922	46951
251.985	28442
252.048	15277
252.111	12158
252.174	9123
252.237	21213
252.300	50081
252.363	40375
252.426	70746
252.489	32991
252.552	22492
252.615	15029
252.678	13912
252.741	34818
252.804	36444
252.867	63063
252.930	50687
252.993	34285
253.056	20715
253.119	17653
253.182	11315
253.245	11780
253.308	12065
253.371	12707
253.434	13182
253.497	15318
253.559	25605
253.622	18331
253.685	20407
253.748	23581
253.811	10293
253.874	12009
253.937	11527
254.000	8570
254.062	17705
254.125	26937
254.188	28587
254.251	22422
254.314	9697
254.376	15796
254.439	20222
254.502	17621
254.565	16682
254.628	31582
254.690	19164
254.753	9849
254.816	9000
254.878	8744
254.941	17766
255.004	19842
255.067	7735
255.129	8157
255.192	4380
255.255	4293
255.317	6798
255.380	3764
255.443	3070
255.505	2665
255.568	4395
255.631	4742
255.693	4998
255.756	2828
255.819	4582
255.881	3105
255.944	3426
256.006	2549
256.069	2827
256.132	3724
256.194	5472
256.257	11801
256.319	8023
256.382	7317
256.444	5787
256.507	4008
256.569	3568
256.632	3903
256.694	6039
256.757	14787
256.819	42055
256.882	16062
256.944	7807
257.007	6801
257.069	7935
257.132	6102
257.194	5150
257.257	3970
257.319	5358
257.381	4234
257.444	11692
257.506	48021
257.569	58731
257.631	32991
257.693	18191
257.756	7636
257.818	7620
257.880	4406
257.943	4585
258.005	3687
258.067	6087
258.130	4766
258.192	5116
258.254	12374
258.317	7258
258.379	4253
258.441	13991
258.503	12828
258.566	13259
258.628	18376
258.690	4686
258.753	4799
258.815	11140
258.877	4812
258.939	3919
259.001	3312
259.064	4244
259.126	3772
259.188	5685
259.250	4046
259.312	6979
259.375	21458
259.437	12671
259.499	3786
259.561	4095
259.623	5190
259.685	8338
259.747	4126
259.809	12401
259.872	24847
259.934	36710
259.996	48190
260.058	16110
260.120	4965
260.182	4640
260.244	2933
260.306	2758
260.368	3291
260.430	4290
260.492	15552
260.554	29217
260.616	15109
260.678	21573
260.740	28732
260.802	7695
260.864	5708
260.926	4187
260.988	5230
261.050	5322
261.112	22750
261.174	48071
261.236	24670
261.298	8252
261.359	11382
261.421	18079
261.483	5162
261.545	5190
261.607	2114
261.669	3755
261.731	7060
261.793	20741
261.854	10529
261.916	7090
261.978	9974
262.040	13383
262.102	4614
262.164	7782
262.225	5688
262.287	4297
262.349	12082
262.411	10862
262.472	4970
262.534	6531
262.596	16911
262.658	6006
262.719	2994
262.781	4979
262.843	14221
262.904	7958
262.966	4196
263.028	5811
263.090	22151
263.151	64383
263.213	29151
263.275	24854
263.336	7420
263.398	5156
263.459	3759
263.521	4672
263.583	12114
263.644	8937
263.706	3921
263.767	2950
263.829	1872
263.891	2287
263.952	1838
264.014	2758
264.075	10846
264.137	34122
264.198	11560
264.260	3934
264.321	4874
264.383	14772
264.444	45694
264.506	14329
264.567	7303
264.629	16669
264.690	40698
264.752	13539
264.813	6534
264.875	4638
264.936	6371
264.998	5778
265.059	2582
265.120	2780
265.182	4022
265.243	23692
265.305	24213
265.366	5882
265.427	3896
265.489	4702
265.550	2481
265.611	4706
265.673	5339
265.734	7182
265.795	3059
265.857	2051
265.918	1818
265.979	7003
266.040	36136
266.102	31818
266.163	11222
266.224	14700
266.286	6021
266.347	3612
266.408	3479
266.469	4083
266.530	2541
266.592	2760
266.653	7100
266.714	14060
266.775	3823
266.836	3169
266.898	2696
266.959	12054
267.020	7474
267.081	3729
267.142	908
267.203	1850
267.264	899
267.326	3082
267.387	874
267.448	1604
267.509	1592
267.570	2600
267.631	1930
267.692	1238
267.753	1794
267.814	2318
267.875	6336
267.936	18055
267.997	15190
268.058	10641
268.119	3814
268.180	4351
268.241	2781
268.302	2619
268.363	1346
268.424	3331
268.485	3951
268.546	4172
268.607	893
268.668	1416
268.729	1561
268.790	3225
268.851	4469
268.912	15290
268.972	15023
269.033	7142
269.094	2799
269.155	2700
269.216	1427
269.277	3131
269.338	885
269.398	2529
269.459	3020
269.520	5331
269.581	7179
269.642	9439
269.702	5408
269.763	4570
269.824	2023
269.885	4746
269.945	7879
270.006	3495
270.067	1248
270.128	2692
270.188	1616
270.249	3139
270.310	1665
270.370	1661
270.431	2232
270.492	1617
270.553	1972
270.613	8264
270.674	17554
270.734	7948
270.795	3438
270.856	6172
270.916	4489
270.977	2717
271.038	4298
271.098	4875
271.159	8115
271.219	8060
271.280	3534
271.340	3258
271.401	3511
271.462	9439
271.522	5386
271.583	4795
271.643	3966
271.704	3637
271.764	4868
271.825	11772
271.885	40626
271.946	59524
272.006	18684
272.066	23454
272.127	44941
272.187	14182
272.248	7476
272.308	7817
272.369	29791
272.429	17272
272.489	14771
272.550	17672
272.610	14052
272.671	9917
272.731	9856
272.791	16863
272.852	8931
272.912	7680
272.972	3196
273.033	4179
273.093	6966
273.153	11888
273.214	7146
273.274	6286
273.334	30433
273.394	48652
273.455	17328
273.515	18316
273.575	44241
273.635	16472
273.696	17912
273.756	41580
273.816	15061
273.876	7865
273.936	15545
273.997	35258
274.057	10663
274.117	7165
274.177	10631
274.237	58366
274.297	50352
274.358	27114
274.418	33893
274.478	28478
274.538	10112
274.598	8294
274.658	21830
274.718	30158
274.778	12555
274.838	6903
274.898	14790
274.958	43906
275.018	41203
275.078	29667
275.138	11040
275.198	6727
275.258	5006
275.318	5973
275.378	12013
275.438	15612
275.498	8074
275.558	17803
275.618	40150
275.678	31803
275.738	20942
275.798	22902
275.858	15279
275.918	5139
275.978	5765
276.038	5822
276.098	3834
276.157	10029
276.217	30405
276.277	13659
276.337	9635
276.397	5941
276.457	6881
276.517	5756
276.576	3358
276.636	2821
276.696	6477
276.756	17476
276.815	12836
276.875	5692
276.935	6173
276.995	6241
277.055	2320
277.114	3434
277.174	5353
277.234	25061
277.293	10286
277.353	5929
277.413	4520
277.472	4240
277.532	3924
277.592	4525
277.651	6485
277.711	12116
277.771	6141
277.830	23185
277.890	19344
277.950	11028
278.009	27064
278.069	11742
278.128	8344
278.188	12841
278.248	7228
278.307	11581
278.367	8243
278.426	5261
278.486	3025
278.545	3463
278.605	2177
278.664	3190
278.724	3514
278.783	12562
278.843	39832
278.902	11471
278.962	6078
279.021	6302
279.081	4761
279.140	4334
279.199	4317
279.259	4971
279.318	3758
279.378	4972
279.437	9985
279.496	51387
279.556	90875
279.615	67851
279.675	16551
279.734	11535
279.793	22589
279.853	49410
279.912	17177
279.971	7833
280.031	6798
280.090	17857
280.149	37109
280.208	18277
280.268	73441
280.327	71162
280.386	16755
280.445	17876
280.505	19756
280.564	11102
280.623	11093
280.682	12343
280.742	20725
280.801	6457
280.860	4588
280.919	6398
280.978	5599
281.037	4986
281.097	3083
281.156	3375
281.215	3343
281.274	5824
281.333	26241
281.392	21452
281.451	4281
281.510	3361
281.569	3307
281.628	3589
281.688	2387
281.747	4997
281.806	5775
281.865	3913
281.924	1740
281.983	3251
282.042	2380
282.101	2800
282.160	1982
282.219	2725
282.278	3311
282.337	15688
282.396	10608
282.454	4252
282.513	5462
282.572	25541
282.631	13877
282.690	4467
282.749	3060
282.808	5376
282.867	5916
282.926	4774
282.985	2425
283.043	2490
283.102	2147
283.161	3840
283.220	13216
283.279	29350
283.338	8338
283.396	3918
283.455	3044
283.514	5321
283.573	7862
283.631	6354
283.690	4024
283.749	4007
283.808	9239
283.866	12265
283.925	3356
283.984	3891
284.043	5764
284.101	6293
284.160	4238
284.219	12196
284.277	6280
284.336	7156
284.395	29484
284.453	25425
284.512	7165
284.570	10629
284.629	8031
284.688	5560
284.746	3993
284.805	3851
284.863	5115
284.922	7580
284.981	5508
285.039	7053
285.098	15068
285.156	43853
285.215	150676
285.273	143438
285.332	47996
285.390	23813
285.449	15458
285.507	10612
285.566	8316
285.624	6394
285.683	5067
285.741	4433
285.799	4098
285.858	4731
285.916	5509
285.975	3285
286.033	3319
286.091	2586
286.150	2008
286.208	3889
286.267	6554
286.325	4726
286.383	8689
286.442	8741
286.500	3138
286.558	2388
286.616	2554
286.675	5965
286.733	4297
286.791	4632
286.850	5344
286.908	8586
286.966	13708
287.024	5657
287.083	3637
287.141	2974
287.199	2751
287.257	6129
287.315	4175
287.374	5435
287.432	14078
287.490	8898
287.548	5015
287.606	3736
287.664	3367
287.723	7351
287.781	13647
287.839	5163
287.897	3782
287.955	4989
288.013	7366
288.071	15734
288.129	51926
288.187	167131
288.245	73417
288.303	22591
288.361	13176
288.419	16328
288.477	12157
288.535	7728
288.593	5310
288.651	5624
288.709	2996
288.767	4165
288.825	4091
288.883	5052
288.941	4660
288.999	3316
289.057	3530
289.115	5626
289.173	5278
289.231	6152
289.289	5758
289.346	5610
289.404	5032
289.462	8977
289.520	8306
289.578	5057
289.636	3174
289.694	3217
289.751	2441
289.809	3610
289.867	2771
289.925	5499
289.983	6131
290.040	3663
290.098	2958
290.156	4656
290.214	5520
290.271	4023
290.329	3433
290.387	3036
290.444	2691
290.502	2664
290.560	4585
290.617	6586
290.675	5143
290.733	3643
290.790	4589
290.848	4597
290.906	6466
290.963	5725
291.021	5551
291.078	5486
291.136	6121
291.194	21692
291.251	49420
291.309	13980
291.366	5302
291.424	5177
291.481	5834
291.539	5891
291.596	3928
291.654	3198
291.711	2775
291.769	4503
291.826	9596
291.884	6933
291.941	3376
291.999	4084
292.056	4384
292.114	5954
292.171	3308
292.228	5062
292.286	5291
292.343	12204
292.401	17265
292.458	12225
292.515	7349
292.573	8009
292.630	6895
292.687	6513
292.745	5551
292.802	10535
292.859	32684
292.917	35818
292.974	20523
293.031	8675
293.089	5167
293.146	6270
293.203	4150
293.260	4858
293.318	8216
293.375	19620
293.432	9611
293.489	5096
293.546	4884
293.604	8674
293.661	18580
293.718	56382
293.775	36370
293.832	15506
293.889	9013
293.947	10156
294.004	8067
294.061	8676
294.118	16228
294.175	39341
294.232	56665
294.289	22555
294.346	11172
294.403	9127
294.460	8280
294.517	8579
294.574	6031
294.631	6552
294.688	7628
294.745	18288
294.802	66661
294.859	86213
294.916	32259
294.973	17834
295.030	14043
295.087	12296
295.144	8750
295.201	8098
295.258	6840
295.315	8371
295.372	21067
295.429	43442
295.486	20380
295.542	14157
295.599	38470
295.656	72252
295.713	46636
295.770	46229
295.827	19619
295.883	12116
295.940	10324
295.997	18187
296.054	16434
296.111	10107
296.167	7662
296.224	6503
296.281	6921
296.338	6803
296.394	5763
296.451	8823
296.508	21531
296.564	46495
296.621	35924
296.678	49464
296.734	78788
296.791	34106
296.848	17341
296.904	17412
296.961	31496
297.018	49723
297.074	44152
297.131	17634
297.187	11744
297.244	15508
297.301	43265
297.357	82753
297.414	31912
297.470	14625
297.527	11109
297.583	9769
297.640	9955
297.696	8818
297.753	7331
297.809	6098
297.866	4474
297.922	5289
297.979	4956
298.035	6886
298.092	10662
298.148	26590
298.204	27675
298.261	14796
298.317	26061
298.374	66740
298.430	37854
298.486	18250
298.543	12444
298.599	10763
298.656	9801
298.712	17542
298.768	29969
298.824	20697
298.881	9373
298.937	7389
298.993	7419
299.050	10985
299.106	9301
299.162	8672
299.218	7199
299.275	6578
299.331	7674
299.387	14240
299.443	47120
299.500	55224
299.556	22956
299.612	12399
299.668	10245
299.724	12135
299.780	13701
299.837	9347
299.893	12384
299.949	38104
300.005	48095
300.061	41932
300.117	76952
300.173	38876
300.229	16459
300.285	18848
300.341	22335
300.397	11947
300.453	8629
300.510	7795
300.566	7993
300.622	9223
300.678	21947
300.734	43120
300.790	40217
300.845	51029
300.901	31084
300.957	41601
301.013	32087
301.069	15812
301.125	10442
301.181	12329
301.237	9147
301.293	7332
301.349	4983
301.405	5569
301.461	6234
301.516	7476
301.572	9192
301.628	15580
301.684	14878
301.740	20382
301.796	29821
301.851	20808
301.907	31589
301.963	33135
302.019	48807
302.074	132036
302.130	136481
302.186	61160
302.242	26079
302.297	18208
302.353	17864
302.409	31392
302.464	27850
302.520	23790
302.576	49261
302.631	59338
302.687	33961
302.743	16553
302.798	11076
302.854	10344
302.910	9533
302.965	13102
303.021	18948
303.076	17870
303.132	21376
303.187	26468
303.243	15254
303.299	9319
303.354	8193
303.410	8461
303.465	7802
303.521	8063
303.576	7949
303.632	10031
303.687	15899
303.743	43862
303.798	40442
303.853	18454
303.909	10526
303.964	9400
304.020	13335
304.075	21005
304.130	17123
304.186	30716
304.241	31659
304.297	26943
304.352	16753
304.358	16205
304.407	11759
304.449	11340
304.463	11205
304.518	12622
304.539	11890
304.573	10711
304.629	11274
304.630	11379
304.684	16469
304.720	28565
304.739	34641
304.794	53877
304.811	46670
304.850	29276
304.902	15787
304.905	14934
304.960	11552
304.992	10782
305.015	10231
305.071	10259
305.083	10102
305.126	9476
305.173	8578
305.181	8443
305.236	6341
305.264	7515
305.292	8828
305.347	11485
305.354	11678
305.402	12605
305.445	11144
305.457	10760
305.512	13312
305.535	13567
305.567	14037
305.622	16879
305.626	17196
305.678	24197
305.716	40315
305.733	46212
305.788	55816
305.807	49283
305.843	37860
305.897	45258
305.898	45325
305.953	49636
305.988	36089
306.008	28561
306.063	22217
306.078	20215
306.118	14805
306.168	10581
306.173	10262
306.228	9247
306.259	8723
306.283	8503
306.338	8364
306.349	8558
306.393	9285
306.440	9668
306.448	9738
306.503	11389
306.530	13086
306.558	18257
306.613	42992
306.620	46117
306.668	59827
306.711	56217
306.723	54006
306.778	38978
306.801	30875
306.833	21929
306.888	13058
306.892	12762
306.943	11103
306.982	10138
306.997	9828
307.052	10443
307.072	10848
307.107	12739
307.162	18571
307.163	18684
307.217	30715
307.253	36001
307.272	37031
307.327	39255
307.343	35707
307.381	26708
307.434	19912
307.436	20142
307.491	36928
307.524	53026
307.546	57586
307.600	49340
307.614	43723
307.655	27158
307.704	16114
307.710	15727
307.765	18220
307.795	22941
307.819	28600
307.874	50496
307.885	50377
307.929	37433
307.975	21987
307.984	20792
308.038	21997
308.065	24654
308.093	35807
308.148	68947
308.156	77566
308.202	126935
308.246	162095
308.257	160783
308.312	93724
308.336	69705
308.366	54320
308.421	38149
308.426	36674
308.475	24568
308.517	18318
308.530	17317
308.585	15139
308.607	14626
308.639	14954
308.694	16645
308.697	16943
308.748	32776
308.787	51573
308.803	52912
308.857	41657
308.877	34771
308.912	26648
308.967	21518
308.967	21479
309.021	23577
309.058	25498
309.076	30080
309.130	49561
309.148	57874
309.185	96701
309.238	166878
309.239	167452
309.293	197734
309.328	184180
309.348	160359
309.402	78680
309.418	59319
309.457	40436
309.508	25585
309.511	25038
309.566	21177
309.598	19883
309.620	20753
309.674	23778
309.688	24855
309.729	24508
309.778	21467
309.783	21212
309.837	18222
309.868	17732
309.892	23356
309.946	38314
309.959	43390
310.001	61421
310.049	76884
310.055	74629
310.109	46733
310.139	30171
310.163	24916
310.218	18670
310.229	17647
310.272	15881
310.319	14178
310.326	14087
310.381	13589
310.409	13526
310.435	13634
310.489	13644
310.499	13740
310.543	15088
310.589	16332
310.598	16613
310.652	18883
310.679	19406
310.706	17667
310.760	13909
310.769	13330
310.814	11473
310.859	9961
310.868	10088
310.923	10658
310.948	11221
310.977	12680
311.031	15251
311.038	15639
311.085	15694
311.128	14998
311.139	14834
311.193	14086
311.218	13816
311.247	13251
311.301	12013
311.308	11840
311.356	13451
311.398	15166
311.410	14982
311.464	13730
311.488	13078
311.518	12366
311.572	11222
311.578	11088
311.626	14638
311.668	17801
311.680	18658
311.734	22236
311.758	23881
311.788	24408
311.842	25031
311.847	25054
311.896	29202
311.937	32956
311.950	32628
312.004	30894
312.027	29965
312.058	24527
312.112	14892
312.117	13918
312.165	14835
312.207	15601
312.297	29119
312.386	25066
312.476	17438
312.566	26134
312.656	15833
312.745	14593
312.835	17457
312.925	19528
313.015	17018
313.104	20525
313.194	12592
313.284	13357
313.374	14650
313.463	14926
313.553	14079
313.643	12978
313.732	12088
313.822	12857
313.912	15913
314.001	16878
314.091	21260
314.180	34452
314.270	19922
314.360	23891
314.449	18001
314.539	15712
314.628	15085
314.718	19132
314.808	22675
314.897	13794
314.987	12967
315.076	15659
315.166	18582
315.255	22048
315.345	18693
315.434	21663
315.524	18982
315.613	19849
315.703	18216
315.792	22605
315.881	34893
315.971	21185
316.060	30087
316.150	54274
316.239	54134
316.328	23478
316.418	13185
316.507	13735
316.597	15510
316.686	15650
316.775	23897
316.865	53096
316.954	15315
317.043	12229
317.133	12626
317.222	12638
317.311	12258
317.400	10960
317.490	14364
317.579	15913
317.668	12561
317.757	17102
317.847	24840
317.936	55336
318.025	34512
318.114	23448
318.203	20919
318.293	36088
318.382	77713
318.471	50632
318.560	65748
318.649	111460
318.738	29240
318.828	18587
318.917	19649
319.006	25177
319.095	58440
319.184	125964
319.273	67355
319.362	31847
319.451	15436
319.540	14468
319.629	23085
319.718	38209
319.807	27761
319.896	44690
319.985	150342
320.074	58447
320.163	24271
320.252	40583
320.341	39025
320.430	37666
320.519	29498
320.608	21546
320.697	21254
320.786	19478
320.875	17511
320.964	21130
321.053	26313
321.142	33628
321.230	39028
321.319	39724
321.408	81232
321.497	43386
321.586	32198
321.675	49826
321.764	49471
321.852	36578
321.941	47131
322.030	31685
322.119	40173
322.207	71454
322.296	79234
322.385	47412
322.474	35691
322.562	77260
322.651	59136
322.740	35247
322.829	55077
322.917	72837
323.006	35619
323.095	28704
323.183	27264
323.272	35414
323.361	48056
323.449	127719
323.538	53462
323.626	103395
323.715	67863
323.804	34567
323.892	96419
323.981	59597
324.069	23775
324.158	57786
324.246	57525
324.335	24480
324.424	29633
324.512	17953
324.601	23056
324.689	51481
324.778	106613
324.866	57036
324.954	19930
325.043	18022
325.131	33971
325.220	59500
325.308	66652
325.397	47774
325.485	31552
325.574	14166
325.662	14046
325.750	13954
325.839	13558
325.927	13367
326.015	18044
326.104	26982
326.192	37088
326.280	14584
326.369	15057
326.457	16867
326.545	24476
326.634	15251
326.722	10712
326.810	12323
326.898	12577
326.987	13238
327.075	24589
327.163	33489
327.251	23050
327.340	46872
327.428	75614
327.516	16081
327.604	13692
327.692	16101
327.781	17852
327.869	31780
327.957	19154
328.045	15433
328.133	11417
328.221	17237
328.309	13225
328.397	12392
328.485	13444
328.574	16835
328.662	38231
328.750	31484
328.838	18092
328.926	12533
329.014	11224
329.102	16889
329.190	48314
329.278	30200
329.366	10797
329.454	12126
329.542	13518
329.630	11838
329.718	11541
329.806	13477
329.893	16481
329.981	17576
330.069	10265
330.157	19914
330.245	48268
330.333	29026
330.421	11627
330.509	16233
330.597	45393
330.684	42175
330.772	25229
330.860	46939
330.948	62226
331.036	24424
331.123	10807
331.211	13729
331.299	20506
331.387	43627
331.475	79238
331.562	25428
331.650	11539
331.738	16620
331.825	25813
331.913	12410
332.001	10090
332.089	17950
332.176	40690
332.264	65366
332.352	56283
332.439	22126
332.527	18523
332.614	15817
332.702	21932
332.790	12963
332.877	29737
332.965	62078
333.052	14754
333.140	14428
333.228	23424
333.315	12625
333.403	14875
333.490	45039
333.578	32608
333.665	15385
333.753	12689
333.840	11274
333.928	15910
334.015	46448
334.103	55850
334.190	156235
334.278	50775
334.365	26209
334.452	18601
334.540	12355
334.627	18828
334.715	25345
334.802	35244
334.889	161231
334.977	149789
335.064	28508
335.151	15156
335.239	19680
335.326	27161
335.413	75452
335.501	105981
335.588	20567
335.675	15444
335.762	24819
335.850	48331
335.937	21436
336.024	47258
336.111	190358
336.199	96555
336.286	23194
336.373	12694
336.460	10715
336.547	11449
336.635	15973
336.722	13923
336.809	15020
336.896	17480
336.983	50663
337.070	124687
337.157	162634
337.245	110877
337.332	79107
337.419	17203
337.506	14731
337.593	18268
337.680	48581
337.767	149304
337.854	45133
337.941	61029
338.028	59362
338.115	23507
338.202	34035
338.289	43138
338.376	113135
338.463	42437
338.550	89272
338.637	90900
338.724	33336
338.811	51995
338.898	15017
338.984	13981
339.071	22201
339.158	15590
339.245	33035
339.332	23925
339.419	38137
339.506	36349
339.593	9341
339.679	8843
339.766	10416
339.853	15432
339.940	21119
340.027	12184
340.113	10931
340.200	13222
340.287	13885
340.374	13928
340.460	19287
340.547	12051
340.634	15138
340.720	40805
340.807	25848
340.894	8377
340.980	10051
341.067	9083
341.154	11557
341.240	11256
341.327	21864
341.414	9766
341.500	7863
341.587	10876
341.674	10092
341.760	16471
341.847	19485
341.933	8344
342.020	7156
342.106	6933
342.193	9232
342.279	13567
342.366	11014
342.452	16700
342.539	11751
342.625	19888
342.712	43306
342.798	20519
342.885	11925
342.971	6829
343.058	6769
343.144	6649
343.230	7430
343.317	6863
343.403	6672
343.490	7080
343.576	6825
343.662	7398
343.749	7904
343.835	10462
343.921	17880
344.008	70412
344.094	167319
344.180	41021
344.267	18860
344.353	53366
344.439	73443
344.525	27160
344.612	11179
344.698	8870
344.784	7714
344.870	6831
344.957	7177
345.043	10970
345.129	9120
345.215	16630
345.301	10558
345.387	8000
345.474	8403
345.560	8464
345.646	13597
345.732	10955
345.818	10153
345.904	7888
345.990	10648
346.076	11963
346.162	27141
346.249	10957
346.335	7539
346.421	8672
346.507	21494
346.593	70449
346.679	22857
346.765	12398
346.851	8988
346.937	8438
347.023	7950
347.108	8033
347.194	7767
347.280	7862
347.366	9588
347.452	20254
347.538	80208
347.624	64220
347.710	66210
347.796	15833
347.882	11800
347.967	10414
348.053	22764
348.139	12695
348.225	8673
348.311	6549
348.397	6794
348.482	8722
348.568	12430
348.654	6458
348.740	9210
348.825	8283
348.911	11967
348.997	38143
349.083	84658
349.168	19970
349.254	7368
349.340	8337
349.425	7059
349.511	9478
349.597	15387
349.682	16541
349.768	51399
349.854	28018
349.939	14106
350.025	7545
350.110	6878
350.196	5571
350.282	5798
350.367	7415
350.453	17060
350.538	16476
350.624	13441
350.709	14755
350.795	7762
350.880	6883
350.966	9008
351.051	14447
351.137	13104
351.222	8649
351.308	16700
351.393	44018
351.479	13499
351.564	5978
351.649	8286
351.735	7509
351.820	6106
351.906	6558
351.991	10919
352.076	29637
352.162	43300
352.247	11305
352.332	8110
352.418	11806
352.503	15953
352.588	64363
352.673	54113
352.759	12456
352.844	8168
352.929	8493
353.014	11490
353.100	9603
353.185	14344
353.270	17890
353.355	19453
353.441	9118
353.526	10985
353.611	17058
353.696	18131
353.781	11252
353.866	6803
353.952	6463
354.037	15407
354.122	32364
354.207	28956
354.292	13916
354.377	7899
354.462	6807
354.547	9414
354.632	10845
354.717	20464
354.802	17942
354.887	8989
354.972	6945
355.057	6390
355.142	5578
355.227	8277
355.312	10482
355.397	21072
355.482	47427
355.567	24730
355.652	20469
355.737	19954
355.822	52530
355.907	45382
355.991	10171
356.076	6796
356.161	7019
356.246	5962
356.331	7245
356.416	13755
356.501	75184
356.585	83258
356.670	13714
356.755	12021
356.840	12955
356.924	53987
357.009	191453
357.094	76219
357.179	20068
357.263	13783
357.348	15452
357.433	18845
357.517	13407
357.602	10530
357.687	7438
357.771	11208
357.856	11647
357.941	12121
358.025	38041
358.110	176360
358.195	85715
358.279	16535
358.364	11264
358.448	35988
358.533	100223
358.617	73742
358.702	72971
358.787	29664
358.871	17712
358.956	16749
359.040	7365
359.125	5781
359.209	5933
359.294	7090
359.378	8244
359.462	13545
359.547	11115
359.631	11862
359.716	6135
359.800	10918
359.885	22749
359.969	9910
360.053	7678
360.138	8507
360.222	8690
360.306	16336
360.391	15282
360.475	15807
360.559	28035
360.644	38684
360.728	30862
360.812	42307
360.896	118675
360.981	69414
361.065	47392
361.149	12438
361.233	11349
361.318	10695
361.402	11429
361.486	10521
361.570	6578
361.654	9088
361.739	18631
361.823	72156
361.907	116920
361.991	22923
362.075	13240
362.159	29733
362.243	22617
362.327	25030
362.411	31027
362.495	20101
362.580	11945
362.664	9787
362.748	7741
362.832	8613
362.916	11737
363.000	38454
363.084	108153
363.168	144236
363.252	37031
363.336	19177
363.420	25373
363.503	106476
363.587	131936
363.671	23365
363.755	16466
363.839	23671
363.923	9558
364.007	18516
364.091	23520
364.175	40383
364.258	162498
364.342	103747
364.426	95219
364.510	58603
364.594	34840
364.677	34923
364.761	99318
364.845	75278
364.929	28092
365.013	23740
365.096	19295
365.180	24715
365.264	43013
365.347	170018
365.431	92105
365.515	33319
365.598	10324
365.682	10896
365.766	31533
365.849	46035
365.933	14555
366.017	26808
366.100	28308
366.184	9480
366.267	9446
366.351	7440
366.435	6715
366.518	5965
366.602	5235
366.685	7331
366.769	9639
366.852	26881
366.936	41233
367.019	15556
367.103	21789
367.186	52384
367.270	13540
367.353	6141
367.436	6948
367.520	6696
367.603	9392
367.687	11034
367.770	19303
367.853	12740
367.937	35683
368.020	63244
368.104	16884
368.187	15633
368.270	23353
368.353	22520
368.437	31989
368.520	91699
368.603	50936
368.687	43401
368.770	80666
368.853	25566
368.936	31914
369.020	47384
369.103	13224
369.186	11903
369.269	12724
369.352	14131
369.436	26933
369.519	19511
369.602	12107
369.685	11909
369.768	10469
369.851	11052
369.934	7452
370.018	11839
370.101	17619
370.184	20011
370.267	20302
370.350	32951
370.433	46010
370.516	72167
370.599	79875
370.682	26065
370.765	47541
370.848	53333
370.931	93302
371.014	55044
371.097	12452
371.180	7454
371.263	5592
371.346	5616
371.429	7350
371.511	7957
371.594	14114
371.677	30586
371.760	49605
371.843	20795
371.926	66047
372.009	165430
372.091	56889
372.174	38423
372.257	93793
372.340	39470
372.423	50762
372.505	77730
372.588	26490
372.671	27077
372.754	84239
372.836	46352
372.919	53243
373.002	116625
373.085	30392
373.167	17637
373.250	38156
373.332	86630
373.415	99286
373.498	203101
373.580	80450
373.663	98854
373.746	140733
373.828	36316
373.911	21732
373.993	24233
374.076	103255
374.159	108126
374.241	34601
374.324	77626
374.406	52522
374.489	58710
374.571	180695
374.654	78307
374.736	35770
374.819	116259
374.901	144642
374.983	150475
375.066	30595
375.148	16901
375.231	76507
375.313	167632
375.395	76872
375.478	16789
375.560	10498
375.643	12531
375.725	32722
375.807	131853
375.890	130615
375.972	81993
376.054	39892
376.136	78710
376.219	32004
376.301	37528
376.383	110815
376.465	43944
376.548	27468
376.630	33809
376.712	94829
376.794	46656
376.877	8840
376.959	6518
377.041	10558
377.123	37232
377.205	48959
377.287	8865
377.369	5594
377.452	7276
377.534	6239
377.616	6436
377.698	6304
377.780	5142
377.862	7137
377.944	7962
378.026	4855
378.108	6083
378.190	6115
378.272	6947
378.354	4186
378.436	6389
378.518	15931
378.600	69775
378.682	43779
378.764	54656
378.846	46428
378.928	23119
379.010	24077
379.091	13510
379.173	7048
379.255	6276
379.337	9896
379.419	25867
379.501	77392
379.583	38394
379.664	12149
379.746	19663
379.828	57017
379.910	73503
379.991	62825
380.073	14353
380.155	10865
380.237	7589
380.318	7636
380.400	8446
380.482	13352
380.564	21154
380.645	21015
380.727	21491
380.809	14023
380.890	11345
380.972	8415
381.053	7786
381.135	9898
381.217	19288
381.298	59920
381.380	33671
381.461	25162
381.543	86698
381.624	110013
381.706	24531
381.787	23570
381.869	21971
381.951	38178
382.032	149859
382.113	102851
382.195	32264
382.276	21647
382.358	34387
382.439	90729
382.521	91060
382.602	142091
382.684	63199
382.765	116798
382.846	103348
382.928	56459
383.009	29670
383.090	20240
383.172	62750
383.253	102908
383.334	67593
383.416	125306
383.497	60726
383.578	17286
383.659	28511
383.741	59833
383.822	149548
383.903	83478
383.984	65499
384.066	158534
384.147	102441
384.228	22849
384.309	17188
384.390	12830
384.471	11487
384.553	14238
384.634	21786
384.715	20534
384.796	10859
384.877	11740
384.958	46126
385.039	60034
385.120	23722
385.201	13036
385.282	26871
385.363	34843
385.444	20506
385.525	28679
385.606	85949
385.687	69691
385.768	30607
385.849	35032
385.930	77978
386.011	137362
386.092	43619
386.173	14903
386.254	18857
386.335	18828
386.416	16163
386.496	42221
386.577	67860
386.658	44936
386.739	28043
386.820	34693
386.901	31693
386.981	21964
387.062	11988
387.143	14117
387.224	55431
387.304	61864
387.385	30955
387.466	29991
387.547	45617
387.627	22419
387.708	24490
387.789	90329
387.869	116822
387.950	33757
388.031	11592
388.111	17737
388.192	64417
388.273	100498
388.353	49437
388.434	16341
388.514	19413
388.595	81111
388.676	112112
388.756	58377
388.837	54430
388.917	34754
388.998	14374
389.078	11134
389.159	8691
389.239	7506
389.320	14322
389.400	12046
389.480	32794
389.561	74390
389.641	35312
389.722	14869
389.802	25078
389.883	31681
389.963	75483
390.043	64166
390.124	37817
390.204	28766
390.284	64858
390.365	41742
390.445	72594
390.525	97274
390.605	53934
390.686	31174
390.766	12518
390.846	8612
390.927	7006
391.007	9166
391.087	14149
391.167	13829
391.247	11209
391.328	23742
391.408	45927
391.488	35007
391.568	9783
391.648	10811
391.728	14945
391.808	12964
391.888	13957
391.969	32937
392.049	59089
392.129	41047
392.209	36099
392.289	68136
392.369	47099
392.449	70636
392.529	40357
392.609	21710
392.689	23953
392.769	63104
392.849	58246
392.929	52569
393.009	126068
393.089	77089
393.169	50295
393.248	133700
393.328	443362
393.408	484934
393.488	154967
393.568	47455
393.648	25699
393.728	17050
393.807	14112
393.887	12648
393.967	11471
394.047	12261
394.127	16003
394.206	19651
394.286	53324
394.366	232881
394.446	260562
394.525	62257
394.605	19081
394.685	24884
394.764	79941
394.844	132877
394.924	86277
395.003	18752
395.083	12126
395.163	10145
395.242	10266
395.322	9711
395.402	7658
395.481	12729
395.561	43146
395.640	128335
395.720	87134
395.799	128265
395.879	101192
395.958	32608
396.038	78828
396.117	305680
396.197	353682
396.276	141403
396.356	68263
396.435	67962
396.515	34835
396.594	26838
396.673	44840
396.753	138353
396.832	412556
396.912	337802
396.991	94255
397.070	28097
397.150	16854
397.229	13753
397.308	17888
397.388	30813
397.467	15964
397.546	9083
397.625	6236
397.705	10218
397.784	11328
397.863	7882
397.942	6641
398.022	8945
398.101	40010
398.180	132460
398.259	86849
398.338	22767
398.417	12205
398.497	11342
398.576	12765
398.655	6394
398.734	6735
398.813	7803
398.892	35611
398.971	131192
399.050	70284
399.129	9549
399.208	6130
399.287	8353
399.366	6108
399.445	7304
399.524	7996
399.603	5566
399.682	11854
399.761	31873
399.840	128615
399.919	108017
399.998	18441
400.077	5643
400.156	6082
400.235	12407
400.313	10551
400.392	12475
400.471	30544
400.550	48712
400.629	17616
400.708	11205
400.786	16290
400.865	51082
400.944	57681
401.023	21327
401.102	5676
401.180	5632
401.259	8388
401.338	14008
401.416	14441
401.495	11837
401.574	14610
401.652	10959
401.731	15057
401.810	15156
401.888	7222
401.967	3410
402.046	5361
402.124	11473
402.203	19610
402.281	9393
402.360	13856
402.438	58667
402.517	46167
402.596	15860
402.674	19723
402.753	10523
402.831	6947
402.910	7027
402.988	27690
403.066	94172
403.145	52876
403.223	25829
403.302	68815
403.380	52406
403.459	54463
403.537	25346
403.615	13602
403.694	3963
403.772	4756
403.850	4071
403.929	4375
404.007	5624
404.085	11336
404.164	11377
404.242	5191
404.320	5732
404.398	9337
404.477	21290
404.555	107716
404.633	99070
404.711	14972
404.789	5517
404.868	5102
404.946	4543
405.024	3624
405.102	3422
405.180	3253
405.258	2173
405.336	5677
405.415	5714
405.493	21155
405.571	16081
405.649	4645
405.727	5218
405.805	12908
405.883	8968
405.961	13234
406.039	23556
406.117	9511
406.195	7409
406.273	25365
406.351	101139
406.429	77565
406.507	28405
406.585	11015
406.663	5619
406.740	8164
406.818	8222
406.896	6459
406.974	5335
407.052	9786
407.130	58395
407.208	85261
407.285	18892
407.363	4580
407.441	5311
407.519	4670
407.596	5045
407.674	12051
407.752	33584
407.830	58164
407.907	34585
407.985	9992
408.063	4392
408.141	4587
408.218	17136
408.296	18857
408.373	7054
408.451	6328
408.529	5593
408.606	3831
408.684	3087
408.762	2351
408.839	2546
408.917	2917
408.994	4060
409.072	5046
409.149	4516
409.227	9269
409.304	12289
409.382	7477
409.459	5968
409.537	10752
409.614	9244
409.692	6005
409.769	5824
409.846	10757
409.924	19192
410.001	16264
410.079	7835
410.156	6201
410.233	5074
410.311	3646
410.388	3771
410.465	8835
410.543	12151
410.620	5627
410.697	4993
410.775	6409
410.852	3581
410.929	8648
411.006	13587
411.083	8808
411.161	27669
411.238	33540
411.315	19303
411.392	5886
411.469	10718
411.547	16496
411.624	8627
411.701	7249
411.778	4530
411.855	10462
411.932	6602
412.009	6110
412.086	4416
412.163	8766
412.240	12513
412.317	17785
412.394	17446
412.471	5571
412.548	3232
412.625	3854
412.702	8752
412.779	22052
412.856	13437
412.933	6356
413.010	3277
413.087	6992
413.164	32158
413.241	46174
413.318	11155
413.395	9958
413.471	14270
413.548	6964
413.625	4621
413.702	10055
413.779	8928
413.855	3883
413.932	1717
414.009	3664
414.086	3348
414.162	3951
414.239	7993
414.316	30837
414.393	60351
414.469	21937
414.546	3591
414.623	3731
414.699	3469
414.776	5098
414.853	3378
414.929	4722
415.006	6271
415.082	12909
415.159	8416
415.236	4584
415.312	4181
415.389	7492
415.465	10024
415.542	5547
415.618	3164
415.695	7163
415.771	5063
415.848	6105
415.924	7673
416.000	9056
416.077	4680
416.153	1849
416.230	1056
416.306	2085
416.383	3578
416.459	4444
416.535	2429
416.612	4104
416.688	2805
416.764	2486
416.841	2326
416.917	4000
416.993	5180
417.069	6583
417.146	8328
417.222	6821
417.298	5138
417.374	4338
417.451	5176
417.527	5788
417.603	5308
417.679	4968
417.755	4085
417.831	1873
417.908	2150
417.984	3492
418.060	2433
418.136	8859
418.212	9574
418.288	5835
418.364	4299
418.440	3740
418.516	7204
418.592	21928
418.668	24114
418.744	19328
418.820	14606
418.896	5558
418.972	2423
419.048	3605
419.124	9431
419.200	8129
419.276	2322
419.352	2265
419.428	1749
419.504	2834
419.579	4262
419.655	3880
419.731	3376
419.807	12188
419.883	21676
419.959	15163
420.034	6508
420.110	11021
420.186	36853
420.262	30706
420.337	9342
420.413	7625
420.489	3458
420.565	3461
420.640	2347
420.716	4468
420.792	1391
420.867	3775
420.943	3283
421.019	7655
421.094	6358
421.170	4773
421.245	3121
421.321	3992
421.397	3670
421.472	7393
421.548	16964
421.623	14974
421.699	6378
421.774	7210
421.850	4570
421.925	9105
422.001	8535
422.076	7637
422.152	7778
422.227	13958
422.302	15756
422.378	21487
422.453	37254
422.529	86887
422.604	228971
422.679	347795
422.755	266287
422.830	107243
422.905	42276
422.981	23957
423.056	15923
423.131	12253
423.207	9164
423.282	10077
423.357	15733
423.432	11033
423.508	11204
423.583	20972
423.658	15621
423.733	9632
423.808	13209
423.883	9878
423.959	7017
424.034	5936
424.109	5784
424.184	3854
424.259	2660
424.334	4088
424.409	2742
424.484	3753
424.559	4511
424.634	4047
424.709	4320
424.784	7140
424.859	4919
424.934	8667
425.009	26170
425.084	44238
425.159	19329
425.234	6100
425.309	1988
425.384	2851
425.459	2303
425.534	5042
425.609	8587
425.683	6190
425.758	4102
425.833	6358
425.908	7044
425.983	15175
426.058	45422
426.132	24290
426.207	11083
426.282	20974
426.357	22243
426.431	6046
426.506	5024
426.581	7674
426.655	6834
426.730	3868
426.805	3528
426.879	5987
426.954	5534
427.029	11575
427.103	38113
427.178	95411
427.253	47408
427.327	10918
427.402	14824
427.476	31648
427.551	11702
427.625	11146
427.700	11310
427.774	7477
427.849	10306
427.923	6415
427.998	5035
428.072	7698
428.147	17598
428.221	39402
428.296	97258
428.370	49169
428.444	14064
428.519	26322
428.593	52844
428.667	44872
428.742	54056
428.816	41922
428.890	87043
428.965	111770
429.039	49181
429.113	64959
429.188	22622
429.262	6515
429.336	8926
429.410	26056
429.485	21868
429.559	43690
429.633	36098
429.707	9609
429.781	21327
429.855	107958
429.930	150400
430.004	105922
430.078	168612
430.152	125997
430.226	105771
430.300	102997
430.374	20092
430.448	11197
430.522	43307
430.596	137085
430.670	74939
430.744	94751
430.818	142600
430.892	33903
430.966	8089
431.040	5639
431.114	4113
431.188	4685
431.262	4452
431.336	6576
431.410	21257
431.484	62101
431.557	31929
431.631	5644
431.705	3950
431.779	16082
431.853	73727
431.927	55666
432.000	8307
432.074	5417
432.148	12682
432.222	11654
432.295	4972
432.369	3987
432.443	8347
432.516	44809
432.590	102728
432.664	46710
432.737	7874
432.811	2873
432.885	1911
432.958	3226
433.032	2830
433.106	2920
433.179	1551
433.253	2756
433.326	2831
433.400	1368
433.473	3323
433.547	2483
433.620	1971
433.694	6511
433.767	7670
433.841	6348
433.914	1587
433.988	1884
434.061	3617
434.134	4336
434.208	2589
434.281	1718
434.355	2557
434.428	3714
434.501	2621
434.575	4257
434.648	4745
434.721	3424
434.795	1601
434.868	1839
434.941	1391
435.014	1484
435.088	1301
435.161	2699
435.234	5445
435.307	9399
435.381	5191
435.454	4278
435.527	6318
435.600	6493
435.673	3585
435.746	3314
435.819	2767
435.892	3470
435.966	2229
436.039	4616
436.112	4493
436.185	2385
436.258	1439
436.331	1826
436.404	832
436.477	1683
436.550	1883
436.623	2736
436.696	1612
436.769	3401
436.842	3897
436.915	5601
436.987	8112
437.060	3944
437.133	2413
437.206	2783
437.279	4629
437.352	2029
437.425	1860
437.498	3550
437.570	8413
437.643	8110
437.716	2803
437.789	3147
437.861	11651
437.934	39750
438.007	17045
438.080	3551
438.152	3263
438.225	7115
438.298	41055
438.370	129875
438.443	71901
438.516	31706
438.588	6677
438.661	3214
438.734	2336
438.806	5048
438.879	6179
438.951	9929
439.024	19981
439.096	6706
439.169	2850
439.241	3463
439.314	3555
439.386	11209
439.459	17113
439.531	26702
439.604	9264
439.676	3359
439.749	1425
439.821	2789
439.893	2058
439.966	4353
440.038	8080
440.110	8400
440.183	2302
440.255	3122
440.327	5872
440.400	28206
440.472	98337
440.544	67538
440.617	13959
440.689	13890
440.761	19481
440.833	31299
440.905	19175
440.978	3922
441.050	2936
441.122	3326
441.194	2739
441.266	4305
441.338	2963
441.411	6106
441.483	29579
441.555	47791
441.627	15615
441.699	16383
441.771	17073
441.843	6399
441.915	2924
441.987	2621
442.059	3341
442.131	7459
442.203	13433
442.275	14974
442.347	11549
442.419	9255
442.491	35427
442.563	97412
442.635	58069
442.706	55294
442.778	39519
442.850	7748
442.922	4643
442.994	8492
443.066	12390
443.137	9791
443.209	5661
443.281	8177
443.353	17504
443.425	54703
443.496	157701
443.568	164325
443.640	64712
443.711	17056
443.783	8110
443.855	7146
443.926	3878
443.998	7079
444.070	12109
444.141	9982
444.213	10294
444.285	10752
444.356	12311
444.428	14250
444.499	6239
444.571	3570
444.642	3080
444.714	4633
444.785	7475
444.857	17168
444.928	48153
445.000	26533
445.071	31740
445.143	36138
445.214	14689
445.285	25664
445.357	78187
445.428	118645
445.500	256770
445.571	194366
445.642	93221
445.714	58647
445.785	69877
445.856	18020
445.928	11381
445.999	14689
446.070	12061
446.141	8490
446.213	11692
446.284	9285
446.355	13189
446.426	8201
446.497	6254
446.569	17077
446.640	19138
446.711	9590
446.782	5674
446.853	11171
446.924	9965
446.995	7341
447.066	8066
447.138	21058
447.209	11144
447.280	3218
447.351	2123
447.422	4192
447.493	8922
447.564	8423
447.635	7519
447.706	5100
447.777	2605
447.847	2479
447.918	3239
447.989	11048
448.060	13731
448.131	35201
448.202	25297
448.273	14811
448.344	7465
448.414	3862
448.485	3691
448.556	3662
448.627	3113
448.698	3686
448.768	2051
448.839	5671
448.910	18705
448.981	15465
449.051	5196
449.122	2795
449.193	2199
449.263	4201
449.334	3776
449.405	4621
449.475	11241
449.546	11240
449.616	20528
449.687	16443
449.758	5131
449.828	4105
449.899	2638
449.969	3874
450.040	3012
450.110	6840
450.181	8767
450.251	4402
450.322	2961
450.392	5743
450.463	4235
450.533	3807
450.604	3733
450.674	5031
450.744	3938
450.815	4844
450.885	3985
450.955	4257
451.026	3132
451.096	4533
451.166	7235
451.237	21389
451.307	54919
451.377	18464
451.447	4241
451.518	4054
451.588	4649
451.658	5467
451.728	10381
451.799	51437
451.869	56741
451.939	13905
452.009	4509
452.079	4103
452.149	5506
452.219	13637
452.289	60157
452.360	41438
452.430	8392
452.500	5588
452.570	6736
452.640	11359
452.710	37556
452.780	58618
452.850	25338
452.920	21178
452.990	9766
453.060	6708
453.129	8853
453.199	13085
453.269	42027
453.339	92514
453.409	143052
453.479	149803
453.549	223882
453.619	262071
453.688	98961
453.758	16941
453.828	7018
453.898	6125
453.968	5893
454.037	4482
454.087	4756
454.107	4864
454.168	4921
454.177	4926
454.247	3783
454.249	3804
454.316	4098
454.330	4669
454.386	6766
454.411	15909
454.456	31121
454.492	38934
454.525	46025
454.574	23052
454.595	13103
454.655	5579
454.665	4395
454.734	7107
454.736	7334
454.804	14794
454.817	22297
454.873	52876
454.898	54855
454.943	58294
454.979	39055
455.013	21751
455.060	13166
455.082	9710
455.141	10255
455.152	10102
455.221	33291
455.222	33712
455.291	64551
455.303	56775
455.360	21779
455.384	20291
455.430	18327
455.465	20849
455.499	22620
455.546	41917
455.569	50533
455.627	31864
455.638	28581
455.707	6895
455.708	6894
455.777	4377
455.789	4719
455.846	6290
455.869	5719
455.916	4729
455.950	5435
455.985	5940
456.031	5562
456.054	5396
456.112	4997
456.124	4964
456.193	3777
456.193	3752
456.262	6119
456.274	6664
456.332	8751
456.355	9699
456.401	11146
456.436	8704
456.470	6264
456.516	4548
456.540	3903
456.597	3255
456.609	3080
456.678	3762
456.678	3755
456.747	2943
456.759	2892
456.817	2795
456.840	2895
456.886	2893
456.920	3363
456.955	3950
457.001	4051
457.024	4296
457.082	5925
457.093	6160
457.162	8618
457.163	8651
457.232	13246
457.243	12383
457.301	7365
457.324	5881
457.370	3883
457.405	3553
457.439	3172
457.485	3458
457.508	3777
457.566	4970
457.577	5144
457.646	5720
457.647	5744
457.715	8391
457.727	9061
457.784	12231
457.808	14139
457.853	16398
457.889	19199
457.922	20221
457.969	14385
457.991	13881
458.050	16683
458.060	17012
458.129	26291
458.130	26563
458.198	28340
458.211	25421
458.267	14274
458.292	10693
458.336	7372
458.372	7288
458.405	9101
458.453	12812
458.474	15423
458.533	26033
458.543	26889
458.611	45206
458.614	45411
458.680	33734
458.694	27806
458.749	13739
458.775	10612
458.818	6526
458.855	6001
458.887	5907
458.936	5708
458.955	5553
459.016	5966
459.024	6057
459.093	6493
459.097	6514
459.162	6405
459.177	6498
459.230	7007
459.257	7401
459.299	8027
459.338	8176
459.368	8268
459.418	10069
459.437	10181
459.499	7819
459.505	7671
459.574	5948
459.579	5903
459.643	5808
459.659	5922
459.711	6215
459.740	6112
459.780	6242
459.820	6973
459.849	7129
459.900	7672
459.917	7827
459.981	7465
459.986	7398
460.054	6334
460.061	6217
460.123	6057
460.141	6203
460.191	6675
460.222	6981
460.260	7306
460.302	8347
460.328	8533
460.382	7391
460.397	7220
460.462	6383
460.465	6407
460.534	8697
460.543	8859
460.602	17980
460.623	21894
460.671	32610
460.703	42931
460.739	40733
460.783	34275
460.808	30405
460.864	11251
460.876	9511
460.944	7980
460.945	7946
461.013	7227
461.024	7066
461.081	7010
461.104	7171
461.150	7045
461.184	6926
461.218	7053
461.264	6773
461.286	6524
461.345	6357
461.355	6436
461.423	7172
461.425	7187
461.491	7482
461.505	7551
461.559	12720
461.585	15393
461.628	23888
461.665	33775
461.696	38506
461.745	54617
461.764	52746
461.825	20130
461.832	18653
461.901	8920
461.905	8828
461.969	7975
461.985	7867
462.037	8279
462.065	8102
462.105	8363
462.145	9476
462.173	13538
462.225	21368
462.241	23221
462.305	35702
462.310	35202
462.378	25563
462.385	22963
462.446	10513
462.465	8523
462.514	7363
462.545	7836
462.582	8136
462.625	8183
462.650	8311
462.705	8787
462.718	8985
462.785	9715
462.786	9790
462.854	14938
462.865	15906
462.922	20236
462.945	22498
462.990	19034
463.025	12834
463.058	10373
463.104	8636
463.126	8322
463.184	8390
463.194	8391
463.262	8271
463.264	8281
463.330	9315
463.344	9487
463.398	10295
463.424	10638
463.466	10993
463.504	11798
463.533	12123
463.583	11634
463.601	11585
463.663	11753
463.669	11974
463.737	14954
463.743	15262
463.805	25064
463.823	27744
463.873	39789
463.903	48715
463.940	53709
463.982	61981
464.008	53854
464.062	25164
464.076	22719
464.142	10796
464.144	10603
464.211	9101
464.221	8945
464.279	9453
464.301	9747
464.347	10320
464.381	10620
464.414	12155
464.461	14574
464.482	15183
464.540	17750
464.550	17174
464.617	10873
464.620	10641
464.685	10715
464.699	10970
464.753	12490
464.779	13198
464.820	14652
464.859	16102
464.888	16472
464.938	16984
464.956	17416
465.018	19351
465.023	19098
465.091	14522
465.098	14027
465.158	12746
465.177	12513
465.226	12824
465.257	12931
465.293	12974
465.336	13078
465.361	13829
465.416	15458
465.428	16755
465.495	23826
465.496	23976
465.563	42758
465.575	46214
465.631	56554
465.654	61665
465.698	41853
465.734	21275
465.765	16922
465.813	11903
465.833	11496
465.893	11789
465.900	11746
465.968	11253
465.972	11205
466.035	11287
466.052	11343
466.102	11138
466.131	10903
466.170	11623
466.210	12420
466.237	12307
466.290	12051
466.304	12074
466.369	12016
466.372	12058
466.439	12815
466.449	12915
466.506	14426
466.528	14956
466.573	20612
466.607	24855
466.641	38176
466.687	56753
466.708	62492
466.766	79224
466.775	73518
466.842	28916
466.845	26748
466.909	18187
466.925	16441
466.977	15851
467.004	15685
467.044	15727
467.083	15718
467.111	17079
467.163	19585
467.178	19851
467.242	20807
467.245	20779
467.312	19535
467.321	19343
467.379	20234
467.400	20503
467.446	22328
467.480	23585
467.559	22406
467.638	17411
467.717	17484
467.796	19353
467.875	19245
467.955	20121
468.034	30147
468.113	67536
468.192	95966
468.271	30599
468.350	18612
468.429	19581
468.508	21102
468.588	19396
468.667	17370
468.746	19011
468.825	18232
468.904	17131
468.983	21017
469.062	33660
469.141	39774
469.220	18385
469.299	17515
469.378	18741
469.456	20305
469.535	18692
469.614	17796
469.693	20238
469.772	27036
469.851	35760
469.930	27105
470.009	16347
470.088	14664
470.166	17094
470.245	15553
470.324	17161
470.403	15551
470.482	16014
470.560	15470
470.639	16360
470.718	16628
470.797	15313
470.875	19867
470.954	28195
471.033	32877
471.111	16004
471.190	14648
471.269	14454
471.347	15629
471.426	16554
471.505	18562
471.583	19221
471.662	17413
471.740	16184
471.819	15886
471.898	15728
471.976	17010
472.055	16470
472.133	17491
472.212	25740
472.290	27685
472.369	19220
472.447	16094
472.526	15710
472.604	15105
472.683	16074
472.761	15098
472.839	15044
472.918	15445
472.996	16284
473.075	19513
473.153	19057
473.231	15762
473.310	18747
473.388	18435
473.466	16639
473.545	17057
473.623	19198
473.701	19020
473.780	15419
473.858	14085
473.936	16987
474.014	15777
474.093	16748
474.171	27622
474.249	37796
474.327	28045
474.405	14157
474.484	13408
474.562	14068
474.640	15031
474.718	15845
474.796	15359
474.874	13999
474.952	12454
475.030	13381
475.108	13256
475.187	14482
475.265	14716
475.343	17864
475.421	20247
475.499	14813
475.577	15069
475.655	20736
475.733	43502
475.811	76858
475.889	69819
475.966	50808
476.044	17377
476.122	19784
476.200	22902
476.278	22012
476.356	17888
476.434	20436
476.512	22649
476.590	24507
476.667	24427
476.745	18935
476.823	18035
476.901	20749
476.979	20771
477.056	20267
477.134	19879
477.212	19628
477.290	18515
477.367	19066
477.445	17101
477.523	18136
477.601	18139
477.678	18655
477.756	22677
477.834	25854
477.911	17966
477.989	17960
478.066	17616
478.144	21111
478.222	20543
478.299	24094
478.377	23261
478.454	16359
478.532	16364
478.609	16151
478.687	17406
478.764	15855
478.842	16352
478.919	18244
478.997	16822
479.074	16764
479.152	21041
479.229	25276
479.307	18869
479.384	14945
479.461	15425
479.539	17762
479.616	20099
479.694	17354
479.771	18632
479.848	20568
479.926	26963
480.003	30649
480.080	15606
480.157	16541
480.235	16872
480.312	15317
480.389	20793
480.467	34822
480.544	42187
480.621	24587
480.698	22521
480.775	25499
480.853	25773
480.930	21451
481.007	22029
481.084	24551
481.161	25497
481.238	25112
481.315	20680
481.392	19672
481.470	19932
481.547	20078
481.624	20945
481.701	19830
481.778	20392
481.855	23551
481.932	32635
482.009	50990
482.086	42384
482.163	20971
482.240	22570
482.317	29759
482.393	27399
482.470	20223
482.547	21852
482.624	20099
482.701	20324
482.778	20819
482.855	17482
482.932	17204
483.009	17857
483.085	19730
483.162	21518
483.239	23087
483.316	18379
483.393	17243
483.469	18032
483.546	20061
483.623	23017
483.699	18695
483.776	18129
483.853	20675
483.930	26154
484.006	64946
484.083	108308
484.160	55028
484.236	54775
484.313	44477
484.389	35833
484.466	33402
484.543	31275
484.619	33241
484.696	34492
484.772	39417
484.849	43128
484.925	34099
485.002	32003
485.078	35392
485.155	37763
485.231	31387
485.308	31002
485.384	33242
485.461	39494
485.537	68505
485.614	85645
485.690	35644
485.766	29507
485.843	29907
485.919	35599
485.995	36128
486.072	27955
486.148	28498
486.224	27344
486.301	30909
486.377	36220
486.453	37991
486.530	33235
486.606	37452
486.682	40982
486.758	56793
486.835	72972
486.911	52521
486.987	81694
487.063	73954
487.139	62403
487.215	48676
487.292	32387
487.368	30051
487.444	33896
487.520	40603
487.596	38429
487.672	44996
487.748	95738
487.824	131784
487.900	51062
487.976	32521
488.052	35454
488.128	45046
488.204	35918
488.280	31039
488.356	35045
488.432	74677
488.508	119818
488.584	46480
488.660	26053
488.736	26547
488.812	26288
488.888	31033
488.964	34939
489.039	55921
489.115	81358
489.191	56845
489.267	29366
489.343	29961
489.418	25391
489.494	23602
489.570	23588
489.646	25912
489.722	25130
489.797	26487
489.873	39115
489.949	89954
490.024	88645
490.100	27720
490.176	23459
490.251	26696
490.327	29882
490.403	23806
490.478	23176
490.554	20355
490.629	20216
490.705	19920
490.781	21651
490.856	23949
490.932	24203
491.007	22648
491.083	22276
491.158	23095
491.234	31375
491.309	70222
491.385	82678
491.460	26366
491.536	27193
491.611	21611
491.686	22256
491.762	25120
491.837	38481
491.913	65704
491.988	90356
492.063	101174
492.139	50766
492.214	40684
492.289	18550
492.365	18473
492.440	21760
492.515	24144
492.590	25391
492.666	20728
492.741	27021
492.816	45229
492.891	28305
492.967	18441
493.042	16811
493.117	16320
493.192	17013
493.267	19182
493.342	28266
493.418	30784
493.493	17884
493.568	15227
493.643	16516
493.718	21758
493.793	35192
493.868	33585
493.943	18498
494.018	17594
494.093	17802
494.168	19425
494.243	14530
494.318	14825
494.393	14565
494.468	14967
494.543	13607
494.618	16557
494.693	16114
494.768	17872
494.842	17722
494.917	13416
494.992	14712
495.067	13238
495.142	12528
495.217	15132
495.292	15026
495.366	18843
495.441	25465
495.516	35104
495.591	37444
495.665	77639
495.740	161373
495.815	84946
495.890	33438
495.964	29166
496.039	31634
496.114	28770
496.188	29036
496.263	30121
496.338	28583
496.412	32226
496.487	35523
496.561	32583
496.636	32504
496.710	30359
496.785	30870
496.860	37875
496.934	29880
497.009	27832
497.083	27349
497.158	26297
497.232	31877
497.307	39101
497.381	30529
497.455	37013
497.530	49313
497.604	34772
497.679	32380
497.753	49373
497.827	63862
497.902	46004
497.976	46821
498.050	97031
498.125	351006
498.199	406873
498.273	69994
498.348	40393
498.422	33089
498.496	33170
498.570	31211
498.645	29165
498.719	29918
498.793	38358
498.867	57663
498.941	79261
499.016	153486
499.090	414033
499.164	192728
499.238	32094
499.312	26741
499.386	29159
499.460	30960
499.534	29757
499.609	34418
499.683	52420
499.757	54610
499.831	77419
499.905	281221
499.979	318750
500.053	75396
500.127	73295
500.201	40066
500.275	33117
500.349	32104
500.422	34668
500.496	39776
500.570	63980
500.644	161334
500.718	330741
500.792	107643
500.866	35479
500.940	46260
501.013	43388
501.087	34210
501.161	46345
501.235	64035
501.309	135189
501.382	320173
501.456	320504
501.530	82843
501.603	139165
501.677	76083
501.751	30265
501.825	35140
501.898	54900
501.972	153583
502.046	125939
502.119	36811
502.193	68725
502.266	165884
502.340	108870
502.413	79833
502.487	167442
502.561	118073
502.634	42104
502.708	26323
502.781	25172
502.855	21365
502.928	22186
503.002	23134
503.075	22358
503.149	25744
503.222	25293
503.295	25731
503.369	31663
503.442	38825
503.516	107850
503.589	289876
503.662	223912
503.736	70333
503.809	139095
503.882	132053
503.956	143088
504.029	159838
504.102	74969
504.175	82687
504.249	34926
504.322	30737
504.395	34332
504.468	24343
504.542	26000
504.615	21626
504.688	19744
504.761	18318
504.834	25104
504.907	23599
504.980	29630
505.053	25666
505.127	23152
505.200	31509
505.273	38152
505.346	28337
505.419	20658
505.492	21425
505.565	19116
505.638	17273
505.711	20153
505.784	18201
505.857	18831
505.930	19996
506.003	18398
506.076	19939
506.149	26044
506.221	34908
506.294	28120
506.367	55456
506.440	183491
506.513	130885
506.586	36727
506.659	25646
506.731	18872
506.804	19759
506.877	25925
506.950	24823
507.022	18552
507.095	23815
507.168	32570
507.241	18613
507.313	15325
507.386	16201
507.459	21017
507.531	15725
507.604	15174
507.677	16950
507.749	13777
507.822	17158
507.894	24692
507.967	30550
508.040	20506
508.112	17711
508.185	19636
508.257	17541
508.330	22586
508.402	19308
508.475	20816
508.547	21181
508.620	20976
508.692	36944
508.765	27624
508.837	17573
508.909	17279
508.982	16483
509.054	17997
509.127	15614
509.199	15890
509.271	16025
509.344	14917
509.416	14196
509.488	16421
509.560	16641
509.633	15299
509.705	16515
509.777	17479
509.849	20779
509.922	16554
509.994	15322
510.066	16292
510.138	16229
510.210	26561
510.283	24670
510.355	22520
510.427	19159
510.499	18388
510.571	19291
510.643	18189
510.715	23425
510.787	22052
510.859	19514
510.931	23536
511.003	25494
511.076	23921
511.148	17978
511.219	18020
511.291	31036
511.363	44463
511.435	19384
511.507	15868
511.579	16903
511.651	16284
511.723	15675
511.795	15684
511.867	16048
511.939	21166
512.010	45328
512.082	44437
512.154	17231
512.226	17165
512.298	20903
512.369	27310
512.441	23313
512.513	22492
512.585	17746
512.656	20504
512.728	21472
512.800	18065
512.871	17503
512.943	18344
513.015	14998
513.086	17069
513.158	17980
513.230	17509
513.301	21497
513.373	23630
513.444	17474
513.516	14808
513.588	15734
513.659	16160
513.731	17803
513.802	18008
513.874	26222
513.945	39438
514.016	20180
514.088	16698
514.159	15914
514.231	21280
514.302	24816
514.374	20406
514.445	22325
514.516	51525
514.588	47511
514.659	24321
514.730	49200
514.802	39180
514.873	17348
514.944	19249
515.016	17385
515.087	19490
515.158	30622
515.229	53815
515.301	21003
515.372	19319
515.443	14748
515.514	15148
515.585	13364
515.656	15595
515.728	14488
515.799	13623
515.870	14628
515.941	16285
516.012	16225
516.083	18402
516.154	18719
516.225	22055
516.296	20051
516.367	16746
516.438	17695
516.509	20466
516.580	25095
516.651	51587
516.722	143059
516.793	99727
516.864	41151
516.935	45822
517.006	42869
517.077	48418
517.148	68263
517.219	115848
517.289	167124
517.360	202634
517.431	117263
517.502	34812
517.573	32676
517.643	32397
517.714	33348
517.785	34121
517.856	32439
517.926	35140
517.997	33968
518.068	33574
518.138	38005
518.209	40281
518.280	75697
518.350	213771
518.421	92740
518.492	35928
518.562	35024
518.633	40170
518.703	37167
518.774	51040
518.845	96510
518.915	99912
518.986	46973
519.056	39599
519.127	51460
519.197	76463
519.268	192094
519.338	174264
519.408	50198
519.479	40339
519.549	35965
519.620	28954
519.690	25239
519.760	26832
519.831	26915
519.901	28987
519.971	24077
520.042	29490
520.112	31905
520.182	32015
520.253	29515
520.323	26775
520.393	24918
520.463	28578
520.534	25793
520.604	38440
520.674	30242
520.744	31639
520.814	37245
520.885	39015
520.955	65415
521.025	233172
521.095	133663
521.165	31609
521.235	27874
521.305	26730
521.375	23735
521.445	24841
521.515	25729
521.585	28102
521.655	27472
521.725	26303
521.795	27357
521.865	23265
521.935	37659
522.005	40298
522.075	23572
522.145	25811
522.215	26708
522.285	41861
522.355	51275
522.424	98392
522.494	95230
522.564	39210
522.634	39468
522.704	89293
522.774	50006
522.843	25312
522.913	22050
522.983	23038
523.053	22713
523.122	24198
523.192	24797
523.262	48821
523.331	53145
523.401	24972
523.471	19016
523.540	21200
523.610	17497
523.680	19473
523.749	21250
523.819	26580
523.888	30190
523.958	21721
524.027	23545
524.097	30128
524.166	24708
524.236	22024
524.305	25370
524.375	23467
524.444	21241
524.514	26021
524.583	24151
524.653	30543
524.722	35165
524.791	25259
524.861	23835
524.930	23102
524.999	20789
525.069	26856
525.138	28427
525.207	35320
525.277	26444
525.346	23496
525.415	22331
525.484	22180
525.554	27725
525.623	27927
525.692	23265
525.761	25158
525.830	23878
525.900	26362
525.969	34727
526.038	45742
526.107	61182
526.176	160083
526.245	133884
526.314	57479
526.383	94374
526.452	118302
526.522	186638
526.591	206262
526.660	74161
526.729	42416
526.797	44098
526.867	69522
526.935	241157
527.004	443283
527.073	237611
527.142	37895
527.211	23915
527.280	24616
527.349	24465
527.418	18350
527.487	20571
527.555	19733
527.624	17744
527.693	17709
527.762	19852
527.831	18130
527.899	18905
527.968	20143
528.037	19623
528.106	21621
528.174	28447
528.243	31297
528.312	38142
528.380	47836
528.449	23287
528.518	20170
528.586	16277
528.655	19125
528.723	17928
528.792	18482
528.861	19946
528.929	18914
528.998	18877
529.066	17559
529.135	17988
529.203	16851
529.272	16985
529.340	17581
529.409	19452
529.477	17726
529.545	23459
529.614	28559
529.682	25406
529.751	35081
529.819	29377
529.887	24878
529.956	17014
530.024	20649
530.092	16441
530.161	17741
530.229	20934
530.297	19272
530.365	17203
530.434	16053
530.502	15297
530.570	16038
530.638	15436
530.707	16539
530.775	20924
530.843	18392
530.911	17803
530.979	16582
531.047	17338
531.115	19340
531.183	18818
531.252	19627
531.320	18584
531.388	18763
531.456	18425
531.524	16885
531.592	17969
531.660	21132
531.728	17355
531.796	17894
531.864	17094
531.932	18816
532.000	16707
532.067	18960
532.135	17683
532.203	19033
532.271	20562
532.339	25217
532.407	43618
532.475	32827
532.542	23564
532.610	23060
532.678	25710
532.746	65154
532.814	171586
532.881	61870
532.949	21486
533.017	19442
533.084	18284
533.152	19572
533.220	17420
533.287	19148
533.355	16772
533.423	18476
533.490	17313
533.558	18145
533.625	18925
533.693	19173
533.761	20558
533.828	22337
533.896	18611
533.963	24326
534.031	27569
534.098	34891
534.166	25709
534.233	19529
534.300	18102
534.368	19743
534.435	19432
534.503	19931
534.570	18906
534.637	19657
534.705	20330
534.772	22137
534.840	27706
534.907	76633
534.974	99137
535.041	27162
535.109	26839
535.176	20433
535.243	17413
535.310	18155
535.378	18486
535.445	17897
535.512	17146
535.579	18553
535.646	18749
535.714	19425
535.781	21929
535.848	21039
535.915	23979
535.982	21084
536.049	20811
536.116	23060
536.183	20031
536.250	21016
536.317	20995
536.384	22274
536.451	26180
536.518	25893
536.585	23578
536.652	26725
536.719	29515
536.786	26327
536.853	23691
536.920	29227
536.987	41049
537.053	35132
537.120	86930
537.187	95902
537.254	24018
537.321	22217
537.388	22230
537.454	20922
537.521	19126
537.588	19174
537.654	21177
537.721	22548
537.788	22705
537.855	20680
537.921	19908
537.988	20589
538.055	20208
538.121	20514
538.188	19984
538.254	22738
538.321	33560
538.388	27961
538.454	21514
538.521	21394
538.587	20221
538.654	20212
538.720	19566
538.787	20104
538.853	21174
538.920	26285
538.986	27187
539.053	25245
539.119	24755
539.185	22899
539.252	24707
539.318	27036
539.385	26134
539.451	24365
539.517	24936
539.583	26945
539.650	39009
539.716	86875
539.782	39638
539.849	22192
539.915	22454
539.981	21617
540.047	22014
540.114	23493
540.180	24510
540.246	21264
540.312	24134
540.378	35476
540.444	38033
540.510	37276
540.576	85092
540.643	43393
540.709	21610
540.775	21802
540.841	22545
540.907	28089
540.973	40148
541.039	29142
541.105	29092
541.171	23520
541.237	21185
541.303	24546
541.369	23825
541.435	24146
541.500	33046
541.566	27270
541.632	21143
541.698	20741
541.764	21723
541.830	21143
541.896	20743
541.961	21783
542.027	21346
542.093	22229
542.159	21112
542.224	22051
542.290	27372
542.356	33886
542.421	38540
542.487	26440
542.553	22805
542.618	28601
542.684	24573
542.750	23723
542.815	26429
542.881	34970
542.947	77130
543.012	69730
543.078	23387
543.143	22068
543.209	23175
543.274	24263
543.340	24076
543.405	36285
543.471	55727
543.536	26589
543.602	23073
543.667	23490
543.732	21565
543.798	21871
543.863	22819
543.928	20519
543.994	20987
544.059	22030
544.124	20445
544.190	21571
544.255	21894
544.320	21636
544.386	21383
544.451	26286
544.516	27955
544.581	26919
544.646	51575
544.712	85369
544.777	34016
544.842	35925
544.907	40780
544.972	36262
545.037	34800
545.102	38330
545.168	36270
545.233	38573
545.298	38035
545.363	41935
545.428	42302
545.493	47408
545.558	77162
545.623	53639
545.688	39036
545.753	35792
545.818	36658
545.883	37955
545.947	36305
546.012	39799
546.077	44875
546.142	39565
546.207	37063
546.272	39535
546.337	42191
546.401	38539
546.466	38619
546.531	38003
546.596	39896
546.661	39252
546.725	38095
546.790	38712
546.855	38495
546.919	38864
546.984	41245
547.049	45266
547.113	51274
547.178	49275
547.243	50999
547.307	55290
547.372	60993
547.436	69532
547.501	57148
547.565	56229
547.630	55762
547.695	56693
547.759	67234
547.823	65079
547.888	52810
547.952	53329
548.017	55017
548.081	61016
548.146	73426
548.210	72371
548.274	58169
548.339	56398
548.403	53545
548.468	50776
548.532	50156
548.596	52631
548.660	53035
548.725	58093
548.789	64432
548.853	68300
548.917	57544
548.982	71021
549.046	77490
549.110	53768
549.174	49869
549.238	53388
549.303	53461
549.367	56926
549.431	55300
549.495	52099
549.559	55281
549.623	57865
549.687	65099
549.751	72251
549.815	73906
549.879	74120
549.943	68164
550.007	74309
550.071	74047
550.135	72824
550.199	69189
550.263	66666
550.327	67487
550.391	84956
550.455	72152
550.519	70947
550.582	73244
550.646	81125
550.710	85947
550.774	79334
550.838	77472
550.901	81901
550.965	83481
551.029	85238
551.093	94966
551.156	105221
551.220	151813
551.284	187222
551.347	111355
551.411	160448
551.475	206559
551.538	94593
551.602	78752
551.666	74646
551.729	70135
551.793	70978
551.856	69774
551.920	68147
551.983	68852
552.047	67838
552.110	67286
552.174	68027
552.237	69961
552.301	66751
552.364	63455
552.428	64993
552.491	64213
552.554	64817
552.618	64729
552.681	67869
552.745	63814
552.808	68948
552.871	71043
552.934	67605
552.998	64968
553.061	70510
553.124	65392
553.187	63195
553.251	65250
553.314	69177
553.377	65266
553.440	70951
553.503	73295
553.567	76372
553.630	68215
553.693	66960
553.756	71624
553.819	65103
553.882	66030
553.945	67025
554.008	64894
554.071	64103
554.134	66283
554.197	65656
554.260	58986
554.323	65162
554.386	65684
554.449	67144
554.512	64445
554.575	63760
554.638	65652
554.701	63628
554.764	61643
554.827	62346
554.889	61106
554.952	57139
555.015	56936
555.078	58038
555.141	58270
555.203	55359
555.266	55882
555.329	59126
555.391	54353
555.454	53814
555.517	55578
555.580	54211
555.642	49687
555.705	51214
555.768	51944
555.830	51295
555.893	48627
555.955	48343
556.018	48230
556.080	48726
556.143	48473
556.206	48589
556.268	51570
556.330	51385
556.393	48176
556.455	50287
556.518	61979
556.580	67956
556.643	45422
556.705	44401
556.767	42160
556.830	46361
556.892	45262
556.955	50311
557.017	46733
557.079	45285
557.142	43229
557.204	43137
557.266	54059
557.328	53932
557.391	41041
557.453	40902
557.515	41178
557.577	44278
557.639	44374
557.701	40671
557.764	38827
557.826	41136
557.888	44596
557.950	42239
558.012	41697
558.074	48929
558.136	71848
558.198	136346
558.260	70771
558.322	45970
558.384	44476
558.446	48714
558.508	50736
558.570	59323
558.632	69960
558.694	92112
558.756	99712
558.818	234808
558.880	555164
558.942	189620
559.003	145230
559.065	85748
559.127	48835
559.189	49545
559.251	55755
559.312	65839
559.374	120559
559.436	364930
559.498	192949
559.559	54752
559.621	51998
559.683	58961
559.744	91530
559.806	214090
559.868	287090
559.929	87104
559.991	65292
560.052	75845
560.114	143673
560.176	105751
560.237	91444
560.299	136167
560.360	58108
560.422	48459
560.483	46797
560.545	45564
560.606	45489
560.667	45829
560.729	44352
560.790	43204
560.852	43438
560.913	44796
560.974	43324
561.036	41411
561.097	42202
561.158	41797
561.220	42255
561.281	42307
561.342	42224
561.403	44784
561.465	46445
561.526	63680
561.587	74433
561.648	46233
561.709	43043
561.771	42268
561.832	42506
561.893	42113
561.954	41012
562.015	39655
562.076	40418
562.137	40490
562.198	41441
562.259	40667
562.320	42240
562.381	40912
562.442	46662
562.503	43964
562.564	40070
562.625	39136
562.686	38789
562.747	43376
562.808	42256
562.869	43781
562.930	58189
562.991	57753
563.051	51405
563.112	47520
563.173	43801
563.234	42677
563.294	40518
563.355	40254
563.416	42219
563.477	40653
563.537	41682
563.598	45368
563.659	43638
563.720	44048
563.780	44401
563.841	44107
563.901	43570
563.962	43335
564.023	43381
564.083	43375
564.144	43274
564.204	43217
564.265	44417
564.325	49574
564.386	75538
564.446	81618
564.507	42942
564.567	40287
564.628	40946
564.688	41162
564.749	39830
564.809	45128
564.869	53040
564.930	42166
564.990	38385
565.050	37705
565.111	37765
565.171	36844
565.231	38634
565.292	36803
565.352	35968
565.412	38738
565.472	37905
565.532	39509
565.593	37070
565.653	36541
565.713	37159
565.773	37826
565.833	38462
565.893	42880
565.953	38082
566.013	36477
566.074	38375
566.134	52241
566.194	75856
566.254	76249
566.314	53365
566.374	43032
566.434	40001
566.494	40698
566.554	38055
566.614	38277
566.673	37448
566.733	39259
566.793	42590
566.853	44112
566.913	41682
566.973	42001
567.033	43688
567.092	44155
567.152	41827
567.212	42448
567.272	41450
567.331	44978
567.391	43567
567.451	44572
567.511	54141
567.570	60797
567.630	40536
567.690	39025
567.749	38122
567.809	38172
567.868	38439
567.928	40469
567.988	45306
568.047	42831
568.107	40857
568.166	43471
568.226	50705
568.285	60286
568.345	50732
568.404	46164
568.464	43106
568.523	41937
568.582	43217
568.642	44780
568.701	49663
568.761	61535
568.820	80401
568.879	75999
568.939	70386
568.998	55649
569.057	44353
569.116	41919
569.176	37536
569.235	37690
569.294	36194
569.353	37135
569.413	37422
569.472	41456
569.531	37446
569.590	36800
569.649	35625
569.708	34822
569.767	34458
569.827	43626
569.886	38711
569.945	34341
570.004	34940
570.063	35111
570.122	35133
570.181	38183
570.240	42275
570.299	44027
570.358	43802
570.417	36420
570.475	33521
570.534	32910
570.593	34735
570.652	36714
570.711	38120
570.770	35247
570.829	37203
570.887	33295
570.946	34163
571.005	32583
571.064	31376
571.122	33258
571.181	38293
571.240	36110
571.299	33020
571.357	36999
571.416	38808
571.475	40596
571.533	43684
571.592	35397
571.650	37439
571.709	33744
571.768	33452
571.826	33167
571.885	30911
571.943	31724
572.002	32828
572.060	34717
572.119	30879
572.177	30768
572.236	29800
572.294	28923
572.352	30271
572.411	30900
572.469	29550
572.528	29839
572.586	31344
572.644	34177
572.703	42990
572.761	36203
572.819	32125
572.877	31318
572.936	29553
572.994	29451
573.052	28525
573.110	31545
573.169	29533
573.227	28131
573.285	28007
573.343	28147
573.401	29335
573.459	29461
573.517	29105
573.576	30295
573.634	29105
573.692	31935
573.750	29263
573.808	29241
573.866	31524
573.924	39046
573.982	39191
574.040	31180
574.098	30220
574.155	27885
574.213	27220
574.271	27617
574.329	27805
574.387	27011
574.445	25858
574.503	26715
574.560	24488
574.618	25221
574.676	25042
574.734	25189
574.792	25722
574.849	26309
574.907	23638
574.965	24133
575.022	23792
575.080	23985
575.138	24265
575.195	26232
575.253	24270
575.311	26649
575.368	24614
575.426	24899
575.483	25402
575.541	25200
575.598	23936
575.656	26998
575.713	26165
575.771	25153
575.828	24573
575.886	26612
575.943	28059
576.001	29652
576.058	29631
576.115	30046
576.173	34671
576.230	40008
576.287	36809
576.345	33706
576.402	30724
576.459	30345
576.517	30469
576.574	34431
576.631	35320
576.688	32538
576.746	28895
576.803	30759
576.860	28611
576.917	28313
576.974	28653
577.031	28712
577.089	29945
577.146	30390
577.203	29364
577.260	29990
577.317	30831
577.374	36254
577.431	34381
577.488	29950
577.545	26149
577.602	27564
577.659	27942
577.716	26393
577.773	25831
577.830	25678
577.886	26571
577.943	26226
578.000	26072
578.057	29488
578.114	28133
578.171	26233
578.227	25798
578.284	25046
578.341	27728
578.398	27118
578.454	28570
578.511	32082
578.568	36109
578.625	32343
578.681	26153
578.738	25474
578.794	25989
578.851	25980
578.908	25292
578.964	26305
579.021	27195
579.077	25975
579.134	25354
579.190	24880
579.247	24396
579.303	26006
579.360	23545
579.416	23076
579.473	23962
579.529	24378
579.586	23301
579.642	24445
579.698	24700
579.755	25789
579.811	24495
579.867	24742
579.924	23131
579.980	23302
580.036	24792
580.093	23782
580.149	24286
580.205	24485
580.261	24973
580.317	26462
580.374	28097
580.430	32168
580.486	31161
580.542	26957
580.598	25489
580.619	25347
580.654	25125
580.692	24855
580.710	24748
580.765	24039
580.767	24034
580.823	25655
580.838	25520
580.879	25242
580.911	24695
580.935	24312
580.984	24115
580.991	24108
581.047	26176
581.057	26449
581.103	27764
581.130	28165
581.159	28576
581.203	28877
581.215	28988
581.270	28429
581.276	28388
581.326	28124
581.349	28419
581.382	28943
581.422	29333
581.438	29465
581.494	31123
581.494	31098
581.550	29839
581.567	29671
581.606	29295
581.640	30200
581.661	30778
581.713	28584
581.717	28418
581.773	28904
581.786	29046
581.829	29528
581.859	29685
581.885	29898
581.932	29212
581.940	29082
581.996	29743
582.004	29710
582.052	29386
582.077	29008
582.107	28739
582.150	29169
582.163	29251
582.219	30722
582.223	30607
582.274	29417
582.296	30091
582.330	31153
582.368	31323
582.386	31373
582.441	29513
582.441	29512
582.497	28828
582.514	28793
582.552	28748
582.587	28652
582.608	28584
582.659	28770
582.663	28792
582.719	28905
582.732	28981
582.774	29319
582.805	29309
582.830	29280
582.877	29621
582.885	29641
582.941	28471
582.950	28523
582.996	28966
583.023	29389
583.052	29981
583.095	29532
583.107	29370
583.162	29723
583.168	29849
583.218	30753
583.240	30418
583.273	29798
583.313	29194
583.328	29208
583.384	28931
583.385	28974
583.439	29437
583.458	29340
583.494	29299
583.531	28878
583.549	28799
583.603	30061
583.605	30083
583.660	29897
583.676	29675
583.715	29487
583.748	30351
583.770	31036
583.820	32043
583.825	32082
583.881	31618
583.893	31361
583.936	30635
583.965	30710
583.991	30818
584.038	30640
584.046	30619
584.101	31118
584.110	31032
584.156	30703
584.183	31214
584.211	31627
584.255	31452
584.266	31351
584.321	28674
584.328	28862
584.376	31300
584.400	31690
584.431	31923
584.472	31921
584.486	31949
584.541	31167
584.545	31166
584.596	31253
584.617	31773
584.651	33172
584.689	34179
584.706	34418
584.761	35063
584.762	35049
584.816	34956
584.834	35265
584.871	35970
584.906	36180
584.926	36300
584.978	36153
584.980	36198
585.035	38070
585.051	38830
585.090	40727
585.123	41256
585.145	41307
585.195	42154
585.200	42300
585.254	42846
585.267	43262
585.309	45057
585.340	47113
585.364	49003
585.412	51842
585.419	52255
585.473	54249
585.484	55609
585.528	64395
585.556	70104
585.583	84648
585.628	117436
585.637	131221
585.692	239466
585.700	258651
585.747	316990
585.772	286011
585.801	194404
585.845	83238
585.856	72294
585.910	52504
585.917	50587
585.965	47606
585.989	46373
586.019	45696
586.061	45029
586.074	45187
586.128	46211
586.133	46415
586.183	50291
586.205	51197
586.237	51778
586.277	52662
586.292	52989
586.346	53162
586.349	53071
586.401	51590
586.421	51818
586.455	54621
586.493	58847
586.509	64215
586.564	83744
586.565	84414
586.618	126884
586.637	132659
586.672	108933
586.709	75633
586.727	66797
586.781	57853
586.781	57909
586.835	54576
586.853	53692
586.889	52618
586.925	51371
586.944	51488
586.996	53162
586.998	53291
587.052	54718
587.068	55080
587.106	55322
587.140	55128
587.161	55461
587.212	56361
587.215	56555
587.269	60098
587.284	60550
587.323	60262
587.356	59816
587.377	59944
587.427	60794
587.431	60972
587.485	61412
587.499	61655
587.539	63622
587.571	64702
587.593	65259
587.643	66762
587.648	67113
587.702	69364
587.715	69783
587.755	71385
587.786	72919
587.810	73543
587.858	72869
587.864	73320
587.917	77954
587.930	79038
587.971	84170
588.001	87893
588.025	89152
588.073	88880
588.079	89345
588.133	93103
588.145	94014
588.187	100002
588.217	103909
588.241	108463
588.288	117541
588.295	119227
588.348	131905
588.360	134587
588.402	147942
588.431	157157
588.456	167719
588.503	187958
588.510	191796
588.564	221235
588.575	227514
588.617	265027
588.646	291468
588.671	329512
588.718	405958
588.725	429166
588.778	614345
588.789	654771
588.832	945161
588.861	1154418
588.886	1328838
588.932	1667158
588.939	1672700
588.993	1579932
589.004	1552614
589.047	1415066
589.075	1282658
589.100	1055897
589.147	661291
589.154	637937
589.207	472730
589.218	439986
589.261	408886
589.290	390336
589.314	408925
589.361	448946
589.368	471041
589.421	656232
589.433	697766
589.475	1018311
589.504	1257462
589.528	1373784
589.576	1553890
589.582	1535164
589.635	1254085
589.647	1182333
589.689	785478
589.718	524063
589.742	441500
589.790	290832
589.795	286456
589.849	244841
589.861	235950
589.902	227228
589.932	216834
589.955	195172
590.004	145078
590.009	143605
590.062	129352
590.075	125384
590.115	117500
590.146	111494
590.168	110551
590.218	107119
590.222	107250
590.275	105948
590.289	105308
590.328	104310
590.360	102726
590.381	101052
590.431	96162
590.435	96349
590.488	95667
590.503	95320
590.541	94894
590.574	93599
590.594	93041
590.645	91194
590.647	91418
590.700	90824
590.716	90378
590.753	89337
590.787	88049
590.806	87727
590.859	86187
590.859	86414
590.912	86285
590.930	86029
590.965	86234
591.001	86257
591.018	86471
591.071	85877
591.072	85638
591.124	85769
591.143	85422
591.177	86165
591.214	86502
591.230	87615
591.283	90600
591.285	90467
591.336	90296
591.356	89902
591.389	89529
591.427	88098
591.442	87707
591.495	85811
591.498	85433
591.547	85548
591.569	85235
591.600	85228
591.640	84657
591.653	85225
591.706	86648
591.711	86571
591.759	93170
591.782	96195
591.811	99960
591.853	104784
591.864	102987
591.917	91751
591.924	89915
591.969	89879
591.995	89464
592.022	90713
592.066	92195
592.075	94148
592.127	104457
592.137	106129
592.180	115989
592.208	121665
592.233	113179
592.279	95785
592.285	95599
592.338	92065
592.350	90996
592.390	89175
592.421	87347
592.443	88005
592.491	88694
592.495	89102
592.548	91125
592.562	91423
592.600	91167
592.633	90428
592.653	90248
592.704	88601
592.705	89156
592.775	91415
592.846	90108
592.916	93101
592.987	93482
593.058	94563
593.128	90006
593.199	89992
593.270	88019
593.341	87499
593.411	89864
593.482	88487
593.553	89685
593.623	87458
593.694	93225
593.764	99086
593.835	91991
593.906	91133
593.976	91068
594.047	97650
594.117	111523
594.188	113629
594.258	91201
594.329	89444
594.399	90997
594.470	90283
594.540	90098
594.611	92779
594.681	92108
594.751	95778
594.822	97131
594.892	102111
594.963	104933
595.033	105690
595.103	106507
595.174	112362
595.244	150181
595.314	175291
595.384	110204
595.455	107810
595.525	109633
595.595	112261
595.665	112753
595.736	109223
595.806	111418
595.876	109383
595.946	110573
596.016	109146
596.087	112765
596.157	112128
596.227	112424
596.297	119128
596.367	122751
596.437	135287
596.507	160882
596.577	183875
596.647	130763
596.717	125631
596.787	126226
596.857	125986
596.927	125841
596.997	125371
597.067	126661
597.137	130825
597.207	129726
597.277	132154
597.347	129162
597.417	125366
597.487	125937
597.557	130322
597.626	132389
597.696	139739
597.766	157239
597.836	181511
597.906	133220
597.975	120209
598.045	118805
598.115	121204
598.185	127121
598.254	137723
598.324	143230
598.394	143743
598.464	141487
598.533	137529
598.603	128990
598.672	130668
598.742	131208
598.812	129985
598.881	132476
598.951	131288
599.020	129072
599.090	132364
599.159	134474
599.229	129718
599.299	125392
599.368	133268
599.437	127352
599.507	126512
599.576	124831
599.646	121222
599.715	120677
599.785	122080
599.854	126825
599.924	134134
599.993	126325
600.062	121079
600.132	122404
600.201	128197
600.270	138876
600.340	140847
600.409	136895
600.478	137748
600.547	138622
600.617	135676
600.686	117699
600.755	110902
600.824	108065
600.894	106376
600.963	104665
601.032	102418
601.101	103360
601.170	98902
601.239	100232
601.308	102797
601.378	100268
601.447	98459
601.516	97274
601.585	98556
601.654	103631
601.723	100688
601.792	100132
601.861	100391
601.930	106099
601.999	106192
602.068	101100
602.137	107231
602.206	105046
602.275	104714
602.343	109538
602.412	110607
602.481	106550
602.550	107157
602.619	105609
602.688	107533
602.756	109241
602.825	106865
602.894	109363
602.963	111189
603.032	111534
603.100	109332
603.169	110289
603.238	113078
603.307	111341
603.375	110292
603.444	113970
603.513	114270
603.581	113816
603.650	114770
603.719	115747
603.787	114804
603.856	119246
603.924	122085
603.993	124771
604.061	123393
604.130	128973
604.198	130067
604.267	131465
604.335	132044
604.404	133181
604.472	133800
604.541	136388
604.609	134477
604.678	134613
604.746	134762
604.815	139354
604.883	141911
604.951	140351
605.020	139627
605.088	145223
605.156	149126
605.225	148770
605.293	148936
605.361	148899
605.429	148364
605.498	152256
605.566	156773
605.634	161177
605.702	165452
605.771	171871
605.839	169959
605.907	166857
605.975	161125
606.043	158657
606.111	158464
606.180	158594
606.248	157090
606.316	159306
606.384	161716
606.452	176118
606.520	173887
606.588	166955
606.656	162527
606.724	160186
606.792	153251
606.860	141226
606.928	130548
606.996	126659
607.064	123972
607.132	127054
607.200	134048
607.267	136847
607.335	138328
607.403	140900
607.471	138152
607.539	133551
607.607	135153
607.674	121898
607.742	125209
607.810	123197
607.878	121956
607.946	122647
608.013	128773
608.081	133154
608.149	131987
608.216	133478
608.284	137314
608.352	137678
608.419	143816
608.487	166165
608.555	141986
608.622	134231
608.690	140783
608.757	152918
608.825	155638
608.893	156221
608.960	159871
609.028	164884
609.095	176721
609.163	148375
609.230	133218
609.298	121881
609.365	124238
609.432	132081
609.500	141690
609.567	159257
609.635	177428
609.702	184468
609.769	179746
609.837	153754
609.904	131684
609.971	131324
610.039	142432
610.106	180552
610.173	321008
610.241	689297
610.308	380269
610.375	163047
610.442	138193
610.509	129951
610.577	129498
610.644	132667
610.711	134724
610.778	137439
610.845	141801
610.912	149128
610.980	154695
611.047	156132
611.114	156973
611.181	148513
611.248	146521
611.315	155351
611.382	156070
611.449	161011
611.516	163702
611.583	161375
611.650	163636
611.717	164256
611.784	167705
611.851	175656
611.918	189490
611.984	217749
612.051	298531
612.118	575131
612.185	1321303
612.252	790802
612.319	241510
612.386	205559
612.452	193626
612.519	192942
612.586	217821
612.653	195177
612.719	186665
612.786	178371
612.853	169049
612.919	163839
612.986	166495
613.053	156090
613.120	147655
613.186	143741
613.253	148594
613.319	145477
613.386	147866
613.453	151707
613.519	156633
613.586	156610
613.652	171820
613.719	160492
613.785	159887
613.852	152491
613.918	149188
613.985	151305
614.051	157404
614.118	164326
614.184	158325
614.250	147967
614.317	151474
614.383	147715
614.449	151720
614.516	151836
614.582	156036
614.648	151085
614.715	147524
614.781	146367
614.847	152245
614.914	154830
614.980	150520
615.046	146145
615.112	147307
615.179	147864
615.245	151737
615.311	153440
615.377	167100
615.443	169717
615.509	159449
615.575	162193
615.642	160340
615.708	164926
615.774	173036
615.840	189211
615.906	208347
615.972	247507
616.038	372581
616.104	715140
616.170	1553958
616.236	1242202
616.302	349210
616.368	270829
616.434	209093
616.500	198213
616.565	213371
616.631	252215
616.697	214340
616.763	221044
616.829	310956
616.895	513011
616.961	470209
617.026	228004
617.092	176569
617.158	169952
617.224	167565
617.289	160600
617.355	158043
617.421	161320
617.487	158832
617.552	149826
617.618	148161
617.684	147322
617.749	148368
617.815	142086
617.880	139281
617.946	139690
618.012	142010
618.077	143227
618.143	139277
618.208	140774
618.274	151567
618.339	153318
618.405	135243
618.470	136243
618.536	139344
618.601	148488
618.667	140703
618.732	130922
618.798	126339
618.863	128038
618.928	126840
618.994	133854
619.059	134867
619.124	147079
619.190	134086
619.255	127324
619.320	129773
619.386	128817
619.451	125690
619.516	124881
619.581	125303
619.647	129361
619.712	128076
619.777	124952
619.842	127177
619.907	128855
619.972	128522
620.038	128114
620.103	123756
620.168	121315
620.233	123725
620.298	124066
620.363	123472
620.428	127710
620.493	128123
620.558	128278
620.623	129196
620.688	129602
620.753	127758
620.818	129354
620.883	130604
620.948	131077
621.013	129112
621.078	133124
621.143	135381
621.207	136956
621.272	136716
621.337	138778
621.402	148476
621.467	173804
621.532	175067
621.596	154160
621.661	143581
621.726	136493
621.791	138815
621.855	139346
621.920	142525
621.985	151789
622.049	159996
622.114	157282
622.179	149316
622.243	158739
622.308	158202
622.373	159644
622.437	156832
622.502	147931
622.566	149630
622.631	151599
622.695	150180
622.760	152054
622.824	148186
622.889	148421
622.953	153223
623.018	173085
623.082	167313
623.147	150429
623.211	146325
623.276	149480
623.340	140758
623.404	139131
623.469	140478
623.533	140538
623.597	139309
623.662	137838
623.726	132000
623.790	128641
623.854	129121
623.919	129822
623.983	128592
624.047	130950
624.111	127299
624.176	132781
624.240	142427
624.304	146206
624.368	131187
624.432	130206
624.496	132732
624.560	136843
624.625	141094
624.689	132402
624.753	135735
624.817	131873
624.881	129438
624.945	121099
625.009	121154
625.073	122165
625.137	129758
625.201	135511
625.265	134099
625.329	122781
625.393	127325
625.456	126702
625.520	130871
625.584	139714
625.648	159085
625.712	215316
625.776	388156
625.839	406428
625.903	186480
625.967	134379
626.031	191696
626.095	261983
626.158	136236
626.222	104922
626.286	98886
626.349	96853
626.413	94617
626.477	98060
626.540	94477
626.604	96002
626.668	94058
626.731	94892
626.795	100850
626.858	99846
626.922	96184
626.986	91278
627.049	90795
627.113	93146
627.176	89178
627.240	89114
627.303	91210
627.366	91174
627.430	91938
627.493	91974
627.557	94913
627.620	93191
627.684	93747
627.747	94316
627.810	89515
627.874	85249
627.937	82858
628.000	87754
628.064	85146
628.127	76682
628.190	79830
628.253	80457
628.317	77086
628.380	76769
628.443	76119
628.506	76783
628.569	73246
628.632	70454
628.696	71092
628.759	71813
628.822	69450
628.885	67821
628.948	69141
629.011	67650
629.074	67427
629.137	64152
629.200	68454
629.263	73629
629.326	64822
629.389	64212
629.452	66493
629.515	69189
629.578	65070
629.641	68582
629.704	68206
629.767	66022
629.830	62394
629.892	61502
629.955	61567
630.018	64614
630.081	63623
630.144	68800
630.207	62262
630.269	68038
630.332	71972
630.395	64917
630.458	58410
630.520	58910
630.583	57956
630.646	57099
630.708	57110
630.771	58119
630.834	58054
630.896	57568
630.959	57564
631.021	56410
631.084	60779
631.146	62993
631.209	69382
631.272	57685
631.334	56265
631.397	55735
631.459	52865
631.522	55240
631.584	57244
631.646	59270
631.709	60112
631.771	67768
631.834	60830
631.896	56741
631.958	52803
632.021	54732
632.083	54822
632.145	55624
632.208	54083
632.270	53175
632.332	53389
632.395	51533
632.457	56069
632.519	53868
632.581	52004
632.643	49911
632.706	52218
632.768	50990
632.830	51482
632.892	51222
632.954	52323
633.016	53808
633.078	49894
633.141	49445
633.203	51584
633.265	52000
633.327	49509
633.389	49305
633.451	53689
633.513	57360
633.575	60135
633.637	54504
633.698	52183
633.760	53295
633.822	50510
633.884	51614
633.946	50751
634.008	50599
634.070	50562
634.132	51947
634.193	54897
634.255	56665
634.317	55331
634.379	57591
634.441	53380
634.502	51957
634.564	49830
634.626	46611
634.687	46266
634.749	48090
634.811	47301
634.873	44268
634.934	45722
634.996	47534
635.057	46155
635.119	46027
635.181	46570
635.242	48324
635.304	44496
635.365	48002
635.427	46936
635.488	45101
635.550	46184
635.611	45404
635.673	46032
635.734	51353
635.796	49851
635.857	52707
635.918	50403
635.980	53924
636.041	55175
636.102	56495
636.164	56422
636.225	54643
636.286	51232
636.348	49268
636.409	46473
636.470	44306
636.531	46688
636.593	52506
636.654	49255
636.715	40859
636.776	41474
636.838	40816
636.899	42862
636.960	41733
637.021	39855
637.082	39720
637.143	40721
637.204	39118
637.265	38270
637.326	38850
637.387	38434
637.448	38133
637.509	39580
637.570	39007
637.631	38247
637.692	37499
637.753	36386
637.814	37849
637.875	36262
637.936	37094
637.997	37953
638.058	38620
638.119	40618
638.179	37338
638.240	38537
638.301	37856
638.362	37191
638.423	37597
638.483	39078
638.544	35212
638.605	37140
638.666	35612
638.726	38668
638.787	37120
638.848	34838
638.908	35454
638.969	36028
639.030	35964
639.090	33319
639.151	34919
639.211	37221
639.272	41155
639.332	50092
639.393	38821
639.453	36134
639.514	36922
639.574	34645
639.635	32677
639.695	34365
639.756	33449
639.816	33884
639.877	35030
639.937	44203
639.997	48665
640.058	34816
640.118	33045
640.178	31870
640.239	31097
640.299	31558
640.359	31099
640.420	31839
640.480	34946
640.540	35615
640.600	35835
640.661	34629
640.721	33425
640.781	37685
640.841	34849
640.901	32116
640.961	32096
641.021	33487
641.082	34745
641.142	38691
641.202	33374
641.262	29722
641.322	31532
641.382	31242
641.442	32471
641.502	31281
641.562	31818
641.622	31107
641.682	31722
641.742	33666
641.802	33365
641.861	33982
641.921	33281
641.981	33957
642.041	34491
642.101	37180
642.161	29945
642.221	31269
642.280	29708
642.340	28908
642.400	29358
642.460	30565
642.519	30246
642.579	29795
642.639	32430
642.698	27920
642.758	32768
642.818	32057
642.877	29961
642.937	32104
642.997	33550
643.056	38116
643.116	30065
643.175	31936
643.235	30614
643.294	31182
643.354	32054
643.414	32763
643.473	34717
643.532	39708
643.592	45643
643.651	63235
643.711	102116
643.770	190091
643.830	446499
643.889	871117
643.948	201546
644.008	53368
644.067	39894
644.126	34865
644.186	32324
644.245	31298
644.304	27466
644.363	29773
644.423	26748
644.482	29322
644.541	29861
644.600	28309
644.659	33943
644.719	38017
644.778	50730
644.837	71920
644.896	129615
644.955	270776
645.014	90665
645.073	36074
645.132	33565
645.191	32787
645.250	29142
645.309	32141
645.368	31580
645.427	37211
645.486	47721
645.545	68096
645.604	32322
645.663	28909
645.722	28643
645.781	28850
645.840	32677
645.898	35235
645.957	44328
646.016	58130
646.075	97306
646.134	180443
646.192	475457
646.251	636134
646.310	100320
646.369	41045
646.427	35770
646.486	30864
646.545	29009
646.603	28510
646.662	28020
646.721	27567
646.779	25555
646.838	25990
646.896	29292
646.955	34890
647.014	46236
647.072	73882
647.131	179063
647.189	83612
647.248	27743
647.306	25605
647.365	25464
647.423	23293
647.481	25054
647.540	21720
647.598	23412
647.657	21346
647.715	24695
647.773	22216
647.832	24181
647.890	23638
647.948	23821
648.007	24198
648.065	21028
648.123	23538
648.181	23944
648.240	23329
648.298	22771
648.356	24112
648.414	25718
648.472	23960
648.531	25356
648.589	24034
648.647	22629
648.705	22598
648.763	24392
648.821	23588
648.879	23692
648.937	24186
648.995	27010
649.053	29404
649.111	37076
649.169	53919
649.227	83382
649.285	162239
649.343	437621
649.401	192679
649.459	59753
649.516	40807
649.574	28248
649.632	33286
649.690	33774
649.748	34263
649.806	39245
649.863	56654
649.921	130122
649.979	82250
650.037	26177
650.094	21437
650.152	23577
650.210	21418
650.268	22077
650.325	21258
650.383	21869
650.440	20783
650.498	20451
650.556	20597
650.613	18445
650.671	20367
650.728	21671
650.786	23450
650.843	21556
650.901	19179
650.958	19676
651.016	18765
651.073	19246
651.131	18928
651.188	19292
651.246	20695
651.303	18802
651.360	18797
651.418	18870
651.475	19667
651.532	16569
651.590	18021
651.647	18726
651.704	19188
651.762	18368
651.819	18338
651.876	18531
651.933	17452
651.990	18621
652.048	17309
652.105	17788
652.162	18108
652.219	17701
652.276	17951
652.333	17330
652.390	16172
652.448	17588
652.505	17671
652.562	16357
652.619	17107
652.676	17460
652.733	18409
652.790	16821
652.847	15039
652.904	17518
652.961	15909
653.017	16414
653.074	17042
653.131	17770
653.188	16352
653.245	16138
653.302	15616
653.359	15759
653.415	16745
653.472	15673
653.529	17223
653.586	15833
653.642	16641
653.699	15312
653.756	16073
653.813	15430
653.869	15015
653.926	15910
653.983	14996
654.039	15819
654.096	15533
654.152	16862
654.209	16128
654.266	17318
654.322	17180
654.379	20738
654.435	19614
654.492	20751
654.548	26758
654.605	35974
654.661	21509
654.717	18518
654.774	18606
654.830	18224
654.887	17892
654.943	18050
655.000	18560
655.056	17296
655.112	18869
655.168	17896
655.225	19234
655.281	21803
655.337	28161
655.394	40723
655.450	30079
655.506	27840
655.562	43170
655.618	31569
655.675	17088
655.731	17396
655.787	17468
655.843	17839
655.899	15968
655.955	17173
656.011	17546
656.067	15633
656.123	18040
656.179	17933
656.235	18465
656.291	16981
656.347	19627
656.403	18343
656.459	19114
656.515	20127
656.571	19973
656.627	19332
656.683	18736
656.739	18126
656.795	17559
656.850	18123
656.906	19490
656.962	18467
657.018	15821
657.074	16944
657.129	18866
657.185	20502
657.241	30069
657.297	20370
657.352	17235
657.408	16210
657.464	18776
657.519	17078
657.575	15794
657.630	16517
657.686	15867
657.742	17109
657.797	16232
657.853	17617
657.908	18343
657.964	16038
658.019	17061
658.075	17214
658.130	17916
658.186	15017
658.241	15832
658.297	15937
658.352	17053
658.407	17060
658.463	15559
658.518	16849
658.573	16001
658.629	15376
658.684	15068
658.739	15300
658.795	13716
658.850	15186
658.905	15503
658.960	15848
659.016	14441
659.071	16335
659.126	15694
659.181	17433
659.236	21066
659.291	21948
659.346	18024
659.401	18307
659.457	15642
659.512	16350
659.567	17656
659.622	16551
659.677	16262
659.732	15553
659.787	17413
659.842	20302
659.897	24729
659.952	17422
660.007	16202
660.061	16653
660.116	16479
660.171	15345
660.226	15981
660.281	16235
660.336	14854
660.391	16075
660.445	16435
660.500	15541
660.555	16189
660.610	15644
660.664	15782
660.719	16033
660.774	16699
660.828	15974
660.883	14656
660.938	16812
660.992	15918
661.047	15667
661.101	15376
661.156	14402
661.211	14784
661.265	15217
661.320	15319
661.374	15940
661.429	15276
661.483	16563
661.538	16031
661.592	15957
661.647	15918
661.701	16406
661.755	16224
661.810	17234
661.864	16073
661.919	15051
661.973	17009
662.027	16455
662.081	14885
662.136	16370
662.190	18204
662.244	18560
662.299	17490
662.353	15957
662.407	16715
662.461	17628
662.515	18099
662.569	18129
662.624	18485
662.678	16971
662.732	16957
662.786	17554
662.840	18859
662.894	18370
662.948	16565
663.002	15087
663.056	16035
663.110	15134
663.164	16203
663.218	16369
663.272	16254
663.326	17330
663.380	18099
663.434	17170
663.488	17096
663.542	18220
663.595	18351
663.649	17685
663.703	16324
663.757	17759
663.811	15473
663.864	15799
663.918	15706
663.972	16922
664.026	15486
664.079	16708
664.133	17079
664.187	16095
664.240	15949
664.294	15654
664.348	17008
664.401	16589
664.455	15916
664.508	15950
664.562	16672
664.615	16869
664.669	15270
664.722	17102
664.776	16637
664.829	16304
664.883	16552
664.936	17739
664.990	18846
665.043	19090
665.097	20941
665.150	22516
665.203	19509
665.257	18175
665.310	19499
665.363	19366
665.417	20817
665.470	19154
665.523	19267
665.576	19441
665.630	17960
665.683	17913
665.736	19205
665.789	19670
665.842	18390
665.895	18651
665.949	18544
666.002	17779
666.055	18014
666.108	19337
666.161	18410
666.214	19331
666.267	20884
666.320	19701
666.373	19151
666.426	18759
666.479	18281
666.532	21072
666.585	22576
666.638	23436
666.691	22071
666.744	22843
666.796	23084
666.849	19585
666.902	18856
666.955	18923
667.008	17021
667.060	16095
667.113	16586
667.166	17138
667.219	17091
667.271	17432
667.324	17375
667.377	18134
667.430	18127
667.482	17570
667.535	18098
667.587	18678
667.640	18740
667.693	20562
667.745	24071
667.798	23348
667.850	18609
667.903	18872
667.955	19182
668.008	19783
668.060	23919
668.113	22658
668.165	22208
668.218	22588
668.270	20483
668.322	20156
668.375	19854
668.427	20497
668.479	18369
668.532	20890
668.584	20667
668.636	18434
668.689	20602
668.741	19622
668.793	19446
668.845	19097
668.898	20191
668.950	19659
669.002	20645
669.054	20444
669.106	20414
669.158	21061
669.211	18961
669.263	19735
669.315	21597
669.367	19896
669.419	20103
669.471	21143
669.523	20856
669.575	22769
669.627	21497
669.679	19119
669.731	19858
669.783	19212
669.835	19090
669.886	18078
669.938	19360
669.990	18096
670.042	16607
670.094	16848
670.146	17384
670.197	18312
670.249	19503
670.301	18465
670.353	19489
670.404	20552
670.456	22628
670.508	26516
670.560	35052
670.611	47461
670.663	73256
670.715	162061
670.766	229632
670.818	60500
670.869	22559
670.921	20414
670.972	19749
671.024	19407
671.075	19520
671.127	19075
671.178	17467
671.230	17469
671.281	18232
671.333	19212
671.384	22265
671.436	23280
671.487	24073
671.538	27106
671.590	31215
671.641	40778
671.692	56618
671.744	94206
671.795	59738
671.846	30612
671.897	26191
671.949	24727
672.000	22508
672.051	21505
672.102	21629
672.153	20243
672.204	20702
672.256	21173
672.307	20542
672.358	21186
672.409	22217
672.460	18812
672.511	19176
672.562	20403
672.613	18775
672.664	19352
672.715	20279
672.766	19368
672.817	18734
672.868	18836
672.919	19846
672.970	18583
673.021	19193
673.071	18492
673.122	18134
673.173	19275
673.224	18818
673.275	18438
673.326	17687
673.376	18931
673.427	18059
673.478	18497
673.528	17258
673.579	17959
673.630	18058
673.680	19577
673.731	17517
673.782	17537
673.832	19398
673.883	19444
673.934	18318
673.984	18414
674.035	18382
674.085	18820
674.136	20215
674.186	20441
674.237	23163
674.287	30145
674.338	20930
674.388	19007
674.438	17492
674.489	18378
674.539	19235
674.589	19663
674.640	20143
674.690	18563
674.740	20729
674.791	21110
674.841	20234
674.891	19612
674.942	17683
674.992	17734
675.042	17135
675.092	16523
675.142	17450
675.193	17563
675.243	16293
675.293	19472
675.343	19387
675.393	17437
675.443	17417
675.493	16083
675.543	17315
675.593	18487
675.643	16688
675.693	17646
675.743	17769
675.793	16745
675.843	16196
675.893	17126
675.943	17071
675.993	16388
676.043	18247
676.093	16353
676.142	15877
676.192	17441
676.242	15904
676.292	16383
676.341	17586
676.391	17327
676.441	15680
676.491	16205
676.540	14109
676.590	15409
676.640	15636
676.689	16345
676.739	15219
676.789	14648
676.838	15748
676.888	15172
676.937	15538
676.987	14832
677.037	14404
677.086	14113
677.136	14955
677.185	15343
677.235	13441
677.284	14509
677.333	14601
677.383	13837
677.432	13273
677.482	14002
677.531	15441
677.580	14296
677.630	13882
677.679	12828
677.728	15391
677.778	13361
677.827	13970
677.876	12667
677.925	13507
677.975	14304
678.024	14570
678.073	14601
678.122	17138
678.171	16560
678.220	16441
678.269	17866
678.319	17474
678.368	15875
678.417	17246
678.466	17147
678.515	18096
678.564	17504
678.613	15956
678.662	15406
678.711	16300
678.760	15674
678.809	15131
678.857	14830
678.906	16124
678.955	16457
679.004	16520
679.053	15509
679.102	16671
679.151	15973
679.199	14514
679.248	14521
679.297	16458
679.346	16563
679.394	16010
679.443	14419
679.492	15884
679.540	14996
679.589	15943
679.638	14301
679.686	13857
679.735	14323
679.784	15212
679.832	15659
679.881	13191
679.929	13309
679.978	13302
680.026	14105
680.075	14736
680.123	14718
680.172	13118
680.220	12406
680.268	14371
680.317	12855
680.365	13351
680.414	13286
680.462	13845
680.510	14384
680.559	13255
680.607	12697
680.655	14052
680.703	14138
680.752	13635
680.800	12089
680.848	12489
680.896	11281
680.945	12040
680.993	13310
681.041	12661
681.089	12033
681.137	12341
681.185	11695
681.233	13207
681.258	12811
681.281	12396
681.329	12158
681.377	13006
681.380	13122
681.425	14480
681.473	14617
681.502	14654
681.521	14609
681.569	14568
681.617	14234
681.624	14166
681.665	13383
681.713	13212
681.745	13290
681.761	13276
681.809	13270
681.857	14119
681.867	14005
681.904	13424
681.952	14067
681.989	13987
682.000	13912
682.048	14276
682.096	14032
682.111	14017
682.143	13832
682.191	13143
682.233	14457
682.239	14612
682.286	13489
682.334	14013
682.354	13826
682.382	13516
682.430	15158
682.476	14095
682.477	14032
682.525	14446
682.572	13164
682.598	13221
682.620	13216
682.667	14363
682.715	14972
682.720	14965
682.763	14520
682.810	13599
682.841	13472
682.857	13347
682.905	13317
682.952	14327
682.963	14646
683.000	15597
683.047	15383
683.085	15004
683.095	14863
683.142	14633
683.190	14291
683.206	14429
683.237	14605
683.284	14879
683.328	14564
683.332	14500
683.379	15127
683.426	14188
683.449	14547
683.473	14891
683.521	14686
683.568	14834
683.571	14842
683.615	14456
683.662	15246
683.693	15035
683.709	14925
683.757	14372
683.804	15040
683.814	15166
683.851	15368
683.898	14794
683.936	15144
683.945	15212
683.992	15552
684.039	15167
684.057	15357
684.086	15650
684.133	15374
684.179	15915
684.180	15896
684.227	16398
684.274	15824
684.300	15821
684.321	15801
684.368	15587
684.415	16969
684.422	16803
684.462	15469
684.509	15158
684.543	15656
684.556	15887
684.603	16009
684.649	15683
684.665	16043
684.696	16750
684.743	16252
684.786	16947
684.790	17006
684.837	18009
684.883	18325
684.908	18852
684.930	19068
684.977	21017
685.023	18886
685.029	18786
685.070	17650
685.117	17492
685.150	17989
685.164	18352
685.210	19401
685.257	20446
685.272	20300
685.303	19560
685.350	19083
685.393	19716
685.396	19775
685.443	20049
685.490	20687
685.514	20639
685.536	20303
685.583	19534
685.629	20018
685.636	19791
685.675	18511
685.722	19220
685.757	19555
685.768	19721
685.815	21009
685.861	20868
685.878	20874
685.908	20843
685.954	20265
686.000	22338
686.000	22376
686.047	23148
686.093	26314
686.121	26489
686.139	25546
686.185	22911
686.232	21245
686.242	21122
686.278	21225
686.324	20122
686.363	18946
686.370	18804
686.416	19338
686.463	19901
686.484	19682
686.509	19477
686.555	18598
686.601	18390
686.606	18464
686.647	19150
686.693	19336
686.727	19634
686.739	19748
686.785	19468
686.831	19689
686.848	19839
686.877	19910
686.923	19170
686.969	18980
686.969	18980
687.015	19619
687.061	20189
687.090	20611
687.107	20613
687.153	20039
687.199	19661
687.211	19428
687.245	19296
687.291	20035
687.332	21128
687.336	21233
687.382	22104
687.428	20776
687.453	21009
687.474	20755
687.520	20144
687.565	19479
687.574	19464
687.611	20064
687.657	19064
687.695	19889
687.702	20125
687.748	21041
687.794	22314
687.816	22026
687.839	21028
687.885	20541
687.931	19076
687.937	19016
687.976	19562
688.022	20175
688.058	20632
688.067	20689
688.113	20240
688.158	20107
688.179	20397
688.204	20818
688.249	20562
688.295	20522
688.300	20644
688.340	21945
688.386	22313
688.421	22051
688.431	21809
688.477	21103
688.522	21158
688.542	21100
688.567	21364
688.613	21247
688.658	21323
688.663	21273
688.703	20843
688.749	22028
688.784	21389
688.794	21198
688.839	21373
688.884	21508
688.905	21283
688.930	20928
688.975	20551
689.020	20960
689.026	20875
689.065	20937
689.110	20578
689.146	21407
689.155	21541
689.201	20668
689.246	20625
689.267	20881
689.291	21290
689.336	20891
689.381	21049
689.388	21000
689.426	20809
689.471	21357
689.509	21016
689.516	20940
689.561	20309
689.606	20597
689.630	20668
689.651	20958
689.696	21136
689.741	21348
689.750	21429
689.785	21607
689.830	21229
689.871	21118
689.875	21101
689.920	20683
689.965	20701
689.992	20051
690.010	19823
690.054	20136
690.099	20948
690.112	20915
690.144	20897
690.189	20650
690.233	20361
690.233	20380
690.278	20392
690.323	20506
690.354	20580
690.367	20743
690.412	20759
690.457	20686
690.474	20868
690.501	20978
690.546	20224
690.590	20394
690.595	20329
690.635	20110
690.680	19850
690.716	19701
690.724	19743
690.769	20481
690.813	20764
690.836	20563
690.857	20544
690.902	20603
690.946	21482
690.957	21574
690.991	21915
691.035	22105
691.077	22611
691.080	22680
691.124	23366
691.168	24271
691.198	24668
691.213	24743
691.257	24570
691.301	24537
691.318	24484
691.346	23697
691.390	22142
691.434	21271
691.439	21107
691.478	21519
691.522	22146
691.559	22388
691.567	22443
691.611	22739
691.655	22748
691.680	23034
691.699	23160
691.743	23498
691.787	22818
691.800	22909
691.831	23518
691.875	24140
691.919	24124
691.921	24103
691.964	24700
692.008	25256
692.041	25262
692.052	25128
692.096	25049
692.139	24740
692.162	24473
692.183	24322
692.227	24518
692.271	24236
692.282	24033
692.315	23587
692.359	23838
692.402	23892
692.403	23932
692.447	23903
692.490	24272
692.523	24846
692.534	25041
692.578	25337
692.622	24874
692.643	25071
692.666	24988
692.709	24042
692.753	23577
692.763	23397
692.797	23203
692.840	22874
692.884	22587
692.884	22629
692.928	23447
692.971	23893
693.004	24403
693.015	24434
693.059	24425
693.102	24222
693.124	24074
693.146	24234
693.189	24590
693.233	24869
693.245	24974
693.276	25337
693.320	25577
693.363	25767
693.365	25734
693.407	25950
693.450	25989
693.485	25885
693.493	25888
693.537	25956
693.580	25705
693.605	25663
693.624	25507
693.667	24864
693.710	24237
693.725	24081
693.753	25152
693.797	26683
693.840	28258
693.845	28352
693.883	27425
693.926	26628
693.966	25456
693.970	25390
694.013	24541
694.056	23544
694.086	23124
694.099	23504
694.142	24242
694.185	25069
694.206	25385
694.229	25831
694.272	26500
694.315	27357
694.326	27522
694.358	27509
694.401	27084
694.444	26994
694.446	26937
694.487	26797
694.530	26471
694.566	26298
694.573	26184
694.616	24635
694.659	23560
694.686	22662
694.702	22560
694.745	22341
694.787	22225
694.806	22106
694.830	22460
694.873	23088
694.916	23543
694.926	23567
694.959	23330
695.002	23099
695.044	22974
695.046	22918
695.087	23549
695.130	24199
695.166	24764
695.172	24794
695.215	24558
695.258	24481
695.286	24172
695.301	24145
695.343	24169
695.386	24184
695.406	24044
695.428	23790
695.471	23399
695.514	22972
695.526	22788
695.556	23151
695.599	23659
695.641	24201
695.646	24196
695.684	23956
695.726	23657
695.766	23202
695.769	23251
695.811	23623
695.854	23821
695.886	23876
695.896	23836
695.938	23378
695.981	22978
696.005	22609
696.023	22789
696.065	23389
696.108	23881
696.125	24092
696.150	24358
696.192	24494
696.235	24687
696.245	24685
696.277	24425
696.319	23901
696.361	23564
696.365	23478
696.404	23617
696.446	23755
696.485	23699
696.488	23770
696.530	24083
696.572	24530
696.604	24723
696.614	24638
696.656	24024
696.698	23406
696.724	22918
696.740	22933
696.783	23021
696.825	23115
696.844	23064
696.867	23386
696.909	23940
696.951	24415
696.964	24531
696.992	24162
697.034	23419
697.076	22774
697.083	22627
697.118	23341
697.160	24033
697.202	24704
697.203	24666
697.244	24457
697.286	24306
697.323	24016
697.327	24087
697.369	24233
697.411	24417
697.442	24509
697.453	24634
697.494	24838
697.536	25126
697.562	25228
697.578	25281
697.620	25233
697.661	25156
697.682	25071
697.703	25247
697.744	25544
697.786	25888
697.801	25903
697.828	26129
697.869	26433
697.911	26693
697.921	26698
697.952	26243
697.994	25625
698.035	24968
698.040	24824
698.077	24407
698.118	23872
698.160	23363
698.160	23303
698.201	23766
698.243	24204
698.279	24538
698.284	24619
698.325	24844
698.367	25036
698.399	25081
698.408	24980
698.449	24294
698.491	23601
698.518	23102
698.532	23290
698.573	23645
698.614	24040
698.638	24191
698.656	24475
698.697	25012
698.738	25563
698.757	25754
698.779	25922
698.820	26130
698.862	26320
698.877	26338
698.903	26825
698.944	27485
698.985	28147
698.996	28264
699.026	27655
699.067	26721
699.116	25544
699.235	24929
699.354	24505
699.474	24877
699.593	30055
699.713	27573
699.832	25877
699.951	26655
700.070	24342
700.190	24545
700.309	25370
700.428	27578
700.547	23852
700.667	25294
700.786	28448
700.905	23738
701.024	26209
701.143	25440
701.262	21394
701.381	22184
701.500	24336
701.619	24253
701.738	21523
701.857	21579
701.976	20852
702.095	21246
702.214	23075
702.333	24065
702.452	22793
702.571	21839
702.690	21922
702.809	21133
702.928	20456
703.047	21839
703.165	19796
703.284	19973
703.403	20405
703.522	24817
703.640	23598
703.759	28803
703.878	41741
703.997	23152
704.115	19669
704.234	20272
704.353	20098
704.471	18888
704.590	18862
704.708	18546
704.827	18587
704.946	20094
705.064	22756
705.183	20943
705.301	27754
705.420	39561
705.538	34380
705.656	27778
705.775	25450
705.893	30544
706.012	32933
706.130	29334
706.249	29510
706.367	31509
706.485	31441
706.604	31421
706.722	30661
706.840	37340
706.958	36727
707.077	29686
707.195	26701
707.313	26357
707.431	26036
707.549	26855
707.668	26183
707.786	26885
707.904	25179
708.022	25152
708.140	25162
708.258	25237
708.376	24928
708.494	24927
708.612	29462
708.730	45427
708.848	40631
708.966	36679
709.084	34080
709.202	33402
709.320	34375
709.438	35958
709.556	35253
709.674	35250
709.791	34324
709.909	32879
710.027	32601
710.145	31527
710.263	33623
710.380	34024
710.498	31439
710.616	32778
710.733	31820
710.851	33707
710.969	35299
711.086	32664
711.204	31478
711.322	32180
711.439	32939
711.557	34166
711.674	31444
711.792	31280
711.909	28991
712.027	28883
712.144	28556
712.262	30434
712.379	35615
712.497	51893
712.614	49982
712.732	42432
712.849	39171
712.966	42550
713.084	49857
713.201	42510
713.318	41841
713.436	40179
713.553	40862
713.670	40857
713.787	45682
713.905	45694
714.022	39042
714.139	38721
714.256	42137
714.373	49218
714.490	65298
714.608	132026
714.725	501645
714.842	500426
714.959	58937
715.076	40140
715.193	35755
715.310	36194
715.427	33877
715.544	33217
715.661	34236
715.778	33404
715.895	37326
716.011	36689
716.128	34411
716.245	34735
716.362	36386
716.479	37069
716.596	31970
716.713	33026
716.829	31992
716.946	31931
717.063	29290
717.180	30802
717.296	29772
717.413	30381
717.530	29190
717.646	29004
717.763	28806
717.880	27884
717.996	28362
718.113	29065
718.229	27351
718.346	27258
718.462	28142
718.579	32796
718.695	48016
718.812	42104
718.928	41834
719.045	29857
719.161	25810
719.277	25847
719.394	25430
719.510	27792
719.626	27869
719.743	35467
719.859	35152
719.975	50112
720.092	150709
720.208	323693
720.324	52678
720.440	29439
720.557	32191
720.673	42370
720.789	61912
720.905	133737
721.021	45062
721.137	26038
721.253	27203
721.369	27889
721.486	31541
721.602	43456
721.718	25421
721.834	21756
721.950	23722
722.066	23011
722.181	21493
722.297	23532
722.413	21689
722.529	21874
722.645	21841
722.761	21818
722.877	21851
722.993	21079
723.108	23823
723.224	22767
723.340	21938
723.456	20273
723.571	20821
723.687	19631
723.803	20825
723.918	19258
724.034	21388
724.150	20888
724.265	24367
724.381	51778
724.497	61821
724.612	20043
724.728	17850
724.843	18751
724.959	22989
725.074	49920
725.190	54338
725.305	23228
725.421	19264
725.536	16679
725.651	16834
725.767	16895
725.882	16618
725.997	17225
726.113	16975
726.228	16616
726.343	17649
726.459	15526
726.574	18528
726.689	16162
726.804	16904
726.920	16809
727.035	16978
727.150	17181
727.265	15593
727.380	17591
727.495	16515
727.610	14241
727.725	15122
727.841	15370
727.956	16769
728.071	20452
728.186	15585
728.301	14234
728.416	15770
728.531	14918
728.645	13559
728.760	16131
728.875	15415
728.990	15842
729.105	16011
729.220	15670
729.335	15167
729.449	12834
729.564	12651
729.679	12724
729.794	14389
729.908	15882
730.023	14093
730.138	12311
730.253	13002
730.367	12672
730.482	12805
730.596	13243
730.711	14022
730.826	13246
730.940	13705
731.055	13482
731.169	12788
731.284	12436
731.398	13066
731.513	16296
731.627	14977
731.742	17784
731.856	19460
731.970	13634
732.085	15926
732.199	19252
732.313	26252
732.428	59478
732.542	170500
732.656	98743
732.771	21553
732.885	16016
732.999	15731
733.113	15072
733.227	14483
733.342	13298
733.456	12437
733.570	12265
733.684	12035
733.798	13248
733.912	12273
734.026	11489
734.140	11992
734.254	13951
734.368	27299
734.482	32158
734.596	11963
734.710	10793
734.824	11237
734.938	11245
735.052	11771
735.166	15246
735.280	12210
735.393	10691
735.507	11691
735.621	18142
735.735	33552
735.849	13788
735.962	10602
736.076	12733
736.190	12198
736.303	19184
736.417	24287
736.531	11547
736.644	12447
736.758	9041
736.872	9811
736.985	9839
737.099	9717
737.212	9371
737.326	10508
737.439	9527
737.553	10515
737.666	9842
737.780	8968
737.893	9961
738.007	8974
738.120	8511
738.233	8568
738.347	8630
738.460	9239
738.573	9532
738.687	9599
738.800	10315
738.913	13351
739.026	10634
739.140	9354
739.253	8423
739.366	8801
739.479	7919
739.592	8293
739.705	8599
739.818	9012
739.932	8235
740.045	9565
740.158	8543
740.271	10060
740.384	8659
740.497	8919
740.610	10128
740.723	8932
740.836	9125
740.949	10131
741.062	12311
741.174	10368
741.287	8587
741.400	8240
741.513	8634
741.626	9534
741.739	8861
741.851	8578
741.964	7946
742.077	8699
742.189	7919
742.302	9786
742.415	9503
742.527	8035
742.640	8080
742.753	7260
742.865	7099
742.978	7187
743.090	7647
743.203	8120
743.316	7513
743.428	6690
743.541	6494
743.653	6494
743.766	7231
743.878	8510
743.990	12167
744.103	10500
744.215	8746
744.327	7077
744.440	9603
744.552	14815
744.664	7604
744.777	6183
744.889	6433
745.001	6819
745.113	6363
745.226	5896
745.338	6213
745.450	7250
745.562	6876
745.674	5702
745.786	5511
745.898	6690
746.010	5537
746.122	5466
746.234	6122
746.347	5317
746.459	6150
746.570	5912
746.682	5977
746.794	7797
746.906	6524
747.018	6058
747.130	6202
747.242	5747
747.354	5827
747.466	7102
747.577	5819
747.689	6694
747.801	6245
747.913	4584
748.024	5213
748.136	5340
748.248	5062
748.359	5353
748.471	5792
748.583	5218
748.694	5459
748.806	7693
748.918	10233
749.029	7053
749.141	7005
749.252	6434
749.364	8413
749.475	15872
749.587	11546
749.698	6262
749.809	5978
749.921	5605
750.032	5385
750.144	5122
750.255	5050
750.366	5524
750.478	5876
750.589	5576
750.700	5435
750.811	7095
750.923	8115
751.034	17013
751.145	15941
751.256	5446
751.367	5458
751.479	5175
751.590	5609
751.701	4830
751.812	4335
751.923	5872
752.034	5185
752.145	4978
752.256	4751
752.367	4790
752.478	5168
752.589	5635
752.700	4688
752.811	4012
752.922	5345
753.032	6031
753.143	6442
753.254	4000
753.365	4680
753.476	5009
753.586	4873
753.697	5642
753.808	4326
753.919	3773
754.029	5144
754.140	4821
754.251	5907
754.361	4690
754.472	4796
754.582	4846
754.693	4458
754.804	5810
754.914	3885
755.025	4349
755.135	3767
755.246	5303
755.356	4243
755.466	5392
755.577	4241
755.687	4502
755.798	4408
755.908	4012
756.018	3644
756.129	4601
756.239	4732
756.349	4279
756.460	4767
756.570	6348
756.680	5039
756.790	5401
756.900	4990
757.011	4610
757.121	4889
757.231	4743
757.341	4934
757.451	3980
757.561	4260
757.671	3785
757.781	3699
757.891	4838
758.001	4511
758.111	5266
758.221	4839
758.331	6120
758.441	4947
758.551	7992
758.661	7843
758.771	5930
758.880	5819
758.990	6561
759.100	6071
759.210	6565
759.320	5837
759.429	5660
759.539	6029
759.649	5900
759.758	7099
759.868	7480
759.978	6452
760.087	6576
760.197	7108
760.307	6811
760.416	6591
760.526	5596
760.635	6278
760.745	6584
760.854	7010
760.964	6954
761.073	7366
761.182	6442
761.292	7160
761.401	7601
761.511	6154
761.620	6511
761.729	5579
761.839	6182
761.948	6259
762.057	5738
762.166	6618
762.276	4520
762.385	5721
762.494	5478
762.603	5743
762.712	6168
762.822	6446
762.931	5563
763.040	5218
763.149	4418
763.258	5527
763.367	5099
763.476	5289
763.585	5727
763.694	5621
763.803	5964
763.912	6655
764.021	5364
764.130	5975
764.238	6379
764.347	5473
764.456	5406
764.565	5285
764.674	4356
764.783	4970
764.891	6067
765.000	7014
765.109	5870
765.217	6009
765.326	7041
765.435	9513
765.543	7833
765.652	7149
765.761	7362
765.869	10186
765.978	13629
766.086	23053
766.195	41882
766.303	111181
766.412	347032
766.520	275108
766.629	57435
766.737	23438
766.846	15172
766.954	10735
767.062	10924
767.171	10453
767.279	9117
767.387	8135
767.496	7961
767.604	7455
767.712	7256
767.820	6542
767.928	7115
768.037	7031
768.145	6488
768.253	7502
768.361	7089
768.469	7062
768.577	6139
768.685	7109
768.793	6728
768.901	7009
769.009	6625
769.117	6829
769.225	7597
769.333	9313
769.441	13007
769.549	19518
769.657	40579
769.765	136752
769.873	290525
769.981	83719
770.088	18914
770.196	11624
770.304	9261
770.412	9174
770.519	8397
770.627	7080
770.735	7055
770.842	6667
770.950	8062
771.058	6631
771.165	6241
771.273	6483
771.380	7183
771.488	7580
771.595	6153
771.703	6287
771.810	7477
771.918	6962
772.025	7027
772.133	7064
772.240	7056
772.348	7309
772.455	7333
772.562	6784
772.670	6685
772.777	7081
772.884	6092
772.991	6764
773.099	6018
773.206	6221
773.313	6629
773.420	5749
773.528	6223
773.635	6334
773.742	6135
773.849	5328
773.956	6569
774.063	6573
774.170	5888
774.277	7230
774.384	6023
774.491	5796
774.598	7365
774.705	6993
774.812	8472
774.919	7969
775.026	7625
775.133	6243
775.239	6843
775.346	7298
775.453	6256
775.560	5362
775.667	6770
775.773	5502
775.880	7821
775.987	6436
776.093	6641
776.200	6374
776.307	6176
776.413	6987
776.520	6463
776.627	5824
776.733	7111
776.840	5583
776.946	8240
777.053	8299
777.159	9159
777.266	6343
777.372	9169
777.478	8150
777.585	7123
777.691	5492
777.798	6294
777.904	7190
778.010	8645
778.117	8141
778.223	6944
778.329	6367
778.435	5642
778.542	6002
778.648	6099
778.754	5279
778.860	6450
778.966	6451
779.072	6433
779.178	5581
779.284	5087
779.391	4261
779.497	4103
779.603	6436
779.708	4809
779.815	6234
779.920	7687
780.026	10360
780.132	5285
780.238	5560
780.344	5712
780.450	5792
780.556	5143
780.661	5511
780.767	4836
780.873	5063
780.979	5721
781.085	5286
781.190	5565
781.296	4147
781.402	4763
781.507	4342
781.613	5575
781.719	4733
781.824	4243
781.930	5002
782.035	4537
782.141	5508
782.246	5332
782.352	4944
782.457	5510
782.563	5508
782.668	6193
782.773	5870
782.879	4826
782.984	6164
783.090	7301
783.195	9403
783.300	7009
783.405	5793
783.511	5073
783.616	6807
783.721	5960
783.826	5342
783.932	5943
784.037	5335
784.142	4648
784.247	5884
784.352	5229
784.457	5390
784.562	4959
784.667	4962
784.772	5055
784.877	4591
784.982	5200
785.087	4959
785.192	4963
785.297	5604
785.402	5414
785.507	4314
785.611	4750
785.716	5733
785.821	3915
785.926	3423
786.031	4262
786.135	5662
786.240	4149
786.345	2976
786.450	3955
786.554	3810
786.659	3961
786.763	3717
786.868	5784
786.973	6052
787.077	3768
787.182	3777
787.286	4375
787.391	4279
787.495	4047
787.600	3557
787.704	3478
787.809	4098
787.913	3505
788.017	3628
788.122	3944
788.226	3650
788.330	4062
788.435	4668
788.539	4143
788.643	3491
788.747	3106
788.852	3386
788.956	3160
789.060	3393
789.164	3539
789.268	2752
789.372	3924
789.476	2662
789.580	2830
789.684	3492
789.788	3749
789.892	2985
789.996	4560
790.100	3294
790.204	3273
790.308	3793
790.412	3773
790.516	4660
790.620	2951
790.724	4637
790.828	3772
790.931	2670
791.035	4323
791.139	3562
791.242	2074
791.346	4306
791.450	4012
791.554	3493
791.657	3010
791.761	4702
791.864	4297
791.968	3355
792.072	3122
792.175	2832
792.279	2945
792.382	3726
792.486	3697
792.589	3798
792.693	4034
792.796	2014
792.899	3755
793.003	3119
793.106	2639
793.209	3480
793.313	4353
793.416	1909
793.519	4109
793.623	5536
793.726	8747
793.829	4236
793.932	3693
794.035	3297
794.138	4511
794.242	4232
794.345	4755
794.448	5878
794.551	5389
794.654	7385
794.757	6410
794.860	6408
794.963	5705
795.066	3122
795.169	2912
795.272	2192
795.375	3392
795.477	2322
795.580	3123
795.683	1743
795.786	2330
795.889	2042
795.991	3323
796.094	5120
796.197	3002
796.300	4057
796.402	2508
796.505	2914
796.608	2515
796.710	4052
796.813	2788
796.915	2525
797.018	2953
797.120	2310
797.223	1073
797.326	3409
797.428	1499
797.530	2266
797.633	2843
797.735	4803
797.838	9222
797.940	6850
798.042	2277
798.145	1532
798.247	2423
798.349	1425
798.452	3081
798.554	2967
798.656	1577
798.758	3739
798.860	1913
798.962	2117
799.065	2121
799.167	2307
799.269	2990
799.371	2755
799.473	4041
799.575	5245
799.677	5882
799.779	5602
799.881	5429
799.983	5025
800.085	2273
800.187	2550
800.289	2135
800.390	2923
800.492	2460
800.594	2605
800.696	2116
800.798	2535
800.899	1499
801.001	2109
801.103	1867
801.205	1893
801.306	1567
801.408	1621
801.509	1598
801.611	2313
801.713	1637
801.814	1816
801.916	940
802.017	1730
802.119	1605
802.220	2516
802.322	726
802.423	5920
802.525	2813
802.626	1871
802.727	1935
802.829	2103
802.930	912
803.031	3452
803.133	2073
803.234	972
803.335	1689
803.436	1011
803.538	1105
803.639	533
803.740	1788
803.841	571
803.942	1523
804.043	1683
804.144	1092
804.245	1396
804.346	938
804.447	1807
804.548	3307
804.649	4364
804.750	2040
804.851	1468
804.952	1106
805.053	1483
805.154	704
805.255	1852
805.355	2113
805.456	1229
805.557	1274
805.658	833
805.758	1978
805.859	1753
805.960	1054
806.061	1181
806.161	1861
806.262	1612
806.362	1314
806.463	2002
806.564	2264
806.664	2558
806.765	4276
806.865	3543
806.966	1630
807.066	578
807.166	2001
807.267	2050
807.367	591
807.468	1527
807.568	1127
807.668	2054
807.769	2117
807.869	799
807.969	906
808.069	1692
808.170	1676
808.270	370
808.370	2367
808.470	3085
808.570	2274
808.670	1260
808.770	1377
808.870	1463
808.970	1261
809.070	1214
809.170	1241
809.271	2223
809.370	1503
809.470	995
809.570	788
809.670	427
809.770	1692
809.870	1648
809.970	1763
810.070	1565
810.169	955
810.269	-324
810.369	1070
810.469	595
810.568	336
810.668	48
810.768	509
810.867	1054
810.967	1005
811.066	980
811.166	1014
811.265	2046
811.365	365
811.464	629
811.564	1422
811.663	1539
811.763	-164
811.862	739
811.962	1444
812.061	1263
812.160	895
812.260	922
812.359	936
812.458	718
812.557	1834
812.657	1587
812.756	1409
812.855	1441
812.954	535
813.053	1423
813.153	622
813.252	338
813.351	2141
813.450	1194
813.549	416
813.648	1630
813.747	395
813.846	977
813.945	-216
814.044	688
814.143	890
814.242	1042
814.341	-29
814.439	1447
814.538	1318
814.637	1874
814.736	769
814.835	1644
814.933	236
815.032	1766
815.131	1063
815.229	1783
815.328	2798
815.427	1500
815.525	2035
815.624	2305
815.722	1531
815.821	2048
815.919	2324
816.018	1002
816.116	1917
816.215	1766
816.313	2088
816.412	2491
816.510	2262
816.609	3752
816.707	2353
816.805	1602
816.904	2307
817.002	2289
817.100	3639
817.198	3572
817.296	2642
817.395	4298
817.493	4399
817.591	3860
817.689	6409
817.787	7504
817.885	11904
817.983	20252
818.081	42714
818.179	101202
818.277	253992
818.375	233153
818.473	67613
818.571	25239
818.669	17139
818.767	15241
818.865	13863
818.963	17641
819.061	23052
819.158	39725
819.256	84752
819.354	194848
819.452	421998
819.549	298926
819.647	91468
819.745	34941
819.842	21408
819.940	15466
820.038	9879
820.135	8090
820.233	7625
820.330	5293
820.428	4287
820.525	5360
820.623	4382
820.720	3416
820.818	3921
820.915	3769
821.012	3005
821.110	2091
821.207	2474
821.304	2289
821.402	3130
821.499	3533
821.596	3678
821.693	2673
821.791	3707
821.888	3464
821.985	7537
822.082	6065
822.179	3205
822.276	1977
822.373	1394
822.470	1043
822.567	2158
822.664	662
822.761	1812
822.858	840
822.955	2026
823.052	1992
823.149	1476
823.246	1695
823.343	772
823.440	2103
823.536	1080
823.633	1842
823.730	344
823.827	2036
823.923	1221
824.020	2445
824.117	1093
824.213	831
824.310	1120
824.407	1073
824.503	1330
824.600	1945
824.696	1058
824.793	1929
824.889	1100
824.986	1149
825.082	311
825.179	1037
825.275	1213
825.371	342
825.468	1283
825.564	236
825.660	1624
825.757	1235
825.853	1764
825.949	591
826.045	458
826.142	168
826.238	998
826.334	1931
826.430	556
826.526	1253
826.622	898
826.718	862
826.814	746
826.910	1418
827.006	122
827.102	102
827.198	1951
827.294	688
827.390	1041
827.486	744
827.582	709
827.678	232
827.774	1445
827.869	229
827.965	1329
828.061	312
828.157	262
828.252	989
828.348	660
828.444	1742
828.539	-251
828.635	1264
828.731	546
828.826	521
828.922	998
829.017	645
829.113	1229
829.208	793
829.304	642
829.399	2865
829.495	900
829.590	2058
829.685	166
829.781	1494
829.876	-106
829.971	905
830.066	516
830.162	900
830.257	782
830.352	427
830.447	1533
830.543	1589
830.638	-13
830.733	1851
830.828	615
830.923	927
831.018	889
831.113	1014
831.208	1295
831.303	680
831.398	700
831.493	53
831.588	1542
831.683	459
831.778	682
831.873	1149
831.967	1635
832.062	742
832.157	397
832.252	1055
832.346	766
832.441	2002
832.536	2310
832.631	6392
832.725	4717
832.820	905
832.914	273
833.009	377
833.104	1625
833.198	2228
833.293	201
833.387	1632
833.482	1271
833.576	335
833.670	779
833.765	378
833.859	1100
833.954	1848
834.048	253
834.142	801
834.237	1007
834.331	87
834.425	777
834.519	-710
834.613	978
834.708	887
834.802	620
834.896	618
834.990	312
835.084	995
835.178	279
835.272	1186
835.366	399
835.460	1354
835.554	78
835.648	421
835.742	-98
835.836	80
835.930	-910
836.024	378
836.117	2102
836.211	1648
836.305	2726
836.399	4151
836.493	911
836.586	2140
836.680	490
836.774	197
836.867	1443
836.961	-357
837.055	16
837.148	410
837.242	760
837.335	867
837.429	1049
837.522	444
837.616	2259
837.709	5661
837.803	3633
837.896	1195
837.989	1796
838.083	3765
838.176	8417
838.269	7715
838.363	1553
838.456	706
838.549	2310
838.642	3411
838.735	8234
838.829	3285
838.922	464
839.015	962
839.108	-946
839.201	1072
839.294	1066
839.387	1358
839.480	794
839.573	2249
839.666	4411
839.759	733
839.852	736
839.945	741
840.038	546
840.131	1169
840.223	967
840.316	862
840.409	283
840.502	-772
840.594	2394
840.687	-577
840.780	91
840.873	316
840.965	1758
841.058	2779
841.150	6634
841.243	4787
841.336	1061
841.428	663
841.521	275
841.613	818
841.706	1206
841.798	220
841.890	708
841.983	-513
842.075	1410
842.167	476
842.260	1621
842.352	3131
842.444	3953
842.537	8438
842.629	13059
842.721	2099
842.813	1100
842.905	67
842.997	1134
843.090	1249
843.182	3651
843.274	8248
843.366	19433
843.458	38890
843.550	24361
843.642	3240
843.734	1994
843.826	2240
843.918	2895
844.009	754
844.101	155
844.193	719
844.285	-113
844.377	948
844.469	1768
844.560	1190
844.652	1141
844.744	603
844.835	221
844.927	1455
845.019	1330
845.110	1462
845.202	1489
845.293	-129
845.385	-79
845.476	178
845.568	1288
845.659	386
845.751	691
845.842	396
845.934	28
846.025	-365
846.116	1280
846.208	467
846.299	-138
846.390	618
846.482	586
846.573	1566
846.664	1998
846.755	3660
846.846	3204
846.937	-315
847.029	770
847.120	52
847.211	-509
847.302	1550
847.393	-572
847.484	1242
847.575	-298
847.666	-38
847.757	-450
847.847	955
847.938	259
848.029	347
848.120	765
848.211	-144
848.302	-814
848.392	-3
848.483	1190
848.574	-1007
848.664	145
848.755	357
848.846	583
848.936	-496
849.027	529
849.118	967
849.208	-73
849.299	1381
849.389	3917
849.480	9530
849.570	18275
849.661	32425
849.751	58421
849.841	21810
849.932	3094
850.022	612
850.112	961
850.203	1074
850.293	498
850.383	285
850.474	-7
850.564	416
850.654	657
850.744	462
850.834	529
850.924	-334
851.014	911
851.104	259
851.194	322
851.284	1021
851.374	1439
851.464	818
851.554	1301
851.644	1117
851.734	3680
851.824	2254
851.914	670
852.004	1220
852.094	128
852.183	553
852.273	19
852.363	597
852.452	720
852.542	99
852.632	201
852.721	1260
852.811	1030
852.901	946
852.990	548
853.080	871
853.169	453
853.259	1319
853.348	1791
853.438	2835
853.527	4135
853.617	5699
853.706	11445
853.795	20278
853.885	47218
853.974	87545
854.063	160941
854.152	253624
854.242	106234
854.331	20162
854.420	7424
854.509	5843
854.598	4547
854.687	4105
854.777	3318
854.866	2310
854.955	1761
855.044	1242
855.133	1008
855.222	1582
855.311	99
855.400	1095
855.488	761
855.577	67
855.666	921
855.755	212
855.844	752
855.933	325
856.021	1212
856.110	289
856.199	268
856.288	810
856.376	25
856.465	270
856.554	102
856.642	470
856.731	558
856.819	632
856.908	641
856.996	811
857.085	-25
857.173	614
857.262	220
857.350	-4
857.438	518
857.527	-173
857.615	165
857.703	-256
857.792	584
857.880	-765
857.968	-319
858.056	46
858.145	32
858.233	-685
858.321	-83
858.409	981
858.497	-579
858.585	-114
858.673	491
858.761	-55
858.849	-284
858.937	156
859.025	266
859.113	104
859.201	-208
859.289	1030
859.377	-521
859.465	162
859.552	282
859.640	35
859.728	-462
859.816	663
859.903	1004
859.991	171
860.079	-394
860.166	551
860.254	556
860.342	200
860.429	-255
860.517	-406
860.604	161
860.692	-247
860.779	-29
860.867	-298
860.954	432
861.042	443
861.129	419
861.216	835
861.304	-122
861.391	43
861.478	363
861.565	577
861.653	999
861.740	-420
861.827	348
861.914	400
862.001	-448
862.089	498
862.176	-120
862.263	-115
862.350	45
862.437	747
862.524	266
862.611	177
862.698	188
862.785	662
862.871	218
862.958	287
863.045	-612
863.132	-906
863.219	-404
863.306	-415
863.392	227
863.479	414
863.566	373
863.652	346
863.739	164
863.826	426
863.912	407
863.999	-491
864.086	-57
864.172	-98
864.259	638
864.345	-226
864.432	174
864.518	-133
864.604	470
864.691	65
864.777	-48
864.863	1198
864.950	1387
865.036	513
865.122	1478
865.209	1836
865.295	1180
865.381	2019
865.467	2705
865.553	3960
865.639	5181
865.726	10632
865.812	22966
865.898	46490
865.984	70426
866.070	129676
866.156	144804
866.242	40508
866.328	9055
866.414	3312
866.499	3303
866.585	2466
866.671	1950
866.757	1817
866.843	2743
866.928	1352
867.014	1321
867.100	1640
867.186	1850
867.271	2372
867.357	3200
867.442	4287
867.528	2161
867.614	1886
867.699	1211
867.785	1884
867.870	817
867.956	1675
868.041	1173
868.127	1835
868.212	2720
868.297	1925
868.383	1640
868.468	1978
868.553	4155
868.639	3355
868.724	8266
868.809	8163
868.894	1247
868.979	806
869.065	775
869.150	378
869.235	-423
869.320	344
869.405	492
869.490	-157
869.575	397
869.660	-190
869.745	378
869.830	-45
869.915	338
870.000	101
870.085	1256
870.169	595
870.254	484
870.339	-233
870.424	67
870.509	828
870.593	1349
870.678	1515
870.763	105
870.847	461
870.932	817
871.016	816
871.101	-30
871.186	-530
871.270	47
871.355	481
871.439	1264
871.523	757
871.608	256
871.692	475
871.777	177
871.861	288
871.945	-370
872.030	246
872.114	292
872.198	-242
872.282	265
872.367	-391
872.451	-621
872.535	-505
872.619	-986
872.703	-515
872.787	121
872.871	118
872.955	-718
873.039	680
873.123	248
873.207	370
873.291	163
873.375	693
873.459	1144
873.543	-284
873.627	-77
873.711	-581
873.794	430
873.878	-76
873.962	171
874.045	-451
874.129	-182
874.137	-140
874.213	279
874.245	262
874.296	236
874.352	-260
874.380	-509
874.460	139
874.464	165
874.547	-61
874.568	-30
874.631	40
874.676	-60
874.714	-130
874.784	718
874.798	881
874.881	820
874.892	724
874.965	78
874.999	63
875.048	30
875.107	-274
875.131	-382
875.215	348
875.215	348
875.298	-392
875.323	-273
875.381	8
875.430	326
875.465	569
875.538	299
875.548	263
875.631	10
875.646	-44
875.714	-369
875.753	-330
875.798	-203
875.861	134
875.881	201
875.964	-298
875.968	-240
876.047	899
876.076	986
876.130	1106
876.183	557
876.213	216
876.291	970
876.296	1030
876.379	162
876.398	116
876.462	-110
876.506	191
876.545	478
876.613	142
876.628	88
876.711	239
876.721	260
876.794	306
876.828	371
876.877	505
876.935	378
876.960	316
877.043	950
877.043	949
877.125	790
877.150	605
877.208	288
877.258	968
877.291	1432
877.365	847
877.374	756
877.456	1123
877.472	1143
877.539	1306
877.579	1239
877.622	1133
877.687	923
877.704	898
877.787	930
877.794	934
877.869	795
877.901	739
877.952	616
878.008	708
878.034	828
878.115	128
878.117	115
878.199	907
878.222	952
878.282	1052
878.329	675
878.364	386
878.437	1099
878.447	1173
878.529	-58
878.544	-34
878.611	159
878.651	-21
878.694	-45
878.758	680
878.776	804
878.858	443
878.865	438
878.941	410
878.972	221
879.023	14
879.078	187
879.105	334
879.185	870
879.187	872
879.269	609
879.292	332
879.351	-196
879.399	-290
879.433	-280
879.506	711
879.516	795
879.598	-129
879.613	-168
879.680	-62
879.720	451
879.762	870
879.827	69
879.844	-118
879.926	181
879.933	160
880.007	-180
880.040	-149
880.089	246
880.147	604
880.171	573
880.253	1079
880.254	1079
880.335	1050
880.360	1200
880.417	1630
880.467	2673
880.499	3382
880.574	3985
880.580	3981
880.662	1551
880.680	1259
880.744	550
880.787	699
880.825	649
880.893	-386
880.907	-548
880.989	161
881.000	93
881.070	80
881.106	442
881.152	593
881.213	156
881.233	118
881.315	421
881.319	439
881.396	437
881.426	350
881.478	252
881.532	372
881.559	518
881.639	586
881.641	576
881.722	123
881.745	40
881.803	311
881.852	395
881.885	154
881.958	-33
881.966	-3
882.047	605
882.064	543
882.129	506
882.171	861
882.210	1165
882.277	1816
882.291	1901
882.372	1254
882.383	1141
882.454	84
882.489	-141
882.535	-257
882.596	54
882.616	244
882.697	203
882.702	197
882.778	-25
882.808	-24
882.859	-119
882.914	12
882.940	235
883.020	305
883.021	306
883.102	365
883.127	439
883.183	595
883.233	584
883.264	464
883.339	310
883.345	327
883.426	-323
883.445	-197
883.507	398
883.551	474
883.587	184
883.657	-138
883.668	-1
883.749	758
883.763	873
883.830	240
883.869	89
883.910	317
883.975	225
883.991	119
884.072	-147
884.081	-201
884.152	-178
884.187	-76
884.233	46
884.292	77
884.314	37
884.394	-128
884.398	-119
884.475	139
884.504	130
884.555	99
884.610	17
884.636	-43
884.716	-242
884.716	-237
884.797	510
884.821	632
884.877	233
884.927	-59
884.958	-47
885.033	31
885.038	45
885.118	484
885.139	491
885.199	509
885.244	582
885.279	381
885.350	14
885.359	41
885.439	347
885.456	332
885.520	38
885.561	48
885.600	460
885.667	1041
885.680	991
885.760	658
885.773	590
885.840	178
885.878	-77
885.920	152
885.984	676
886.000	709
886.080	669
886.089	682
886.160	861
886.195	827
886.240	567
886.300	250
886.320	235
886.400	336
886.406	332
886.480	736
886.511	986
886.560	653
886.616	56
886.640	206
886.720	787
886.722	794
886.800	640
886.827	690
886.879	806
886.932	679
886.959	571
887.038	600
887.039	607
887.119	759
887.143	835
887.198	520
887.248	348
887.278	571
887.354	783
887.358	747
887.437	175
887.459	-13
887.517	787
887.564	1505
887.596	1367
887.669	813
887.676	792
887.755	666
887.774	633
887.835	575
887.880	454
887.914	478
887.985	533
887.994	511
888.073	407
888.090	369
888.153	852
888.195	1153
888.232	830
888.300	194
888.311	227
888.391	441
888.405	496
888.470	581
888.510	566
888.549	607
888.615	779
888.628	800
888.708	828
888.720	820
888.787	368
888.825	156
888.866	265
888.930	402
888.945	450
889.024	687
889.035	720
889.103	623
889.140	556
889.182	640
889.245	782
889.261	797
889.340	819
889.349	824
889.419	830
889.454	830
889.498	377
889.559	-261
889.577	-59
889.656	849
889.664	940
889.735	1014
889.768	1044
889.814	910
889.873	732
889.978	363
890.083	265
890.187	452
890.292	1042
890.397	313
890.501	685
890.606	442
890.710	228
890.815	984
890.919	624
891.024	507
891.128	707
891.233	576
891.337	905
891.442	668
891.546	938
891.650	540
891.755	530
891.859	701
891.963	1029
892.068	917
892.172	884
892.276	288
892.380	769
892.484	-661
892.589	1258
892.693	651
892.797	482
892.901	389
893.005	164
893.109	182
893.213	973
893.317	84
893.421	778
893.525	797
893.629	955
893.733	432
893.837	543
893.941	-474
894.045	883
894.148	328
894.252	460
894.356	40
894.460	924
894.564	272
894.667	129
894.771	260
894.875	-379
894.978	437
895.082	-176
895.186	378
895.289	1042
895.393	-47
895.496	347
895.600	-199
895.703	183
895.807	-283
895.910	196
896.014	805
896.117	393
896.221	522
896.324	1442
896.427	52
896.531	305
896.634	-68
896.737	527
896.840	-7
896.944	1284
897.047	267
897.150	416
897.253	39
897.356	297
897.460	-566
897.563	1130
897.666	904
897.769	758
897.872	-44
897.975	-5
898.078	1251
898.181	580
898.284	-267
898.387	-457
898.490	607
898.593	244
898.695	26
898.798	562
898.901	685
899.004	376
899.107	-337
899.209	463
899.312	209
899.415	312
899.518	-32
899.620	-45
899.723	-155
899.826	1860
899.928	822
900.031	131
900.133	-79
900.236	-106
900.338	-788
900.441	1243
900.543	-105
900.646	-75
900.748	-648
900.851	734
900.953	-74
901.055	842
901.158	-112
901.260	-139
901.362	474
901.465	-23
901.567	218
901.669	610
901.771	-350
901.873	317
901.976	-68
902.078	-131
902.180	-206
902.282	771
902.384	234
902.486	811
902.588	632
902.690	957
902.792	98
902.894	590
902.996	-274
903.098	632
903.200	-222
903.302	463
903.404	-135
903.505	46
903.607	333
903.709	1240
903.811	236
903.913	335
904.014	-738
904.116	-20
904.218	-205
904.319	472
904.421	238
904.523	320
904.624	-186
904.726	396
904.827	-592
904.929	184
905.030	-674
905.132	693
905.233	28
905.335	-353
905.436	171
905.537	136
905.639	-506
905.740	-153
905.841	-21
905.943	-44
906.044	-321
906.145	317
906.247	-393
906.348	209
906.449	-75
906.550	381
906.651	-13
906.752	162
906.854	-391
906.955	447
907.056	-495
907.157	941
907.258	363
907.359	50
907.460	235
907.561	-318
907.662	-569
907.762	167
907.863	156
907.964	13
908.065	692
908.166	723
908.267	-31
908.367	303
908.468	-852
908.569	225
908.670	197
908.770	803
908.871	149
908.971	1206
909.072	613
909.173	-19
909.273	-470
909.374	9
909.474	-735
909.575	126
909.675	407
909.776	-30
909.876	-484
909.977	865
910.077	503
910.177	-71
910.278	-164
910.378	-22
910.478	-221
910.579	-30
910.679	-178
910.779	527
910.879	47
910.980	8
911.080	-535
911.180	-284
911.280	157
911.380	-149
911.480	-255
911.580	-141
911.680	-293
911.780	863
911.880	317
911.980	152
912.080	303
912.180	233
912.280	72
912.380	472
912.480	-16
912.580	-384
912.679	-335
912.779	1057
912.879	165
912.979	-75
913.078	146
913.178	135
913.278	-365
913.377	552
913.477	-128
913.577	103
913.676	732
913.776	-221
913.875	-191
913.975	801
914.074	-173
914.174	102
914.273	-171
914.373	115
914.472	-879
914.572	42
914.671	-12
914.770	425
914.870	158
914.969	-154
915.068	-702
915.167	-203
915.267	-510
915.366	-599
915.465	-479
915.564	-111
915.663	-110
915.763	245
915.862	-127
915.961	-704
916.060	-277
916.159	14
916.258	-419
916.357	-378
916.456	-47
916.555	83
916.654	-216
916.752	452
916.851	-452
916.950	221
917.049	315
917.148	-71
917.247	-60
917.345	-204
917.444	-309
917.543	520
917.642	-625
917.740	108
917.839	144
917.937	623
918.036	1
918.135	83
918.233	247
918.332	-84
918.430	-662
918.529	354
918.627	10
918.726	421
918.824	-641
918.923	32
919.021	-72
919.119	-566
919.218	-526
919.316	-266
919.414	-502
919.512	-96
919.611	-379
919.709	-111
919.807	128
919.905	182
920.003	631
920.102	163
920.200	-528
920.298	-884
920.396	-529
920.494	250
920.592	572
920.690	660
920.788	341
920.886	284
920.984	-494
921.082	777
921.180	424
921.277	112
921.375	-445
921.473	-467
921.571	-375
921.669	719
921.766	376
921.864	-218
921.962	-27
922.060	1148
922.157	143
922.255	466
922.352	655
922.450	882
922.548	21
922.645	241
922.743	1079
922.840	1090
922.938	464
923.035	903
923.133	627
923.230	763
923.327	1005
923.425	2155
923.522	1175
923.619	1172
923.717	792
923.814	1601
923.911	668
924.008	2080
924.106	707
924.203	1091
924.300	728
924.397	1392
924.494	1828
924.591	1720
924.688	904
924.786	1327
924.883	894
924.979	1120
925.077	1454
925.173	1315
925.270	376
925.367	968
925.464	1255
925.561	1279
925.658	929
925.755	1174
925.852	1510
925.948	1047
926.045	891
926.142	1649
926.239	1435
926.335	1736
926.432	813
926.529	1850
926.625	1414
926.722	1281
926.818	1131
926.915	1036
927.011	663
927.108	1315
927.204	700
927.301	404
927.397	855
927.494	1185
927.590	1109
927.687	504
927.783	614
927.879	1030
927.976	660
928.072	879
928.168	904
928.264	1326
928.361	883
928.457	858
928.553	503
928.649	1348
928.745	-447
928.841	1385
928.937	832
929.033	1299
929.129	-119
929.225	561
929.321	-333
929.417	74
929.513	37
929.609	452
929.705	280
929.801	2164
929.897	396
929.993	-106
930.089	909
930.184	264
930.280	-271
930.376	755
930.471	367
930.567	1281
930.663	870
930.758	942
930.854	238
930.950	629
931.045	-419
931.141	293
931.236	867
931.332	-32
931.427	-163
931.523	876
931.618	375
931.714	404
931.809	487
931.905	1236
932.000	-49
932.095	665
932.191	-68
932.286	581
932.381	206
932.476	-591
932.572	30
932.667	409
932.762	-648
932.857	610
932.952	450
933.047	944
933.142	-14
933.237	-790
933.332	-541
933.427	1160
933.522	-689
933.617	162
933.712	-794
933.807	506
933.902	-124
933.997	628
934.092	-186
934.187	27
934.282	-239
934.376	549
934.471	522
934.566	510
934.661	606
934.755	-252
934.850	322
934.945	1139
935.039	-414
935.134	893
935.228	197
935.323	869
935.417	-356
935.512	189
935.606	-636
935.701	14
935.795	-177
935.890	258
935.984	581
936.079	439
936.173	3
936.267	44
936.362	-126
936.456	904
936.550	806
936.644	-140
936.738	-252
936.833	77
936.927	267
937.021	-908
937.115	379
937.209	-46
937.303	677
937.397	458
937.491	-452
937.585	29
937.679	-416
937.773	-173
937.867	-1375
937.961	-265
938.055	-390
938.149	453
938.243	-840
938.337	-246
938.430	-416
938.524	894
938.618	-333
938.712	833
938.805	-483
938.899	90
938.993	144
939.086	835
939.180	225
939.274	-208
939.367	-36
939.461	8
939.554	145
939.648	-601
939.741	79
939.835	736
939.928	149
940.022	-62
940.115	-794
940.208	133
940.302	454
940.395	623
940.488	-1038
940.582	-83
940.675	-644
940.768	-610
940.861	118
940.954	490
941.048	-784
941.141	317
941.234	-396
941.327	251
941.420	692
941.513	360
941.606	-1122
941.699	1084
941.792	-612
941.885	400
941.978	213
942.071	-174
942.164	-125
942.257	-533
942.349	-555
942.442	-548
942.535	-248
942.628	-138
942.721	56
942.813	-1025
942.906	-306
942.999	229
943.091	-763
943.184	-414
943.277	-747
943.369	206
943.462	-516
943.554	-65
943.647	-842
943.739	177
943.832	-441
943.924	-989
944.017	-272
944.109	-483
944.201	-252
944.294	-317
944.386	-720
944.478	-180
944.571	-88
944.663	-40
944.755	-695
944.847	-46
944.940	-197
945.032	-986
945.124	-625
945.216	313
945.308	-571
945.400	-700
945.492	529
945.584	-587
945.676	-917
945.768	238
945.860	-681
945.952	-790
946.044	-404
946.136	-389
946.228	-66
946.320	148
946.412	-1186
946.503	9
946.595	-36
946.687	-979
946.779	-810
946.870	-681
946.962	-798
947.054	4
947.145	168
947.237	323
947.329	-690
947.420	-1054
947.512	-1017
947.603	-815
947.695	-94
947.786	-794
947.878	-1079
947.969	54
948.061	-645
948.152	-671
948.243	-895
948.335	141
948.426	-1352
948.517	-1068
948.609	-755
948.700	-1112
948.791	-1120
948.882	-336
948.973	-576
949.065	-75
949.156	-738
949.247	-792
949.338	-537
949.429	-425
949.520	-433
949.611	-854
949.702	-1049
949.793	-1094
949.884	-687
949.975	-627
950.066	-846
950.157	-323
950.247	-998
950.338	-461
950.429	-1858
950.520	1004
950.611	-743
950.701	333
950.792	-551
950.883	18
950.973	-1227
951.064	-142
951.155	-1513
951.245	-903
951.336	-855
951.427	-960
951.517	-1078
951.608	-604
951.698	-861
951.788	-244
951.879	-1520
951.969	-1743
952.060	-1339
952.150	-259
952.240	-1420
952.331	-1040
952.421	464
952.511	-895
952.602	-1025
952.692	-76
952.782	-852
952.872	-550
952.962	-533
953.052	-1354
953.143	-1684
953.233	21
953.323	-608
953.413	-1350
953.503	-476
953.593	-1062
953.683	-482
953.773	-841
953.863	-883
953.953	-1537
954.042	-518
954.132	-970
954.222	-958
954.312	-1236
954.402	-32
954.492	200
954.581	-424
954.671	-231
954.761	-1792
954.850	-512
954.940	-1032
955.030	-303
955.119	-391
955.209	405
955.298	-1051
955.388	-465
955.477	442
955.567	-1025
955.656	-613
955.746	-696
955.835	-2056
955.925	-1262
956.014	-914
956.103	-802
956.193	-364
956.282	-1015
956.371	-707
956.461	-903
956.550	-755
956.639	-74
956.728	-1643
956.817	-561
956.906	-320
956.995	-370
957.085	-560
957.174	-1018
957.263	-1115
957.352	-1395
957.441	-896
957.530	-981
957.619	-739
957.708	-1673
957.796	-650
957.885	-518
957.974	-1347
958.063	-303
958.152	-1091
958.241	-196
958.329	-986
958.418	-1348
958.507	-1489
958.596	-136
958.684	-2593
958.773	-647
958.861	-949
958.950	-784
959.039	-1098
959.127	-1431
959.216	-740
959.304	-796
959.393	-1113
959.481	-643
959.570	-1187
959.658	-1212
959.746	-680
959.835	530
959.923	261
960.011	-690
960.100	-180
960.188	-968
960.276	-1404
960.365	-1070
960.453	-860
960.541	-1957
960.629	-1032
960.717	-101
960.805	-1370
960.893	-474
960.981	-2242
961.069	-333
961.158	-745
961.245	-167
961.333	-407
961.421	-956
961.509	-748
961.597	-408
961.685	-1412
961.773	-596
961.861	-768
961.949	-675
962.036	-1701
962.124	-614
962.212	-1011
962.299	-1037
962.387	-1689
962.475	-1218
962.562	-1793
962.650	-584
962.738	-1394
962.825	-987
962.913	-880
963.000	-686
963.088	-1420
963.175	-386
963.263	-837
963.350	-922
963.438	-548
963.525	348
963.612	1443
963.700	4029
963.787	9099
963.874	3388
963.962	-1212
964.049	-941
964.136	-1939
964.223	-1901
964.310	-1174
964.398	-806
964.485	-803
964.572	-114
964.659	237
964.746	541
964.833	-1007
964.920	-1463
965.007	-1194
965.094	-309
965.181	-1388
965.268	-863
965.355	-963
965.441	-1144
965.528	-1170
965.615	-622
965.702	-1464
965.789	-1304
965.875	-1626
965.962	-1031
966.049	-1842
966.136	-996
966.222	-2072
966.309	-812
966.395	-1419
966.482	-453
966.569	-1878
966.655	-653
966.742	-1150
966.828	-319
966.915	-1592
967.001	-1121
967.087	-2120
967.174	46
967.260	-391
967.347	781
967.433	3344
967.519	6038
967.605	1183
967.692	-965
967.778	-1219
967.864	-1174
967.950	-1375
968.036	-1233
968.123	-1062
968.209	-1243
968.295	-2380
968.381	-174
968.467	-1055
968.553	-2125
968.639	-414
968.725	-2086
968.811	464
968.897	-344
968.983	-1098
969.069	-1757
969.154	-745
969.240	10
969.326	-1369
969.412	-2082
969.497	-1505
969.583	-2038
969.669	-68
969.755	-1028
969.840	-2035
969.926	-861
970.012	-1201
970.097	-271
970.183	-692
970.268	-1245
970.354	113
970.439	1066
970.525	2973
970.610	-822
970.696	-248
970.781	-695
970.866	-2515
970.952	-594
971.037	-1718
971.122	-1247
971.208	-1019
971.293	-1202
971.378	-2426
971.463	-1284
971.549	-1021
971.634	-1138
971.719	-744
971.804	-652
971.889	-1442
971.974	-1819
972.059	-1546
972.144	-587
972.229	-997
972.314	-1197
972.399	-1711
972.484	-1392
972.569	-805
972.654	-293
972.739	2102
972.824	1131
972.908	-602
972.993	-1425
973.078	-1992
973.163	-1235
973.247	-1334
973.332	-1994
973.417	-438
973.501	-1887
973.586	-1581
973.671	-1284
973.755	-1645
973.840	-104
973.924	-477
974.009	-1286
974.093	-1013
974.178	446
974.262	779
974.346	-258
974.431	-1559
974.515	-1141
974.600	-1055
974.684	-91
974.768	-1908
974.852	-488
974.937	-2750
975.021	-962
975.105	-1496
975.189	-1861
975.273	-1074
975.358	-1610
975.442	-1520
975.526	-755
975.610	-2027
975.694	-2054
975.778	-1084
975.862	-900
975.946	-2538
976.030	312
976.114	-1844
976.198	-936
976.281	-1398
976.365	-183
976.449	-1274
976.533	-851
976.617	-1850
976.700	-750
976.784	-1542
976.868	-1143
976.951	-845
977.035	246
977.119	-953
977.202	-1579
977.286	-640
977.369	-1368
977.453	-1116
977.536	-1169
977.620	-1356
977.703	-1266
977.787	-1407
977.870	-233
977.953	-1157
978.037	-2319
978.120	-343
978.203	522
978.287	233
978.370	98
978.453	-2312
978.536	-1309
978.620	-236
978.703	186
978.786	-1312
978.869	-1767
978.952	-2055
979.035	-95
979.118	-933
979.201	-2072
979.284	-656
979.367	-1832
979.450	-905
979.533	-1951
979.616	-2213
979.699	-1636
979.782	-1046
979.865	-849
979.948	-2097
980.030	-1532
980.113	-1449
980.196	-1710
980.279	-1879
980.361	-717
980.444	-1957
980.526	-899
980.609	-1654
980.692	-1408
980.774	-1072
980.857	-2408
980.939	-473
981.022	-1240
981.104	-1902
981.187	-1646
981.269	-1178
981.352	-992
981.434	-2188
981.516	-1922
981.599	-508
981.681	-1523
981.763	-1622
981.846	-1967
981.928	-839
982.010	-1486
982.092	-1954
982.174	-1439
982.256	-1748
982.339	-1305
982.421	-2348
982.503	-416
982.585	-2372
982.667	-955
982.749	-1530
982.831	-1233
982.913	-2329
982.995	-788
983.077	-2411
983.158	-347
983.240	-2577
983.322	-1357
983.404	-1537
983.486	-1426
983.568	-1519
983.649	-1634
983.731	-1331
983.813	-1155
983.894	-1206
983.976	-1113
984.058	-1799
984.139	488
984.221	-1860
984.302	-653
984.384	-1434
984.465	-1392
984.547	-2047
984.628	-1776
984.710	-1309
984.791	-1383
984.872	-1791
984.954	-1815
985.035	-1758
985.116	-1863
985.198	-1463
985.279	-182
985.360	-1585
985.441	-2056
985.522	-1578
985.604	-691
985.685	-2863
985.766	569
985.847	-211
985.928	-2153
986.009	-2142
986.090	-995
986.171	-759
986.252	-1795
986.333	-1981
986.414	-1605
986.495	-1118
986.576	-1413
986.656	-1378
986.737	-1055
986.818	-1854
986.899	-1973
986.980	-1999
987.060	-429
987.141	-1947
987.222	-660
987.302	-1185
987.383	-579
987.464	-2026
987.544	-1138
987.625	-1361
987.705	159
987.786	-1470
987.866	-1937
987.947	-1559
988.027	-1742
988.108	-1765
988.188	-1117
988.268	-1014
988.349	-1357
988.429	-2020
988.509	-656
988.589	-1608
988.670	-2688
988.750	-1023
988.830	-1652
988.910	-739
988.990	-934
989.070	-1483
989.151	-1415
989.231	-2109
989.311	-116
989.391	-1507
989.471	-1236
989.551	-1075
989.631	-1265
989.711	-821
989.791	-1799
989.870	-2589
989.950	-925
990.030	-2241
990.110	-1695
990.190	-1968
990.269	-1007
990.349	-1516
990.429	-1307
990.509	-1466
990.588	-1887
990.668	-1336
990.747	-1440
990.827	-1178
990.907	-1237
990.986	-1216
991.066	-1778
991.145	-2171
991.225	-466
991.304	-2102
991.383	-593
991.463	-2078
991.542	-1501
991.622	-1123
991.701	-1429
991.780	-1541
991.859	-1167
991.939	-1408
992.018	-627
992.097	-1516
992.176	-1102
992.256	-2328
992.335	-1134
992.414	-1164
992.493	-2101
992.572	-2604
992.651	-452
992.730	-1815
992.809	-1537
992.888	-1737
992.967	-1297
993.046	-1279
993.125	-1967
993.203	-1381
993.282	-864
993.361	-1801
993.440	-1296
993.519	-2151
993.597	-1397
993.676	-2296
993.755	-889
993.834	-1754
993.912	-1829
993.991	-934
994.069	-2401
994.148	-2139
994.226	-1132
994.305	-1959
994.384	-2041
994.462	-465
994.540	-2028
994.619	-1754
994.697	-879
994.776	-2477
994.854	-1145
994.932	-2171
995.011	-1078
995.089	-2233
995.167	-1732
995.245	-1278
995.324	-1663
995.402	-1145
995.480	-1777
995.558	-1036
995.636	-2054
995.714	-2224
995.792	0
995.870	-2305
995.948	-1085
996.026	-1281
996.104	-2475
996.182	-392
996.260	-1826
996.338	-2270
996.416	-1701
996.494	-2068
996.572	-484
996.649	-1915
996.727	-2720
996.805	-1841
996.883	-2078
996.960	-1263
997.038	-781
997.116	-1888
997.193	-1528
997.271	-1250
997.348	-2260
997.426	-1880
997.504	-2387
997.581	-1154
997.658	-820
997.736	-2460
997.813	-1523
997.891	-1234
997.968	-1916
998.046	-1494
998.123	-1388
998.200	-1127
998.277	-2801
998.355	-2203
998.432	-2299
998.509	-2026
998.586	-1392
998.663	-1806
998.741	-1869
998.818	-1575
998.895	-2172
998.972	-1816
999.049	-1605
999.126	-1995
999.203	-746
999.280	-1189
999.357	-2109
999.434	-2518
999.511	-1302
999.587	-1643
999.664	-1459
999.741	-1552
999.818	-1235
999.895	-2370
999.971	-1456
1000.048	-2346
1000.125	-1017
1000.202	-2296
1000.278	-1676
1000.355	-1818
1000.431	-1394
1000.508	-1550
1000.584	-1121
1000.661	-1600
1000.738	-2415
1000.814	-1242
1000.890	-999
1000.967	-2115
1001.043	-1209
1001.120	-2091
1001.196	-1610
1001.272	-2183
1001.349	-1450
1001.425	-1277
1001.501	-2547
1001.577	-3040
1001.654	-885
1001.730	-2402
1001.806	-1242
1001.882	-1893
1001.958	-1203
1002.034	-1634
1002.110	-1003
1002.186	-2411
1002.262	-1792
1002.338	-2205
1002.414	-838
1002.490	-1496
1002.566	-2224
1002.642	-2663
1002.718	-732
1002.794	-1489
1002.870	-1212
1002.945	-2059
1003.021	-1458
1003.097	-1832
1003.173	-1407
1003.248	-2515
1003.324	-1647
1003.400	-1836
1003.475	-1691
1003.551	-2099
1003.626	-812
1003.702	-2299
1003.777	-1581
1003.853	-2257
1003.928	-2081
1004.004	-2071
1004.079	-894
1004.155	-1501
1004.230	-3198
1004.305	-1360
1004.381	-1991
1004.456	-1872
1004.531	-1518
1004.607	-2394
1004.682	-2098
1004.757	-2175
1004.832	-1981
1004.907	-2034
1004.982	-1072
1005.057	-1606
1005.133	-2057
1005.208	-2269
1005.283	-1817
1005.358	-1573
1005.433	-1519
1005.508	-1738
1005.583	-2311
1005.657	-2197
1005.732	-1370
1005.807	-1945
1005.882	-2180
1005.957	-2247
1006.032	-1921
1006.106	-1697
1006.181	-2007
1006.256	-2486
1006.331	-2627
1006.405	-2362
1006.480	-2090
1006.554	-2327
1006.629	-2220
1006.704	-2376
1006.778	-2390
1006.853	-1860
1006.927	-2234
1007.002	-2299
1007.076	-2151
1007.150	-2390
1007.225	-1279
1007.299	-2303
1007.373	-2757
1007.448	-2821
1007.522	-1206
1007.596	-1788
1007.671	-1841
1007.745	-2576
1007.819	-2379
1007.893	-1916
1007.967	-2117
1008.041	-3222
1008.115	-1541
1008.190	-2747
1008.264	-1825
1008.338	-2963
1008.412	-2442
1008.486	-2813
1008.560	-1999
1008.633	-3008
1008.707	-2262
1008.781	-1645
1008.855	-2641
1008.929	-2717
1009.003	-2216
1009.076	-3113
1009.150	-2376
1009.224	-2600
1009.298	-2557
1009.371	-2883
1009.445	-1502
1009.519	-2026
1009.592	-3074
1009.666	-2248
1009.739	-1492
1009.813	-3067
1009.886	-1914
1009.960	-2773
1010.033	-2406
1010.107	-2261
1010.180	-2503
1010.253	-2305
1010.327	-3072
1010.400	-2029
1010.473	-2012
1010.547	-1654
1010.620	-2602
1010.693	-2971
1010.766	-2598
1010.840	-2139
1010.913	-1625
1010.986	-2980
1011.059	-2997
1011.132	-1744
1011.205	-1338
1011.278	-2547
1011.351	-2637
1011.424	-2696
1011.497	-1901
1011.570	-2230
1011.643	-2528
1011.716	-2210
1011.789	-2001
1011.862	-2546
1011.934	-1764
1012.007	-3589
1012.080	-1836
1012.153	-2889
1012.225	-1336
1012.298	-2436
1012.371	-2379
1012.443	-1546
1012.516	-3153
1012.588	-2589
1012.661	-1459
1012.733	-2844
1012.806	-1753
1012.879	-2155
1012.951	-1858
1013.023	-3189
1013.096	-2283
1013.168	-2230
1013.241	-1083
1013.313	-2430
1013.385	-2544
1013.458	-1951
1013.530	-2021
1013.602	-2545
1013.674	-2277
1013.746	-3750
1013.819	-2968
1013.891	-2409
1013.963	-2133
1014.035	-3013
1014.107	-1742
1014.179	-2085
1014.251	-2674
1014.323	-1810
1014.395	-1863
1014.467	-2687
1014.539	-2149
1014.611	-3087
1014.683	-1999
1014.754	-2267
1014.826	-2553
1014.898	-2406
1014.970	-2873
1015.042	-1431
1015.113	-2334
1015.185	-2832
1015.257	-2661
1015.328	-2428
1015.400	-3140
1015.471	-2983
1015.543	-3018
1015.615	-2970
1015.686	-2406
1015.757	-2591
1015.829	-1542
1015.901	-3461
1015.972	-1699
1016.043	-2296
1016.115	-2190
1016.186	-2821
1016.257	-2453
1016.328	-1735
1016.400	-901
1016.471	-2962
1016.542	-1789
1016.613	-1801
1016.685	-2295
1016.756	-2446
1016.827	-2313
1016.898	-3313
1016.969	-1589
1017.040	-2123
1017.111	-2161
1017.182	-3233
1017.253	-1190
1017.324	-2474
1017.395	-2645
1017.466	-2854
1017.537	-2379
1017.608	-2893
1017.678	-2288
1017.749	-3673
1017.820	-2130
1017.891	-2538
1017.961	-2157
1018.032	-2396
1018.103	-1803
1018.173	-2213
1018.244	-2460
1018.315	-1942
1018.385	-2023
1018.456	-2133
1018.526	-2266
1018.597	-2655
1018.667	-2043
1018.738	-2619
1018.808	-2248
1018.878	-2772
1018.949	-2181
1019.019	-2999
1019.089	-2176
1019.160	-2481
1019.230	-2869
1019.300	-1989
1019.371	-2984
1019.441	-2767
1019.511	-2239
1019.581	-2747
1019.651	-2552
1019.721	-1823
1019.791	-1939
1019.861	-2116
1019.931	-1213
1020.001	-2908
1020.071	-2435
1020.141	-3043
1020.211	-2495
1020.281	-3012
1020.351	-2892
1020.421	-2790
1020.491	-1509
1020.560	-2938
1020.630	-1661
1020.700	-3493
1020.770	-2417
1020.839	-2488
1020.909	-1664
1020.979	-2753
1021.048	-2383
1021.118	-2428
1021.187	-2168
1021.257	-2473
1021.326	-2105
1021.396	-2065
1021.465	-2019
1021.535	-3050
1021.604	-2744
1021.674	-2183
1021.743	-1722
1021.812	-2224
1021.882	-1618
1021.951	-2294
1022.020	-2402
1022.089	-2323
1022.159	-1812
1022.228	-2715
1022.297	-1722
1022.366	-2414
1022.435	-2182
1022.504	-1203
1022.573	-2298
1022.642	-2879
1022.711	-2222
1022.781	-2143
1022.849	-2034
1022.918	-2606
1022.987	-1581
1023.056	-2818
1023.125	-2510
1023.194	-2673
1023.263	-1501
1023.331	-1333
1023.400	-2344
1023.469	-1919
1023.538	-1661
1023.606	-2488
1023.675	-2375
1023.744	-3110
1023.812	-2442
1023.881	-2783
1023.949	-1416
1024.018	-2060
1024.086	-1797
1024.155	-2518
1024.223	-2352
1024.292	-2022
1024.360	-1854
1024.429	-2515
1024.497	-2423
1024.565	-2437
1024.634	-2099
1024.702	-2013
1024.770	-1434
1024.838	-2402
1024.907	-1144
1024.975	-2753
1025.043	-1353
1025.111	-2121
1025.179	-1157
1025.247	-3122
1025.315	-2177
1025.383	-2691
1025.451	-1523
1025.519	-2365
1025.587	-2179
1025.655	-2111
1025.723	-2239
1025.791	-2412
1025.859	-1895
1025.927	-2090
1025.995	-1878
1026.062	-1810
1026.130	-2225
1026.198	-2329
1026.266	-1804
1026.333	-1830
1026.401	-2058
1026.469	-2302
1026.536	-1688
1026.604	-2162
1026.671	-1659
1026.739	-2822
1026.806	-1983
1026.874	-2925
1026.941	-1556
1027.009	-2381
1027.076	-2851
1027.144	-1879
1027.211	-1907
1027.278	-2500
1027.345	-1717
1027.413	-2838
1027.480	-1805
1027.547	-2110
1027.614	-1864
1027.682	-2432
1027.749	-1707
1027.816	-2324
1027.883	-974
1027.950	-2457
1028.017	-2225
1028.084	-2031
1028.151	-2026
1028.218	-2375
1028.285	-1196
1028.352	-1765
1028.419	-2061
1028.486	-2701
1028.553	-1375
1028.619	-1898
1028.686	-1911
1028.753	-2216
1028.820	-1893
1028.886	-3110
1028.953	-1922
1029.020	-2638
1029.086	-2733
1029.153	-1724
1029.220	-2720
1029.286	-2153
1029.353	-2471
1029.419	-2569
1029.486	-1916
1029.552	-2718
1029.619	-2748
1029.685	-2293
1029.751	-2280
1029.818	-2408
1029.884	-2065
1029.951	-1748
1030.017	-2519
1030.083	-2128
1030.149	-2185
1030.216	-2616
1030.282	-2368
1030.348	-2166
1030.414	-2293
1030.480	-2428
1030.546	-2588
1030.612	-2237
1030.678	-1905
1030.744	-2229
1030.810	-2644
1030.876	-2430
1030.942	-2488
1031.008	-2650
1031.074	-1570
1031.140	-3458
1031.206	-925
1031.272	-3533
1031.337	-1969
1031.403	-1941
1031.469	-2416
1031.534	-3242
1031.600	-1626
1031.666	-2556
1031.731	-2437
1031.797	-2220
1031.863	-1906
1031.928	-2469
1031.994	-2557
1032.059	-2839
1032.125	-1970
1032.190	-2322
1032.256	-1380
1032.321	-3044
1032.386	-2516
1032.452	-1849
1032.517	-2493
1032.582	-2373
1032.647	-2518
1032.713	-2798
1032.778	-1406
1032.843	-2345
1032.908	-2638
1032.974	-2212
1033.039	-2064
1033.104	-973
1033.169	-2358
1033.234	-2431
1033.299	-1509
1033.364	-1965
1033.429	-2458
1033.494	-2636
1033.559	-3276
1033.624	-2028
1033.688	-1682
1033.753	-2823
1033.818	-2655
1033.883	-2706
1033.948	-2182
1034.013	-2832
1034.077	-1950
1034.142	-1342
1034.207	-2550
1034.271	-1456
1034.336	-1033
1034.400	-1883
1034.465	-2730
1034.530	-2302
1034.594	-2371
1034.658	-2248
1034.723	-2117
1034.787	-2950
1034.852	-2540
1034.916	-2126
1034.981	-1738
1035.045	-2547
1035.109	-2151
1035.173	-1080
1035.238	-2784
1035.302	-1921
1035.366	-1726
1035.430	-2864
1035.495	-2191
1035.559	-1593
1035.623	-2369
1035.687	-3307
1035.751	-1922
1035.815	-2214
1035.879	-1515
1035.943	-2752
1036.007	-2879
1036.071	-2393
1036.135	-3092
1036.198	-1950
1036.262	-2163
1036.326	-2122
1036.390	-1623
1036.454	-1992
1036.517	-2668
1036.581	-2611
1036.645	-2052
1036.709	-2707
1036.772	-2989
1036.836	-2165
1036.900	-2589
1036.963	-2866
1037.026	-2366
1037.090	-2161
1037.154	-1334
1037.217	-2692
1037.280	-1679
1037.344	-3131
1037.407	-2556
1037.471	-2493
1037.534	-1997
1037.597	-3072
1037.661	-2621
1037.724	-2413
1037.787	-2646
1037.850	-1840
1037.913	-2255
1037.977	-2291
1038.040	-2403
1038.103	-2694
1038.166	-2357
1038.229	-2602
1038.292	-2599
1038.355	-2214
1038.418	-2106
1038.481	-2147
1038.544	-1877
1038.607	-2035
1038.670	-1777
1038.732	-2832
1038.795	-2583
1038.858	-2515
1038.921	-2107
1038.984	-2555
1039.046	-2437
1039.109	-2823
1039.172	-3117
1039.234	-2144
1039.297	-2351
1039.360	-2578
1039.422	-2328
1039.485	-2246
1039.547	-2851
1039.610	-2228
1039.672	-2850
1039.734	-2498
1039.797	-1681
1039.859	-2239
1039.922	-2660
1039.984	-2360
1040.046	-2175
1040.109	-2872
1040.171	-1903
1040.233	-2443
1040.295	-3288
1040.358	-2671
1040.420	-2425
1040.482	-3099
1040.544	-2351
1040.606	-2138
1040.668	-1611
1040.730	-2698
1040.792	-1805
1040.854	-3122
1040.916	-2496
1040.978	-2183
1041.040	-2543
1041.102	-2518
1041.164	-2960
1041.225	-2610
1041.287	-2357
1041.349	-2576
1041.411	-2161
1041.472	-2219
1041.534	-2392
1041.596	-3021
1041.657	-2453
1041.719	-3129
1041.781	-2383
1041.842	-2568
1041.904	-1731
1041.965	-2450
1042.027	-2317
1042.088	-3478
1042.150	-2518
1042.211	-1982
1042.272	-1899
1042.334	-3423
1042.395	-2540
1042.456	-2723
1042.518	-2350
1042.579	-2660
1042.640	-2626
1042.701	-2479
1042.763	-1920
1042.824	-3089
1042.885	-2429
1042.946	-2733
1043.007	-2327
1043.068	-2210
1043.129	-2813
1043.190	-2982
1043.251	-2505
1043.312	-2554
1043.373	-2510
1043.434	-2636
1043.495	-2253
1043.556	-3042
1043.616	-2318
1043.677	-3042
1043.738	-2937
1043.799	-2341
1043.859	-2382
1043.920	-2467
1043.981	-2054
1044.041	-1988
1044.102	-2943
1044.162	-2852
1044.223	-3337
1044.284	-2482
1044.344	-2011
1044.405	-2678
1044.465	-1915
1044.525	-3476
1044.586	-2270
1044.646	-2858
1044.707	-2235
1044.767	-2656
1044.827	-2618
1044.887	-3019
1044.948	-1579
1045.008	-1808
1045.068	-2226
1045.128	-3170
1045.188	-2093
1045.249	-1967
1045.309	-2700
1045.369	-2769
1045.429	-2233
1045.489	-2365
1045.549	-2402
1045.609	-1792
1045.669	-2016
1045.729	-2226
1045.789	-2556
1045.848	-2968
1045.908	-2225
1045.968	-2716
1046.028	-2206
1046.088	-2449
1046.147	-1785
1046.207	-2375
1046.267	-1818
1046.326	-2099
1046.386	-888
1046.446	-1316
1046.505	-1220
1046.565	-2162
1046.624	-1389
1046.684	-1553
1046.743	-763
1046.803	-398
1046.862	88
1046.922	0
