'Start Wavelength	183.907
'End Wavelength	1046.922
'Gate Delay	5.000
'Gate Width (ms)	1.050
'Laser Output Level	0.000
'X Position	0.000
'Y Position	0.000
'Z Position	0.000
'Grid Point Number	1.000
'Shot Number	100.000
183.907	-99.000
183.977	441.000
184.047	-25
184.116	-245
184.186	85
184.256	-602
184.325	-264
184.395	-953
184.465	410
184.534	70
184.604	-279
184.674	-501
184.743	-193
184.813	-849
184.883	-732
184.952	940
185.022	-52
185.092	172
185.161	-416
185.231	-35
185.301	-671
185.370	667
185.440	-556
185.509	-834
185.579	-384
185.649	-165
185.718	-186
185.788	646
185.857	-399
185.927	-13
185.996	-360
186.066	93
186.136	-336
186.205	-358
186.275	209
186.344	-599
186.414	-301
186.483	-146
186.553	-75
186.622	241
186.692	-1006
186.761	36
186.831	-751
186.900	-576
186.970	-229
187.039	478
187.109	769
187.178	222
187.248	-238
187.317	151
187.387	-326
187.456	-702
187.526	-552
187.595	131
187.664	399
187.734	25
187.803	22
187.873	-26
187.942	67
188.012	-116
188.081	-552
188.150	-255
188.220	-292
188.289	196
188.358	-770
188.428	-587
188.497	-707
188.567	-580
188.636	-337
188.705	-192
188.775	-828
188.844	-875
188.913	208
188.983	-23
189.052	-323
189.121	-668
189.191	-493
189.260	-194
189.329	-1355
189.399	466
189.468	-318
189.537	-259
189.606	26
189.676	-223
189.745	-126
189.814	69
189.883	-1133
189.953	100
190.022	-675
190.091	-523
190.161	98
190.230	348
190.299	-430
190.368	-563
190.437	-74
190.507	-480
190.576	-746
190.645	241
190.714	-52
190.783	-168
190.853	-429
190.922	-92
190.991	-480
191.060	399
191.129	-1192
191.198	778
191.268	-669
191.337	-492
191.406	-2
191.475	-49
191.544	-454
191.613	-195
191.682	292
191.752	-106
191.821	-725
191.890	-536
191.959	-16
192.028	-23
192.097	-127
192.166	-398
192.235	-832
192.304	533
192.373	-1448
192.442	-233
192.511	-646
192.580	131
192.650	-926
192.719	-1057
192.788	38
192.857	25
192.926	-820
192.995	-667
193.064	148
193.133	-364
193.202	-285
193.271	103
193.340	-654
193.409	371
193.478	8
193.547	-605
193.615	-7
193.684	457
193.753	-637
193.822	267
193.891	-758
193.960	484
194.029	-373
194.098	-122
194.167	-1087
194.236	354
194.305	-785
194.374	36
194.443	-629
194.512	-328
194.580	197
194.649	323
194.718	-738
194.787	-490
194.856	-808
194.925	139
194.994	-515
195.062	926
195.131	-548
195.200	782
195.269	-446
195.338	-25
195.407	-263
195.475	-140
195.544	52
195.613	-283
195.682	-127
195.751	448
195.819	-591
195.888	28
195.957	281
196.026	188
196.094	-35
196.163	115
196.232	-220
196.301	-318
196.369	-907
196.438	286
196.507	-1083
196.576	-283
196.644	-1029
196.713	446
196.782	-1244
196.850	650
196.919	-339
196.988	481
197.056	-741
197.125	-221
197.194	-283
197.262	-451
197.331	-312
197.400	-422
197.468	-545
197.537	-160
197.606	-493
197.674	653
197.743	-262
197.812	86
197.880	196
197.949	767
198.017	-35
198.086	-1019
198.155	5
198.223	350
198.292	-761
198.360	-92
198.429	119
198.497	-720
198.566	-1323
198.635	747
198.703	-88
198.772	439
198.840	-231
198.909	110
198.977	-382
199.046	361
199.114	-407
199.183	-297
199.251	-524
199.320	-388
199.388	-171
199.457	496
199.525	-577
199.594	-768
199.662	810
199.731	-246
199.799	-910
199.867	-226
199.936	-647
200.004	304
200.073	-667
200.141	-397
200.210	-292
200.278	103
200.346	100
200.415	-179
200.483	-637
200.552	-325
200.620	-545
200.688	230
200.757	-575
200.825	-128
200.893	-978
200.962	75
201.030	-671
201.098	-424
201.167	-128
201.235	-186
201.303	-360
201.372	-85
201.440	-795
201.508	-57
201.577	-147
201.645	-991
201.713	-1066
201.781	-473
201.850	-1029
201.918	420
201.986	-466
202.055	-140
202.123	-20
202.191	-410
202.259	-290
202.327	218
202.396	-616
202.464	-313
202.532	1
202.600	873
202.669	-571
202.737	-402
202.805	-822
202.873	142
202.941	139
203.009	-186
203.078	-548
203.146	-273
203.214	-1131
203.282	-743
203.350	-398
203.418	-611
203.487	-499
203.555	-350
203.623	284
203.691	647
203.759	-1374
203.827	-591
203.895	-404
203.963	-652
204.031	-1195
204.099	-170
204.168	-1182
204.236	754
204.304	-697
204.372	152
204.440	-611
204.508	517
204.576	-734
204.644	-373
204.712	-715
204.780	-288
204.848	145
204.916	-543
204.984	-390
205.052	647
205.120	-457
205.188	-281
205.256	-806
205.324	-404
205.392	-759
205.460	183
205.528	-114
205.596	133
205.664	-622
205.732	-1142
205.799	-265
205.867	525
205.935	-139
206.003	763
206.071	-546
206.139	-21
206.207	-336
206.275	-175
206.343	-1168
206.411	249
206.478	-916
206.546	-181
206.614	-462
206.682	400
206.750	-619
206.818	88
206.885	-40
206.953	-288
207.021	656
207.089	-721
207.157	-1625
207.225	-191
207.292	-1030
207.360	-586
207.428	-83
207.496	-145
207.563	-351
207.631	-245
207.699	-399
207.767	600
207.834	-341
207.902	-896
207.970	-275
208.038	-748
208.105	-503
208.173	-237
208.241	-212
208.309	-263
208.376	-760
208.444	-168
208.512	-1258
208.579	-842
208.647	199
208.715	126
208.782	-705
208.850	-216
208.918	484
208.985	-666
209.053	-879
209.120	163
209.188	-594
209.256	282
209.323	-1066
209.391	-674
209.459	1213
209.526	142
209.594	-867
209.661	577
209.729	-440
209.796	-179
209.864	-989
209.932	-743
209.999	851
210.067	601
210.134	3
210.202	-737
210.269	-117
210.337	130
210.404	-690
210.472	-636
210.539	-259
210.607	338
210.674	50
210.742	306
210.809	-633
210.877	-689
210.944	-401
211.012	-677
211.079	1137
211.146	-135
211.214	-1058
211.281	-1235
211.349	-320
211.416	48
211.484	-638
211.551	-761
211.618	-442
211.686	-295
211.753	-440
211.821	-206
211.888	-1023
211.955	-332
212.023	-227
212.090	103
212.157	-786
212.225	-1020
212.292	-595
212.359	-154
212.427	1547
212.494	-313
212.561	-218
212.629	-15
212.696	-281
212.763	-911
212.831	-1027
212.898	-319
212.965	-951
213.032	244
213.100	88
213.167	-696
213.234	-515
213.301	605
213.369	90
213.436	-5
213.503	-783
213.570	-185
213.638	-580
213.705	476
213.772	-1106
213.839	-371
213.906	147
213.973	91
214.041	-1144
214.108	-249
214.175	-216
214.242	-160
214.309	-250
214.376	-203
214.444	-910
214.511	-160
214.578	-335
214.645	930
214.712	-465
214.779	-764
214.846	-924
214.913	345
214.980	-632
215.048	-386
215.115	399
215.182	-472
215.249	-869
215.316	-124
215.383	-41
215.450	854
215.517	-665
215.584	-77
215.651	-1273
215.718	-279
215.785	17
215.852	-2
215.919	-574
215.986	-135
216.053	-908
216.120	-353
216.187	-347
216.254	-242
216.321	-570
216.388	-497
216.455	-154
216.522	-219
216.589	-132
216.656	1
216.722	-425
216.789	-80
216.856	-299
216.923	110
216.990	-1195
217.057	-207
217.124	-293
217.191	-227
217.258	-98
217.324	-308
217.391	-563
217.458	-609
217.525	-742
217.592	-62
217.659	-1380
217.725	-145
217.792	-537
217.859	489
217.926	-788
217.993	-434
218.059	-493
218.126	-840
218.193	-2258
218.260	-387
218.327	-318
218.393	-388
218.460	-1073
218.527	-669
218.594	-483
218.660	-335
218.727	631
218.794	-890
218.860	690
218.927	46
218.994	-1110
219.061	-1130
219.127	-877
219.194	10
219.261	-665
219.327	-170
219.394	-73
219.461	-1066
219.527	-424
219.594	-355
219.661	-1010
219.727	-835
219.794	-86
219.860	-859
219.927	-988
219.994	-154
220.060	-271
220.127	753
220.193	-538
220.260	-644
220.326	-473
220.393	-524
220.460	-300
220.526	11
220.593	-1349
220.659	443
220.726	-955
220.792	244
220.859	-949
220.925	408
220.992	598
221.058	775
221.125	758
221.191	36
221.258	-745
221.324	-124
221.391	-15
221.457	-441
221.524	-1278
221.590	64
221.657	-162
221.723	-284
221.789	-398
221.856	-61
221.922	-218
221.989	57
222.055	-643
222.121	-1042
222.188	898
222.254	-542
222.321	-440
222.387	-486
222.453	-262
222.520	-427
222.586	-1176
222.652	-339
222.719	-872
222.785	-25
222.851	-835
222.918	323
222.984	-532
223.050	-592
223.116	-1819
223.183	-183
223.249	-976
223.315	-664
223.382	-784
223.448	-436
223.514	-1536
223.580	-95
223.647	-673
223.713	-298
223.779	-1290
223.845	-1223
223.911	-260
223.978	-710
224.044	-794
224.110	-1216
224.176	-965
224.242	-540
224.309	-816
224.375	302
224.441	-791
224.507	34
224.573	-1662
224.639	-446
224.705	-552
224.772	-484
224.838	-735
224.904	257
224.970	-606
225.036	-624
225.102	-1205
225.168	555
225.234	-23
225.300	-211
225.366	-318
225.432	-173
225.499	-1189
225.565	-331
225.631	-1093
225.697	-1031
225.763	-276
225.829	-772
225.895	-247
225.961	-233
226.027	-594
226.093	-148
226.159	46
226.225	137
226.291	163
226.357	738
226.423	-220
226.489	-130
226.554	-540
226.620	-104
226.686	-219
226.752	151
226.818	-735
226.884	2305
226.950	728
227.016	108
227.082	-420
227.148	-247
227.214	-397
227.279	-492
227.345	254
227.411	54
227.477	-490
227.543	112
227.609	397
227.674	566
227.740	-1257
227.806	-239
227.872	-1051
227.938	-362
228.003	-262
228.069	-247
228.135	-1099
228.201	-932
228.267	-583
228.332	-253
228.398	-1067
228.464	208
228.530	-841
228.595	780
228.661	-1491
228.727	-1163
228.792	51
228.858	-796
228.924	-1826
228.990	813
229.055	-1713
229.121	-255
229.187	-1071
229.252	-669
229.318	-513
229.384	46
229.449	81
229.515	-1301
229.581	-1979
229.646	-77
229.712	-842
229.777	-415
229.843	-653
229.909	-104
229.974	136
230.040	216
230.105	323
230.171	-637
230.236	-713
230.302	-614
230.368	-607
230.433	-945
230.499	-195
230.564	1120
230.630	-1120
230.695	-651
230.761	328
230.826	-1864
230.892	296
230.957	-665
231.023	-1385
231.088	-853
231.154	-715
231.219	-407
231.284	-1320
231.350	975
231.415	-897
231.481	210
231.546	-869
231.612	434
231.677	-1129
231.742	-1640
231.808	204
231.873	-933
231.939	-2371
232.004	646
232.069	223
232.135	-455
232.200	-1232
232.265	-185
232.331	-813
232.396	-576
232.461	-857
232.527	-880
232.592	-1434
232.657	-517
232.723	-835
232.788	-1609
232.853	-1044
232.918	-1049
232.984	-696
233.049	-132
233.114	-1111
233.179	-384
233.245	-60
233.310	647
233.375	-2519
233.440	-39
233.506	-648
233.571	-919
233.636	-1016
233.701	-449
233.766	-508
233.832	-213
233.897	-228
233.962	-1256
234.027	606
234.092	103
234.157	133
234.222	-432
234.288	-15
234.353	1407
234.418	1429
234.483	1043
234.548	-438
234.613	1
234.678	-90
234.743	-843
234.808	2407
234.873	-520
234.938	325
235.004	-187
235.069	-437
235.134	-998
235.199	-283
235.264	250
235.329	-1445
235.394	-283
235.459	-883
235.524	-494
235.589	-67
235.654	-121
235.719	-2106
235.784	-277
235.849	-275
235.913	333
235.978	151
236.043	223
236.108	-351
236.173	-442
236.238	-134
236.303	-715
236.368	-374
236.433	-39
236.498	-345
236.563	342
236.627	110
236.692	2876
236.757	1445
236.822	1325
236.887	-315
236.952	762
237.017	-934
237.081	417
237.146	-692
237.211	743
237.276	1566
237.341	5662
237.405	984
237.470	1109
237.535	28
237.600	82
237.664	107
237.729	-877
237.794	-1608
237.859	1264
237.923	-754
237.988	-89
238.053	887
238.118	214
238.182	1183
238.247	2824
238.312	-645
238.376	446
238.441	-1627
238.506	735
238.570	-986
238.635	676
238.700	-829
238.764	-1057
238.829	-229
238.893	-162
238.958	854
239.023	-39
239.087	-300
239.152	-80
239.216	-1366
239.281	-600
239.346	209
239.410	-380
239.475	-1137
239.539	2203
239.604	-96
239.668	708
239.733	-479
239.797	-142
239.862	1257
239.926	2389
239.991	-96
240.055	-54
240.120	-662
240.184	-350
240.249	-945
240.313	-300
240.378	-181
240.442	1573
240.507	2124
240.571	363
240.635	-101
240.700	911
240.764	-419
240.829	-813
240.893	-2111
240.957	821
241.022	1402
241.086	2144
241.151	-290
241.215	-865
241.279	711
241.344	335
241.408	-22
241.472	-1422
241.537	237
241.601	-631
241.665	-1099
241.730	-915
241.794	-423
241.858	-739
241.922	-12
241.987	-279
242.051	-1284
242.115	-1366
242.179	-184
242.244	-991
242.308	82
242.372	-71
242.436	-957
242.501	-256
242.565	-1427
242.629	-1154
242.693	65
242.757	-816
242.822	-1019
242.886	-176
242.950	688
243.014	-1296
243.078	-447
243.142	-427
243.206	-598
243.271	341
243.335	-855
243.399	255
243.463	711
243.527	4801
243.591	197
243.655	-162
243.719	-516
243.783	88
243.847	378
243.911	881
243.975	512
244.040	112
244.104	1227
244.168	-158
244.232	-737
244.296	1046
244.360	272
244.424	-520
244.488	-241
244.552	-284
244.615	-1062
244.679	-65
244.743	-876
244.807	-334
244.871	402
244.935	737
244.999	-1606
245.063	-134
245.127	587
245.191	-100
245.255	-286
245.319	400
245.383	-1800
245.446	1225
245.510	-1062
245.574	855
245.638	-157
245.702	-1320
245.766	1438
245.829	1070
245.893	-485
245.957	-953
246.021	-278
246.085	-435
246.149	-534
246.212	1841
246.276	2213
246.340	-160
246.404	-302
246.467	795
246.531	-804
246.595	817
246.659	998
246.722	-348
246.786	786
246.850	372
246.913	708
246.977	-952
247.041	-236
247.104	743
247.168	-361
247.232	1492
247.295	3895
247.359	2264
247.423	-404
247.486	1497
247.550	1069
247.614	46
247.677	-418
247.741	-9
247.804	-783
247.868	1487
247.932	258
247.995	4532
248.059	-671
248.122	-537
248.186	1021
248.249	1619
248.313	6660
248.376	7559
248.440	2760
248.503	326
248.567	2269
248.630	877
248.694	1536
248.757	3686
248.821	6670
248.884	4775
248.948	2759
249.011	6057
249.075	7887
249.138	6903
249.202	1739
249.265	928
249.328	1315
249.392	284
249.455	832
249.519	-526
249.582	93
249.645	2061
249.709	479
249.772	905
249.835	127
249.899	611
249.962	552
250.025	-558
250.089	1928
250.152	4066
250.215	1041
250.279	786
250.342	989
250.405	882
250.468	-870
250.532	1091
250.595	1084
250.658	4916
250.721	10538
250.785	2618
250.848	2484
250.911	220
250.974	1347
251.038	538
251.101	3817
251.164	1565
251.227	1608
251.290	1393
251.354	1237
251.417	8446
251.480	7605
251.543	4891
251.606	16537
251.669	11315
251.732	3799
251.795	4924
251.859	5000
251.922	10853
251.985	5794
252.048	2575
252.111	1129
252.174	787
252.237	3570
252.300	8757
252.363	7281
252.426	15093
252.489	5339
252.552	2251
252.615	550
252.678	2781
252.741	5688
252.804	5595
252.867	14404
252.930	9897
252.993	4069
253.056	2917
253.119	1618
253.182	400
253.245	1385
253.308	1763
253.371	254
253.434	1746
253.497	1920
253.559	4292
253.622	2189
253.685	2451
253.748	3644
253.811	1430
253.874	1472
253.937	1483
254.000	659
254.062	1501
254.125	3501
254.188	3108
254.251	2383
254.314	824
254.376	1824
254.439	2646
254.502	2455
254.565	1968
254.628	4188
254.690	2514
254.753	392
254.816	850
254.878	781
254.941	2133
255.004	2647
255.067	412
255.129	478
255.192	436
255.255	-935
255.317	154
255.380	-325
255.443	-338
255.505	-666
255.568	-1328
255.631	-1392
255.693	-524
255.756	-956
255.819	-232
255.881	-715
255.944	-487
256.006	-912
256.069	-508
256.132	-664
256.194	-491
256.257	997
256.319	764
256.382	225
256.444	348
256.507	-255
256.569	-1146
256.632	-939
256.694	-487
256.757	531
256.819	4098
256.882	-386
256.944	840
257.007	696
257.069	497
257.132	-1078
257.194	407
257.257	-815
257.319	-414
257.381	-860
257.444	980
257.506	5275
257.569	6342
257.631	4407
257.693	2629
257.756	0
257.818	458
257.880	-615
257.943	32
258.005	-1753
258.067	-553
258.130	-469
258.192	246
258.254	1537
258.317	-50
258.379	834
258.441	1572
258.503	1516
258.566	2280
258.628	3434
258.690	-513
258.753	987
258.815	1616
258.877	-455
258.939	51
259.001	-63
259.064	-437
259.126	-1234
259.188	-10
259.250	-696
259.312	-857
259.375	1949
259.437	791
259.499	309
259.561	174
259.623	506
259.685	-382
259.747	-46
259.809	2522
259.872	4822
259.934	6801
259.996	5756
260.058	356
260.120	-309
260.182	323
260.244	-474
260.306	-595
260.368	-69
260.430	-1225
260.492	19
260.554	2472
260.616	445
260.678	3488
260.740	4673
260.802	172
260.864	58
260.926	-1060
260.988	511
261.050	-574
261.112	-922
261.174	3917
261.236	3174
261.298	110
261.359	1504
261.421	2745
261.483	-814
261.545	1120
261.607	-1672
261.669	-33
261.731	290
261.793	4128
261.854	-630
261.916	734
261.978	-536
262.040	278
262.102	-543
262.164	786
262.225	212
262.287	524
262.349	-153
262.411	301
262.472	-248
262.534	45
262.596	2308
262.658	381
262.719	-1533
262.781	402
262.843	1176
262.904	1265
262.966	-219
263.028	-200
263.090	3378
263.151	11255
263.213	3043
263.275	87
263.336	-738
263.398	297
263.459	-1201
263.521	-941
263.583	1290
263.644	1146
263.706	-257
263.767	-742
263.829	-112
263.891	-1301
263.952	-1881
264.014	-1178
264.075	-654
264.137	297
264.198	169
264.260	-1043
264.321	-1309
264.383	-213
264.444	1601
264.506	-437
264.567	-1187
264.629	98
264.690	-1757
264.752	-711
264.813	-1082
264.875	-1410
264.936	-817
264.998	-1790
265.059	-812
265.120	-1461
265.182	-1356
265.243	1185
265.305	1171
265.366	-777
265.427	-635
265.489	275
265.550	-2101
265.611	-836
265.673	-1392
265.734	-1045
265.795	-116
265.857	-1209
265.918	-1832
265.979	-724
266.040	2810
266.102	2029
266.163	-244
266.224	-820
266.286	-568
266.347	-973
266.408	-666
266.469	367
266.530	-712
266.592	-378
266.653	-670
266.714	1328
266.775	302
266.836	-347
266.898	-1860
266.959	-362
267.020	-943
267.081	971
267.142	-1256
267.203	-452
267.264	-1609
267.326	517
267.387	-1223
267.448	-1106
267.509	-506
267.570	-1021
267.631	-1599
267.692	-1624
267.753	-408
267.814	-1444
267.875	445
267.936	2101
267.997	-399
268.058	-867
268.119	-1184
268.180	-540
268.241	-1454
268.302	-841
268.363	-1420
268.424	-512
268.485	-1138
268.546	-1052
268.607	-1220
268.668	-696
268.729	-1143
268.790	-986
268.851	-821
268.912	81
268.972	2003
269.033	-329
269.094	-1005
269.155	-696
269.216	-951
269.277	-630
269.338	-709
269.398	-621
269.459	-1665
269.520	-320
269.581	409
269.642	1046
269.702	-540
269.763	-321
269.824	-513
269.885	-187
269.945	936
270.006	-403
270.067	-1481
270.128	-969
270.188	-1321
270.249	-1069
270.310	-1413
270.370	-879
270.431	-1156
270.492	-714
270.553	-1110
270.613	120
270.674	2385
270.734	-757
270.795	-63
270.856	48
270.916	-548
270.977	-170
271.038	-80
271.098	-523
271.159	-191
271.219	130
271.280	-399
271.340	-149
271.401	-974
271.462	1052
271.522	524
271.583	-355
271.643	-554
271.704	-849
271.764	-1051
271.825	1444
271.885	6499
271.946	10181
272.006	1705
272.066	3096
272.127	6699
272.187	1896
272.248	297
272.308	136
272.369	4524
272.429	2580
272.489	297
272.550	1233
272.610	1240
272.671	1167
272.731	442
272.791	1878
272.852	87
272.912	164
272.972	82
273.033	-436
273.093	-408
273.153	723
273.214	-1206
273.274	-269
273.334	2095
273.394	6730
273.455	2070
273.515	2692
273.575	4995
273.635	2450
273.696	2312
273.756	6544
273.816	1779
273.876	772
273.936	1730
273.997	5521
274.057	9
274.117	-385
274.177	802
274.237	8537
274.297	7128
274.358	4760
274.418	4702
274.478	4974
274.538	958
274.598	-308
274.658	3592
274.718	5919
274.778	1481
274.838	452
274.898	1027
274.958	7019
275.018	6944
275.078	4776
275.138	1425
275.198	-271
275.258	-202
275.318	57
275.378	885
275.438	1928
275.498	719
275.558	3291
275.618	8033
275.678	5079
275.738	2321
275.798	1303
275.858	-694
275.918	-507
275.978	-500
276.038	-72
276.098	-849
276.157	219
276.217	4582
276.277	2131
276.337	1066
276.397	242
276.457	-24
276.517	-508
276.576	-258
276.636	-879
276.696	-180
276.756	2221
276.815	1284
276.875	-719
276.935	-395
276.995	603
277.055	-438
277.114	-423
277.174	39
277.234	4293
277.293	901
277.353	679
277.413	-786
277.472	48
277.532	-172
277.592	465
277.651	3189
277.711	5543
277.771	467
277.830	8001
277.890	6464
277.950	4154
278.009	13666
278.069	4556
278.128	3545
278.188	6648
278.248	1786
278.307	6594
278.367	3879
278.426	581
278.486	-314
278.545	-360
278.605	-966
278.664	139
278.724	-167
278.783	2190
278.843	7347
278.902	2398
278.962	-147
279.021	374
279.081	116
279.140	-1
279.199	369
279.259	-322
279.318	27
279.378	717
279.437	2511
279.496	14583
279.556	46638
279.615	32636
279.675	7663
279.734	3414
279.793	5684
279.853	10138
279.912	3971
279.971	1968
280.031	509
280.090	3491
280.149	7192
280.208	4400
280.268	26615
280.327	27578
280.386	4726
280.445	3881
280.505	3273
280.564	895
280.623	-64
280.682	1411
280.742	3573
280.801	-127
280.860	-699
280.919	-446
280.978	-1112
281.037	-425
281.097	-1080
281.156	184
281.215	-1227
281.274	-83
281.333	3975
281.392	4197
281.451	402
281.510	-124
281.569	-1132
281.628	-435
281.688	-954
281.747	-249
281.806	-1503
281.865	-442
281.924	-1177
281.983	-487
282.042	-1078
282.101	-630
282.160	-78
282.219	-784
282.278	-1175
282.337	2361
282.396	1480
282.454	-9
282.513	-4
282.572	3858
282.631	1263
282.690	-29
282.749	-1593
282.808	558
282.867	-319
282.926	170
282.985	-832
283.043	-750
283.102	-1340
283.161	-201
283.220	178
283.279	3771
283.338	276
283.396	-166
283.455	-261
283.514	-15
283.573	1149
283.631	614
283.690	-334
283.749	-211
283.808	437
283.866	2023
283.925	-490
283.984	-4
284.043	127
284.101	530
284.160	-360
284.219	580
284.277	-506
284.336	360
284.395	6356
284.453	6898
284.512	698
284.570	1680
284.629	1533
284.688	1265
284.746	1166
284.805	1526
284.863	2895
284.922	4498
284.981	3857
285.039	6409
285.098	12029
285.156	26554
285.215	56091
285.273	53816
285.332	32072
285.390	17241
285.449	9890
285.507	7268
285.566	3872
285.624	3245
285.683	2160
285.741	1223
285.799	874
285.858	1017
285.916	-273
285.975	372
286.033	-494
286.091	464
286.150	-1054
286.208	-541
286.267	-365
286.325	31
286.383	727
286.442	1418
286.500	-818
286.558	364
286.616	-776
286.675	501
286.733	-162
286.791	17
286.850	-399
286.908	330
286.966	1608
287.024	350
287.083	-133
287.141	-230
287.199	-8
287.257	567
287.315	63
287.374	30
287.432	1548
287.490	1564
287.548	-325
287.606	-434
287.664	-1074
287.723	208
287.781	1093
287.839	-338
287.897	-1098
287.955	-198
288.013	-24
288.071	2122
288.129	12366
288.187	42957
288.245	17145
288.303	4026
288.361	2347
288.419	1461
288.477	752
288.535	-459
288.593	-807
288.651	-837
288.709	-1321
288.767	-842
288.825	-1255
288.883	-489
288.941	-1276
288.999	-1180
289.057	-955
289.115	-1337
289.173	-1980
289.231	-834
289.289	-390
289.346	-253
289.404	-402
289.462	322
289.520	923
289.578	-397
289.636	-1420
289.694	-1063
289.751	-1938
289.809	-771
289.867	-1294
289.925	70
289.983	-290
290.040	-340
290.098	-1412
290.156	-391
290.214	-960
290.271	-526
290.329	-1620
290.387	-890
290.444	-1242
290.502	-862
290.560	-1501
290.617	-1314
290.675	-986
290.733	-1165
290.790	-266
290.848	-934
290.906	-1464
290.963	-177
291.021	-1103
291.078	-1122
291.136	-1087
291.194	635
291.251	3539
291.309	-181
291.366	-304
291.424	-658
291.481	-634
291.539	-1121
291.596	-251
291.654	-821
291.711	-904
291.769	-299
291.826	215
291.884	-141
291.941	-586
291.999	-675
292.056	-766
292.114	467
292.171	-1581
292.228	-930
292.286	-761
292.343	-75
292.401	1068
292.458	565
292.515	-1077
292.573	281
292.630	149
292.687	206
292.745	-789
292.802	-836
292.859	895
292.917	5484
292.974	2689
293.031	505
293.089	-564
293.146	-720
293.203	-987
293.260	-743
293.318	-1131
293.375	-678
293.432	-1620
293.489	-781
293.546	-1150
293.604	-229
293.661	2474
293.718	9775
293.775	3962
293.832	1376
293.889	986
293.947	898
294.004	-116
294.061	624
294.118	1289
294.175	4882
294.232	1429
294.289	1547
294.346	-1004
294.403	-124
294.460	-222
294.517	28
294.574	-813
294.631	-608
294.688	-507
294.745	1279
294.802	9498
294.859	8370
294.916	2261
294.973	1650
295.030	1733
295.087	707
295.144	-751
295.201	481
295.258	-476
295.315	-157
295.372	2659
295.429	8687
295.486	3323
295.542	147
295.599	524
295.656	2504
295.713	2449
295.770	7047
295.827	1603
295.883	1037
295.940	291
295.997	1415
296.054	2132
296.111	210
296.167	188
296.224	-561
296.281	-1321
296.338	-807
296.394	-573
296.451	-59
296.508	1937
296.564	7211
296.621	3680
296.678	8806
296.734	13160
296.791	4265
296.848	2215
296.904	1582
296.961	6254
297.018	10514
297.074	6781
297.131	1879
297.187	318
297.244	1919
297.301	8225
297.357	17454
297.414	7365
297.470	1734
297.527	-159
297.583	-318
297.640	154
297.696	491
297.753	-778
297.809	13
297.866	-1305
297.922	-454
297.979	-457
298.035	-656
298.092	-219
298.148	4663
298.204	4811
298.261	1698
298.317	3277
298.374	10500
298.430	7036
298.486	2569
298.543	930
298.599	1261
298.656	406
298.712	2128
298.768	5867
298.824	3966
298.881	96
298.937	441
298.993	-742
299.050	270
299.106	-360
299.162	-633
299.218	-732
299.275	-590
299.331	-295
299.387	2137
299.443	9511
299.500	13550
299.556	5284
299.612	1348
299.668	968
299.724	1651
299.780	2398
299.837	822
299.893	727
299.949	7907
300.005	12150
300.061	9479
300.117	15714
300.173	8119
300.229	2506
300.285	3109
300.341	4177
300.397	1940
300.453	46
300.510	-129
300.566	2
300.622	420
300.678	4863
300.734	11262
300.790	10091
300.845	11514
300.901	7162
300.957	10658
301.013	8866
301.069	3243
301.125	486
301.181	1280
301.237	668
301.293	15
301.349	-451
301.405	116
301.461	-851
301.516	266
301.572	-320
301.628	2597
301.684	1961
301.740	2149
301.796	6052
301.851	4097
301.907	6482
301.963	8139
302.019	11113
302.074	30132
302.130	33830
302.186	17372
302.242	5192
302.297	3110
302.353	2298
302.409	6307
302.464	5789
302.520	4080
302.576	10839
302.631	14647
302.687	7910
302.743	3232
302.798	1504
302.854	-345
302.910	633
302.965	182
303.021	2251
303.076	3729
303.132	3817
303.187	5384
303.243	2294
303.299	617
303.354	-969
303.410	-612
303.465	-520
303.521	-749
303.576	-294
303.632	788
303.687	1685
303.743	8459
303.798	9316
303.853	3521
303.909	140
303.964	968
304.020	1425
304.075	4200
304.130	3757
304.186	7017
304.241	9306
304.297	6591
304.352	2755
304.358	2521
304.407	621
304.449	804
304.463	868
304.518	767
304.539	733
304.573	664
304.629	688
304.630	701
304.684	1397
304.720	4846
304.739	6577
304.794	12192
304.811	10628
304.850	6830
304.902	2738
304.905	2475
304.960	1008
304.992	567
305.015	253
305.071	339
305.083	225
305.126	-162
305.173	-169
305.181	-171
305.236	-944
305.264	-252
305.292	448
305.347	171
305.354	250
305.402	811
305.445	712
305.457	649
305.512	1148
305.535	1077
305.567	1078
305.622	1318
305.626	1404
305.678	3219
305.716	6544
305.733	7768
305.788	11747
305.807	10299
305.843	7744
305.897	8464
305.898	8462
305.953	10959
305.988	7099
306.008	4991
306.063	2588
306.078	2085
306.118	777
306.168	640
306.173	645
306.228	22
306.259	222
306.283	396
306.338	-195
306.349	-154
306.393	-160
306.440	-294
306.448	-255
306.503	229
306.530	427
306.558	702
306.613	1743
306.620	1985
306.668	4264
306.711	8557
306.723	9253
306.778	8735
306.801	6898
306.833	4695
306.888	1348
306.892	1296
306.943	1140
306.982	870
306.997	832
307.052	383
307.072	252
307.107	-80
307.162	469
307.163	461
307.217	185
307.253	541
307.272	568
307.327	556
307.343	514
307.381	883
307.434	1240
307.436	1292
307.491	3308
307.524	4458
307.546	4792
307.600	8099
307.614	7518
307.655	4709
307.704	1862
307.710	1713
307.765	715
307.795	1125
307.819	1445
307.874	1647
307.885	1730
307.929	1970
307.975	1586
307.984	1541
308.038	2332
308.065	2461
308.093	4407
308.148	10738
308.156	12403
308.202	22363
308.246	30142
308.257	29929
308.312	16930
308.336	12455
308.366	9977
308.421	6964
308.426	6673
308.475	4099
308.517	2245
308.530	1906
308.585	1352
308.607	1209
308.639	1141
308.694	1486
308.697	1508
308.748	1971
308.787	2520
308.803	2596
308.857	1548
308.877	1576
308.912	1988
308.967	2207
308.967	2211
309.021	3843
309.058	5253
309.076	6449
309.130	11650
309.148	13579
309.185	23365
309.238	38981
309.239	39111
309.293	48569
309.328	45820
309.348	39376
309.402	17244
309.418	11963
309.457	8057
309.508	5210
309.511	5165
309.566	6171
309.598	6981
309.620	8953
309.674	15591
309.688	17346
309.729	16050
309.778	11538
309.783	11239
309.837	7320
309.868	5686
309.892	6912
309.946	10892
309.959	12371
310.001	17071
310.049	21371
310.055	20753
310.109	12543
310.139	7455
310.163	5498
310.218	2984
310.229	2495
310.272	2079
310.319	2293
310.326	2195
310.381	1155
310.409	839
310.435	899
310.489	752
310.499	733
310.543	613
310.589	603
310.598	656
310.652	977
310.679	1054
310.706	977
310.760	901
310.769	906
310.814	1254
310.859	1434
310.868	1355
310.923	939
310.948	609
310.977	826
311.031	1639
311.038	1720
311.085	1467
311.128	1146
311.139	1213
311.193	1702
311.218	1776
311.247	1641
311.301	1666
311.308	1648
311.356	1508
311.398	1365
311.410	1347
311.464	1167
311.488	1104
311.518	966
311.572	719
311.578	689
311.626	1902
311.668	2973
311.680	2832
311.734	2057
311.758	1694
311.788	1597
311.842	1498
311.847	1479
311.896	1910
311.937	2288
311.950	2180
312.004	1660
312.027	1444
312.058	1379
312.112	1240
312.117	1227
312.165	974
312.207	763
312.297	762
312.386	1510
312.476	1897
312.566	3818
312.656	2433
312.745	625
312.835	1270
312.925	1522
313.015	992
313.104	1183
313.194	932
313.284	780
313.374	2754
313.463	2456
313.553	1362
313.643	1354
313.732	1039
313.822	682
313.912	1584
314.001	1622
314.091	892
314.180	914
314.270	2442
314.360	1857
314.449	1804
314.539	92
314.628	1271
314.718	934
314.808	1030
314.897	2073
314.987	2297
315.076	2145
315.166	1872
315.255	1432
315.345	2251
315.434	1028
315.524	2222
315.613	1696
315.703	2473
315.792	3974
315.881	7010
315.971	2849
316.060	4158
316.150	3136
316.239	2454
316.328	1167
316.418	1304
316.507	1232
316.597	2268
316.686	1754
316.775	1062
316.865	1958
316.954	995
317.043	741
317.133	1437
317.222	733
317.311	1780
317.400	60
317.490	3050
317.579	2133
317.668	1199
317.757	2908
317.847	5476
317.936	12638
318.025	7478
318.114	3858
318.203	2883
318.293	3749
318.382	6742
318.471	6230
318.560	5125
318.649	3372
318.738	2496
318.828	2296
318.917	1675
319.006	1553
319.095	3383
319.184	8396
319.273	8825
319.362	6649
319.451	1861
319.540	1735
319.629	4677
319.718	9076
319.807	2487
319.896	3827
319.985	10562
320.074	5880
320.163	1561
320.252	1975
320.341	1902
320.430	1289
320.519	3784
320.608	1614
320.697	1626
320.786	1329
320.875	2575
320.964	3287
321.053	5799
321.142	7193
321.230	8798
321.319	5512
321.408	13507
321.497	5934
321.586	5424
321.675	3569
321.764	4398
321.852	2680
321.941	8270
322.030	5351
322.119	4660
322.207	13745
322.296	5200
322.385	2676
322.474	5271
322.562	16608
322.651	8163
322.740	5803
322.829	7767
322.917	3647
323.006	3804
323.095	3622
323.183	1947
323.272	2173
323.361	4450
323.449	7832
323.538	3586
323.626	6390
323.715	3664
323.804	1890
323.892	5181
323.981	5329
324.069	1888
324.158	2541
324.246	2371
324.335	3566
324.424	5338
324.512	1420
324.601	2777
324.689	2324
324.778	4613
324.866	3662
324.954	1441
325.043	1439
325.131	1672
325.220	1969
325.308	1982
325.397	2041
325.485	2261
325.574	1082
325.662	1446
325.750	1364
325.839	1301
325.927	1935
326.015	2370
326.104	796
326.192	1542
326.280	1456
326.369	1141
326.457	2827
326.545	5163
326.634	1548
326.722	1247
326.810	463
326.898	1693
326.987	1344
327.075	3458
327.163	3088
327.251	1445
327.340	1791
327.428	1988
327.516	1284
327.604	1757
327.692	2127
327.781	865
327.869	797
327.957	1754
328.045	389
328.133	2021
328.221	530
328.309	1511
328.397	1709
328.485	2381
328.574	2493
328.662	9464
328.750	4172
328.838	991
328.926	1537
329.014	1209
329.102	1901
329.190	3153
329.278	2759
329.366	1292
329.454	713
329.542	1160
329.630	1453
329.718	1509
329.806	956
329.893	2311
329.981	698
330.069	1480
330.157	2190
330.245	8908
330.333	5060
330.421	1905
330.509	2682
330.597	11207
330.684	6415
330.772	1854
330.860	725
330.948	1191
331.036	644
331.123	1174
331.211	582
331.299	1325
331.387	1040
331.475	3093
331.562	893
331.650	976
331.738	762
331.825	1500
331.913	457
332.001	1444
332.089	1863
332.176	1686
332.264	2194
332.352	1985
332.439	1186
332.527	1291
332.614	962
332.702	856
332.790	1402
332.877	1292
332.965	2634
333.052	1311
333.140	1737
333.228	5373
333.315	1120
333.403	997
333.490	1686
333.578	2054
333.665	7465
333.753	3797
333.840	1515
333.928	1566
334.015	1771
334.103	3041
334.190	6320
334.278	2892
334.365	3118
334.452	2585
334.540	681
334.627	734
334.715	1211
334.802	1940
334.889	6076
334.977	10051
335.064	4837
335.151	2209
335.239	1689
335.326	1426
335.413	4069
335.501	4884
335.588	1520
335.675	1707
335.762	1277
335.850	2075
335.937	2338
336.024	4448
336.111	10704
336.199	11143
336.286	3499
336.373	2115
336.460	277
336.547	1024
336.635	2102
336.722	929
336.809	722
336.896	1882
336.983	3575
337.070	7387
337.157	7406
337.245	3871
337.332	2388
337.419	819
337.506	350
337.593	1096
337.680	1353
337.767	4063
337.854	2343
337.941	2847
338.028	2411
338.115	499
338.202	1561
338.289	1245
338.376	4402
338.463	2359
338.550	2131
338.637	2410
338.724	1744
338.811	1556
338.898	710
338.984	1235
339.071	-86
339.158	1500
339.245	4397
339.332	3353
339.419	1627
339.506	1980
339.593	674
339.679	2017
339.766	959
339.853	2128
339.940	3982
340.027	2644
340.113	1530
340.200	1800
340.287	1103
340.374	1398
340.460	4196
340.547	1740
340.634	2765
340.720	11349
340.807	5620
340.894	1641
340.980	918
341.067	784
341.154	1736
341.240	2089
341.327	5347
341.414	2517
341.500	1485
341.587	2304
341.674	1369
341.760	4182
341.847	4817
341.933	2307
342.020	872
342.106	958
342.193	1151
342.279	3670
342.366	2264
342.452	4121
342.539	1959
342.625	5103
342.712	12502
342.798	6252
342.885	1855
342.971	1190
343.058	809
343.144	1173
343.230	1353
343.317	981
343.403	864
343.490	1183
343.576	4
343.662	959
343.749	3
343.835	2248
343.921	3006
344.008	20215
344.094	45220
344.180	11324
344.267	4228
344.353	12180
344.439	12487
344.525	5549
344.612	2853
344.698	1159
344.784	468
344.870	976
344.957	907
345.043	3180
345.129	1331
345.215	4402
345.301	2667
345.387	1928
345.474	531
345.560	805
345.646	752
345.732	2038
345.818	1073
345.904	1380
345.990	1074
346.076	1348
346.162	859
346.249	2128
346.335	1177
346.421	1615
346.507	4499
346.593	18886
346.679	4219
346.765	1703
346.851	1412
346.937	1288
347.023	2115
347.108	1007
347.194	861
347.280	1389
347.366	1525
347.452	6088
347.538	21790
347.624	18099
347.710	14028
347.796	2146
347.882	420
347.967	1337
348.053	899
348.139	998
348.225	655
348.311	1510
348.397	1137
348.482	2327
348.568	2578
348.654	268
348.740	1724
348.825	1461
348.911	3228
348.997	9115
349.083	20509
349.168	3310
349.254	1832
349.340	1711
349.425	729
349.511	1852
349.597	1462
349.682	4276
349.768	14895
349.854	6783
349.939	1345
350.025	1556
350.110	664
350.196	1637
350.282	585
350.367	1650
350.453	1022
350.538	713
350.624	775
350.709	1641
350.795	206
350.880	931
350.966	2510
351.051	2236
351.137	1301
351.222	2022
351.308	4959
351.393	14082
351.479	3389
351.564	1421
351.649	1479
351.735	2001
351.820	1107
351.906	1761
351.991	1691
352.076	8042
352.162	13661
352.247	3510
352.332	1835
352.418	3466
352.503	4541
352.588	19671
352.673	16219
352.759	3390
352.844	871
352.929	2692
353.014	2180
353.100	3044
353.185	4101
353.270	5369
353.355	5543
353.441	2508
353.526	1875
353.611	3944
353.696	4490
353.781	3488
353.866	1590
353.952	2789
354.037	4418
354.122	9617
354.207	8203
354.292	3665
354.377	1825
354.462	1688
354.547	2139
354.632	3013
354.717	2096
354.802	4611
354.887	2020
354.972	2069
355.057	1383
355.142	289
355.227	1659
355.312	2715
355.397	5528
355.482	14473
355.567	6648
355.652	4673
355.737	5240
355.822	16047
355.907	12770
355.991	2535
356.076	1754
356.161	2633
356.246	2020
356.331	2677
356.416	2506
356.501	24168
356.585	25002
356.670	3722
356.755	4081
356.840	4383
356.924	16028
357.009	58573
357.094	22904
357.179	5272
357.263	3655
357.348	4392
357.433	2953
357.517	3929
357.602	1985
357.687	1281
357.771	3679
357.856	7669
357.941	5855
358.025	12621
358.110	52989
358.195	26563
358.279	3705
358.364	4188
358.448	10447
358.533	32274
358.617	22931
358.702	23185
358.787	8668
358.871	5318
358.956	3831
359.040	1238
359.125	480
359.209	1374
359.294	3957
359.378	6600
359.462	4345
359.547	2916
359.631	198
359.716	450
359.800	326
359.885	2564
359.969	714
360.053	1764
360.138	1424
360.222	2005
360.306	4474
360.391	3229
360.475	5163
360.559	11798
360.644	10786
360.728	8007
360.812	12470
360.896	36330
360.981	13944
361.065	7317
361.149	2733
361.233	2802
361.318	905
361.402	2493
361.486	2340
361.570	945
361.654	1560
361.739	4570
361.823	20886
361.907	36954
361.991	5720
362.075	3929
362.159	7214
362.243	7151
362.327	4838
362.411	11660
362.495	4055
362.580	1882
362.664	1318
362.748	1158
362.832	1765
362.916	1241
363.000	12511
363.084	39504
363.168	44732
363.252	10414
363.336	2794
363.420	4122
363.503	6713
363.587	6988
363.671	2201
363.755	2120
363.839	3852
363.923	1903
364.007	3576
364.091	4119
364.175	1557
364.258	11328
364.342	11932
364.426	34390
364.510	18948
364.594	6893
364.677	6091
364.761	29775
364.845	22391
364.929	8437
365.013	6553
365.096	4169
365.180	5352
365.264	3016
365.347	9295
365.431	5160
365.515	1217
365.598	1425
365.682	2546
365.766	1010
365.849	1296
365.933	953
366.017	2512
366.100	816
366.184	339
366.267	1289
366.351	1406
366.435	465
366.518	719
366.602	833
366.685	1206
366.769	1278
366.852	2222
366.936	3542
367.019	2567
367.103	981
367.186	2290
367.270	744
367.353	-19
367.436	1506
367.520	434
367.603	1867
367.687	2039
367.770	5167
367.853	3484
367.937	10358
368.020	17122
368.104	2987
368.187	3210
368.270	6936
368.353	5462
368.437	4005
368.520	3837
368.603	5273
368.687	10235
368.770	23138
368.853	5137
368.936	4477
369.020	3506
369.103	1525
369.186	640
369.269	718
369.352	3994
369.436	4038
369.519	2715
369.602	483
369.685	2777
369.768	1375
369.851	1209
369.934	537
370.018	1524
370.101	3724
370.184	4491
370.267	2609
370.350	3625
370.433	5983
370.516	16338
370.599	20925
370.682	4662
370.765	14176
370.848	15644
370.931	26884
371.014	9791
371.097	984
371.180	2109
371.263	2024
371.346	-57
371.429	1931
371.511	1229
371.594	2714
371.677	3474
371.760	3636
371.843	3945
371.926	20261
372.009	49698
372.091	18921
372.174	10153
372.257	25582
372.340	9651
372.423	4352
372.505	5061
372.588	3086
372.671	8383
372.754	26180
372.836	12959
372.919	4780
373.002	5829
373.085	3307
373.167	4699
373.250	10920
373.332	25109
373.415	31027
373.498	61177
373.580	23639
373.663	29073
373.746	41849
373.828	8948
373.911	3948
373.993	2900
374.076	5472
374.159	4044
374.241	6187
374.324	22937
374.406	15813
374.489	17219
374.571	54353
374.654	22685
374.736	8897
374.819	31503
374.901	45420
374.983	47745
375.066	9153
375.148	3184
375.231	4354
375.313	8921
375.395	4210
375.478	1078
375.560	1762
375.643	2235
375.725	8849
375.807	37645
375.890	25550
375.972	4478
376.054	4895
376.136	3107
376.219	2445
376.301	9480
376.383	35044
376.465	13380
376.548	7612
376.630	9158
376.712	31013
376.794	13686
376.877	2134
376.959	-66
377.041	2067
377.123	1362
377.205	1220
377.287	1012
377.369	1035
377.452	179
377.534	1081
377.616	989
377.698	997
377.780	-13
377.862	1622
377.944	2197
378.026	31
378.108	1023
378.190	1087
378.272	981
378.354	626
378.436	718
378.518	861
378.600	3392
378.682	5112
378.764	16497
378.846	13831
378.928	2952
379.010	5316
379.091	3395
379.173	1041
379.255	651
379.337	899
379.419	6538
379.501	24170
379.583	8394
379.664	2743
379.746	4564
379.828	17394
379.910	23071
379.991	21100
380.073	2980
380.155	1929
380.237	1075
380.318	1140
380.400	848
380.482	3422
380.564	4656
380.645	5277
380.727	4312
380.809	3633
380.890	2040
380.972	1043
381.053	1457
381.135	2164
381.217	4949
381.298	18779
381.380	8271
381.461	6417
381.543	26938
381.624	35500
381.706	6250
381.787	3604
381.869	3998
381.951	12384
382.032	46685
382.113	33102
382.195	5315
382.276	5777
382.358	9500
382.439	28035
382.521	28502
382.602	46513
382.684	19515
382.765	35353
382.846	35354
382.928	56472
383.009	30150
383.090	14940
383.172	62311
383.253	111154
383.334	36129
383.416	40409
383.497	20813
383.578	6604
383.659	11508
383.741	46284
383.822	147727
383.903	76980
383.984	26443
384.066	51640
384.147	31928
384.228	7564
384.309	5091
384.390	4031
384.471	2524
384.553	2759
384.634	3571
384.715	4257
384.796	2219
384.877	2426
384.958	14853
385.039	19288
385.120	6459
385.201	3492
385.282	3335
385.363	2609
385.444	2755
385.525	5415
385.606	20477
385.687	18694
385.768	3271
385.849	4177
385.930	22700
386.011	42253
386.092	10469
386.173	2529
386.254	1770
386.335	2266
386.416	1960
386.496	8953
386.577	17938
386.658	5243
386.739	1472
386.820	2013
386.901	1027
386.981	2595
387.062	1545
387.143	3138
387.224	16509
387.304	16772
387.385	5770
387.466	2093
387.547	2926
387.627	2950
387.708	6206
387.789	28770
387.869	35172
387.950	10185
388.031	1327
388.111	83
388.192	2285
388.273	3255
388.353	2270
388.434	2361
388.514	4043
388.595	25329
388.676	34944
388.756	17771
388.837	15820
388.917	10381
388.998	308
389.078	2251
389.159	1506
389.239	774
389.320	3854
389.400	780
389.480	4897
389.561	17458
389.641	8942
389.722	3575
389.802	5137
389.883	6355
389.963	20812
390.043	10904
390.124	1407
390.204	5660
390.284	19072
390.365	10887
390.445	4789
390.525	12746
390.605	16671
390.686	9305
390.766	4085
390.846	2735
390.927	31
391.007	1114
391.087	1689
391.167	1692
391.247	-345
391.328	1708
391.408	2318
391.488	1336
391.568	-551
391.648	1633
391.728	4403
391.808	3607
391.888	2534
391.969	8996
392.049	15542
392.129	6552
392.209	5065
392.289	20656
392.369	9556
392.449	3384
392.529	1839
392.609	4230
392.689	4904
392.769	18465
392.849	15932
392.929	8593
393.009	21995
393.089	18685
393.169	13386
393.248	41173
393.328	166987
393.408	186069
393.488	48369
393.568	14452
393.648	6097
393.728	4589
393.807	2929
393.887	3598
393.967	1823
394.047	3268
394.127	2418
394.206	3901
394.286	8921
394.366	56696
394.446	63806
394.525	11924
394.605	2056
394.685	2353
394.764	4086
394.844	6135
394.924	4859
395.003	2620
395.083	1980
395.163	2163
395.242	1308
395.322	2953
395.402	-674
395.481	1830
395.561	1381
395.640	8869
395.720	11340
395.799	7477
395.879	4138
395.958	2616
396.038	12863
396.117	72504
396.197	82081
396.276	18491
396.356	4026
396.435	4615
396.515	3916
396.594	5823
396.673	11562
396.753	45120
396.832	152249
396.912	119962
396.991	28816
397.070	7711
397.150	3583
397.229	4002
397.308	5312
397.388	9597
397.467	4476
397.546	2368
397.625	-877
397.705	3380
397.784	2858
397.863	620
397.942	1217
398.022	628
398.101	606
398.180	4742
398.259	2605
398.338	1835
398.417	991
398.497	386
398.576	1170
398.655	406
398.734	716
398.813	-12
398.892	653
398.971	5184
399.050	1355
399.129	-618
399.208	582
399.287	1168
399.366	-624
399.445	302
399.524	468
399.603	-645
399.682	1457
399.761	4420
399.840	7290
399.919	5043
399.998	499
400.077	189
400.156	-1407
400.235	2653
400.313	-231
400.392	175
400.471	8918
400.550	15678
400.629	2545
400.708	1402
400.786	-325
400.865	429
400.944	-202
401.023	2603
401.102	420
401.180	884
401.259	558
401.338	-171
401.416	831
401.495	-194
401.574	11
401.652	344
401.731	1153
401.810	-399
401.888	518
401.967	330
402.046	52
402.124	2018
402.203	299
402.281	587
402.360	444
402.438	2088
402.517	-275
402.596	156
402.674	-334
402.753	-248
402.831	1113
402.910	1816
402.988	5243
403.066	23205
403.145	15197
403.223	7332
403.302	19710
403.380	16783
403.459	17175
403.537	6054
403.615	750
403.694	-487
403.772	1063
403.850	1082
403.929	153
404.007	67
404.085	2540
404.164	2487
404.242	624
404.320	846
404.398	1940
404.477	5871
404.555	36047
404.633	32302
404.711	4439
404.789	1204
404.868	477
404.946	-129
405.024	251
405.102	-30
405.180	-441
405.258	-1022
405.336	661
405.415	-464
405.493	945
405.571	2682
405.649	-1042
405.727	-1002
405.805	1252
405.883	1180
405.961	1131
406.039	-66
406.117	-1003
406.195	1637
406.273	7177
406.351	32476
406.429	18590
406.507	1983
406.585	53
406.663	1190
406.740	1455
406.818	-71
406.896	-46
406.974	1437
407.052	713
407.130	17347
407.208	27881
407.285	5227
407.363	-656
407.441	701
407.519	-458
407.596	352
407.674	1857
407.752	2094
407.830	2197
407.907	1090
407.985	-153
408.063	515
408.141	-395
408.218	682
408.296	-639
408.373	954
408.451	1032
408.529	1086
408.606	-60
408.684	378
408.762	18
408.839	809
408.917	-338
408.994	-396
409.072	-689
409.149	-14
409.227	1245
409.304	1702
409.382	1050
409.459	1764
409.537	3253
409.614	1721
409.692	265
409.769	1490
409.846	1867
409.924	4099
410.001	1194
410.079	1633
410.156	1196
410.233	415
410.311	-304
410.388	236
410.465	912
410.543	215
410.620	806
410.697	796
410.775	664
410.852	-452
410.929	1045
411.006	2109
411.083	-190
411.161	1655
411.238	1087
411.315	795
411.392	-437
411.469	1199
411.547	1118
411.624	-1324
411.701	-542
411.778	-12
411.855	1819
411.932	319
412.009	-761
412.086	1326
412.163	173
412.240	515
412.317	738
412.394	184
412.471	-51
412.548	-536
412.625	-167
412.702	-365
412.779	1360
412.856	1244
412.933	-176
413.010	-239
413.087	986
413.164	7690
413.241	11983
413.318	2133
413.395	1001
413.471	2056
413.548	495
413.625	1233
413.702	-291
413.779	285
413.855	-648
413.932	82
414.009	-874
414.086	-203
414.162	78
414.239	82
414.316	6645
414.393	19786
414.469	5692
414.546	59
414.623	-209
414.699	453
414.776	508
414.853	90
414.929	72
415.006	479
415.082	49
415.159	243
415.236	44
415.312	948
415.389	1255
415.465	1484
415.542	607
415.618	491
415.695	975
415.771	249
415.848	372
415.924	106
416.000	-624
416.077	1168
416.153	-1434
416.230	-1028
416.306	-621
416.383	-961
416.459	211
416.535	-439
416.612	-701
416.688	-601
416.764	-269
416.841	-703
416.917	-915
416.993	1013
417.069	492
417.146	390
417.222	399
417.298	362
417.374	-287
417.451	544
417.527	-449
417.603	937
417.679	-199
417.755	278
417.831	-782
417.908	34
417.984	-755
418.060	-467
418.136	1851
418.212	2072
418.288	260
418.364	-228
418.440	-520
418.516	1170
418.592	28
418.668	2440
418.744	4979
418.820	3625
418.896	174
418.972	-1254
419.048	-107
419.124	2859
419.200	825
419.276	226
419.352	-923
419.428	379
419.504	-363
419.579	859
419.655	-243
419.731	649
419.807	4035
419.883	5479
419.959	4171
420.034	607
420.110	1726
420.186	11284
420.262	9264
420.337	1516
420.413	357
420.489	97
420.565	526
420.640	7
420.716	748
420.792	-511
420.867	1103
420.943	-301
421.019	1404
421.094	894
421.170	17
421.245	550
421.321	376
421.397	240
421.472	684
421.548	1204
421.623	2268
421.699	1612
421.774	1671
421.850	1125
421.925	2309
422.001	2478
422.076	1589
422.152	2345
422.227	3954
422.302	6450
422.378	8019
422.453	15997
422.529	36544
422.604	95053
422.679	142349
422.755	106549
422.830	44696
422.905	18954
422.981	9550
423.056	6363
423.131	4402
423.207	3722
423.282	2492
423.357	5054
423.432	3317
423.508	3573
423.583	6359
423.658	5407
423.733	340
423.808	1914
423.883	1466
423.959	571
424.034	948
424.109	2009
424.184	34
424.259	200
424.334	450
424.409	-517
424.484	359
424.559	185
424.634	89
424.709	1125
424.784	1158
424.859	1372
424.934	1019
425.009	8252
425.084	13897
425.159	4535
425.234	323
425.309	-388
425.384	1623
425.459	2465
425.534	431
425.609	-129
425.683	-582
425.758	-45
425.833	-191
425.908	1012
425.983	3559
426.058	14335
426.132	5223
426.207	-233
426.282	470
426.357	-898
426.431	-675
426.506	967
426.581	-1348
426.655	246
426.730	-171
426.805	-100
426.879	-237
426.954	229
427.029	846
427.103	12632
427.178	30675
427.253	13210
427.327	541
427.402	-548
427.476	1678
427.551	564
427.625	-648
427.700	600
427.774	-1191
427.849	82
427.923	-1107
427.998	-517
428.072	-978
428.147	1593
428.221	7912
428.296	28475
428.370	13916
428.444	996
428.519	-439
428.593	-48
428.667	-60
428.742	347
428.816	986
428.890	13878
428.965	26719
429.039	7097
429.113	838
429.188	-491
429.262	-442
429.336	1736
429.410	7507
429.485	4008
429.559	395
429.633	-226
429.707	-86
429.781	1234
429.855	12525
429.930	27321
430.004	7643
430.078	4148
430.152	6722
430.226	33202
430.300	36620
430.374	4796
430.448	1186
430.522	464
430.596	4222
430.670	5039
430.744	30146
430.818	48824
430.892	9247
430.966	228
431.040	374
431.114	-698
431.188	-599
431.262	-601
431.336	-1512
431.410	219
431.484	1473
431.557	2251
431.631	-807
431.705	135
431.779	3279
431.853	24143
431.927	17410
432.000	1444
432.074	-328
432.148	-66
432.222	-738
432.295	-369
432.369	-398
432.443	844
432.516	9270
432.590	30302
432.664	10808
432.737	1189
432.811	-591
432.885	-1067
432.958	-422
433.032	-754
433.106	-700
433.179	-297
433.253	-742
433.326	-704
433.400	-562
433.473	-370
433.547	-1043
433.620	-31
433.694	365
433.767	1038
433.841	-1260
433.914	103
433.988	-1246
434.061	250
434.134	-1011
434.208	-1162
434.281	-1346
434.355	-557
434.428	-321
434.501	-731
434.575	-1271
434.648	-1137
434.721	-1335
434.795	-921
434.868	-1042
434.941	-948
435.014	-1833
435.088	-992
435.161	443
435.234	1103
435.307	919
435.381	933
435.454	-135
435.527	1478
435.600	846
435.673	184
435.746	-412
435.819	60
435.892	-328
435.966	-1038
436.039	-641
436.112	-385
436.185	-894
436.258	-666
436.331	-1828
436.404	-526
436.477	-1315
436.550	-825
436.623	-692
436.696	-366
436.769	-587
436.842	370
436.915	-715
436.987	228
437.060	-688
437.133	-1101
437.206	-1505
437.279	-337
437.352	-890
437.425	-296
437.498	144
437.570	2138
437.643	1189
437.716	249
437.789	-614
437.861	581
437.934	2629
438.007	728
438.080	-705
438.152	-447
438.225	700
438.298	13993
438.370	42798
438.443	19222
438.516	3101
438.588	1019
438.661	-1136
438.734	-34
438.806	-795
438.879	-459
438.951	-245
439.024	1235
439.096	-189
439.169	-1062
439.241	-1153
439.314	-1345
439.386	-936
439.459	-546
439.531	-14
439.604	-972
439.676	-116
439.749	-1042
439.821	-1030
439.893	-46
439.966	-905
440.038	416
440.110	-390
440.183	-411
440.255	-1730
440.327	593
440.400	3724
440.472	25613
440.544	18953
440.617	2658
440.689	1472
440.761	1133
440.833	2290
440.905	1898
440.978	-978
441.050	-551
441.122	-429
441.194	-484
441.266	-610
441.338	-456
441.411	-84
441.483	10018
441.555	15453
441.627	2136
441.699	-150
441.771	-128
441.843	-600
441.915	-991
441.987	-677
442.059	-577
442.131	-172
442.203	786
442.275	-145
442.347	482
442.419	756
442.491	12296
442.563	36395
442.635	16813
442.706	4173
442.778	4460
442.850	405
442.922	-235
442.994	-218
443.066	716
443.137	273
443.209	-108
443.281	500
443.353	2951
443.425	13240
443.496	59423
443.568	65281
443.640	26481
443.711	3475
443.783	955
443.855	-280
443.926	-12
443.998	-1068
444.070	437
444.141	-645
444.213	881
444.285	1753
444.356	1125
444.428	664
444.499	-750
444.571	-966
444.642	-211
444.714	-330
444.785	1330
444.857	140
444.928	-152
445.000	320
445.071	645
445.143	1078
445.214	1421
445.285	1734
445.357	5858
445.428	31865
445.500	86383
445.571	58737
445.642	35983
445.714	9877
445.785	3217
445.856	1638
445.928	2500
445.999	1619
446.070	553
446.141	1305
446.213	2753
446.284	480
446.355	-310
446.426	-819
446.497	-218
446.569	-744
446.640	485
446.711	1812
446.782	-113
446.853	-539
446.924	26
446.995	0
447.066	79
447.138	-153
447.209	6
447.280	-1846
447.351	-1282
447.422	-677
447.493	-903
447.564	-336
447.635	1201
447.706	119
447.777	-368
447.847	-729
447.918	-983
447.989	-890
448.060	-706
448.131	-1026
448.202	820
448.273	2154
448.344	1121
448.414	-210
448.485	-560
448.556	-581
448.627	-40
448.698	-51
448.768	-270
448.839	-1209
448.910	-585
448.981	177
449.051	361
449.122	-578
449.193	-896
449.263	-816
449.334	-590
449.405	92
449.475	2064
449.546	1392
449.616	93
449.687	-269
449.758	-292
449.828	-1060
449.899	-1577
449.969	-778
450.040	-240
450.110	-592
450.181	-670
450.251	-659
450.322	-43
450.392	245
450.463	-810
450.533	-1465
450.604	-106
450.674	-565
450.744	-299
450.815	-651
450.885	-610
450.955	-454
451.026	-750
451.096	-1342
451.166	-823
451.237	-961
451.307	1178
451.377	-515
451.447	-1208
451.518	-410
451.588	-802
451.658	-1083
451.728	-978
451.799	-123
451.869	909
451.939	-715
452.009	-671
452.079	-606
452.149	-735
452.219	-1027
452.289	1158
452.360	-265
452.430	-683
452.500	-807
452.570	615
452.640	1526
452.710	4341
452.780	4873
452.850	5276
452.920	5700
452.990	2141
453.060	640
453.129	823
453.199	337
453.269	1424
453.339	3030
453.409	4666
453.479	4125
453.549	6800
453.619	4987
453.688	2664
453.758	234
453.828	-186
453.898	-654
453.968	-162
454.037	-377
454.087	-279
454.107	-241
454.168	-1077
454.177	-1209
454.247	-58
454.249	-89
454.316	-1075
454.330	-1081
454.386	-1139
454.411	-1029
454.456	-932
454.492	-66
454.525	700
454.574	220
454.595	11
454.655	-857
454.665	-1006
454.734	-486
454.736	-476
454.804	-683
454.817	-391
454.873	786
454.898	879
454.943	972
454.979	209
455.013	-465
455.060	-82
455.082	109
455.141	-687
455.152	-866
455.221	755
455.222	772
455.291	1032
455.303	843
455.360	4
455.384	-165
455.430	-482
455.465	-119
455.499	186
455.546	302
455.569	314
455.627	986
455.638	1132
455.707	-287
455.708	-274
455.777	-43
455.789	-166
455.846	-626
455.869	-624
455.916	-672
455.950	-843
455.985	-996
456.031	-738
456.054	-680
456.112	-348
456.124	-249
456.193	-143
456.193	-152
456.262	-406
456.274	-277
456.332	342
456.355	215
456.401	-65
456.436	237
456.470	410
456.516	-501
456.540	-901
456.597	-382
456.609	-292
456.678	-589
456.678	-598
456.747	-702
456.759	-555
456.817	197
456.840	140
456.886	-64
456.920	39
456.955	116
457.001	302
457.024	448
457.082	-3
457.093	-94
457.162	599
457.163	608
457.232	-354
457.243	-320
457.301	14
457.324	-192
457.370	-728
457.405	-120
457.439	620
457.485	481
457.508	381
457.566	1064
457.577	1232
457.646	610
457.647	627
457.715	2342
457.727	2671
457.784	4964
457.808	6577
457.853	8237
457.889	9569
457.922	9658
457.969	6114
457.991	5961
458.050	7200
458.060	7492
458.129	14232
458.130	14435
458.198	14300
458.211	12587
458.267	7018
458.292	4523
458.336	2026
458.372	2108
458.405	3246
458.453	5069
458.474	6813
458.533	13932
458.543	14437
458.611	23690
458.614	23837
458.680	15168
458.694	11588
458.749	4789
458.775	3512
458.818	1717
458.855	1204
458.887	985
458.936	621
458.955	431
459.016	284
459.024	321
459.093	826
459.097	848
459.162	746
459.177	815
459.230	1392
459.257	1725
459.299	1958
459.338	1942
459.368	1814
459.418	1334
459.437	1248
459.499	1467
459.505	1472
459.574	1079
459.579	1089
459.643	1197
459.659	1199
459.711	1369
459.740	1380
459.780	1061
459.820	948
459.849	1000
459.900	1062
459.917	1102
459.981	714
459.986	668
460.054	947
460.061	985
460.123	1702
460.141	1667
460.191	1905
460.222	2545
460.260	2912
460.302	3117
460.328	2948
460.382	2037
460.397	1803
460.462	1157
460.465	1178
460.534	1820
460.543	1880
460.602	2821
460.623	3240
460.671	5020
460.703	6911
460.739	6487
460.783	5284
460.808	4859
460.864	2671
460.876	2443
460.944	1446
460.945	1441
461.013	1767
461.024	1786
461.081	1542
461.104	1730
461.150	1687
461.184	1510
461.218	1680
461.264	1447
461.286	1295
461.345	1244
461.355	1247
461.423	1805
461.425	1790
461.491	522
461.505	540
461.559	1301
461.585	1502
461.628	2137
461.665	2743
461.696	3064
461.745	3317
461.764	3060
461.825	2183
461.832	2149
461.901	1565
461.905	1570
461.969	1092
461.985	916
462.037	1711
462.065	2145
462.105	1522
462.145	1051
462.173	1479
462.225	1689
462.241	1674
462.305	2351
462.310	2352
462.378	2179
462.385	2126
462.446	1878
462.465	1871
462.514	1741
462.545	1732
462.582	2003
462.625	1844
462.650	1456
462.705	1355
462.718	1516
462.785	1531
462.786	1531
462.854	1885
462.865	1941
462.922	2004
462.945	1963
462.990	1678
463.025	1694
463.058	1783
463.104	1429
463.126	1255
463.184	1167
463.194	1337
463.262	2421
463.264	2469
463.330	2267
463.344	2078
463.398	2216
463.424	2398
463.466	1869
463.504	1511
463.533	1772
463.583	1862
463.601	1871
463.663	1997
463.669	1996
463.737	2269
463.743	2265
463.805	3058
463.823	3353
463.873	2877
463.903	2625
463.940	3131
463.982	3443
464.008	3041
464.062	2410
464.076	2407
464.142	2243
464.144	2252
464.211	2176
464.221	2218
464.279	1985
464.301	1846
464.347	2113
464.381	2373
464.414	2170
464.461	1947
464.482	2038
464.540	2065
464.550	2139
464.617	2656
464.620	2674
464.685	3079
464.699	3177
464.753	3368
464.779	3401
464.820	2871
464.859	2414
464.888	2205
464.938	1708
464.956	2048
465.018	3379
465.023	3352
465.091	2748
465.098	2705
465.158	3104
465.177	3224
465.226	2680
465.257	2284
465.293	2803
465.336	3412
465.361	3713
465.416	4418
465.428	4421
465.495	4504
465.496	4508
465.563	4081
465.575	3996
465.631	4801
465.654	5280
465.698	4119
465.734	2905
465.765	2817
465.813	2724
465.833	2643
465.893	2469
465.900	2480
465.968	2547
465.972	2550
466.035	2574
466.052	2542
466.102	2828
466.131	3024
466.170	2882
466.210	2687
466.237	2809
466.290	3074
466.304	3037
466.369	2840
466.372	2854
466.439	3130
466.449	3145
466.506	3092
466.528	3096
466.573	3563
466.607	3892
466.641	5032
466.687	6623
466.708	7198
466.766	8769
466.775	8333
466.842	4949
466.845	4779
466.909	3793
466.925	3550
466.977	3667
467.004	3747
467.044	4321
467.083	4887
467.111	4593
467.163	4012
467.178	4193
467.242	4913
467.245	4900
467.312	4493
467.321	4435
467.379	4247
467.400	4164
467.446	3770
467.480	3477
467.559	3403
467.638	3698
467.717	3544
467.796	4708
467.875	5554
467.955	3387
468.034	4234
468.113	6470
468.192	8494
468.271	4624
468.350	4114
468.429	6497
468.508	7866
468.588	4733
468.667	3965
468.746	4067
468.825	3417
468.904	3630
468.983	4000
469.062	4340
469.141	5581
469.220	2791
469.299	3236
469.378	2871
469.456	4582
469.535	3076
469.614	4097
469.693	3034
469.772	3809
469.851	5065
469.930	4022
470.009	4425
470.088	4183
470.166	5480
470.245	8717
470.324	8598
470.403	5483
470.482	4128
470.560	3883
470.639	3748
470.718	5544
470.797	3744
470.875	4372
470.954	5070
471.033	4915
471.111	3361
471.190	3394
471.269	3251
471.347	3173
471.426	2235
471.505	2294
471.583	2713
471.662	4263
471.740	2781
471.819	3159
471.898	2977
471.976	4009
472.055	3126
472.133	3638
472.212	4130
472.290	3214
472.369	2632
472.447	2933
472.526	2668
472.604	4597
472.683	4479
472.761	4716
472.839	2812
472.918	4379
472.996	2843
473.075	3949
473.153	2942
473.231	2852
473.310	3451
473.388	4467
473.466	3650
473.545	3921
473.623	7291
473.701	6055
473.780	4504
473.858	2306
473.936	5354
474.014	3649
474.093	3847
474.171	4082
474.249	4953
474.327	3678
474.405	2837
474.484	3737
474.562	4002
474.640	2443
474.718	2504
474.796	3038
474.874	2930
474.952	3218
475.030	2703
475.108	3486
475.187	3557
475.265	4453
475.343	8501
475.421	9020
475.499	3860
475.577	3084
475.655	3904
475.733	4248
475.811	5318
475.889	5301
475.966	5229
476.044	3410
476.122	5628
476.200	7863
476.278	5645
476.356	3093
476.434	3698
476.512	4627
476.590	7126
476.667	6347
476.745	3020
476.823	3839
476.901	4044
476.979	3367
477.056	2330
477.134	3354
477.212	3462
477.290	3352
477.367	2855
477.445	2239
477.523	2397
477.601	3246
477.678	3190
477.756	3171
477.834	2948
477.911	3057
477.989	3592
478.066	3600
478.144	3116
478.222	5893
478.299	11272
478.377	9412
478.454	3190
478.532	3178
478.609	3870
478.687	4676
478.764	2880
478.842	3793
478.919	3706
478.997	4141
479.074	2774
479.152	2292
479.229	3536
479.307	2386
479.384	2782
479.461	3145
479.539	1915
479.616	3152
479.694	2950
479.771	3537
479.848	2402
479.926	1938
480.003	4079
480.080	3781
480.157	3292
480.235	2651
480.312	2767
480.389	3193
480.467	2295
480.544	3562
480.621	2819
480.698	3326
480.775	2338
480.853	2803
480.930	2702
481.007	2739
481.084	1919
481.161	2870
481.238	3484
481.315	3199
481.392	3486
481.470	3451
481.547	2287
481.624	2367
481.701	2193
481.778	3112
481.855	2029
481.932	3223
482.009	4235
482.086	3802
482.163	3551
482.240	7370
482.317	15935
482.393	9534
482.470	3617
482.547	3045
482.624	2775
482.701	3418
482.778	2875
482.855	1709
482.932	2202
483.009	2189
483.085	3279
483.162	3542
483.239	3669
483.316	2484
483.393	3379
483.469	3358
483.546	2327
483.623	2425
483.699	2524
483.776	3072
483.853	3183
483.930	3566
484.006	4978
484.083	8144
484.160	6910
484.236	9641
484.313	7372
484.389	6216
484.466	5991
484.543	5119
484.619	5535
484.696	7527
484.772	5623
484.849	6167
484.925	4433
485.002	5902
485.078	5500
485.155	5176
485.231	4566
485.308	5207
485.384	5341
485.461	6356
485.537	6267
485.614	7893
485.690	5307
485.766	6216
485.843	6749
485.919	10938
485.995	11773
486.072	6281
486.148	4357
486.224	5820
486.301	4846
486.377	5897
486.453	4845
486.530	5103
486.606	6335
486.682	6950
486.758	6920
486.835	7688
486.911	6505
486.987	10354
487.063	20158
487.139	32603
487.215	19573
487.292	8169
487.368	5208
487.444	6498
487.520	9197
487.596	9460
487.672	17598
487.748	53139
487.824	76690
487.900	17932
487.976	6830
488.052	5893
488.128	8466
488.204	5594
488.280	5509
488.356	4818
488.432	6820
488.508	9872
488.584	5770
488.660	5271
488.736	5229
488.812	6301
488.888	8246
488.964	12474
489.039	31178
489.115	49862
489.191	24441
489.267	5759
489.343	4635
489.418	4367
489.494	3695
489.570	3599
489.646	4834
489.722	4696
489.797	3729
489.873	4615
489.949	6679
490.024	6543
490.100	3615
490.176	3094
490.251	6463
490.327	9324
490.403	4986
490.478	3154
490.554	3046
490.629	3398
490.705	3856
490.781	4019
490.856	4040
490.932	4294
491.007	4946
491.083	3905
491.158	3435
491.234	4063
491.309	6046
491.385	5636
491.460	3765
491.536	5278
491.611	4722
491.686	6175
491.762	7237
491.837	20122
491.913	31817
491.988	46582
492.063	57357
492.139	7948
492.214	4401
492.289	4037
492.365	3807
492.440	5300
492.515	4433
492.590	3179
492.666	3596
492.741	4282
492.816	3528
492.891	2790
492.967	4304
493.042	2936
493.117	3095
493.192	2961
493.267	3963
493.342	5509
493.418	5516
493.493	4261
493.568	3577
493.643	2992
493.718	3924
493.793	6282
493.868	9134
493.943	7123
494.018	4522
494.093	2932
494.168	4223
494.243	3913
494.318	3243
494.393	2986
494.468	2900
494.543	3903
494.618	4139
494.693	2885
494.768	2718
494.842	2784
494.917	4008
494.992	3555
495.067	3114
495.142	3929
495.217	3245
495.292	4019
495.366	3996
495.441	5356
495.516	7703
495.591	11950
495.665	44041
495.740	108369
495.815	33851
495.890	4896
495.964	1532
496.039	5384
496.114	3488
496.188	3847
496.263	3682
496.338	3810
496.412	2836
496.487	4042
496.561	5514
496.636	5678
496.710	3785
496.785	3834
496.860	3407
496.934	3786
497.009	3314
497.083	3396
497.158	2901
497.232	4333
497.307	5336
497.381	4399
497.455	4754
497.530	4528
497.604	3470
497.679	3986
497.753	5501
497.827	6326
497.902	5301
497.976	6695
498.050	11186
498.125	38925
498.199	37769
498.273	11965
498.348	10238
498.422	6909
498.496	7836
498.570	7954
498.645	3641
498.719	2780
498.793	4948
498.867	6028
498.941	6065
499.016	14881
499.090	37628
499.164	13705
499.238	3232
499.312	4373
499.386	6672
499.460	5429
499.534	4230
499.609	5021
499.683	4559
499.757	4549
499.831	7075
499.905	25624
499.979	21056
500.053	5613
500.127	7636
500.201	8519
500.275	5477
500.349	5239
500.422	4199
500.496	7884
500.570	19330
500.644	21806
500.718	26375
500.792	7747
500.866	3346
500.940	3710
501.013	3628
501.087	4424
501.161	10776
501.235	10006
501.309	9131
501.382	19930
501.456	18937
501.530	6634
501.603	7050
501.677	4321
501.751	1423
501.825	4436
501.898	3965
501.972	8138
502.046	5605
502.119	2832
502.193	6766
502.266	9838
502.340	4682
502.413	4924
502.487	7547
502.561	4640
502.634	3714
502.708	4547
502.781	2913
502.855	4423
502.928	792
503.002	2775
503.075	1746
503.149	3446
503.222	1641
503.295	2391
503.369	2720
503.442	3701
503.516	6005
503.589	13720
503.662	8776
503.736	4088
503.809	8545
503.882	7238
503.956	11693
504.029	15311
504.102	32914
504.175	45017
504.249	9787
504.322	4337
504.395	4336
504.468	2936
504.542	2404
504.615	2121
504.688	2764
504.761	1363
504.834	4653
504.907	5168
504.980	10675
505.053	3707
505.127	4597
505.200	7815
505.273	1940
505.346	2196
505.419	1278
505.492	2861
505.565	2060
505.638	2045
505.711	1057
505.784	945
505.857	1439
505.930	3974
506.003	1096
506.076	4274
506.149	814
506.221	500
506.294	4131
506.367	2712
506.440	11809
506.513	8217
506.586	3159
506.659	2003
506.731	3162
506.804	3463
506.877	4576
506.950	3344
507.022	3154
507.095	972
507.168	3299
507.241	3486
507.313	1649
507.386	2010
507.459	5447
507.531	3392
507.604	1940
507.677	3178
507.749	2047
507.822	3595
507.894	6482
507.967	8061
508.040	3134
508.112	3093
508.185	3624
508.257	2665
508.330	7286
508.402	2225
508.475	1654
508.547	2405
508.620	1082
508.692	2261
508.765	2894
508.837	1503
508.909	2768
508.982	2222
509.054	3008
509.127	2778
509.199	1961
509.271	1778
509.344	1066
509.416	1954
509.488	1583
509.560	2695
509.633	2724
509.705	3076
509.777	2800
509.849	5432
509.922	2714
509.994	2362
510.066	2940
510.138	1254
510.210	5902
510.283	3428
510.355	3618
510.427	3616
510.499	3426
510.571	3379
510.643	2062
510.715	8159
510.787	5300
510.859	3309
510.931	2857
511.003	7416
511.076	6804
511.148	1666
511.219	1139
511.291	3500
511.363	3046
511.435	1821
511.507	1529
511.579	3117
511.651	3085
511.723	1955
511.795	1433
511.867	2467
511.939	2297
512.010	2693
512.082	3193
512.154	2198
512.226	2349
512.298	4570
512.369	6556
512.441	4864
512.513	5119
512.585	2115
512.656	4068
512.728	3462
512.800	3388
512.871	3095
512.943	2837
513.015	697
513.086	2946
513.158	3246
513.230	2703
513.301	5505
513.373	8575
513.444	4289
513.516	2239
513.588	2597
513.659	3445
513.731	5134
513.802	2929
513.874	12238
513.945	21023
514.016	4304
514.088	3128
514.159	3670
514.231	5403
514.302	6166
514.374	3766
514.445	1986
514.516	5554
514.588	2166
514.659	2876
514.730	4154
514.802	5351
514.873	1700
514.944	5474
515.016	4269
515.087	4491
515.158	4159
515.229	5245
515.301	1960
515.372	3763
515.443	1988
515.514	2774
515.585	1762
515.656	2637
515.728	3814
515.799	1844
515.870	3529
515.941	2897
516.012	2292
516.083	4767
516.154	4285
516.225	8047
516.296	7931
516.367	6486
516.438	6925
516.509	9663
516.580	14289
516.651	45828
516.722	166002
516.793	64231
516.864	13072
516.935	11753
517.006	14748
517.077	19205
517.148	48578
517.219	162492
517.289	220397
517.360	30773
517.431	10623
517.502	3832
517.573	4921
517.643	4951
517.714	4157
517.785	5030
517.856	5243
517.926	8538
517.997	10739
518.068	12183
518.138	18034
518.209	26724
518.280	97956
518.350	368459
518.421	109491
518.492	14096
518.562	7832
518.633	7878
518.703	6086
518.774	16787
518.845	46979
518.915	44124
518.986	10396
519.056	8464
519.127	15761
519.197	19265
519.268	20704
519.338	9870
519.408	5153
519.479	10680
519.549	7364
519.620	5493
519.690	3167
519.760	3036
519.831	4372
519.901	2480
519.971	3700
520.042	2569
520.112	2144
520.182	5774
520.253	5847
520.323	2764
520.393	3394
520.463	7545
520.534	2496
520.604	8758
520.674	4014
520.744	3420
520.814	7133
520.885	8406
520.955	4947
521.025	13339
521.095	4939
521.165	3611
521.235	2448
521.305	2813
521.375	2546
521.445	3286
521.515	5163
521.585	7520
521.655	5149
521.725	4709
521.795	4309
521.865	449
521.935	4307
522.005	1653
522.075	1903
522.145	3105
522.215	1502
522.285	3653
522.355	3384
522.424	5633
522.494	4862
522.564	6327
522.634	16870
522.704	54507
522.774	16680
522.843	4639
522.913	3340
522.983	5849
523.053	3287
523.122	4249
523.192	6276
523.262	27641
523.331	22138
523.401	4089
523.471	2629
523.540	2893
523.610	1825
523.680	2373
523.749	2030
523.819	1915
523.888	1900
523.958	2002
524.027	2470
524.097	2568
524.166	2196
524.236	2152
524.305	4610
524.375	1908
524.444	1382
524.514	3100
524.583	1439
524.653	2152
524.722	2934
524.791	1217
524.861	4002
524.930	612
524.999	1463
525.069	5502
525.138	3045
525.207	1799
525.277	2718
525.346	2517
525.415	3506
525.484	3335
525.554	1980
525.623	2591
525.692	3751
525.761	3355
525.830	5345
525.900	5379
525.969	9211
526.038	14763
526.107	30676
526.176	92053
526.245	68057
526.314	22127
526.383	48885
526.452	57743
526.522	104377
526.591	93691
526.660	29340
526.729	15529
526.797	19323
526.867	36935
526.935	163022
527.004	246132
527.073	114120
527.142	10050
527.211	5335
527.280	5388
527.349	5979
527.418	897
527.487	4477
527.555	1959
527.624	2908
527.693	1243
527.762	3489
527.831	808
527.899	2671
527.968	2203
528.037	2259
528.106	3477
528.174	7466
528.243	5235
528.312	6473
528.380	9370
528.449	2298
528.518	2906
528.586	1168
528.655	2497
528.723	2460
528.792	1147
528.861	2252
528.929	735
528.998	2558
529.066	1817
529.135	1690
529.203	715
529.272	1113
529.340	1945
529.409	3879
529.477	1999
529.545	1048
529.614	3997
529.682	670
529.751	1443
529.819	4995
529.887	2435
529.956	2222
530.024	2716
530.092	1337
530.161	4416
530.229	6099
530.297	2612
530.365	2912
530.434	2502
530.502	884
530.570	2186
530.638	1172
530.707	2812
530.775	4349
530.843	904
530.911	2395
530.979	3359
531.047	2044
531.115	2955
531.183	2016
531.252	2350
531.320	2041
531.388	1572
531.456	3394
531.524	-266
531.592	2765
531.660	4075
531.728	1848
531.796	1874
531.864	2983
531.932	2744
532.000	2571
532.067	2495
532.135	3709
532.203	4197
532.271	3986
532.339	7961
532.407	21610
532.475	11493
532.542	6323
532.610	6877
532.678	8766
532.746	42097
532.814	104907
532.881	23127
532.949	5047
533.017	3316
533.084	3388
533.152	3306
533.220	3135
533.287	3236
533.355	2487
533.423	3487
533.490	1500
533.558	2763
533.625	2746
533.693	3057
533.761	3306
533.828	3019
533.896	2052
533.963	7364
534.031	8227
534.098	14200
534.166	5662
534.233	2315
534.300	4333
534.368	3428
534.435	2371
534.503	3654
534.570	4244
534.637	3312
534.705	4248
534.772	5283
534.840	9120
534.907	41719
534.974	48737
535.041	5855
535.109	4648
535.176	3080
535.243	4008
535.310	3186
535.378	2856
535.445	2947
535.512	3549
535.579	2835
535.646	2517
535.714	3591
535.781	4336
535.848	3329
535.915	3921
535.982	1996
536.049	2085
536.116	2674
536.183	3463
536.250	1890
536.317	2989
536.384	4396
536.451	6481
536.518	6470
536.585	3414
536.652	6608
536.719	9350
536.786	5555
536.853	5995
536.920	7742
536.987	12306
537.053	12988
537.120	55705
537.187	42301
537.254	4316
537.321	2701
537.388	4935
537.454	2479
537.521	3703
537.588	3000
537.654	4250
537.721	4098
537.788	5268
537.855	2658
537.921	3186
537.988	3980
538.055	4803
538.121	3308
538.188	4115
538.254	4722
538.321	12810
538.388	7141
538.454	4488
538.521	3440
538.587	4086
538.654	3866
538.720	3641
538.787	3355
538.853	4115
538.920	4594
538.986	3983
539.053	3762
539.119	4732
539.185	3282
539.252	5365
539.318	7937
539.385	6949
539.451	3515
539.517	5928
539.583	7503
539.650	14688
539.716	40394
539.782	9987
539.849	3905
539.915	3987
539.981	4105
540.047	5718
540.114	4707
540.180	6332
540.246	3710
540.312	6056
540.378	12118
540.444	13449
540.510	16444
540.576	47851
540.643	12148
540.709	3926
540.775	3370
540.841	3536
540.907	4303
540.973	4962
541.039	6433
541.105	7842
541.171	4149
541.237	3627
541.303	4886
541.369	6580
541.435	6645
541.500	11308
541.566	5563
541.632	3736
541.698	3441
541.764	4166
541.830	3611
541.896	2796
541.961	4725
542.027	4282
542.093	4272
542.159	4231
542.224	2908
542.290	6687
542.356	9916
542.421	13665
542.487	5928
542.553	4422
542.618	3890
542.684	4477
542.750	5031
542.815	5954
542.881	9443
542.947	40017
543.012	27788
543.078	4658
543.143	3918
543.209	4924
543.274	4206
543.340	6686
543.405	16718
543.471	23776
543.536	5535
543.602	4163
543.667	2611
543.732	5330
543.798	2622
543.863	4288
543.928	2928
543.994	3253
544.059	4042
544.124	4166
544.190	3318
544.255	4759
544.320	4369
544.386	4015
544.451	7495
544.516	8034
544.581	7638
544.646	25243
544.712	39261
544.777	7863
544.842	4239
544.907	4759
544.972	3350
545.037	4152
545.102	5130
545.168	4510
545.233	4364
545.298	6396
545.363	5681
545.428	7106
545.493	14027
545.558	33453
545.623	11424
545.688	3964
545.753	5370
545.818	4372
545.883	6109
545.947	3812
546.012	4562
546.077	4273
546.142	5968
546.207	6060
546.272	7597
546.337	7993
546.401	6274
546.466	5842
546.531	4802
546.596	7417
546.661	7435
546.725	7705
546.790	6612
546.855	8499
546.919	7252
546.984	9169
547.049	9469
547.113	10960
547.178	11356
547.243	14683
547.307	15664
547.372	16521
547.436	16239
547.501	16505
547.565	19651
547.630	18575
547.695	16783
547.759	17150
547.823	15719
547.888	16318
547.952	17510
548.017	18356
548.081	18296
548.146	19320
548.210	18872
548.274	19309
548.339	19484
548.403	17926
548.468	15285
548.532	16615
548.596	17454
548.660	17319
548.725	19389
548.789	20258
548.853	20127
548.917	18348
548.982	17981
549.046	16139
549.110	13165
549.174	15954
549.238	17087
549.303	18298
549.367	20787
549.431	18172
549.495	16923
549.559	17843
549.623	20015
549.687	24480
549.751	27071
549.815	27711
549.879	27101
549.943	24302
550.007	26869
550.071	27271
550.135	26333
550.199	23769
550.263	22197
550.327	20706
550.391	21122
550.455	23153
550.519	24812
550.582	27246
550.646	32641
550.710	33408
550.774	29040
550.838	29976
550.901	29482
550.965	32861
551.029	33238
551.093	35308
551.156	38847
551.220	42279
551.284	50136
551.347	38136
551.411	33839
551.475	33137
551.538	33276
551.602	30241
551.666	29509
551.729	25390
551.793	26164
551.856	25027
551.920	24469
551.983	25797
552.047	24231
552.110	25283
552.174	24449
552.237	25688
552.301	24037
552.364	24004
552.428	23275
552.491	23203
552.554	24463
552.618	23224
552.681	25549
552.745	23336
552.808	28687
552.871	32574
552.934	27033
552.998	23551
553.061	22729
553.124	23565
553.187	21676
553.251	23517
553.314	22496
553.377	22640
553.440	24673
553.503	25553
553.567	25953
553.630	24206
553.693	24099
553.756	25554
553.819	23822
553.882	23827
553.945	22988
554.008	23542
554.071	22845
554.134	24624
554.197	22268
554.260	21882
554.323	23764
554.386	23005
554.449	23568
554.512	24043
554.575	22252
554.638	23367
554.701	22926
554.764	22045
554.827	22549
554.889	21294
554.952	19474
555.015	19196
555.078	19233
555.141	19994
555.203	19505
555.266	19465
555.329	19999
555.391	18793
555.454	18905
555.517	18777
555.580	16109
555.642	17092
555.705	15851
555.768	16406
555.830	16749
555.893	14058
555.955	14682
556.018	14852
556.080	14198
556.143	15158
556.206	14119
556.268	14381
556.330	15418
556.393	14636
556.455	15094
556.518	14061
556.580	13442
556.643	13345
556.705	13436
556.767	12553
556.830	14083
556.892	13603
556.955	17009
557.017	14632
557.079	11965
557.142	12210
557.204	13558
557.266	20584
557.328	16345
557.391	9832
557.453	9585
557.515	10863
557.577	11630
557.639	11654
557.701	10649
557.764	9900
557.826	10708
557.888	12412
557.950	11291
558.012	12172
558.074	16372
558.136	31326
558.198	69717
558.260	25262
558.322	11345
558.384	12668
558.446	14495
558.508	17126
558.570	20001
558.632	30632
558.694	41750
558.756	44021
558.818	119216
558.880	270431
558.942	81111
559.003	74724
559.065	34865
559.127	17043
559.189	17021
559.251	19096
559.312	27272
559.374	59683
559.436	187919
559.498	83808
559.559	17346
559.621	17259
559.683	19596
559.744	29602
559.806	91232
559.868	129172
559.929	25670
559.991	18500
560.052	25817
560.114	69783
560.176	42531
560.237	40456
560.299	62969
560.360	14659
560.422	7331
560.483	7273
560.545	7534
560.606	6098
560.667	6074
560.729	6243
560.790	5938
560.852	5559
560.913	5958
560.974	5949
561.036	5179
561.097	5937
561.158	5838
561.220	7379
561.281	6099
561.342	6299
561.403	8456
561.465	9956
561.526	20762
561.587	26044
561.648	7909
561.709	6173
561.771	5946
561.832	5455
561.893	5574
561.954	6262
562.015	5442
562.076	5980
562.137	5603
562.198	5332
562.259	5092
562.320	5934
562.381	6993
562.442	8302
562.503	8940
562.564	5343
562.625	5277
562.686	5606
562.747	6146
562.808	5374
562.869	4892
562.930	5695
562.991	5036
563.051	5792
563.112	4487
563.173	6007
563.234	5492
563.294	6693
563.355	4406
563.416	5723
563.477	4960
563.537	4569
563.598	6331
563.659	5568
563.720	4728
563.780	5825
563.841	5415
563.901	5001
563.962	5528
564.023	5429
564.083	5564
564.144	5404
564.204	4315
564.265	5512
564.325	4515
564.386	6291
564.446	5667
564.507	5134
564.567	5387
564.628	5523
564.688	5958
564.749	4862
564.809	5136
564.869	6262
564.930	5389
564.990	6145
565.050	5790
565.111	5653
565.171	5358
565.231	5406
565.292	5614
565.352	5475
565.412	5758
565.472	5415
565.532	7013
565.593	6137
565.653	4982
565.713	4983
565.773	6466
565.833	7300
565.893	9031
565.953	6327
566.013	5097
566.074	5460
566.134	5928
566.194	6057
566.254	6536
566.314	6524
566.374	4845
566.434	5713
566.494	5324
566.554	5389
566.614	6270
566.673	5716
566.733	6529
566.793	6368
566.853	5881
566.913	5840
566.973	5908
567.033	6645
567.092	6422
567.152	5785
567.212	6331
567.272	5724
567.331	6138
567.391	6404
567.451	6134
567.511	6457
567.570	6585
567.630	6437
567.690	6803
567.749	6160
567.809	6187
567.868	7149
567.928	6236
567.988	6063
568.047	6701
568.107	7699
568.166	8322
568.226	11594
568.285	14065
568.345	11231
568.404	9619
568.464	8804
568.523	8523
568.582	8449
568.642	9112
568.701	11412
568.761	14165
568.820	20296
568.879	17804
568.939	12446
568.998	9395
569.057	7826
569.116	6165
569.176	6849
569.235	5767
569.294	6481
569.353	5589
569.413	6142
569.472	4734
569.531	6154
569.590	5743
569.649	5984
569.708	5686
569.767	5744
569.827	7405
569.886	6037
569.945	4949
570.004	5632
570.063	5467
570.122	6983
570.181	6833
570.240	5688
570.299	6480
570.358	6961
570.417	6206
570.475	5403
570.534	6542
570.593	6783
570.652	5331
570.711	6186
570.770	5610
570.829	7008
570.887	6076
570.946	6855
571.005	5377
571.064	5024
571.122	6994
571.181	6318
571.240	5498
571.299	5714
571.357	5445
571.416	4847
571.475	5482
571.533	6424
571.592	5714
571.650	5579
571.709	5673
571.768	6036
571.826	5116
571.885	5956
571.943	5921
572.002	5709
572.060	4326
572.119	5782
572.177	6007
572.236	5580
572.294	5462
572.352	5779
572.411	5252
572.469	5100
572.528	5525
572.586	5943
572.644	5130
572.703	8202
572.761	6641
572.819	5892
572.877	4526
572.936	5626
572.994	4670
573.052	5823
573.110	4108
573.169	5420
573.227	5078
573.285	5398
573.343	4661
573.401	5442
573.459	5181
573.517	5015
573.576	4949
573.634	5735
573.692	5785
573.750	4737
573.808	4647
573.866	5138
573.924	5619
573.982	5024
574.040	4743
574.098	5209
574.155	5343
574.213	5518
574.271	4177
574.329	6004
574.387	5009
574.445	4537
574.503	4886
574.560	5321
574.618	4466
574.676	5349
574.734	3678
574.792	5701
574.849	5458
574.907	4719
574.965	4503
575.022	4351
575.080	4293
575.138	5192
575.195	4785
575.253	4568
575.311	5386
575.368	4733
575.426	5434
575.483	5614
575.541	5097
575.598	4440
575.656	5110
575.713	4131
575.771	4769
575.828	4171
575.886	4532
575.943	5588
576.001	5068
576.058	4322
576.115	4714
576.173	4850
576.230	5089
576.287	6828
576.345	6211
576.402	4810
576.459	4519
576.517	4396
576.574	5089
576.631	5117
576.688	3523
576.746	3827
576.803	4217
576.860	4437
576.917	5059
576.974	4659
577.031	5156
577.089	3880
577.146	4480
577.203	4530
577.260	5568
577.317	5229
577.374	4813
577.431	4419
577.488	4802
577.545	4105
577.602	5118
577.659	4186
577.716	4602
577.773	3932
577.830	5138
577.886	5475
577.943	4668
578.000	4181
578.057	4471
578.114	4267
578.171	4695
578.227	4055
578.284	3856
578.341	5146
578.398	4958
578.454	5425
578.511	5031
578.568	5196
578.625	4796
578.681	4712
578.738	3958
578.794	4811
578.851	4788
578.908	5187
578.964	6462
579.021	6567
579.077	5241
579.134	5110
579.190	4981
579.247	5134
579.303	5005
579.360	4044
579.416	4487
579.473	4497
579.529	4992
579.586	4450
579.642	4986
579.698	5296
579.755	4822
579.811	5669
579.867	4958
579.924	4234
579.980	4863
580.036	5440
580.093	4475
580.149	5204
580.205	4950
580.261	5698
580.317	4709
580.374	4963
580.430	5193
580.486	5810
580.542	4374
580.598	6156
580.619	6035
580.654	5827
580.692	5875
580.710	5906
580.765	6194
580.767	6204
580.823	6124
580.838	6025
580.879	5772
580.911	5729
580.935	5686
580.984	5255
580.991	5206
581.047	6355
581.057	6230
581.103	5629
581.130	6136
581.159	6681
581.203	5552
581.215	5258
581.270	5725
581.276	5590
581.326	4243
581.349	4735
581.382	5490
581.422	5559
581.438	5584
581.494	5404
581.494	5407
581.550	5728
581.567	6013
581.606	6608
581.640	6202
581.661	5931
581.713	6792
581.717	6872
581.773	5475
581.786	5642
581.829	6112
581.859	6340
581.885	6592
581.932	6424
581.940	6356
581.996	6414
582.004	6264
582.052	5512
582.077	5998
582.107	6577
582.150	6100
582.163	5966
582.219	6276
582.223	6291
582.274	6394
582.296	6052
582.330	5557
582.368	5927
582.386	6036
582.441	5679
582.441	5677
582.497	6609
582.514	6744
582.552	7048
582.587	6708
582.608	6509
582.659	6720
582.663	6721
582.719	6411
582.732	6509
582.774	6944
582.805	6578
582.830	6237
582.877	6891
582.885	7015
582.941	6649
582.950	6792
582.996	7313
583.023	6889
583.052	6603
583.095	6863
583.107	6853
583.162	7222
583.168	7230
583.218	7484
583.240	6971
583.273	6249
583.313	7267
583.328	7662
583.384	7372
583.385	7385
583.439	7600
583.458	7401
583.494	7017
583.531	7208
583.549	7348
583.603	6890
583.605	6878
583.660	7707
583.676	7619
583.715	7358
583.748	7588
583.770	7743
583.820	7867
583.825	7880
583.881	7070
583.893	7171
583.936	7674
583.965	7658
583.991	7467
584.038	7650
584.046	7759
584.101	8129
584.110	8113
584.156	7812
584.183	7850
584.211	7913
584.255	8266
584.266	8368
584.321	7918
584.328	7963
584.376	8162
584.400	8251
584.431	8595
584.472	8666
584.486	8611
584.541	9105
584.545	9035
584.596	8095
584.617	8346
584.651	9083
584.689	9607
584.706	9632
584.761	9476
584.762	9467
584.816	9545
584.834	9670
584.871	9935
584.906	9989
584.926	9990
584.978	10536
584.980	10576
585.035	10906
585.051	11143
585.090	11743
585.123	12092
585.145	12320
585.195	12545
585.200	12618
585.254	13919
585.267	14403
585.309	15674
585.340	16260
585.364	16966
585.412	18633
585.419	18967
585.473	22438
585.484	23214
585.528	27595
585.556	31853
585.583	42309
585.628	65614
585.637	75015
585.692	150383
585.700	163379
585.747	200722
585.772	173865
585.801	108312
585.845	36241
585.856	29558
585.910	19957
585.917	18848
585.965	16107
585.989	15319
586.019	15091
586.061	14628
586.074	14635
586.128	14846
586.133	14882
586.183	14949
586.205	14708
586.237	14543
586.277	14402
586.292	14330
586.346	14010
586.349	13996
586.401	14623
586.421	14635
586.455	14428
586.493	14627
586.509	14994
586.564	15522
586.565	15530
586.618	17354
586.637	17853
586.672	18207
586.709	17928
586.727	18040
586.781	19857
586.781	19888
586.835	17916
586.853	17708
586.889	17173
586.925	16169
586.944	16207
586.996	17114
586.998	17160
587.052	17392
587.068	17439
587.106	17912
587.140	18160
587.161	18142
587.212	18073
587.215	18141
587.269	19144
587.284	19337
587.323	19248
587.356	19182
587.377	19631
587.427	20553
587.431	20631
587.485	20977
587.499	21048
587.539	21484
587.571	21883
587.593	22064
587.643	22190
587.648	22306
587.702	23142
587.715	23301
587.755	23670
587.786	24048
587.810	24409
587.858	24934
587.864	25121
587.917	26629
587.930	26941
587.971	28347
588.001	28833
588.025	29027
588.073	29999
588.079	30352
588.133	33352
588.145	33894
588.187	35842
588.217	37356
588.241	39497
588.288	43691
588.295	44263
588.348	48801
588.360	49732
588.402	55466
588.431	59498
588.456	62776
588.503	69673
588.510	71143
588.564	82674
588.575	85420
588.617	98875
588.646	108294
588.671	121251
588.718	148437
588.725	156560
588.778	224254
588.789	239547
588.832	376603
588.861	476819
588.886	610141
588.932	872186
588.939	883804
588.993	911565
589.004	906455
589.047	679565
589.075	515760
589.100	408426
589.147	225818
589.154	217112
589.207	162111
589.218	151596
589.261	143135
589.290	139306
589.314	145372
589.361	159963
589.368	168933
589.421	246978
589.433	265274
589.475	439044
589.504	568659
589.528	672808
589.576	858429
589.582	837067
589.635	574552
589.647	513438
589.689	306848
589.718	172425
589.742	142503
589.790	90470
589.795	88226
589.849	68861
589.861	64591
589.902	57217
589.932	51501
589.955	49066
590.004	44544
590.009	44351
590.062	41442
590.075	40577
590.115	38902
590.146	37513
590.168	37102
590.218	36117
590.222	36130
590.275	34743
590.289	34465
590.328	34144
590.360	33405
590.381	33359
590.431	33176
590.435	33199
590.488	31950
590.503	31588
590.541	31610
590.574	31455
590.594	31306
590.645	30491
590.647	30614
590.700	31754
590.716	31971
590.753	31582
590.787	31193
590.806	31563
590.859	32520
590.859	32603
590.912	31564
590.930	31162
590.965	31931
591.001	32602
591.018	32815
591.071	33266
591.072	33170
591.124	33160
591.143	33078
591.177	33203
591.214	33116
591.230	33719
591.283	35438
591.285	35387
591.336	34852
591.356	34559
591.389	34409
591.427	33849
591.442	33628
591.495	32437
591.498	32245
591.547	32941
591.569	33158
591.600	33232
591.640	33015
591.653	33054
591.706	32832
591.711	32698
591.759	32725
591.782	32588
591.811	33452
591.853	34455
591.864	34556
591.917	34540
591.924	34410
591.969	35241
591.995	35600
592.022	34828
592.066	33147
592.075	33596
592.127	35784
592.137	36069
592.180	35889
592.208	35549
592.233	35670
592.279	35580
592.285	35665
592.338	35385
592.350	35198
592.390	35207
592.421	35044
592.443	35351
592.491	35616
592.495	35756
592.548	36106
592.562	36082
592.600	36462
592.633	36574
592.653	36605
592.704	36166
592.705	36367
592.775	35954
592.846	38149
592.916	38127
592.987	39599
593.058	37665
593.128	35658
593.199	37289
593.270	38274
593.341	36793
593.411	38021
593.482	38097
593.553	39897
593.623	38346
593.694	40156
593.764	39518
593.835	40612
593.906	39757
593.976	40178
594.047	40580
594.117	41677
594.188	42213
594.258	42015
594.329	42060
594.399	43171
594.470	42951
594.540	44652
594.611	44649
594.681	44006
594.751	43405
594.822	46358
594.892	46728
594.963	47893
595.033	48784
595.103	49927
595.174	49044
595.244	51652
595.314	53132
595.384	50769
595.455	52194
595.525	55119
595.595	56121
595.665	55627
595.736	53152
595.806	55722
595.876	55746
595.946	54983
596.016	57541
596.087	60267
596.157	59047
596.227	58894
596.297	61502
596.367	65278
596.437	68725
596.507	68443
596.577	68879
596.647	70290
596.717	71844
596.787	73361
596.857	72754
596.927	74678
596.997	72795
597.067	74414
597.137	74611
597.207	76996
597.277	75834
597.347	72640
597.417	73324
597.487	73944
597.557	76298
597.626	75976
597.696	76167
597.766	76690
597.836	72374
597.906	68578
597.975	67018
598.045	68090
598.115	70166
598.185	74538
598.254	82222
598.324	91069
598.394	92237
598.464	88755
598.533	85967
598.603	81123
598.672	79838
598.742	80088
598.812	80547
598.881	82268
598.951	81303
599.020	83735
599.090	86213
599.159	86563
599.229	83318
599.299	82791
599.368	83533
599.437	82858
599.507	76309
599.576	73755
599.646	73801
599.715	72147
599.785	70931
599.854	70210
599.924	68688
599.993	69102
600.062	70553
600.132	73091
600.201	75942
600.270	87872
600.340	92253
600.409	89643
600.478	89010
600.547	90521
600.617	83096
600.686	69409
600.755	63634
600.824	61339
600.894	58673
600.963	57993
601.032	57705
601.101	57681
601.170	54942
601.239	54373
601.308	54897
601.378	54334
601.447	53244
601.516	55408
601.585	57680
601.654	59004
601.723	56407
601.792	56954
601.861	58987
601.930	62344
601.999	64171
602.068	62031
602.137	65162
602.206	64804
602.275	63430
602.343	67030
602.412	66439
602.481	63970
602.550	64093
602.619	66043
602.688	66782
602.756	66531
602.825	67059
602.894	68513
602.963	70246
603.032	70228
603.100	70069
603.169	71009
603.238	70704
603.307	71579
603.375	71792
603.444	74192
603.513	74296
603.581	75045
603.650	77099
603.719	74420
603.787	75548
603.856	78899
603.924	79798
603.993	82583
604.061	84230
604.130	89369
604.198	91801
604.267	91611
604.335	91977
604.404	94180
604.472	95310
604.541	98060
604.609	97029
604.678	99150
604.746	99775
604.815	102513
604.883	101244
604.951	103535
605.020	104960
605.088	105428
605.156	106868
605.225	108109
605.293	107664
605.361	110523
605.429	109865
605.498	113348
605.566	115488
605.634	120912
605.702	122809
605.771	129058
605.839	129737
605.907	125808
605.975	120686
606.043	119758
606.111	118968
606.180	119687
606.248	117250
606.316	116085
606.384	115925
606.452	118303
606.520	125246
606.588	123465
606.656	122060
606.724	120434
606.792	112937
606.860	102502
606.928	91461
606.996	88215
607.064	88362
607.132	91920
607.200	94288
607.267	99373
607.335	102244
607.403	104132
607.471	100315
607.539	97158
607.607	98103
607.674	86222
607.742	84289
607.810	86662
607.878	84317
607.946	87172
608.013	90284
608.081	93659
608.149	93014
608.216	97085
608.284	100535
608.352	99151
608.419	97852
608.487	96863
608.555	95003
608.622	98354
608.690	104164
608.757	115912
608.825	116569
608.893	114171
608.960	110383
609.028	105705
609.095	104778
609.163	102580
609.230	92460
609.298	86360
609.365	89922
609.432	98260
609.500	106197
609.567	122321
609.635	139689
609.702	146704
609.769	139469
609.837	106640
609.904	90836
609.971	92953
610.039	101867
610.106	128885
610.173	225390
610.241	477308
610.308	261758
610.375	120968
610.442	97972
610.509	93559
610.577	94538
610.644	96688
610.711	99584
610.778	103043
610.845	106545
610.912	114435
610.980	116424
611.047	116546
611.114	114856
611.181	111972
611.248	110619
611.315	117114
611.382	120175
611.449	125095
611.516	126816
611.583	124568
611.650	124604
611.717	126840
611.784	128000
611.851	133121
611.918	138429
611.984	158104
612.051	207707
612.118	383131
612.185	837354
612.252	500338
612.319	177696
612.386	158340
612.452	147950
612.519	141614
612.586	139906
612.653	141721
612.719	148284
612.786	143543
612.853	131472
612.919	128167
612.986	131821
613.053	123726
613.120	115626
613.186	111489
613.253	114535
613.319	112290
613.386	112792
613.453	115783
613.519	120039
613.586	122821
613.652	134185
613.719	125322
613.785	122660
613.852	118947
613.918	116313
613.985	117109
614.051	122483
614.118	119818
614.184	114471
614.250	115422
614.317	118908
614.383	115384
614.449	119349
614.516	117521
614.582	119338
614.648	116075
614.715	115926
614.781	111761
614.847	113172
614.914	112463
614.980	109324
615.046	110598
615.112	112907
615.179	113340
615.245	113410
615.311	113081
615.377	117494
615.443	119244
615.509	116703
615.575	120566
615.642	118623
615.708	123336
615.774	126615
615.840	133354
615.906	138860
615.972	163248
616.038	231967
616.104	444925
616.170	950552
616.236	739174
616.302	227100
616.368	183844
616.434	140776
616.500	135207
616.565	146961
616.631	176687
616.697	146049
616.763	152925
616.829	217061
616.895	360237
616.961	320575
617.026	149201
617.092	119790
617.158	117518
617.224	114184
617.289	108258
617.355	101493
617.421	100470
617.487	101972
617.552	97018
617.618	95839
617.684	95976
617.749	97162
617.815	92559
617.880	88707
617.946	91206
618.012	93308
618.077	96748
618.143	92399
618.208	93019
618.274	99919
618.339	101281
618.405	82533
618.470	83799
618.536	81836
618.601	82184
618.667	74938
618.732	72527
618.798	71572
618.863	72365
618.928	70043
618.994	71994
619.059	72762
619.124	84275
619.190	74287
619.255	69741
619.320	69620
619.386	70299
619.451	69110
619.516	68194
619.581	68454
619.647	71690
619.712	70700
619.777	66877
619.842	68509
619.907	70169
619.972	70900
620.038	71064
620.103	67630
620.168	67242
620.233	68385
620.298	69612
620.363	70343
620.428	73299
620.493	74002
620.558	74603
620.623	74440
620.688	74952
620.753	72570
620.818	76311
620.883	76590
620.948	76485
621.013	76280
621.078	73987
621.143	73229
621.207	78204
621.272	73730
621.337	73436
621.402	71246
621.467	72092
621.532	73464
621.596	72049
621.661	68996
621.726	69301
621.791	70648
621.855	72423
621.920	71331
621.985	70947
622.049	72362
622.114	71861
622.179	74214
622.243	75152
622.308	76887
622.373	81996
622.437	78400
622.502	74426
622.566	74381
622.631	72865
622.695	76666
622.760	75356
622.824	75995
622.889	76929
622.953	79101
623.018	94354
623.082	92755
623.147	80414
623.211	78092
623.276	79724
623.340	74359
623.404	73574
623.469	72138
623.533	74037
623.597	70888
623.662	72095
623.726	65891
623.790	62721
623.854	61915
623.919	62864
623.983	64474
624.047	64980
624.111	65597
624.176	66288
624.240	67169
624.304	71166
624.368	66434
624.432	65504
624.496	67533
624.560	75166
624.625	75739
624.689	71980
624.753	73616
624.817	71253
624.881	69251
624.945	62991
625.009	60435
625.073	63722
625.137	66753
625.201	74510
625.265	73719
625.329	65686
625.393	66868
625.456	67612
625.520	67040
625.584	69281
625.648	71246
625.712	74094
625.776	76745
625.839	75750
625.903	59642
625.967	54425
626.031	59616
626.095	72350
626.158	63331
626.222	49721
626.286	46712
626.349	47224
626.413	43107
626.477	46230
626.540	43471
626.604	43144
626.668	43594
626.731	42996
626.795	42337
626.858	43074
626.922	41701
626.986	42628
627.049	41141
627.113	43361
627.176	42383
627.240	41553
627.303	40911
627.366	40633
627.430	40935
627.493	41021
627.557	39965
627.620	41362
627.684	42127
627.747	42840
627.810	38425
627.874	36139
627.937	34122
628.000	39196
628.064	35525
628.127	31596
628.190	31920
628.253	31831
628.317	29864
628.380	28338
628.443	28516
628.506	29627
628.569	28450
628.632	25883
628.696	26283
628.759	26561
628.822	25545
628.885	25175
628.948	24839
629.011	26170
629.074	24563
629.137	24388
629.200	23464
629.263	25431
629.326	21459
629.389	23340
629.452	22303
629.515	23053
629.578	22393
629.641	23975
629.704	22645
629.767	24809
629.830	22754
629.892	22292
629.955	21425
630.018	23984
630.081	23295
630.144	27088
630.207	22927
630.269	23901
630.332	20599
630.395	21160
630.458	21143
630.520	20556
630.583	21739
630.646	21361
630.708	20280
630.771	21525
630.834	21545
630.896	21061
630.959	21694
631.021	20807
631.084	20177
631.146	21713
631.209	20540
631.272	20200
631.334	21101
631.397	21045
631.459	20880
631.522	22426
631.584	22838
631.646	23637
631.709	24408
631.771	27516
631.834	23307
631.896	22260
631.958	21008
632.021	21651
632.083	19279
632.145	20917
632.208	20907
632.270	21334
632.332	18914
632.395	19265
632.457	20457
632.519	19838
632.581	19766
632.643	19078
632.706	19725
632.768	18660
632.830	19605
632.892	19272
632.954	19586
633.016	21810
633.078	18561
633.141	18779
633.203	18319
633.265	20141
633.327	18835
633.389	19775
633.451	20714
633.513	23152
633.575	21699
633.637	22490
633.698	21394
633.760	21019
633.822	20528
633.884	21423
633.946	21710
634.008	20366
634.070	21286
634.132	21659
634.193	22414
634.255	25348
634.317	24375
634.379	25208
634.441	21300
634.502	21032
634.564	19474
634.626	18749
634.687	18459
634.749	18443
634.811	18894
634.873	17960
634.934	17483
634.996	18267
635.057	18205
635.119	17899
635.181	18823
635.242	18246
635.304	16148
635.365	20501
635.427	17538
635.488	18948
635.550	17125
635.611	18023
635.673	15669
635.734	20667
635.796	18877
635.857	21534
635.918	19967
635.980	23016
636.041	22864
636.102	25062
636.164	24146
636.225	24630
636.286	19029
636.348	19646
636.409	17954
636.470	17745
636.531	17901
636.593	16370
636.654	18004
636.715	16969
636.776	15635
636.838	15243
636.899	15295
636.960	16600
637.021	14850
637.082	14805
637.143	15171
637.204	14712
637.265	13929
637.326	15890
637.387	15381
637.448	14618
637.509	16091
637.570	15197
637.631	15430
637.692	14131
637.753	13685
637.814	14941
637.875	14650
637.936	15439
637.997	13816
638.058	14783
638.119	14324
638.179	14622
638.240	14103
638.301	13990
638.362	14060
638.423	13179
638.483	14504
638.544	12457
638.605	14043
638.666	11960
638.726	13080
638.787	13768
638.848	12462
638.908	13269
638.969	13325
639.030	13323
639.090	11981
639.151	12338
639.211	14106
639.272	17017
639.332	23786
639.393	16492
639.453	12168
639.514	13043
639.574	11717
639.635	12191
639.695	12047
639.756	11091
639.816	13139
639.877	14252
639.937	20561
639.997	22795
640.058	12016
640.118	11488
640.178	11841
640.239	11898
640.299	11108
640.359	10804
640.420	12313
640.480	13666
640.540	13626
640.600	14015
640.661	13309
640.721	12007
640.781	15736
640.841	11900
640.901	12336
640.961	11704
641.021	13271
641.082	14161
641.142	16793
641.202	13620
641.262	9451
641.322	11487
641.382	10233
641.442	11800
641.502	10415
641.562	11909
641.622	11273
641.682	11858
641.742	11752
641.802	11385
641.861	12157
641.921	11381
641.981	12840
642.041	12708
642.101	13904
642.161	10332
642.221	9848
642.280	10335
642.340	9302
642.400	9568
642.460	11128
642.519	9944
642.579	10061
642.639	11461
642.698	8104
642.758	13232
642.818	10923
642.877	10223
642.937	11470
642.997	13724
643.056	16262
643.116	11369
643.175	12024
643.235	11272
643.294	11612
643.354	11910
643.414	12674
643.473	15249
643.532	15987
643.592	20378
643.651	31663
643.711	55679
643.770	104986
643.830	255731
643.889	504420
643.948	113076
644.008	24659
644.067	17890
644.126	13837
644.186	11976
644.245	11391
644.304	9490
644.363	11642
644.423	9698
644.482	10649
644.541	11191
644.600	10262
644.659	13941
644.719	14489
644.778	23042
644.837	36518
644.896	75473
644.955	166219
645.014	50001
645.073	13985
645.132	11353
645.191	10692
645.250	11161
645.309	11941
645.368	11793
645.427	15842
645.486	23438
645.545	37444
645.604	13482
645.663	10283
645.722	10492
645.781	10120
645.840	12452
645.898	13623
645.957	20989
646.016	28485
646.075	52623
646.134	99850
646.192	276305
646.251	368350
646.310	52706
646.369	18461
646.427	16403
646.486	11314
646.545	10587
646.603	10015
646.662	9832
646.721	8644
646.779	9096
646.838	8256
646.896	12341
646.955	14630
647.014	23725
647.072	41811
647.131	112712
647.189	47962
647.248	10274
647.306	9322
647.365	8815
647.423	6320
647.481	9421
647.540	6830
647.598	7747
647.657	6927
647.715	8378
647.773	6859
647.832	7445
647.890	5519
647.948	7437
648.007	7646
648.065	5926
648.123	6693
648.181	9140
648.240	7399
648.298	6630
648.356	6427
648.414	7929
648.472	6594
648.531	7842
648.589	6303
648.647	6576
648.705	6273
648.763	7046
648.821	6840
648.879	6766
648.937	7969
648.995	9679
649.053	9759
649.111	15941
649.169	25334
649.227	44691
649.285	93310
649.343	264252
649.401	112713
649.459	32517
649.516	19088
649.574	8294
649.632	10074
649.690	9567
649.748	12335
649.806	15440
649.863	28831
649.921	79279
649.979	46750
650.037	9214
650.094	5623
650.152	7150
650.210	4624
650.268	6452
650.325	5178
650.383	5963
650.440	4054
650.498	5985
650.556	4824
650.613	4993
650.671	5391
650.728	4848
650.786	4987
650.843	6686
650.901	4416
650.958	6174
651.016	4580
651.073	4539
651.131	4819
651.188	3871
651.246	4009
651.303	3634
651.360	4043
651.418	3955
651.475	4035
651.532	3782
651.590	4169
651.647	4402
651.704	3933
651.762	4550
651.819	3984
651.876	4756
651.933	3765
651.990	4923
652.048	2643
652.105	4390
652.162	3915
652.219	4200
652.276	3693
652.333	4834
652.390	3340
652.448	4888
652.505	3391
652.562	4526
652.619	3263
652.676	4219
652.733	4576
652.790	3600
652.847	1967
652.904	4740
652.961	2422
653.017	3696
653.074	4763
653.131	4814
653.188	3116
653.245	4162
653.302	3142
653.359	3754
653.415	3689
653.472	4110
653.529	3420
653.586	3368
653.642	3605
653.699	4226
653.756	3380
653.813	3949
653.869	3700
653.926	3669
653.983	3153
654.039	3526
654.096	2753
654.152	5195
654.209	1919
654.266	4266
654.322	2064
654.379	4367
654.435	4639
654.492	3692
654.548	5167
654.605	7067
654.661	4590
654.717	3813
654.774	3161
654.830	3177
654.887	3222
654.943	3775
655.000	3461
655.056	4025
655.112	3843
655.168	2946
655.225	3809
655.281	3755
655.337	2995
655.394	4575
655.450	4084
655.506	3662
655.562	3356
655.618	5095
655.675	2808
655.731	3297
655.787	3063
655.843	3993
655.899	3239
655.955	4761
656.011	4799
656.067	4593
656.123	4194
656.179	6291
656.235	7154
656.291	5174
656.347	6061
656.403	5014
656.459	3935
656.515	5251
656.571	3992
656.627	4929
656.683	3836
656.739	4478
656.795	4102
656.850	4494
656.906	3779
656.962	4424
657.018	2637
657.074	4420
657.129	4949
657.185	7705
657.241	14579
657.297	8031
657.352	3682
657.408	2777
657.464	3974
657.519	3551
657.575	1893
657.630	4203
657.686	2120
657.742	2697
657.797	2191
657.853	3323
657.908	3822
657.964	1977
658.019	3008
658.075	3235
658.130	2878
658.186	1993
658.241	3248
658.297	2332
658.352	2290
658.407	3049
658.463	1648
658.518	3039
658.573	2452
658.629	2193
658.684	2798
658.739	2896
658.795	1735
658.850	3248
658.905	2084
658.960	3655
659.016	2323
659.071	3432
659.126	3222
659.181	3575
659.236	6740
659.291	7520
659.346	3332
659.401	3404
659.457	2766
659.512	2445
659.567	3610
659.622	2836
659.677	2049
659.732	1966
659.787	2248
659.842	3016
659.897	1910
659.952	2493
660.007	3415
660.061	3337
660.116	1739
660.171	2385
660.226	2406
660.281	3629
660.336	1792
660.391	3339
660.445	1527
660.500	3975
660.555	2468
660.610	2127
660.664	2907
660.719	2270
660.774	2981
660.828	2895
660.883	2901
660.938	2787
660.992	1003
661.047	3106
661.101	2279
661.156	2398
661.211	1972
661.265	2780
661.320	1727
661.374	2015
661.429	1676
661.483	3401
661.538	1866
661.592	2182
661.647	2453
661.701	2740
661.755	1950
661.810	2513
661.864	1775
661.919	1989
661.973	2929
662.027	2305
662.081	1484
662.136	2651
662.190	2565
662.244	3208
662.299	2435
662.353	2270
662.407	1413
662.461	2360
662.515	2326
662.569	2030
662.624	2611
662.678	2381
662.732	1750
662.786	3313
662.840	2089
662.894	2581
662.948	2387
663.002	3777
663.056	1736
663.110	2230
663.164	1267
663.218	2665
663.272	2238
663.326	2619
663.380	2227
663.434	2413
663.488	2341
663.542	2804
663.595	2240
663.649	2218
663.703	2005
663.757	2412
663.811	1272
663.864	1692
663.918	901
663.972	2905
664.026	2647
664.079	2150
664.133	2111
664.187	1931
664.240	2022
664.294	2238
664.348	2445
664.401	2956
664.455	1529
664.508	2417
664.562	2369
664.615	2326
664.669	2195
664.722	3014
664.776	1428
664.829	2988
664.883	1524
664.936	1827
664.990	1847
665.043	2958
665.097	658
665.150	3186
665.203	1452
665.257	1896
665.310	1971
665.363	2685
665.417	1829
665.470	2148
665.523	2165
665.576	2275
665.630	1572
665.683	1691
665.736	1958
665.789	2660
665.842	905
665.895	2460
665.949	2053
666.002	2456
666.055	1933
666.108	2578
666.161	1666
666.214	2807
666.267	1922
666.320	3358
666.373	3189
666.426	2729
666.479	1202
666.532	2272
666.585	1822
666.638	2540
666.691	2351
666.744	2821
666.796	1527
666.849	2589
666.902	2744
666.955	2179
667.008	1693
667.060	1655
667.113	2096
667.166	1828
667.219	1790
667.271	2562
667.324	1385
667.377	3093
667.430	1979
667.482	1949
667.535	1841
667.587	2974
667.640	2491
667.693	3568
667.745	6776
667.798	6091
667.850	2100
667.903	2332
667.955	2250
668.008	1259
668.060	1688
668.113	2013
668.165	1435
668.218	2446
668.270	1982
668.322	2170
668.375	1294
668.427	2781
668.479	1666
668.532	2494
668.584	2624
668.636	2381
668.689	1125
668.741	2008
668.793	1561
668.845	2194
668.898	2553
668.950	1953
669.002	1857
669.054	1579
669.106	2688
669.158	2410
669.211	1885
669.263	2184
669.315	2459
669.367	2165
669.419	828
669.471	3680
669.523	1987
669.575	3192
669.627	1173
669.679	2219
669.731	1502
669.783	2040
669.835	1204
669.886	2095
669.938	1595
669.990	1588
670.042	1098
670.094	2117
670.146	1242
670.197	2729
670.249	3194
670.301	2804
670.353	4803
670.404	6247
670.456	7712
670.508	13669
670.560	23349
670.611	42732
670.663	74751
670.715	188281
670.766	268946
670.818	59613
670.869	10587
670.921	7260
670.972	4680
671.024	3890
671.075	3066
671.127	2837
671.178	2634
671.230	3445
671.281	2629
671.333	3360
671.384	2282
671.436	2979
671.487	4219
671.538	5622
671.590	8801
671.641	15349
671.692	27731
671.744	51851
671.795	26443
671.846	7639
671.897	2527
671.949	2549
672.000	2259
672.051	3029
672.102	2292
672.153	1566
672.204	1083
672.256	2558
672.307	1303
672.358	1642
672.409	1315
672.460	2655
672.511	1126
672.562	2257
672.613	940
672.664	2027
672.715	1831
672.766	2239
672.817	766
672.868	1729
672.919	1935
672.970	1871
673.021	353
673.071	1231
673.122	1373
673.173	2101
673.224	688
673.275	1788
673.326	1369
673.376	1927
673.427	630
673.478	542
673.528	1054
673.579	1039
673.630	791
673.680	1957
673.731	478
673.782	1208
673.832	777
673.883	1608
673.934	1060
673.984	1079
674.035	1167
674.085	1282
674.136	985
674.186	1977
674.237	1177
674.287	1587
674.338	1528
674.388	868
674.438	1223
674.489	2074
674.539	1113
674.589	1474
674.640	1302
674.690	1498
674.740	542
674.791	758
674.841	1468
674.891	1284
674.942	1091
674.992	1763
675.042	623
675.092	1453
675.142	-320
675.193	113
675.243	731
675.293	757
675.343	562
675.393	1365
675.443	206
675.493	1034
675.543	313
675.593	1149
675.643	112
675.693	944
675.743	557
675.793	784
675.843	335
675.893	539
675.943	-73
675.993	1003
676.043	758
676.093	1506
676.142	748
676.192	1553
676.242	554
676.292	185
676.341	-557
676.391	594
676.441	606
676.491	1361
676.540	54
676.590	765
676.640	167
676.689	714
676.739	377
676.789	-118
676.838	881
676.888	483
676.937	-274
676.987	723
677.037	132
677.086	-371
677.136	78
677.185	1272
677.235	162
677.284	688
677.333	-109
677.383	906
677.432	-215
677.482	423
677.531	-50
677.580	271
677.630	-53
677.679	854
677.728	585
677.778	755
677.827	-501
677.876	942
677.925	524
677.975	931
678.024	-297
678.073	755
678.122	856
678.171	164
678.220	414
678.269	1895
678.319	172
678.368	409
678.417	294
678.466	1325
678.515	-348
678.564	125
678.613	-689
678.662	187
678.711	-297
678.760	-255
678.809	465
678.857	285
678.906	396
678.955	264
679.004	176
679.053	495
679.102	-412
679.151	548
679.199	-544
679.248	436
679.297	-596
679.346	310
679.394	-59
679.443	746
679.492	-30
679.540	266
679.589	416
679.638	774
679.686	-205
679.735	362
679.784	-235
679.832	659
679.881	-225
679.929	643
679.978	-200
680.026	168
680.075	128
680.123	-24
680.172	423
680.220	575
680.268	296
680.317	121
680.365	71
680.414	-257
680.462	-888
680.510	651
680.559	-47
680.607	-70
680.655	513
680.703	-263
680.752	-310
680.800	303
680.848	-736
680.896	1031
680.945	-664
680.993	91
681.041	-294
681.089	448
681.137	710
681.185	369
681.233	-66
681.258	482
681.281	968
681.329	-61
681.377	247
681.380	228
681.425	-740
681.473	1069
681.502	380
681.521	-151
681.569	1237
681.617	-90
681.624	43
681.665	633
681.713	32
681.745	886
681.761	1243
681.809	1121
681.857	2484
681.867	2013
681.904	262
681.952	1000
681.989	1265
682.000	1298
682.048	1385
682.096	1362
682.111	1515
682.143	1759
682.191	531
682.233	1872
682.239	2034
682.286	973
682.334	1662
682.354	1434
682.382	1086
682.430	2842
682.476	2117
682.477	2072
682.525	2222
682.572	1078
682.598	1341
682.620	1531
682.667	1922
682.715	2642
682.720	2623
682.763	2211
682.810	2295
682.841	2538
682.857	2589
682.905	2598
682.952	2355
682.963	2457
683.000	2760
683.047	2096
683.085	2616
683.095	2710
683.142	2385
683.190	2860
683.206	2732
683.237	2437
683.284	3174
683.328	2765
683.332	2701
683.379	3484
683.426	2606
683.449	2798
683.473	2996
683.521	2847
683.568	3656
683.571	3633
683.615	3006
683.662	4086
683.693	3733
683.709	3450
683.757	3365
683.804	2868
683.814	3129
683.851	4074
683.898	3259
683.936	4040
683.945	4191
683.992	3744
684.039	4403
684.057	4389
684.086	4373
684.133	4960
684.179	4232
684.180	4179
684.227	5227
684.274	4572
684.300	4548
684.321	4548
684.368	4580
684.415	5291
684.422	5138
684.462	4015
684.509	4780
684.543	4265
684.556	4092
684.603	4404
684.649	4323
684.665	4551
684.696	4940
684.743	4851
684.786	5389
684.790	5413
684.837	4834
684.883	5571
684.908	5305
684.930	5064
684.977	5926
685.023	5627
685.029	5669
685.070	5887
685.117	5354
685.150	5634
685.164	5709
685.210	4859
685.257	6540
685.272	6602
685.303	6799
685.350	5943
685.393	6197
685.396	6204
685.443	7634
685.490	6733
685.514	7184
685.536	7363
685.583	6578
685.629	6253
685.636	6177
685.675	5837
685.722	6349
685.757	6941
685.768	7127
685.815	7381
685.861	6436
685.878	6864
685.908	7558
685.954	6725
686.000	7576
686.000	7581
686.047	6197
686.093	7193
686.121	7185
686.139	7236
686.185	8142
686.232	7389
686.242	7408
686.278	7270
686.324	7400
686.363	7671
686.370	7701
686.416	7564
686.463	7866
686.484	7378
686.509	6909
686.555	7542
686.601	6943
686.606	7035
686.647	7872
686.693	7916
686.727	7817
686.739	7778
686.785	7625
686.831	8029
686.848	8001
686.877	7910
686.923	8318
686.969	8050
686.969	8047
687.015	8613
687.061	8058
687.090	8558
687.107	8813
687.153	8418
687.199	8997
687.211	8763
687.245	8100
687.291	8533
687.332	8156
687.336	8140
687.382	8655
687.428	8340
687.453	8865
687.474	9153
687.520	8559
687.565	9308
687.574	9044
687.611	8369
687.657	9191
687.695	9444
687.702	9451
687.748	10102
687.794	9543
687.816	9736
687.839	9858
687.885	9279
687.931	9646
687.937	9557
687.976	9254
688.022	9383
688.058	9644
688.067	9681
688.113	9322
688.158	9544
688.179	9570
688.204	9712
688.249	9631
688.295	9505
688.300	9560
688.340	9952
688.386	9947
688.421	9974
688.431	9991
688.477	10050
688.522	9969
688.542	10185
688.567	10523
688.613	10273
688.658	10574
688.663	10548
688.703	10260
688.749	10168
688.784	10279
688.794	10336
688.839	10587
688.884	10535
688.905	10461
688.930	10447
688.975	10268
689.020	11583
689.026	11418
689.065	10036
689.110	10354
689.146	10047
689.155	10052
689.201	10503
689.246	10240
689.267	10374
689.291	10581
689.336	10519
689.381	10919
689.388	10851
689.426	10431
689.471	11030
689.509	10614
689.516	10565
689.561	10880
689.606	11264
689.630	10973
689.651	10779
689.696	10821
689.741	11309
689.750	11301
689.785	11278
689.830	11195
689.871	11188
689.875	11180
689.920	11321
689.965	10749
689.992	11026
690.010	11445
690.054	11068
690.099	12049
690.112	11988
690.144	11560
690.189	11477
690.233	11180
690.233	11196
690.278	11425
690.323	11023
690.354	11213
690.367	11426
690.412	11455
690.457	11952
690.474	11817
690.501	11478
690.546	11576
690.590	11697
690.595	11659
690.635	11538
690.680	11480
690.716	11688
690.724	11774
690.769	11697
690.813	12084
690.836	11797
690.857	11649
690.902	11994
690.946	12317
690.957	12426
690.991	12980
691.035	12309
691.077	13231
691.080	13277
691.124	12594
691.168	13111
691.198	12624
691.213	12484
691.257	12875
691.301	12689
691.318	12654
691.346	12786
691.390	13138
691.434	13568
691.439	13549
691.478	13563
691.522	13945
691.559	13486
691.567	13397
691.611	13855
691.655	13506
691.680	13484
691.699	13553
691.743	13753
691.787	13694
691.800	13661
691.831	13660
691.875	14111
691.919	13590
691.921	13569
691.964	13857
692.008	13990
692.041	14131
692.052	14212
692.096	14213
692.139	14752
692.162	14561
692.183	14395
692.227	14540
692.271	14058
692.282	14123
692.315	14137
692.359	13830
692.402	13548
692.403	13578
692.447	13738
692.490	13953
692.523	13954
692.534	13978
692.578	14114
692.622	14138
692.643	14211
692.666	14326
692.709	14607
692.753	14658
692.763	14576
692.797	14495
692.840	14853
692.884	14771
692.884	14801
692.928	14961
692.971	14869
693.004	14909
693.015	14920
693.059	14494
693.102	14375
693.124	14139
693.146	14253
693.189	14840
693.233	14906
693.245	15082
693.276	15612
693.320	15555
693.363	15936
693.365	15905
693.407	15576
693.450	15645
693.485	15161
693.493	15126
693.537	15470
693.580	14924
693.605	15026
693.624	15158
693.667	14774
693.710	15196
693.725	15034
693.753	15091
693.797	15569
693.840	15712
693.845	15764
693.883	15887
693.926	15450
693.966	15314
693.970	15368
694.013	15130
694.056	15352
694.086	15252
694.099	15268
694.142	15466
694.185	15336
694.206	15460
694.229	15832
694.272	16097
694.315	16530
694.326	16560
694.358	16953
694.401	17702
694.444	18254
694.446	18241
694.487	18192
694.530	17875
694.566	17844
694.573	17845
694.616	17296
694.659	16819
694.686	16484
694.702	16418
694.745	16476
694.787	15900
694.806	15889
694.830	16113
694.873	16244
694.916	16101
694.926	16036
694.959	16411
695.002	17243
695.044	17351
695.046	17344
695.087	17631
695.130	17313
695.166	17227
695.172	17309
695.215	17424
695.258	17791
695.286	17870
695.301	17806
695.343	17463
695.386	17039
695.406	16878
695.428	17166
695.471	17417
695.514	18093
695.526	18133
695.556	18263
695.599	18650
695.641	18718
695.646	18710
695.684	18673
695.726	18309
695.766	18109
695.769	18159
695.811	17897
695.854	18142
695.886	18047
695.896	18077
695.938	17980
695.981	18002
696.005	17973
696.023	18167
696.065	18382
696.108	18833
696.125	18840
696.150	18920
696.192	19318
696.235	19405
696.245	19452
696.277	19600
696.319	19432
696.361	19455
696.365	19395
696.404	19334
696.446	19281
696.485	19146
696.488	19216
696.530	19631
696.572	19787
696.604	19963
696.614	19933
696.656	19656
696.698	19305
696.724	18960
696.740	19007
696.783	19206
696.825	19318
696.844	19263
696.867	19362
696.909	19545
696.951	19793
696.964	19773
696.992	19748
697.034	19806
697.076	19672
697.083	19623
697.118	20093
697.160	20540
697.202	21017
697.203	20970
697.244	20717
697.286	20671
697.323	20412
697.327	20505
697.369	20953
697.411	21294
697.442	21575
697.453	21631
697.494	21472
697.536	21486
697.562	21367
697.578	21372
697.620	21296
697.661	21173
697.682	21059
697.703	21504
697.744	22273
697.786	23191
697.801	23371
697.828	23380
697.869	23450
697.911	23413
697.921	23360
697.952	22604
697.994	21540
698.035	20432
698.040	20235
698.077	20426
698.118	20710
698.160	20887
698.160	20830
698.201	21117
698.243	21313
698.279	21441
698.284	21510
698.325	21588
698.367	21730
698.399	21713
698.408	21754
698.449	21716
698.491	21635
698.518	21573
698.532	21752
698.573	22049
698.614	22387
698.638	22509
698.656	22607
698.697	22693
698.738	22779
698.757	22765
698.779	22837
698.820	22826
698.862	22838
698.877	22778
698.903	22975
698.944	23188
698.985	23401
698.996	23399
699.026	23266
699.067	22990
699.116	22604
699.235	21852
699.354	21939
699.474	21509
699.593	22680
699.713	21942
699.832	22239
699.951	23486
700.070	22880
700.190	21088
700.309	21319
700.428	21227
700.547	20859
700.667	20669
700.786	21478
700.905	21800
701.024	21065
701.143	20031
701.262	20185
701.381	20778
701.500	22149
701.619	23372
701.738	21348
701.857	20179
701.976	19635
702.095	19737
702.214	22405
702.333	22345
702.452	21205
702.571	19984
702.690	20743
702.809	19525
702.928	19362
703.047	19943
703.165	20422
703.284	19960
703.403	19342
703.522	19115
703.640	19477
703.759	20121
703.878	20892
703.997	18899
704.115	19655
704.234	19297
704.353	18899
704.471	17266
704.590	18742
704.708	18591
704.827	18461
704.946	18296
705.064	18085
705.183	18141
705.301	18961
705.420	19082
705.538	19147
705.656	17794
705.775	18318
705.893	18438
706.012	17892
706.130	18247
706.249	18346
706.367	18067
706.485	18984
706.604	18696
706.722	18151
706.840	20399
706.958	19617
707.077	18235
707.195	16876
707.313	17122
707.431	17118
707.549	17208
707.668	16719
707.786	17580
707.904	17104
708.022	17031
708.140	16685
708.258	17065
708.376	18391
708.494	16821
708.612	18163
708.730	18925
708.848	18271
708.966	18929
709.084	17882
709.202	18488
709.320	17105
709.438	17313
709.556	18254
709.674	15948
709.791	17322
709.909	16261
710.027	16996
710.145	15574
710.263	15574
710.380	17496
710.498	16443
710.616	17086
710.733	15604
710.851	15951
710.969	16333
711.086	15622
711.204	16255
711.322	16022
711.439	15059
711.557	15360
711.674	15920
711.792	15377
711.909	15545
712.027	14659
712.144	15743
712.262	14423
712.379	15472
712.497	16921
712.614	17343
712.732	16266
712.849	17164
712.966	16996
713.084	18970
713.201	16418
713.318	16417
713.436	16812
713.553	16502
713.670	16650
713.787	16759
713.905	16213
714.022	16514
714.139	16637
714.256	18535
714.373	22668
714.490	35804
714.608	82057
714.725	335777
714.842	332480
714.959	32472
715.076	19660
715.193	17197
715.310	16392
715.427	15112
715.544	15705
715.661	15485
715.778	14900
715.895	15622
716.011	15692
716.128	15241
716.245	14965
716.362	17982
716.479	17047
716.596	14553
716.713	14416
716.829	13937
716.946	14238
717.063	14480
717.180	13138
717.296	13548
717.413	13970
717.530	13670
717.646	13325
717.763	14470
717.880	12830
717.996	13423
718.113	13456
718.229	13492
718.346	13290
718.462	13834
718.579	16225
718.695	26638
718.812	16627
718.928	13659
719.045	12886
719.161	12315
719.277	12776
719.394	13671
719.510	13325
719.626	13477
719.743	16735
719.859	19389
719.975	31400
720.092	109415
720.208	248623
720.324	31749
720.440	15182
720.557	15019
720.673	20530
720.789	17987
720.905	17351
721.021	13721
721.137	11377
721.253	12059
721.369	12337
721.486	12663
721.602	13338
721.718	11727
721.834	11691
721.950	11686
722.066	11952
722.181	11584
722.297	11938
722.413	12465
722.529	11487
722.645	11883
722.761	11302
722.877	11388
722.993	10869
723.108	12431
723.224	12081
723.340	10602
723.456	11038
723.571	10820
723.687	10498
723.803	10599
723.918	11212
724.034	10649
724.150	10949
724.265	10689
724.381	11604
724.497	12555
724.612	10419
724.728	10362
724.843	9880
724.959	10218
725.074	12047
725.190	11964
725.305	10839
725.421	10782
725.536	10376
725.651	10568
725.767	10247
725.882	11040
725.997	10581
726.113	10916
726.228	10688
726.343	11156
726.459	9892
726.574	10358
726.689	10384
726.804	10808
726.920	9807
727.035	10185
727.150	9992
727.265	10469
727.380	10317
727.495	11078
727.610	9425
727.725	10113
727.841	9669
727.956	10044
728.071	10230
728.186	10592
728.301	10219
728.416	10677
728.531	9673
728.645	9472
728.760	10396
728.875	10816
728.990	11500
729.105	9349
729.220	10030
729.335	10707
729.449	9419
729.564	9220
729.679	8894
729.794	9417
729.908	8866
730.023	9745
730.138	9112
730.253	10327
730.367	9441
730.482	9462
730.596	9473
730.711	10238
730.826	10761
730.940	10852
731.055	11001
731.169	9890
731.284	9751
731.398	10034
731.513	9984
731.627	9788
731.742	10948
731.856	11228
731.970	11496
732.085	12153
732.199	15093
732.313	21985
732.428	49182
732.542	157090
732.656	90871
732.771	18516
732.885	13524
732.999	12537
733.113	12456
733.227	11218
733.342	11717
733.456	11784
733.570	11437
733.684	11126
733.798	11687
733.912	9506
734.026	10758
734.140	9508
734.254	10514
734.368	11653
734.482	12042
734.596	10550
734.710	10497
734.824	9984
734.938	10713
735.052	10258
735.166	10992
735.280	10767
735.393	10694
735.507	10765
735.621	10464
735.735	10083
735.849	10366
735.962	9865
736.076	9745
736.190	9534
736.303	10869
736.417	10506
736.531	9206
736.644	8920
736.758	9256
736.872	9344
736.985	9574
737.099	9437
737.212	9330
737.326	9563
737.439	9685
737.553	9092
737.666	8404
737.780	8429
737.893	9494
738.007	8398
738.120	9175
738.233	8934
738.347	10181
738.460	9462
738.573	10636
738.687	8873
738.800	10068
738.913	11300
739.026	8932
739.140	9512
739.253	8948
739.366	8643
739.479	8444
739.592	8790
739.705	9174
739.818	9130
739.932	9002
740.045	9381
740.158	8199
740.271	7975
740.384	8492
740.497	8155
740.610	9134
740.723	8247
740.836	8213
740.949	8944
741.062	10914
741.174	9951
741.287	8260
741.400	8869
741.513	7613
741.626	8359
741.739	8214
741.851	8256
741.964	8244
742.077	8491
742.189	8499
742.302	10923
742.415	7832
742.527	8276
742.640	8341
742.753	7726
742.865	7883
742.978	7977
743.090	7279
743.203	8254
743.316	7634
743.428	7291
743.541	7241
743.653	7509
743.766	7914
743.878	7956
743.990	8846
744.103	11740
744.215	11921
744.327	7864
744.440	9749
744.552	13432
744.664	8949
744.777	8836
744.889	7099
745.001	7814
745.113	7446
745.226	7845
745.338	7279
745.450	7821
745.562	7887
745.674	6670
745.786	7061
745.898	6425
746.010	7451
746.122	7264
746.234	7387
746.347	7122
746.459	7753
746.570	8607
746.682	11343
746.794	15713
746.906	8635
747.018	7122
747.130	7931
747.242	7262
747.354	7169
747.466	6962
747.577	7332
747.689	7423
747.801	7821
747.913	6444
748.024	7572
748.136	6882
748.248	7558
748.359	7063
748.471	6575
748.583	6642
748.694	6290
748.806	7450
748.918	6151
749.029	7455
749.141	7821
749.252	6771
749.364	7804
749.475	13284
749.587	8940
749.698	5192
749.809	8079
749.921	6686
750.032	6982
750.144	5973
750.255	6725
750.366	7055
750.478	6363
750.589	7566
750.700	6456
750.811	7896
750.923	7765
751.034	14225
751.145	13093
751.256	6280
751.367	7055
751.479	7106
751.590	5493
751.701	6701
751.812	6743
751.923	6342
752.034	6847
752.145	6685
752.256	5767
752.367	5589
752.478	6350
752.589	6831
752.700	5701
752.811	6692
752.922	6462
753.032	6096
753.143	7365
753.254	5754
753.365	6229
753.476	6370
753.586	6097
753.697	5232
753.808	6222
753.919	5776
754.029	5745
754.140	5521
754.251	5533
754.361	5406
754.472	5750
754.582	5613
754.693	5741
754.804	5877
754.914	5537
755.025	5955
755.135	5008
755.246	5669
755.356	5309
755.466	6114
755.577	5567
755.687	5267
755.798	6447
755.908	5826
756.018	5633
756.129	6106
756.239	5738
756.349	5604
756.460	5969
756.570	5946
756.680	5903
756.790	5438
756.900	6199
757.011	5741
757.121	5221
757.231	5564
757.341	5884
757.451	5109
757.561	4887
757.671	5475
757.781	5074
757.891	6345
758.001	5168
758.111	6279
758.221	6139
758.331	7634
758.441	6400
758.551	7902
758.661	7500
758.771	5592
758.880	5635
758.990	5997
759.100	4453
759.210	6040
759.320	6479
759.429	5441
759.539	5881
759.649	5350
759.758	6241
759.868	6339
759.978	5513
760.087	6488
760.197	6249
760.307	6035
760.416	5413
760.526	5658
760.635	6560
760.745	5595
760.854	6047
760.964	7170
761.073	7156
761.182	5781
761.292	5773
761.401	6354
761.511	5193
761.620	4500
761.729	5120
761.839	5199
761.948	5095
762.057	5214
762.166	4256
762.276	4287
762.385	6441
762.494	4846
762.603	5338
762.712	4859
762.822	4659
762.931	5928
763.040	4183
763.149	4631
763.258	5091
763.367	5195
763.476	5117
763.585	4883
763.694	4487
763.803	4865
763.912	5250
764.021	5088
764.130	4822
764.238	4349
764.347	4575
764.456	4115
764.565	4277
764.674	4507
764.783	4271
764.891	3491
765.000	5185
765.109	5887
765.217	4855
765.326	4787
765.435	4632
765.543	4935
765.652	4613
765.761	5081
765.869	5436
765.978	6767
766.086	9128
766.195	13785
766.303	36727
766.412	142542
766.520	127691
766.629	14132
766.737	7597
766.846	6148
766.954	5386
767.062	5699
767.171	5336
767.279	5357
767.387	4234
767.496	4651
767.604	4464
767.712	4325
767.820	4955
767.928	4581
768.037	4588
768.145	4616
768.253	5095
768.361	4279
768.469	3985
768.577	4378
768.685	5414
768.793	4463
768.901	3916
769.009	4338
769.117	3553
769.225	5686
769.333	4412
769.441	5881
769.549	7414
769.657	13508
769.765	44095
769.873	128404
769.981	28613
770.088	6070
770.196	4446
770.304	4930
770.412	5693
770.519	4660
770.627	4798
770.735	3872
770.842	4667
770.950	5140
771.058	4505
771.165	5117
771.273	4774
771.380	4979
771.488	5398
771.595	6249
771.703	5616
771.810	6485
771.918	4680
772.025	5623
772.133	6174
772.240	5949
772.348	7581
772.455	5930
772.562	5276
772.670	6098
772.777	6345
772.884	5639
772.991	6164
773.099	5472
773.206	5047
773.313	6477
773.420	6487
773.528	5191
773.635	5168
773.742	6343
773.849	5565
773.956	5434
774.063	6517
774.170	5336
774.277	5929
774.384	5904
774.491	5493
774.598	5420
774.705	6828
774.812	7731
774.919	6135
775.026	5232
775.133	6039
775.239	5552
775.346	4836
775.453	5156
775.560	4284
775.667	5406
775.773	4789
775.880	6785
775.987	5517
776.093	5779
776.200	6612
776.307	4443
776.413	4922
776.520	5656
776.627	5633
776.733	5036
776.840	5503
776.946	8130
777.053	11892
777.159	18915
777.266	10191
777.372	16451
777.478	12578
777.585	7160
777.691	5330
777.798	5826
777.904	5354
778.010	6603
778.117	6111
778.223	4472
778.329	5393
778.435	4987
778.542	5513
778.648	4501
778.754	4697
778.860	4609
778.966	5044
779.072	4303
779.178	4789
779.284	4940
779.391	4528
779.497	4321
779.603	5273
779.708	4648
779.815	4943
779.920	5204
780.026	5777
780.132	4981
780.238	4806
780.344	4462
780.450	5463
780.556	4217
780.661	3764
780.767	4581
780.873	3931
780.979	4359
781.085	4690
781.190	4537
781.296	5127
781.402	3401
781.507	4478
781.613	4639
781.719	3841
781.824	5125
781.930	4931
782.035	5079
782.141	4596
782.246	3338
782.352	4315
782.457	3757
782.563	4268
782.668	3948
782.773	4018
782.879	3780
782.984	5036
783.090	5455
783.195	7312
783.300	5422
783.405	4141
783.511	4029
783.616	4126
783.721	4038
783.826	3735
783.932	4335
784.037	4424
784.142	4012
784.247	3650
784.352	4451
784.457	3887
784.562	4532
784.667	3924
784.772	4154
784.877	2906
784.982	4852
785.087	4077
785.192	3613
785.297	3132
785.402	4038
785.507	3402
785.611	4351
785.716	3562
785.821	3636
785.926	3090
786.031	3458
786.135	3968
786.240	3864
786.345	2566
786.450	3456
786.554	3895
786.659	3076
786.763	3037
786.868	3739
786.973	4307
787.077	2608
787.182	4044
787.286	3735
787.391	3745
787.495	3084
787.600	3062
787.704	2746
787.809	4009
787.913	3440
788.017	3918
788.122	3631
788.226	2847
788.330	2815
788.435	3282
788.539	4093
788.643	2902
788.747	2731
788.852	3473
788.956	3139
789.060	3707
789.164	2807
789.268	2515
789.372	2522
789.476	2223
789.580	2473
789.684	2415
789.788	3741
789.892	2847
789.996	3300
790.100	2765
790.204	3175
790.308	3186
790.412	2781
790.516	3387
790.620	3144
790.724	3665
790.828	2711
790.931	2971
791.035	4418
791.139	2514
791.242	2558
791.346	3960
791.450	3697
791.554	3198
791.657	2206
791.761	3638
791.864	3387
791.968	3727
792.072	4043
792.175	2364
792.279	2692
792.382	3126
792.486	2765
792.589	2894
792.693	2827
792.796	2184
792.899	2829
793.003	4486
793.106	1743
793.209	2747
793.313	4016
793.416	1815
793.519	4684
793.623	5444
793.726	6672
793.829	2256
793.932	2979
794.035	2649
794.138	4214
794.242	4399
794.345	3298
794.448	3969
794.551	5070
794.654	5673
794.757	4782
794.860	3578
794.963	3014
795.066	2545
795.169	3582
795.272	2523
795.375	3134
795.477	2414
795.580	2811
795.683	1686
795.786	3206
795.889	1848
795.991	3464
796.094	2852
796.197	1558
796.300	3593
796.402	3313
796.505	1764
796.608	2302
796.710	3755
796.813	2548
796.915	2475
797.018	3278
797.120	2446
797.223	1470
797.326	2917
797.428	2233
797.530	2485
797.633	2916
797.735	3982
797.838	2469
797.940	4196
798.042	3091
798.145	2239
798.247	2855
798.349	862
798.452	3447
798.554	2511
798.656	1552
798.758	2682
798.860	2300
798.962	2412
799.065	2295
799.167	1905
799.269	3646
799.371	4088
799.473	4214
799.575	1769
799.677	3124
799.779	3721
799.881	3988
799.983	4481
800.085	2263
800.187	2754
800.289	2170
800.390	3466
800.492	3486
800.594	3531
800.696	2187
800.798	2546
800.899	2345
801.001	2635
801.103	2242
801.205	2008
801.306	2352
801.408	1219
801.509	1671
801.611	3047
801.713	1992
801.814	1897
801.916	2361
802.017	2349
802.119	2312
802.220	2853
802.322	655
802.423	4512
802.525	1910
802.626	2437
802.727	3073
802.829	3081
802.930	558
803.031	3714
803.133	2571
803.234	1232
803.335	3003
803.436	1325
803.538	2124
803.639	1025
803.740	2476
803.841	2149
803.942	2190
804.043	2482
804.144	1279
804.245	2179
804.346	2370
804.447	1958
804.548	3881
804.649	4592
804.750	2590
804.851	1798
804.952	2226
805.053	1947
805.154	1574
805.255	3029
805.355	2457
805.456	2108
805.557	1824
805.658	1188
805.758	2647
805.859	2520
805.960	2462
806.061	1793
806.161	2172
806.262	2738
806.362	1811
806.463	1749
806.564	3195
806.664	1901
806.765	1691
806.865	2384
806.966	1441
807.066	1979
807.166	2841
807.267	2623
807.367	1391
807.468	1715
807.568	1437
807.668	2742
807.769	2808
807.869	1729
807.969	1404
808.069	2576
808.170	2231
808.270	1506
808.370	2065
808.470	3020
808.570	2327
808.670	2497
808.770	2558
808.870	1092
808.970	2247
809.070	2039
809.170	813
809.271	2244
809.370	2012
809.470	2044
809.570	459
809.670	1134
809.770	1937
809.870	2027
809.970	2194
810.070	1592
810.169	1979
810.269	482
810.369	2827
810.469	1784
810.568	1392
810.668	1381
810.768	2018
810.867	2652
810.967	1917
811.066	2251
811.166	1451
811.265	2243
811.365	852
811.464	1141
811.564	3018
811.663	2661
811.763	610
811.862	2322
811.962	3206
812.061	2348
812.160	1679
812.260	1941
812.359	1375
812.458	2126
812.557	3742
812.657	3571
812.756	2271
812.855	2660
812.954	1651
813.053	1944
813.153	1955
813.252	1189
813.351	2150
813.450	1924
813.549	2000
813.648	1332
813.747	1178
813.846	2573
813.945	1664
814.044	1462
814.143	1666
814.242	2716
814.341	1430
814.439	2493
814.538	2198
814.637	2243
814.736	2118
814.835	2742
814.933	2092
815.032	2734
815.131	2839
815.229	3539
815.328	3944
815.427	3142
815.525	4047
815.624	2461
815.722	2254
815.821	3712
815.919	3665
816.018	1839
816.116	4065
816.215	2862
816.313	3134
816.412	3276
816.510	3943
816.609	4959
816.707	3279
816.805	3555
816.904	3518
817.002	3498
817.100	3726
817.198	3710
817.296	3224
817.395	3359
817.493	4803
817.591	3657
817.689	3683
817.787	6065
817.885	6907
817.983	11053
818.081	20777
818.179	48555
818.277	134816
818.375	106333
818.473	22776
818.571	10023
818.669	8570
818.767	8137
818.865	7392
818.963	7054
819.061	10518
819.158	18009
819.256	38562
819.354	91422
819.452	217667
819.549	124845
819.647	28488
819.745	11837
819.842	8693
819.940	5808
820.038	5757
820.135	4848
820.233	6189
820.330	3676
820.428	3254
820.525	4068
820.623	3508
820.720	3659
820.818	3142
820.915	3715
821.012	3700
821.110	2776
821.207	4328
821.304	3125
821.402	4261
821.499	6168
821.596	7073
821.693	3603
821.791	3383
821.888	3698
821.985	7689
822.082	5164
822.179	4783
822.276	4179
822.373	2868
822.470	2137
822.567	3049
822.664	1909
822.761	2309
822.858	1401
822.955	3577
823.052	2161
823.149	2478
823.246	1796
823.343	2268
823.440	2413
823.536	2882
823.633	2234
823.730	2565
823.827	2834
823.923	3244
824.020	3627
824.117	3435
824.213	3533
824.310	2724
824.407	2316
824.503	3081
824.600	2460
824.696	2191
824.793	3433
824.889	1651
824.986	2812
825.082	1973
825.179	2416
825.275	3194
825.371	2305
825.468	2558
825.564	1393
825.660	3117
825.757	2906
825.853	3323
825.949	1402
826.045	2135
826.142	1722
826.238	1838
826.334	2769
826.430	2108
826.526	2767
826.622	1637
826.718	2380
826.814	2498
826.910	2796
827.006	2290
827.102	779
827.198	2209
827.294	1975
827.390	2513
827.486	3336
827.582	1101
827.678	819
827.774	3015
827.869	1624
827.965	2839
828.061	1351
828.157	2138
828.252	1037
828.348	1659
828.444	1866
828.539	1401
828.635	2155
828.731	2297
828.826	1196
828.922	2264
829.017	1111
829.113	1781
829.208	1699
829.304	1260
829.399	3281
829.495	1573
829.590	2073
829.685	1969
829.781	1794
829.876	2142
829.971	1305
830.066	1259
830.162	1590
830.257	1769
830.352	1820
830.447	2355
830.543	1888
830.638	1127
830.733	2286
830.828	2106
830.923	1843
831.018	1416
831.113	2286
831.208	2174
831.303	1417
831.398	1508
831.493	1120
831.588	2365
831.683	925
831.778	1447
831.873	1723
831.967	2046
832.062	1732
832.157	910
832.252	2788
832.346	2221
832.441	4011
832.536	4142
832.631	8451
832.725	7414
832.820	1843
832.914	1653
833.009	1806
833.104	2503
833.198	2782
833.293	1944
833.387	2407
833.482	1791
833.576	452
833.670	1681
833.765	1611
833.859	1726
833.954	2284
834.048	2782
834.142	1737
834.237	1302
834.331	1280
834.425	1740
834.519	1393
834.613	1959
834.708	1652
834.802	2038
834.896	835
834.990	1997
835.084	2006
835.178	1795
835.272	1507
835.366	1209
835.460	1740
835.554	1548
835.648	1586
835.742	749
835.836	2012
835.930	-27
836.024	1933
836.117	2786
836.211	1571
836.305	1457
836.399	1734
836.493	970
836.586	1995
836.680	2234
836.774	-88
836.867	1410
836.961	342
837.055	1412
837.148	1254
837.242	1021
837.335	390
837.429	1074
837.522	1325
837.616	1016
837.709	1719
837.803	714
837.896	1512
837.989	1248
838.083	1448
838.176	1367
838.269	1118
838.363	1719
838.456	1474
838.549	3336
838.642	3614
838.735	8741
838.829	4276
838.922	1470
839.015	1768
839.108	631
839.201	1418
839.294	1310
839.387	1574
839.480	861
839.573	688
839.666	1177
839.759	831
839.852	892
839.945	1042
840.038	1196
840.131	1076
840.223	1056
840.316	1804
840.409	1346
840.502	665
840.594	1313
840.687	405
840.780	1558
840.873	1534
840.965	1493
841.058	1363
841.150	1494
841.243	1130
841.336	1131
841.428	979
841.521	1368
841.613	1218
841.706	1690
841.798	1526
841.890	1469
841.983	723
842.075	1876
842.167	1074
842.260	2061
842.352	1930
842.444	1309
842.537	1259
842.629	2596
842.721	1189
842.813	922
842.905	339
842.997	473
843.090	1243
843.182	1709
843.274	1047
843.366	2177
843.458	2963
843.550	2721
843.642	415
843.734	1436
843.826	1824
843.918	1638
844.009	957
844.101	1683
844.193	1959
844.285	1595
844.377	2708
844.469	3870
844.560	3432
844.652	2635
844.744	1834
844.835	1312
844.927	1565
845.019	775
845.110	1023
845.202	1029
845.293	870
845.385	337
845.476	1188
845.568	2027
845.659	658
845.751	1450
845.842	1385
845.934	1700
846.025	333
846.116	2218
846.208	889
846.299	799
846.390	1103
846.482	1704
846.573	1473
846.664	1100
846.755	2452
846.846	2717
846.937	686
847.029	1162
847.120	651
847.211	897
847.302	1401
847.393	247
847.484	1093
847.575	1276
847.666	669
847.757	1041
847.847	1024
847.938	1071
848.029	783
848.120	942
848.211	1145
848.302	539
848.392	395
848.483	1678
848.574	758
848.664	1038
848.755	744
848.846	1599
848.936	558
849.027	763
849.118	920
849.208	688
849.299	957
849.389	2533
849.480	3990
849.570	6414
849.661	12366
849.751	22583
849.841	8726
849.932	1489
850.022	728
850.112	1165
850.203	582
850.293	767
850.383	853
850.474	402
850.564	1031
850.654	1004
850.744	1052
850.834	836
850.924	484
851.014	798
851.104	1067
851.194	1177
851.284	824
851.374	1738
851.464	1064
851.554	982
851.644	1779
851.734	1490
851.824	1670
851.914	522
852.004	1031
852.094	416
852.183	431
852.273	326
852.363	720
852.452	277
852.542	748
852.632	860
852.721	1060
852.811	596
852.901	810
852.990	709
853.080	447
853.169	922
853.259	1560
853.348	192
853.438	1265
853.527	2043
853.617	2497
853.706	4597
853.795	6544
853.885	18704
853.974	32639
854.063	59289
854.152	95801
854.242	36964
854.331	6100
854.420	2853
854.509	2342
854.598	2389
854.687	1175
854.777	1373
854.866	894
854.955	1526
855.044	531
855.133	769
855.222	653
855.311	870
855.400	1533
855.488	1044
855.577	803
855.666	859
855.755	581
855.844	638
855.933	964
856.021	428
856.110	1451
856.199	260
856.288	487
856.376	759
856.465	462
856.554	708
856.642	1598
856.731	1400
856.819	1067
856.908	1202
856.996	1018
857.085	8
857.173	511
857.262	350
857.350	1316
857.438	716
857.527	1007
857.615	463
857.703	911
857.792	1102
857.880	967
857.968	670
858.056	883
858.145	477
858.233	545
858.321	961
858.409	682
858.497	-14
858.585	639
858.673	1133
858.761	569
858.849	317
858.937	610
859.025	826
859.113	1631
859.201	477
859.289	1548
859.377	744
859.465	465
859.552	870
859.640	383
859.728	1428
859.816	1190
859.903	1054
859.991	459
860.079	473
860.166	663
860.254	1155
860.342	707
860.429	130
860.517	-268
860.604	1650
860.692	1071
860.779	991
860.867	691
860.954	760
861.042	1384
861.129	608
861.216	702
861.304	938
861.391	1474
861.478	927
861.565	633
861.653	1040
861.740	-346
861.827	1510
861.914	1153
862.001	1190
862.089	737
862.176	1609
862.263	436
862.350	190
862.437	-435
862.524	1336
862.611	1769
862.698	2000
862.785	1975
862.871	1304
862.958	693
863.045	492
863.132	1036
863.219	167
863.306	-56
863.392	2240
863.479	51
863.566	601
863.652	963
863.739	198
863.826	153
863.912	835
863.999	129
864.086	75
864.172	468
864.259	1158
864.345	312
864.432	725
864.518	585
864.604	516
864.691	883
864.777	1718
864.863	1179
864.950	978
865.036	1208
865.122	2033
865.209	2782
865.295	2001
865.381	2580
865.467	3446
865.553	3483
865.639	3196
865.726	5664
865.812	9977
865.898	18731
865.984	27633
866.070	50819
866.156	57638
866.242	14859
866.328	4758
866.414	1981
866.499	2247
866.585	2730
866.671	1930
866.757	1939
866.843	2094
866.928	1808
867.014	1521
867.100	2748
867.186	2202
867.271	3205
867.357	2749
867.442	2576
867.528	2629
867.614	1856
867.699	2737
867.785	3575
867.870	3988
867.956	4512
868.041	3656
868.127	2310
868.212	3912
868.297	2979
868.383	2775
868.468	3642
868.553	4970
868.639	5794
868.724	10341
868.809	10076
868.894	2499
868.979	1792
869.065	1305
869.150	778
869.235	1396
869.320	1662
869.405	817
869.490	871
869.575	2014
869.660	1802
869.745	1797
869.830	1273
869.915	1766
870.000	1542
870.085	1743
870.169	2637
870.254	3154
870.339	712
870.424	548
870.509	1799
870.593	1276
870.678	1608
870.763	812
870.847	1443
870.932	1204
871.016	2459
871.101	1345
871.186	1747
871.270	1184
871.355	937
871.439	873
871.523	1957
871.608	1637
871.692	1089
871.777	1761
871.861	949
871.945	569
872.030	1083
872.114	891
872.198	679
872.282	2082
872.367	715
872.451	1251
872.535	1002
872.619	1658
872.703	1125
872.787	1093
872.871	589
872.955	1577
873.039	779
873.123	1236
873.207	1050
873.291	679
873.375	719
873.459	927
873.543	1072
873.627	1337
873.711	12
873.794	1079
873.878	420
873.962	219
874.045	604
874.129	1106
874.137	1052
874.213	506
874.245	690
874.296	995
874.352	458
874.380	187
874.460	1150
874.464	1189
874.547	672
874.568	881
874.631	1483
874.676	1084
874.714	770
874.784	1316
874.798	1414
874.881	2119
874.892	2008
874.965	1292
874.999	823
875.048	135
875.107	143
875.131	182
875.215	1708
875.215	1708
875.298	847
875.323	707
875.381	392
875.430	918
875.465	1274
875.538	1105
875.548	1086
875.631	528
875.646	467
875.714	156
875.753	456
875.798	823
875.861	306
875.881	125
875.964	747
875.968	743
876.047	816
876.076	993
876.130	1214
876.183	1085
876.213	1057
876.291	930
876.296	915
876.379	762
876.398	742
876.462	725
876.506	418
876.545	88
876.613	746
876.628	913
876.711	172
876.721	268
876.794	914
876.828	951
876.877	1060
876.935	581
876.960	366
877.043	91
877.043	93
877.125	467
877.150	597
877.208	809
877.258	637
877.291	587
877.365	463
877.374	424
877.456	-324
877.472	-325
877.539	-58
877.579	512
877.622	979
877.687	65
877.704	-188
877.787	491
877.794	465
877.869	432
877.901	621
877.952	817
878.008	605
878.034	485
878.115	289
878.117	286
878.199	-138
878.222	143
878.282	888
878.329	900
878.364	947
878.437	1389
878.447	1399
878.529	783
878.544	696
878.611	525
878.651	301
878.694	74
878.758	554
878.776	701
878.858	783
878.865	763
878.941	161
878.972	240
879.023	601
879.078	548
879.105	570
879.185	425
879.187	420
879.269	815
879.292	866
879.351	814
879.399	357
879.433	146
879.506	662
879.516	716
879.598	486
879.613	472
879.680	369
879.720	557
879.762	707
879.827	87
879.844	-5
879.926	562
879.933	625
880.007	1004
880.040	723
880.089	376
880.147	859
880.171	981
880.253	1507
880.254	1512
880.335	2274
880.360	2684
880.417	3555
880.467	5010
880.499	6047
880.574	6954
880.580	6931
880.662	2996
880.680	2473
880.744	832
880.787	624
880.825	605
880.893	964
880.907	1023
880.989	644
881.000	625
881.070	421
881.106	141
881.152	5
881.213	611
881.233	728
881.315	344
881.319	346
881.396	345
881.426	293
881.478	272
881.532	275
881.559	300
881.639	218
881.641	209
881.722	334
881.745	220
881.803	398
881.852	716
881.885	748
881.958	756
881.966	735
882.047	824
882.064	777
882.129	781
882.171	954
882.210	1249
882.277	1955
882.291	2063
882.372	1201
882.383	1177
882.454	674
882.489	549
882.535	567
882.596	701
882.616	751
882.697	130
882.702	146
882.778	256
882.808	255
882.859	484
882.914	724
882.940	854
883.020	791
883.021	788
883.102	607
883.127	581
883.183	598
883.233	137
883.264	-63
883.339	545
883.345	581
883.426	546
883.445	439
883.507	255
883.551	455
883.587	478
883.657	403
883.668	474
883.749	723
883.763	775
883.830	376
883.869	41
883.910	-19
883.975	326
883.991	308
884.072	77
884.081	31
884.152	435
884.187	643
884.233	561
884.292	657
884.314	656
884.394	281
884.398	273
884.475	154
884.504	65
884.555	180
884.610	280
884.636	335
884.716	646
884.716	648
884.797	1029
884.821	950
884.877	725
884.927	621
884.958	569
885.033	684
885.038	670
885.118	302
885.139	159
885.199	121
885.244	282
885.279	496
885.350	518
885.359	456
885.439	442
885.456	365
885.520	454
885.561	620
885.600	777
885.667	994
885.680	925
885.760	314
885.773	231
885.840	265
885.878	458
885.920	583
885.984	273
886.000	239
886.080	363
886.089	392
886.160	941
886.195	1173
886.240	963
886.300	669
886.320	713
886.400	760
886.406	781
886.480	645
886.511	553
886.560	538
886.616	360
886.640	427
886.720	757
886.722	761
886.800	143
886.827	-1
886.879	364
886.932	732
886.959	602
887.038	-60
887.039	-59
887.119	127
887.143	164
887.198	487
887.248	700
887.278	673
887.354	733
887.358	715
887.437	150
887.459	3
887.517	184
887.564	422
887.596	413
887.669	246
887.676	271
887.755	697
887.774	754
887.835	320
887.880	194
887.914	386
887.985	442
887.994	452
888.073	648
888.090	703
888.153	673
888.195	612
888.232	550
888.300	495
888.311	517
888.391	556
888.405	583
888.470	527
888.510	437
888.549	388
888.615	392
888.628	329
888.708	-130
888.720	-190
888.787	15
888.825	96
888.866	-2
888.930	-114
888.945	-12
889.024	532
889.035	609
889.103	306
889.140	110
889.182	90
889.245	98
889.261	36
889.340	-237
889.349	-265
889.419	289
889.454	565
889.498	277
889.559	-115
889.577	16
889.656	622
889.664	685
889.735	880
889.768	974
889.814	459
889.873	-220
889.978	-144
890.083	515
890.187	-738
890.292	518
890.397	51
890.501	251
890.606	358
890.710	723
890.815	-784
890.919	48
891.024	-500
891.128	433
891.233	-9
891.337	995
891.442	432
891.546	245
891.650	623
891.755	234
891.859	1055
891.963	619
892.068	-348
892.172	-254
892.276	-221
892.380	606
892.484	-611
892.589	29
892.693	-119
892.797	170
892.901	677
893.005	11
893.109	-250
893.213	1011
893.317	-500
893.421	676
893.525	312
893.629	-778
893.733	-176
893.837	373
893.941	-255
894.045	1027
894.148	197
894.252	35
894.356	-3
894.460	248
894.564	197
894.667	367
894.771	-436
894.875	-243
894.978	388
895.082	292
895.186	591
895.289	675
895.393	237
895.496	219
895.600	118
895.703	749
895.807	-706
895.910	333
896.014	-31
896.117	-84
896.221	620
896.324	320
896.427	-1145
896.531	-105
896.634	-395
896.737	316
896.840	-653
896.944	-9
897.047	-477
897.150	149
897.253	-924
897.356	223
897.460	-487
897.563	-90
897.666	-334
897.769	-431
897.872	0
897.975	35
898.078	-366
898.181	54
898.284	-113
898.387	-57
898.490	48
898.593	720
898.695	-64
898.798	330
898.901	440
899.004	124
899.107	113
899.209	825
899.312	-370
899.415	21
899.518	14
899.620	-517
899.723	-317
899.826	365
899.928	-220
900.031	-371
900.133	-471
900.236	506
900.338	-1054
900.441	1039
900.543	-303
900.646	-106
900.748	-541
900.851	422
900.953	-124
901.055	3
901.158	-825
901.260	-217
901.362	-78
901.465	-146
901.567	-1017
901.669	-357
901.771	-504
901.873	-352
901.976	-557
902.078	-178
902.180	-376
902.282	-645
902.384	-831
902.486	-253
902.588	-374
902.690	209
902.792	-204
902.894	831
902.996	113
903.098	-522
903.200	263
903.302	429
903.404	-394
903.505	-642
903.607	26
903.709	-656
903.811	-613
903.913	-208
904.014	-499
904.116	346
904.218	-501
904.319	351
904.421	867
904.523	1805
904.624	-90
904.726	764
904.827	138
904.929	1007
905.030	-636
905.132	528
905.233	-1497
905.335	-1185
905.436	-179
905.537	35
905.639	-927
905.740	-720
905.841	-988
905.943	1671
906.044	1368
906.145	709
906.247	-282
906.348	-44
906.449	254
906.550	731
906.651	234
906.752	-301
906.854	-346
906.955	236
907.056	152
907.157	-316
907.258	-1191
907.359	-529
907.460	-479
907.561	104
907.662	-806
907.762	-951
907.863	-1265
907.964	-840
908.065	370
908.166	-695
908.267	-857
908.367	-248
908.468	-978
908.569	-505
908.670	-372
908.770	136
908.871	-1013
908.971	272
909.072	-696
909.173	-569
909.273	-794
909.374	-405
909.474	18
909.575	140
909.675	-960
909.776	-286
909.876	-562
909.977	-843
910.077	86
910.177	153
910.278	-40
910.378	-1153
910.478	-898
910.579	-21
910.679	-228
910.779	-471
910.879	-955
910.980	401
911.080	-1017
911.180	-393
911.280	-1335
911.380	-621
911.480	-621
911.580	-1044
911.680	210
911.780	-599
911.880	-432
911.980	-545
912.080	33
912.180	58
912.280	-433
912.380	-972
912.480	-1226
912.580	-556
912.679	-352
912.779	-758
912.879	-726
912.979	330
913.078	-251
913.178	-334
913.278	-1469
913.377	-463
913.477	-617
913.577	-1665
913.676	-297
913.776	-750
913.875	-644
913.975	123
914.074	-403
914.174	-38
914.273	-1695
914.373	295
914.472	-11
914.572	-1432
914.671	-585
914.770	-1180
914.870	-501
914.969	-413
915.068	-515
915.167	-631
915.267	-1100
915.366	-627
915.465	-358
915.564	-161
915.663	-1170
915.763	-389
915.862	-765
915.961	-704
916.060	-848
916.159	-625
916.258	-1614
916.357	-649
916.456	-291
916.555	-525
916.654	-1012
916.752	-904
916.851	-719
916.950	-46
917.049	-266
917.148	-707
917.247	-812
917.345	-287
917.444	-1124
917.543	-205
917.642	-1354
917.740	-368
917.839	-760
917.937	-498
918.036	-133
918.135	-1159
918.233	-696
918.332	-103
918.430	-993
918.529	-76
918.627	-331
918.726	-984
918.824	-890
918.923	-552
919.021	-923
919.119	-607
919.218	-903
919.316	-977
919.414	-803
919.512	-1264
919.611	-452
919.709	24
919.807	-482
919.905	-309
920.003	-964
920.102	-1129
920.200	-1374
920.298	-322
920.396	-819
920.494	-175
920.592	-753
920.690	-59
920.788	-575
920.886	-384
920.984	-163
921.082	-556
921.180	-408
921.277	-1076
921.375	-916
921.473	-259
921.571	-751
921.669	-368
921.766	-1140
921.864	668
921.962	-1643
922.060	-598
922.157	-345
922.255	-490
922.352	-440
922.450	-251
922.548	-525
922.645	-148
922.743	-946
922.840	51
922.938	-737
923.035	-614
923.133	123
923.230	-686
923.327	-133
923.425	196
923.522	-191
923.619	1054
923.717	-278
923.814	233
923.911	-74
924.008	40
924.106	-306
924.203	-703
924.300	-648
924.397	-608
924.494	-413
924.591	107
924.688	-1006
924.786	333
924.883	-80
924.979	-1005
925.077	590
925.173	-469
925.270	-647
925.367	-250
925.464	-542
925.561	328
925.658	292
925.755	-192
925.852	-3
925.948	1303
926.045	1611
926.142	1609
926.239	3090
926.335	2278
926.432	1569
926.529	2179
926.625	1929
926.722	2132
926.818	239
926.915	-429
927.011	482
927.108	342
927.204	-848
927.301	274
927.397	-99
927.494	-189
927.590	-854
927.687	378
927.783	-915
927.879	-49
927.976	-780
928.072	-116
928.168	-656
928.264	435
928.361	-1030
928.457	350
928.553	37
928.649	-578
928.745	-274
928.841	-274
928.937	161
929.033	-405
929.129	-113
929.225	-22
929.321	-494
929.417	-613
929.513	-926
929.609	102
929.705	-957
929.801	56
929.897	-959
929.993	-6
930.089	-561
930.184	-974
930.280	-1038
930.376	660
930.471	-1075
930.567	-913
930.663	-731
930.758	-269
930.854	-787
930.950	-342
931.045	-1200
931.141	-980
931.236	-270
931.332	-566
931.427	-816
931.523	159
931.618	-309
931.714	-887
931.809	-367
931.905	-629
932.000	-424
932.095	-1256
932.191	-580
932.286	-50
932.381	-597
932.476	-184
932.572	-240
932.667	-852
932.762	94
932.857	235
932.952	-707
933.047	-512
933.142	-982
933.237	-522
933.332	-693
933.427	37
933.522	-1343
933.617	108
933.712	-660
933.807	-222
933.902	-1657
933.997	947
934.092	-720
934.187	-160
934.282	294
934.376	-537
934.471	-842
934.566	-997
934.661	-847
934.755	848
934.850	-1263
934.945	-284
935.039	-1058
935.134	-521
935.228	-672
935.323	-158
935.417	104
935.512	16
935.606	-1300
935.701	-496
935.795	-698
935.890	-4
935.984	110
936.079	-288
936.173	-1243
936.267	-704
936.362	-822
936.456	80
936.550	-645
936.644	-264
936.738	-551
936.833	-949
936.927	-1085
937.021	-716
937.115	-1577
937.209	-427
937.303	-345
937.397	-547
937.491	-1158
937.585	-523
937.679	-1301
937.773	-47
937.867	-763
937.961	153
938.055	-489
938.149	-305
938.243	-500
938.337	-43
938.430	303
938.524	1544
938.618	4012
938.712	1317
938.805	38
938.899	-67
938.993	222
939.086	2106
939.180	5215
939.274	5367
939.367	1328
939.461	-173
939.554	-726
939.648	-775
939.741	-573
939.835	-884
939.928	-407
940.022	-59
940.115	-1103
940.208	-47
940.302	-596
940.395	-251
940.488	-1977
940.582	639
940.675	-1508
940.768	-985
940.861	-945
940.954	-816
941.048	-1010
941.141	-515
941.234	-371
941.327	-1104
941.420	-485
941.513	-671
941.606	-1332
941.699	-48
941.792	-1323
941.885	-1357
941.978	-1363
942.071	-543
942.164	-1318
942.257	-593
942.349	-756
942.442	-361
942.535	-1747
942.628	-1376
942.721	-1512
942.813	-1309
942.906	-871
942.999	-539
943.091	-766
943.184	-281
943.277	-1536
943.369	-43
943.462	-935
943.554	-535
943.647	-2071
943.739	-220
943.832	-1193
943.924	-1514
944.017	-1542
944.109	-1361
944.201	-624
944.294	-169
944.386	-964
944.478	-1016
944.571	-667
944.663	-443
944.755	-922
944.847	29
944.940	-1198
945.032	-1420
945.124	-1628
945.216	19
945.308	-904
945.400	-476
945.492	-1111
945.584	-346
945.676	-553
945.768	-156
945.860	-1057
945.952	-474
946.044	-789
946.136	-563
946.228	-1455
946.320	-1244
946.412	-860
946.503	-143
946.595	-567
946.687	-354
946.779	-891
946.870	-995
946.962	-1728
947.054	181
947.145	-636
947.237	-920
947.329	-1855
947.420	-659
947.512	-1419
947.603	-805
947.695	-1062
947.786	-662
947.878	-1340
947.969	-1226
948.061	-1620
948.152	-1133
948.243	-1410
948.335	-394
948.426	-1114
948.517	-259
948.609	-1708
948.700	-1037
948.791	-1043
948.882	-817
948.973	-1483
949.065	-631
949.156	-1692
949.247	-961
949.338	-745
949.429	-1010
949.520	-1000
949.611	-813
949.702	-444
949.793	-10
949.884	-1502
949.975	-1031
950.066	-1537
950.157	-778
950.247	-1003
950.338	-1243
950.429	-1150
950.520	-872
950.611	-1863
950.701	-872
950.792	-1399
950.883	-362
950.973	-1467
951.064	-755
951.155	-1442
951.245	-807
951.336	-957
951.427	-1515
951.517	-1186
951.608	-539
951.698	-2199
951.788	-431
951.879	-1526
951.969	-1202
952.060	-1310
952.150	-1491
952.240	-607
952.331	-2419
952.421	-237
952.511	-684
952.602	-1547
952.692	-343
952.782	-1190
952.872	-690
952.962	-1390
953.052	-717
953.143	-1733
953.233	-1061
953.323	-811
953.413	-1488
953.503	-982
953.593	-561
953.683	-1825
953.773	-1622
953.863	-1856
953.953	-766
954.042	-1210
954.132	-1252
954.222	-802
954.312	-1044
954.402	-1281
954.492	-678
954.581	-1533
954.671	-969
954.761	-1227
954.850	-468
954.940	-1580
955.030	-808
955.119	-1244
955.209	-1136
955.298	-1879
955.388	-628
955.477	-916
955.567	-1729
955.656	-934
955.746	-631
955.835	-1742
955.925	-1130
956.014	-1561
956.103	-1387
956.193	-901
956.282	-927
956.371	-1118
956.461	-1339
956.550	-1494
956.639	-727
956.728	-1098
956.817	-1176
956.906	-1194
956.995	-1340
957.085	-1435
957.174	-1253
957.263	-1482
957.352	-1103
957.441	-1561
957.530	-659
957.619	-1327
957.708	-968
957.796	-1512
957.885	-555
957.974	-1657
958.063	-764
958.152	-1920
958.241	-1653
958.329	-992
958.418	-1021
958.507	-2028
958.596	472
958.684	-2170
958.773	-513
958.861	-1900
958.950	-941
959.039	-1728
959.127	-798
959.216	-1565
959.304	-1735
959.393	-1501
959.481	-548
959.570	-1349
959.658	-878
959.746	-1234
959.835	-857
959.923	-1284
960.011	-1479
960.100	-1146
960.188	-685
960.276	-1241
960.365	-1056
960.453	-1366
960.541	-1141
960.629	-1214
960.717	-1334
960.805	-1883
960.893	-900
960.981	-1810
961.069	-447
961.158	-1813
961.245	-448
961.333	-994
961.421	-1442
961.509	-1417
961.597	-1126
961.685	-1541
961.773	-1481
961.861	-1725
961.949	-450
962.036	-2906
962.124	-636
962.212	-1419
962.299	-991
962.387	-1112
962.475	-1349
962.562	-1609
962.650	-115
962.738	-1133
962.825	-1359
962.913	-1061
963.000	-1301
963.088	-1794
963.175	-749
963.263	-1222
963.350	-1910
963.438	-1442
963.525	-1241
963.612	-1020
963.700	-1431
963.787	-1262
963.874	-1488
963.962	-1178
964.049	-446
964.136	-1726
964.223	-1384
964.310	-1079
964.398	-2033
964.485	-1751
964.572	-1268
964.659	-1405
964.746	-1181
964.833	-839
964.920	-1215
965.007	-1938
965.094	-1055
965.181	-1378
965.268	-1421
965.355	-2122
965.441	-796
965.528	-1891
965.615	-1198
965.702	-976
965.789	-1373
965.875	-1454
965.962	-601
966.049	-1565
966.136	-1217
966.222	-1674
966.309	-446
966.395	-2390
966.482	-728
966.569	-2041
966.655	-1985
966.742	-1050
966.828	-1453
966.915	-1954
967.001	-1251
967.087	-2182
967.174	-1456
967.260	-1024
967.347	-1107
967.433	-2111
967.519	-1233
967.605	-1763
967.692	-1573
967.778	-1087
967.864	-2090
967.950	-1405
968.036	-1012
968.123	-1370
968.209	-1382
968.295	-2376
968.381	53
968.467	-1100
968.553	-2280
968.639	-1487
968.725	-1463
968.811	-1176
968.897	-718
968.983	-2564
969.069	-1601
969.154	-1270
969.240	-842
969.326	-2116
969.412	-790
969.497	-2123
969.583	-2573
969.669	-735
969.755	-904
969.840	-1481
969.926	-456
970.012	-1413
970.097	-316
970.183	-1067
970.268	-1258
970.354	-1575
970.439	-2843
970.525	-725
970.610	-1720
970.696	-1055
970.781	-1106
970.866	-1924
970.952	-350
971.037	-1621
971.122	-1627
971.208	-1226
971.293	-1359
971.378	-2392
971.463	-1550
971.549	-1136
971.634	-2000
971.719	-1237
971.804	-1838
971.889	-594
971.974	-1426
972.059	-858
972.144	-1382
972.229	-1336
972.314	-1191
972.399	-1218
972.484	-1740
972.569	-1371
972.654	-1986
972.739	-1031
972.824	-1416
972.908	-1412
972.993	-1496
973.078	-1405
973.163	-1491
973.247	-2228
973.332	-2631
973.417	-710
973.501	-2205
973.586	-528
973.671	-1809
973.755	-1655
973.840	-580
973.924	-473
974.009	-607
974.093	-1895
974.178	-284
974.262	-1731
974.346	-1229
974.431	-1169
974.515	-1595
974.600	-672
974.684	-1068
974.768	-2049
974.852	226
974.937	-2134
975.021	-782
975.105	-1971
975.189	-1171
975.273	-1706
975.358	-1118
975.442	-2334
975.526	-484
975.610	-1745
975.694	-1509
975.778	-1103
975.862	-637
975.946	-3420
976.030	148
976.114	-2027
976.198	-1361
976.281	-1094
976.365	-463
976.449	-2268
976.533	-1110
976.617	-1839
976.700	-767
976.784	-1465
976.868	-1878
976.951	-1930
977.035	-1488
977.119	-1547
977.202	-1176
977.286	-1490
977.369	-2069
977.453	-888
977.536	-1752
977.620	-1852
977.703	-797
977.787	-2988
977.870	-88
977.953	-989
978.037	-2582
978.120	-459
978.203	-1647
978.287	-1538
978.370	-2081
978.453	-2245
978.536	-690
978.620	-1488
978.703	-1312
978.786	-2510
978.869	-1844
978.952	-2640
979.035	-777
979.118	-1337
979.201	-1573
979.284	-1003
979.367	-627
979.450	-958
979.533	-1304
979.616	-1431
979.699	-1363
979.782	-1209
979.865	-1187
979.948	-2066
980.030	-1679
980.113	-1665
980.196	-2277
980.279	-1029
980.361	-1787
980.444	-1868
980.526	-906
980.609	-1853
980.692	-2221
980.774	-1713
980.857	-1966
980.939	-780
981.022	-1992
981.104	-1451
981.187	-491
981.269	-1084
981.352	-1108
981.434	-1593
981.516	-1358
981.599	-304
981.681	-1479
981.763	-1962
981.846	-689
981.928	-2159
982.010	-1504
982.092	-1437
982.174	-905
982.256	-2416
982.339	-1240
982.421	-1977
982.503	-1074
982.585	-2318
982.667	-436
982.749	-872
982.831	-788
982.913	-2370
982.995	-788
983.077	-2213
983.158	-564
983.240	-2411
983.322	-427
983.404	-747
983.486	-2161
983.568	-1219
983.649	-1532
983.731	-1427
983.813	-1841
983.894	-1155
983.976	-1475
984.058	-1891
984.139	-1000
984.221	-2763
984.302	-577
984.384	-1701
984.465	-2428
984.547	-1613
984.628	-1861
984.710	-1243
984.791	-1505
984.872	-2218
984.954	-1833
985.035	-1354
985.116	-1243
985.198	-2618
985.279	-81
985.360	-1685
985.441	-1570
985.522	-1943
985.604	-1437
985.685	-3378
985.766	-845
985.847	-661
985.928	-1216
986.009	-1733
986.090	-1433
986.171	-1020
986.252	-1924
986.333	-1081
986.414	-819
986.495	-1836
986.576	-1099
986.656	-832
986.737	-923
986.818	-1884
986.899	-1908
986.980	-3084
987.060	-1046
987.141	-2679
987.222	-1915
987.302	-1361
987.383	-935
987.464	-1637
987.544	-961
987.625	-1775
987.705	-861
987.786	-1513
987.866	-1195
987.947	-1725
988.027	-1196
988.108	-2165
988.188	-1878
988.268	-1461
988.349	-1059
988.429	-2332
988.509	-1138
988.589	-2202
988.670	-2471
988.750	-1052
988.830	-1559
988.910	-1408
988.990	-1572
989.070	-1750
989.151	-1319
989.231	-2185
989.311	-1675
989.391	-2131
989.471	-2017
989.551	-1687
989.631	-1857
989.711	-1631
989.791	-2194
989.870	-2175
989.950	-902
990.030	-1912
990.110	-1729
990.190	-2491
990.269	-2366
990.349	-2202
990.429	-1804
990.509	-1187
990.588	-2468
990.668	-1326
990.747	-1565
990.827	-1684
990.907	-1232
990.986	-1612
991.066	-1686
991.145	-1495
991.225	-1863
991.304	-2537
991.383	-1011
991.463	-2891
991.542	-1534
991.622	-2439
991.701	-2024
991.780	-1777
991.859	-1893
991.939	-2182
992.018	-1493
992.097	-1928
992.176	-2062
992.256	-2238
992.335	-2941
992.414	-1681
992.493	-2625
992.572	-1779
992.651	-1409
992.730	-2410
992.809	-1671
992.888	-1976
992.967	-1614
993.046	-1830
993.125	-2249
993.203	-1981
993.282	-1372
993.361	-1785
993.440	-1024
993.519	-2992
993.597	-1263
993.676	-2569
993.755	-827
993.834	-2264
993.912	-1785
993.991	-970
994.069	-1668
994.148	-2452
994.226	-1660
994.305	-1531
994.384	-2601
994.462	-1176
994.540	-2493
994.619	-1966
994.697	-1205
994.776	-3264
994.854	-1802
994.932	-1584
995.011	-2153
995.089	-2479
995.167	-2234
995.245	-2145
995.324	-2511
995.402	-1916
995.480	-2708
995.558	-2306
995.636	-2511
995.714	-2036
995.792	-519
995.870	-1918
995.948	-2719
996.026	-2942
996.104	-2456
996.182	-1555
996.260	-3235
996.338	-1394
996.416	-1964
996.494	-2308
996.572	-579
996.649	-2468
996.727	-2278
996.805	-2354
996.883	-2457
996.960	-3511
997.038	-1917
997.116	-1805
997.193	-2094
997.271	-1940
997.348	-1980
997.426	-1591
997.504	-2474
997.581	-1992
997.658	-1412
997.736	-2826
997.813	-2551
997.891	-1857
997.968	-1692
998.046	-2641
998.123	-2864
998.200	-2088
998.277	-1840
998.355	-1135
998.432	-2779
998.509	-2970
998.586	-1288
998.663	-1940
998.741	-1258
998.818	-2485
998.895	-2580
998.972	-1928
999.049	-1366
999.126	-2504
999.203	-1443
999.280	-2331
999.357	-2134
999.434	-2493
999.511	-1782
999.587	-1686
999.664	-2267
999.741	-2349
999.818	-810
999.895	-2575
999.971	-2254
1000.048	-2866
1000.125	-1358
1000.202	-2883
1000.278	-1984
1000.355	-2272
1000.431	-2201
1000.508	-2426
1000.584	-2247
1000.661	-1811
1000.738	-2108
1000.814	-2763
1000.890	-2132
1000.967	-2878
1001.043	-1749
1001.120	-3497
1001.196	-2038
1001.272	-3029
1001.349	-2265
1001.425	-2482
1001.501	-1981
1001.577	-3099
1001.654	-1744
1001.730	-3239
1001.806	-1590
1001.882	-2980
1001.958	-1555
1002.034	-2411
1002.110	-2071
1002.186	-2027
1002.262	-2052
1002.338	-2427
1002.414	-2081
1002.490	-2059
1002.566	-2800
1002.642	-2087
1002.718	-1479
1002.794	-2734
1002.870	-2349
1002.945	-3153
1003.021	-1475
1003.097	-2773
1003.173	-1921
1003.248	-2465
1003.324	-2599
1003.400	-2225
1003.475	-2474
1003.551	-1955
1003.626	-1789
1003.702	-2682
1003.777	-1744
1003.853	-3027
1003.928	-2644
1004.004	-2615
1004.079	-1665
1004.155	-2542
1004.230	-2982
1004.305	-1853
1004.381	-2869
1004.456	-2631
1004.531	-2227
1004.607	-2885
1004.682	-2072
1004.757	-2493
1004.832	-2459
1004.907	-3397
1004.982	-1991
1005.057	-2259
1005.133	-1986
1005.208	-2827
1005.283	-2005
1005.358	-2603
1005.433	-2874
1005.508	-2635
1005.583	-2933
1005.657	-2838
1005.732	-1609
1005.807	-2307
1005.882	-2220
1005.957	-1769
1006.032	-1662
1006.106	-2226
1006.181	-2231
1006.256	-2715
1006.331	-1880
1006.405	-2941
1006.480	-1927
1006.554	-2530
1006.629	-2195
1006.704	-2857
1006.778	-1502
1006.853	-2081
1006.927	-2037
1007.002	-1890
1007.076	-2078
1007.150	-2909
1007.225	-1437
1007.299	-2317
1007.373	-2747
1007.448	-1827
1007.522	-2145
1007.596	-3051
1007.671	-2686
1007.745	-2317
1007.819	-2489
1007.893	-3502
1007.967	-1581
1008.041	-3175
1008.115	-2015
1008.190	-3981
1008.264	-1871
1008.338	-3329
1008.412	-1827
1008.486	-1707
1008.560	-1973
1008.633	-1677
1008.707	-2118
1008.781	-2307
1008.855	-2294
1008.929	-1962
1009.003	-2219
1009.076	-3325
1009.150	-1535
1009.224	-2217
1009.298	-1872
1009.371	-2971
1009.445	-2399
1009.519	-2323
1009.592	-2941
1009.666	-2415
1009.739	-1562
1009.813	-3399
1009.886	-1567
1009.960	-3385
1010.033	-2073
1010.107	-1659
1010.180	-2813
1010.253	-2177
1010.327	-2156
1010.400	-2997
1010.473	-2116
1010.547	-469
1010.620	-1877
1010.693	-2508
1010.766	-1556
1010.840	-2039
1010.913	-2214
1010.986	-2483
1011.059	-2391
1011.132	-1750
1011.205	-1541
1011.278	-2197
1011.351	-1878
1011.424	-2505
1011.497	-1757
1011.570	-2086
1011.643	-1895
1011.716	-2159
1011.789	-2261
1011.862	-2467
1011.934	-2106
1012.007	-2663
1012.080	-1428
1012.153	-2324
1012.225	-595
1012.298	-3173
1012.371	-2158
1012.443	-1657
1012.516	-3015
1012.588	-2164
1012.661	-1427
1012.733	-3337
1012.806	-1951
1012.879	-3075
1012.951	-1927
1013.023	-3213
1013.096	-2549
1013.168	-3245
1013.241	-1295
1013.313	-2651
1013.385	-1844
1013.458	-2505
1013.530	-1666
1013.602	-2751
1013.674	-2014
1013.746	-2889
1013.819	-1779
1013.891	-2136
1013.963	-2263
1014.035	-2407
1014.107	-1411
1014.179	-2153
1014.251	-2845
1014.323	-1347
1014.395	-1836
1014.467	-2399
1014.539	-1379
1014.611	-3563
1014.683	-2009
1014.754	-1989
1014.826	-2821
1014.898	-2905
1014.970	-2608
1015.042	-1941
1015.113	-2394
1015.185	-3166
1015.257	-2432
1015.328	-2124
1015.400	-2591
1015.471	-2311
1015.543	-2877
1015.615	-2165
1015.686	-2452
1015.757	-2487
1015.829	-1491
1015.901	-2321
1015.972	-1852
1016.043	-2899
1016.115	-2331
1016.186	-2318
1016.257	-2577
1016.328	-2333
1016.400	-1771
1016.471	-3121
1016.542	-2248
1016.613	-2467
1016.685	-1736
1016.756	-2047
1016.827	-2282
1016.898	-2265
1016.969	-1892
1017.040	-2094
1017.111	-3072
1017.182	-2327
1017.253	-1690
1017.324	-2401
1017.395	-2321
1017.466	-2728
1017.537	-2966
1017.608	-3361
1017.678	-1417
1017.749	-3367
1017.820	-2023
1017.891	-2583
1017.961	-1870
1018.032	-2633
1018.103	-1310
1018.173	-2463
1018.244	-2308
1018.315	-2468
1018.385	-1886
1018.456	-3222
1018.526	-1780
1018.597	-2251
1018.667	-2388
1018.738	-3236
1018.808	-1835
1018.878	-2962
1018.949	-2305
1019.019	-2601
1019.089	-2316
1019.160	-2497
1019.230	-2590
1019.300	-1844
1019.371	-2689
1019.441	-2477
1019.511	-2202
1019.581	-3315
1019.651	-1876
1019.721	-2572
1019.791	-1614
1019.861	-3607
1019.931	-2382
1020.001	-2097
1020.071	-2619
1020.141	-3676
1020.211	-2669
1020.281	-3447
1020.351	-2793
1020.421	-2855
1020.491	-1690
1020.560	-2701
1020.630	-2665
1020.700	-1783
1020.770	-2712
1020.839	-3301
1020.909	-1723
1020.979	-2816
1021.048	-2063
1021.118	-2641
1021.187	-1310
1021.257	-3161
1021.326	-2370
1021.396	-3506
1021.465	-2295
1021.535	-2326
1021.604	-2005
1021.674	-2691
1021.743	-2215
1021.812	-2089
1021.882	-2672
1021.951	-2725
1022.020	-2890
1022.089	-2297
1022.159	-2873
1022.228	-2296
1022.297	-2162
1022.366	-3285
1022.435	-1767
1022.504	-2565
1022.573	-3055
1022.642	-1939
1022.711	-2769
1022.781	-2247
1022.849	-2220
1022.918	-2815
1022.987	-2773
1023.056	-3803
1023.125	-2394
1023.194	-3267
1023.263	-2168
1023.331	-2085
1023.400	-2502
1023.469	-2689
1023.538	-1810
1023.606	-2788
1023.675	-1941
1023.744	-3127
1023.812	-2116
1023.881	-3015
1023.949	-1412
1024.018	-3030
1024.086	-2181
1024.155	-3009
1024.223	-3141
1024.292	-2077
1024.360	-2136
1024.429	-3107
1024.497	-2697
1024.565	-2738
1024.634	-2250
1024.702	-1987
1024.770	-2024
1024.838	-2726
1024.907	-2680
1024.975	-2864
1025.043	-2346
1025.111	-2955
1025.179	-1859
1025.247	-3244
1025.315	-2245
1025.383	-2693
1025.451	-2170
1025.519	-2897
1025.587	-2265
1025.655	-3266
1025.723	-1904
1025.791	-2657
1025.859	-2152
1025.927	-2307
1025.995	-2333
1026.062	-2763
1026.130	-2564
1026.198	-3301
1026.266	-2017
1026.333	-2629
1026.401	-2076
1026.469	-2319
1026.536	-2939
1026.604	-1522
1026.671	-2614
1026.739	-2587
1026.806	-2733
1026.874	-3233
1026.941	-2319
1027.009	-2581
1027.076	-2573
1027.144	-2455
1027.211	-2438
1027.278	-4181
1027.345	-2545
1027.413	-3086
1027.480	-3085
1027.547	-2744
1027.614	-2398
1027.682	-2695
1027.749	-2121
1027.816	-1818
1027.883	-2044
1027.950	-2407
1028.017	-2849
1028.084	-2253
1028.151	-3274
1028.218	-3213
1028.285	-2774
1028.352	-2488
1028.419	-2459
1028.486	-2641
1028.553	-2455
1028.619	-2865
1028.686	-2536
1028.753	-2927
1028.820	-2979
1028.886	-3175
1028.953	-2481
1029.020	-2598
1029.086	-2691
1029.153	-2879
1029.220	-2418
1029.286	-2133
1029.353	-2284
1029.419	-2345
1029.486	-1968
1029.552	-2816
1029.619	-2156
1029.685	-2775
1029.751	-2380
1029.818	-1739
1029.884	-2843
1029.951	-2470
1030.017	-2130
1030.083	-2669
1030.149	-2570
1030.216	-3229
1030.282	-2187
1030.348	-3578
1030.414	-2347
1030.480	-2976
1030.546	-3023
1030.612	-2849
1030.678	-2313
1030.744	-2763
1030.810	-2576
1030.876	-2662
1030.942	-2416
1031.008	-1965
1031.074	-2574
1031.140	-2510
1031.206	-2165
1031.272	-3026
1031.337	-2561
1031.403	-2367
1031.469	-2552
1031.534	-2719
1031.600	-1757
1031.666	-2716
1031.731	-2827
1031.797	-2317
1031.863	-2993
1031.928	-3124
1031.994	-2548
1032.059	-2865
1032.125	-2892
1032.190	-2517
1032.256	-3196
1032.321	-2960
1032.386	-2406
1032.452	-2212
1032.517	-3597
1032.582	-2495
1032.647	-2785
1032.713	-2943
1032.778	-2248
1032.843	-2655
1032.908	-1559
1032.974	-3417
1033.039	-2769
1033.104	-3043
1033.169	-2349
1033.234	-3183
1033.299	-2558
1033.364	-3098
1033.429	-2664
1033.494	-2421
1033.559	-3277
1033.624	-2778
1033.688	-2340
1033.753	-3137
1033.818	-1950
1033.883	-2475
1033.948	-2150
1034.013	-2168
1034.077	-2430
1034.142	-2667
1034.207	-2930
1034.271	-1985
1034.336	-1599
1034.400	-1986
1034.465	-2363
1034.530	-2769
1034.594	-2445
1034.658	-3119
1034.723	-2408
1034.787	-2098
1034.852	-1722
1034.916	-2838
1034.981	-2816
1035.045	-2525
1035.109	-2728
1035.173	-2371
1035.238	-2011
1035.302	-2896
1035.366	-2688
1035.430	-2621
1035.495	-2562
1035.559	-1900
1035.623	-2347
1035.687	-2188
1035.751	-2455
1035.815	-2815
1035.879	-2121
1035.943	-2787
1036.007	-2410
1036.071	-2665
1036.135	-1780
1036.198	-2594
1036.262	-2924
1036.326	-2369
1036.390	-2669
1036.454	-2342
1036.517	-2379
1036.581	-3068
1036.645	-1997
1036.709	-2027
1036.772	-2278
1036.836	-3023
1036.900	-2099
1036.963	-2559
1037.026	-1991
1037.090	-2523
1037.154	-1542
1037.217	-2683
1037.280	-1500
1037.344	-2745
1037.407	-2900
1037.471	-2269
1037.534	-2708
1037.597	-2709
1037.661	-2856
1037.724	-2524
1037.787	-2888
1037.850	-3359
1037.913	-2399
1037.977	-1788
1038.040	-2208
1038.103	-2523
1038.166	-3095
1038.229	-2681
1038.292	-3123
1038.355	-2512
1038.418	-3029
1038.481	-1671
1038.544	-2038
1038.607	-2565
1038.670	-2028
1038.732	-2528
1038.795	-2938
1038.858	-2672
1038.921	-2264
1038.984	-2452
1039.046	-2454
1039.109	-3591
1039.172	-2606
1039.234	-2404
1039.297	-2576
1039.360	-3007
1039.422	-1764
1039.485	-2887
1039.547	-2622
1039.610	-2774
1039.672	-2237
1039.734	-2696
1039.797	-2037
1039.859	-2617
1039.922	-2379
1039.984	-2521
1040.046	-2726
1040.109	-2293
1040.171	-2254
1040.233	-2569
1040.295	-2433
1040.358	-2411
1040.420	-3133
1040.482	-2418
1040.544	-2675
1040.606	-2923
1040.668	-2674
1040.730	-2740
1040.792	-2521
1040.854	-3320
1040.916	-1796
1040.978	-2367
1041.040	-2127
1041.102	-2515
1041.164	-2998
1041.225	-3241
1041.287	-2356
1041.349	-3367
1041.411	-2604
1041.472	-2959
1041.534	-2412
1041.596	-3262
1041.657	-2129
1041.719	-2388
1041.781	-2637
1041.842	-2862
1041.904	-2651
1041.965	-3087
1042.027	-2951
1042.088	-3318
1042.150	-2725
1042.211	-2225
1042.272	-1129
1042.334	-2791
1042.395	-1620
1042.456	-2712
1042.518	-2482
1042.579	-2401
1042.640	-2000
1042.701	-2480
1042.763	-2930
1042.824	-2366
1042.885	-3076
1042.946	-2663
1043.007	-2027
1043.068	-2545
1043.129	-2552
1043.190	-2322
1043.251	-2242
1043.312	-3197
1043.373	-2542
1043.434	-2960
1043.495	-2611
1043.556	-2471
1043.616	-2174
1043.677	-2793
1043.738	-2698
1043.799	-2722
1043.859	-2866
1043.920	-2420
1043.981	-2107
1044.041	-3001
1044.102	-2512
1044.162	-3279
1044.223	-2493
1044.284	-2470
1044.344	-2460
1044.405	-1770
1044.465	-2192
1044.525	-2102
1044.586	-2352
1044.646	-2628
1044.707	-1535
1044.767	-2833
1044.827	-2485
1044.887	-2820
1044.948	-3169
1045.008	-2883
1045.068	-2162
1045.128	-2753
1045.188	-2154
1045.249	-2151
1045.309	-2294
1045.369	-2522
1045.429	-2029
1045.489	-2163
1045.549	-1679
1045.609	-2715
1045.669	-2372
1045.729	-2722
1045.789	-2555
1045.848	-2669
1045.908	-1501
1045.968	-2459
1046.028	-1922
1046.088	-2060
1046.147	-1494
1046.207	-2290
1046.267	-1907
1046.326	-2169
1046.386	-2079
1046.446	-1591
1046.505	-1514
1046.565	-2044
1046.624	-1120
1046.684	-1971
1046.743	-1373
1046.803	-1782
1046.862	-948
1046.922	0
