'Start Wavelength	183.907
'End Wavelength	1046.922
'Gate Delay	5.000
'Gate Width (ms)	1.050
'Laser Output Level	0.000
'X Position	0.000
'Y Position	0.000
'Z Position	0.000
'Grid Point Number	1.000
'Shot Number	100.000
183.907	213.000
183.977	-477.000
184.047	-889
184.116	-207
184.186	72
184.256	-41
184.325	621
184.395	-1016
184.465	672
184.534	-296
184.604	-51
184.674	-332
184.743	-190
184.813	-36
184.883	-143
184.952	-36
185.022	461
185.092	587
185.161	119
185.231	-52
185.301	-132
185.370	276
185.440	587
185.509	-107
185.579	41
185.649	702
185.718	541
185.788	460
185.857	-364
185.927	-178
185.996	637
186.066	-113
186.136	143
186.205	-262
186.275	-398
186.344	333
186.414	-57
186.483	-722
186.553	529
186.622	742
186.692	-327
186.761	95
186.831	-309
186.900	309
186.970	-605
187.039	187
187.109	1083
187.178	569
187.248	266
187.317	-3
187.387	-112
187.456	415
187.526	-439
187.595	-359
187.664	-305
187.734	-247
187.803	-61
187.873	512
187.942	-201
188.012	196
188.081	168
188.150	589
188.220	1
188.289	670
188.358	-167
188.428	-16
188.497	-236
188.567	676
188.636	-360
188.705	380
188.775	-73
188.844	-626
188.913	887
188.983	-521
189.052	4
189.121	93
189.191	-572
189.260	878
189.329	-498
189.399	-319
189.468	140
189.537	-89
189.606	-176
189.676	300
189.745	329
189.814	192
189.883	-712
189.953	99
190.022	276
190.091	159
190.161	628
190.230	498
190.299	-513
190.368	-312
190.437	-833
190.507	-424
190.576	-430
190.645	538
190.714	-1019
190.783	-504
190.853	635
190.922	129
190.991	-38
191.060	871
191.129	-27
191.198	230
191.268	-278
191.337	476
191.406	138
191.475	366
191.544	-166
191.613	279
191.682	183
191.752	-352
191.821	-364
191.890	116
191.959	-605
192.028	297
192.097	76
192.166	297
192.235	-139
192.304	272
192.373	-491
192.442	-232
192.511	-80
192.580	206
192.650	-410
192.719	598
192.788	475
192.857	-13
192.926	-226
192.995	178
193.064	-84
193.133	289
193.202	-203
193.271	-300
193.340	-687
193.409	463
193.478	203
193.547	183
193.615	120
193.684	476
193.753	-136
193.822	188
193.891	428
193.960	-53
194.029	-808
194.098	189
194.167	-256
194.236	862
194.305	-137
194.374	-547
194.443	-256
194.512	-189
194.580	269
194.649	859
194.718	-197
194.787	-50
194.856	-540
194.925	392
194.994	-509
195.062	-430
195.131	227
195.200	-505
195.269	-1
195.338	606
195.407	2
195.475	-277
195.544	-334
195.613	-67
195.682	-21
195.751	-380
195.819	-178
195.888	157
195.957	512
196.026	-128
196.094	-374
196.163	375
196.232	-192
196.301	717
196.369	315
196.438	467
196.507	-149
196.576	54
196.644	237
196.713	212
196.782	-495
196.850	703
196.919	-235
196.988	-118
197.056	-160
197.125	459
197.194	-394
197.262	-228
197.331	-1111
197.400	452
197.468	-516
197.537	-386
197.606	-53
197.674	839
197.743	118
197.812	-99
197.880	-164
197.949	33
198.017	606
198.086	287
198.155	-528
198.223	139
198.292	509
198.360	180
198.429	403
198.497	917
198.566	-559
198.635	156
198.703	-382
198.772	1454
198.840	178
198.909	780
198.977	702
199.046	-627
199.114	541
199.183	337
199.251	-16
199.320	-278
199.388	-49
199.457	-75
199.525	117
199.594	-879
199.662	-527
199.731	-1
199.799	-1654
199.867	-12
199.936	-418
200.004	440
200.073	-111
200.141	-251
200.210	-559
200.278	-261
200.346	356
200.415	350
200.483	314
200.552	231
200.620	121
200.688	139
200.757	-189
200.825	167
200.893	2
200.962	621
201.030	-445
201.098	-282
201.167	-496
201.235	258
201.303	-563
201.372	-17
201.440	-453
201.508	-22
201.577	135
201.645	-81
201.713	-321
201.781	-452
201.850	-123
201.918	59
201.986	-715
202.055	951
202.123	17
202.191	287
202.259	-358
202.327	-424
202.396	-629
202.464	-106
202.532	-512
202.600	538
202.669	21
202.737	-61
202.805	-887
202.873	-61
202.941	-15
203.009	-261
203.078	-1038
203.146	410
203.214	-183
203.282	-1045
203.350	676
203.418	-414
203.487	123
203.555	300
203.623	-638
203.691	564
203.759	5
203.827	-51
203.895	-184
203.963	50
204.031	-280
204.099	-279
204.168	-925
204.236	191
204.304	-249
204.372	160
204.440	114
204.508	-552
204.576	-867
204.644	299
204.712	-48
204.780	-215
204.848	-146
204.916	-597
204.984	-306
205.052	212
205.120	-28
205.188	-269
205.256	-705
205.324	445
205.392	56
205.460	79
205.528	-409
205.596	143
205.664	-27
205.732	-505
205.799	398
205.867	927
205.935	-481
206.003	-59
206.071	569
206.139	-531
206.207	166
206.275	-428
206.343	-489
206.411	-533
206.478	67
206.546	132
206.614	-251
206.682	-223
206.750	-869
206.818	615
206.885	791
206.953	-570
207.021	342
207.089	-407
207.157	-724
207.225	238
207.292	-661
207.360	78
207.428	204
207.496	13
207.563	-550
207.631	568
207.699	-263
207.767	289
207.834	-174
207.902	155
207.970	239
208.038	25
208.105	-290
208.173	524
208.241	-641
208.309	290
208.376	828
208.444	435
208.512	-37
208.579	304
208.647	364
208.715	440
208.782	-664
208.850	-164
208.918	-768
208.985	412
209.053	184
209.120	170
209.188	-258
209.256	363
209.323	-658
209.391	-564
209.459	1306
209.526	-155
209.594	-1409
209.661	-29
209.729	-454
209.796	-280
209.864	54
209.932	-1312
209.999	795
210.067	288
210.134	-497
210.202	-109
210.269	-740
210.337	640
210.404	-12
210.472	318
210.539	-264
210.607	-110
210.674	-506
210.742	741
210.809	-236
210.877	-182
210.944	-327
211.012	-1117
211.079	781
211.146	-293
211.214	-267
211.281	507
211.349	67
211.416	-8
211.484	-395
211.551	24
211.618	-111
211.686	254
211.753	-722
211.821	749
211.888	-523
211.955	418
212.023	578
212.090	296
212.157	-594
212.225	-389
212.292	880
212.359	946
212.427	2740
212.494	1343
212.561	-15
212.629	882
212.696	-418
212.763	-164
212.831	-774
212.898	437
212.965	-84
213.032	-679
213.100	327
213.167	-969
213.234	304
213.301	692
213.369	171
213.436	840
213.503	-703
213.570	-765
213.638	140
213.705	-145
213.772	-636
213.839	-66
213.906	157
213.973	-61
214.041	-495
214.108	-140
214.175	-479
214.242	-655
214.309	-546
214.376	-599
214.444	-378
214.511	-257
214.578	-462
214.645	695
214.712	211
214.779	-29
214.846	-442
214.913	256
214.980	275
215.048	1194
215.115	300
215.182	522
215.249	337
215.316	-148
215.383	470
215.450	-717
215.517	-3
215.584	1
215.651	-358
215.718	-214
215.785	-248
215.852	-454
215.919	829
215.986	263
216.053	-1029
216.120	107
216.187	278
216.254	35
216.321	-193
216.388	-355
216.455	-96
216.522	1226
216.589	346
216.656	-69
216.722	-337
216.789	498
216.856	-126
216.923	1094
216.990	-655
217.057	451
217.124	-199
217.191	-213
217.258	-197
217.324	892
217.391	617
217.458	161
217.525	37
217.592	-342
217.659	-865
217.725	916
217.792	-582
217.859	651
217.926	-921
217.993	381
218.059	-521
218.126	233
218.193	-789
218.260	-850
218.327	127
218.393	-367
218.460	-749
218.527	-549
218.594	-371
218.660	-190
218.727	466
218.794	-631
218.860	584
218.927	-440
218.994	-421
219.061	-503
219.127	-826
219.194	221
219.261	-464
219.327	-512
219.394	-597
219.461	-935
219.527	-484
219.594	458
219.661	-232
219.727	-133
219.794	870
219.860	-1384
219.927	-59
219.994	376
220.060	976
220.127	1321
220.193	747
220.260	250
220.326	1050
220.393	1288
220.460	1758
220.526	499
220.593	-442
220.659	842
220.726	-313
220.792	1212
220.859	544
220.925	2253
220.992	2594
221.058	2567
221.125	2227
221.191	755
221.258	8
221.324	112
221.391	120
221.457	-20
221.524	32
221.590	-172
221.657	2209
221.723	938
221.789	227
221.856	945
221.922	-594
221.989	415
222.055	-962
222.121	-1148
222.188	1148
222.254	92
222.321	-38
222.387	-358
222.453	608
222.520	431
222.586	0
222.652	801
222.719	-493
222.785	483
222.851	-439
222.918	316
222.984	-556
223.050	-252
223.116	-1707
223.183	426
223.249	-895
223.315	-352
223.382	-248
223.448	-6
223.514	-725
223.580	-820
223.647	-1095
223.713	-386
223.779	-458
223.845	-320
223.911	-632
223.978	-1081
224.044	36
224.110	-577
224.176	-66
224.242	23
224.309	-1270
224.375	-709
224.441	-175
224.507	-1127
224.573	-1815
224.639	256
224.705	-1069
224.772	-685
224.838	-718
224.904	157
224.970	-553
225.036	-266
225.102	-1697
225.168	-53
225.234	104
225.300	-419
225.366	-358
225.432	7
225.499	-750
225.565	1
225.631	-653
225.697	-67
225.763	23
225.829	375
225.895	-62
225.961	177
226.027	104
226.093	97
226.159	-172
226.225	1276
226.291	1488
226.357	4762
226.423	2082
226.489	790
226.554	302
226.620	862
226.686	-806
226.752	1546
226.818	1223
226.884	5599
226.950	5661
227.016	1499
227.082	1216
227.148	269
227.214	-544
227.279	566
227.345	205
227.411	174
227.477	1621
227.543	2623
227.609	2683
227.674	2604
227.740	127
227.806	60
227.872	436
227.938	26
228.003	702
228.069	706
228.135	-242
228.201	514
228.267	-733
228.332	-465
228.398	-2103
228.464	298
228.530	-263
228.595	-190
228.661	-901
228.727	-410
228.792	350
228.858	-550
228.924	-1861
228.990	650
229.055	-819
229.121	271
229.187	-754
229.252	-627
229.318	-598
229.384	-261
229.449	-940
229.515	-1524
229.581	-702
229.646	1096
229.712	-601
229.777	-433
229.843	-183
229.909	-219
229.974	1190
230.040	1297
230.105	253
230.171	-595
230.236	256
230.302	1193
230.368	-817
230.433	-588
230.499	289
230.564	1656
230.630	-310
230.695	-296
230.761	215
230.826	-1395
230.892	987
230.957	-648
231.023	-947
231.088	-282
231.154	101
231.219	405
231.284	-427
231.350	-206
231.415	-1255
231.481	630
231.546	-562
231.612	7
231.677	-427
231.742	-1636
231.808	854
231.873	-172
231.939	-2138
232.004	43
232.069	64
232.135	-949
232.200	-889
232.265	357
232.331	-947
232.396	97
232.461	-1170
232.527	-251
232.592	-843
232.657	-128
232.723	-671
232.788	473
232.853	18
232.918	383
232.984	-828
233.049	-398
233.114	-1241
233.179	-348
233.245	-639
233.310	-447
233.375	-1428
233.440	195
233.506	-454
233.571	-903
233.636	-108
233.701	-1031
233.766	-930
233.832	104
233.897	-661
233.962	-1820
234.027	604
234.092	-366
234.157	-1982
234.222	-172
234.288	-274
234.353	-936
234.418	-79
234.483	-54
234.548	-1066
234.613	-752
234.678	621
234.743	-716
234.808	694
234.873	-822
234.938	745
235.004	-1
235.069	-647
235.134	-641
235.199	681
235.264	-184
235.329	-904
235.394	168
235.459	1068
235.524	-779
235.589	-568
235.654	-468
235.719	-2024
235.784	974
235.849	-965
235.913	40
235.978	-162
236.043	-249
236.108	-239
236.173	-842
236.238	1026
236.303	-709
236.368	-731
236.433	1043
236.498	-429
236.563	200
236.627	860
236.692	8687
236.757	6957
236.822	2635
236.887	372
236.952	811
237.017	-1666
237.081	1170
237.146	241
237.211	3196
237.276	5657
237.341	13128
237.405	3962
237.470	1782
237.535	887
237.600	284
237.664	169
237.729	-830
237.794	-845
237.859	2017
237.923	628
237.988	-473
238.053	409
238.118	-114
238.182	-879
238.247	1785
238.312	-839
238.376	242
238.441	-1895
238.506	770
238.570	-528
238.635	1506
238.700	-643
238.764	-579
238.829	-478
238.893	-299
238.958	-313
239.023	-954
239.087	-499
239.152	-165
239.216	-685
239.281	488
239.346	-86
239.410	-12
239.475	-852
239.539	290
239.604	-840
239.668	1330
239.733	-73
239.797	2275
239.862	6022
239.926	4161
239.991	1166
240.055	897
240.120	-77
240.184	-303
240.249	-804
240.313	42
240.378	-248
240.442	-458
240.507	114
240.571	-332
240.635	-871
240.700	-349
240.764	-1055
240.829	-467
240.893	-2048
240.957	1032
241.022	586
241.086	160
241.151	-651
241.215	-1225
241.279	-448
241.344	-784
241.408	-45
241.472	-277
241.537	1072
241.601	135
241.665	-811
241.730	-641
241.794	901
241.858	434
241.922	-20
241.987	456
242.051	-1311
242.115	-387
242.179	1121
242.244	-406
242.308	533
242.372	217
242.436	143
242.501	938
242.565	-655
242.629	-1391
242.693	446
242.757	-691
242.822	-518
242.886	685
242.950	672
243.014	-792
243.078	-482
243.142	-261
243.206	-126
243.271	17
243.335	-579
243.399	943
243.463	1879
243.527	11035
243.591	2597
243.655	379
243.719	-496
243.783	966
243.847	1599
243.911	1241
243.975	-524
244.040	-758
244.104	1670
244.168	-510
244.232	-535
244.296	-197
244.360	981
244.424	-380
244.488	-289
244.552	-311
244.615	-1586
244.679	-3
244.743	-1166
244.807	-1021
244.871	-744
244.935	-232
244.999	-1798
245.063	-348
245.127	479
245.191	235
245.255	-56
245.319	-225
245.383	-1406
245.446	929
245.510	-1465
245.574	-100
245.638	305
245.702	-1427
245.766	-177
245.829	1021
245.893	-976
245.957	-182
246.021	-132
246.085	-844
246.149	-471
246.212	1291
246.276	411
246.340	-122
246.404	159
246.467	832
246.531	-2175
246.595	1239
246.659	520
246.722	-1168
246.786	-823
246.850	-205
246.913	-1040
246.977	-926
247.041	-526
247.104	-770
247.168	303
247.232	228
247.295	539
247.359	-13
247.423	-1119
247.486	-476
247.550	-157
247.614	335
247.677	-39
247.741	-77
247.804	-452
247.868	909
247.932	-343
247.995	2312
248.059	-1110
248.122	-1081
248.186	1180
248.249	-27
248.313	1370
248.376	2923
248.440	1153
248.503	-1038
248.567	1737
248.630	-442
248.694	-315
248.757	802
248.821	1703
248.884	2159
248.948	164
249.011	1852
249.075	2567
249.138	2818
249.202	577
249.265	-786
249.328	1176
249.392	-756
249.455	591
249.519	550
249.582	-668
249.645	583
249.709	99
249.772	-155
249.835	88
249.899	-14
249.962	552
250.025	-265
250.089	661
250.152	1661
250.215	135
250.279	-92
250.342	440
250.405	615
250.468	-182
250.532	-90
250.595	1959
250.658	7891
250.721	18438
250.785	5017
250.848	4439
250.911	824
250.974	676
251.038	506
251.101	1687
251.164	1125
251.227	855
251.290	491
251.354	2331
251.417	13267
251.480	14707
251.543	8837
251.606	26656
251.669	22033
251.732	6479
251.795	4430
251.859	5988
251.922	16114
251.985	9962
252.048	3753
252.111	1728
252.174	1022
252.237	2076
252.300	3714
252.363	6023
252.426	20751
252.489	7537
252.552	3495
252.615	841
252.678	2108
252.741	3152
252.804	6696
252.867	21428
252.930	10118
252.993	4101
253.056	2690
253.119	1570
253.182	1452
253.245	2089
253.308	2067
253.371	-418
253.434	547
253.497	1848
253.559	2194
253.622	797
253.685	178
253.748	-105
253.811	-865
253.874	367
253.937	-1618
254.000	-2
254.062	295
254.125	863
254.188	3659
254.251	1174
254.314	-798
254.376	-677
254.439	686
254.502	-34
254.565	-105
254.628	1329
254.690	79
254.753	-436
254.816	-1054
254.878	-787
254.941	166
255.004	568
255.067	240
255.129	-1453
255.192	-434
255.255	-1555
255.317	-981
255.380	83
255.443	-142
255.505	-1417
255.568	-419
255.631	-483
255.693	81
255.756	-838
255.819	-146
255.881	-676
255.944	454
256.006	-641
256.069	-141
256.132	-123
256.194	-513
256.257	-1050
256.319	150
256.382	-28
256.444	1347
256.507	947
256.569	-144
256.632	5
256.694	-330
256.757	4067
256.819	15127
256.882	3390
256.944	2072
257.007	861
257.069	412
257.132	259
257.194	1139
257.257	205
257.319	-28
257.381	-217
257.444	2471
257.506	13215
257.569	16492
257.631	3851
257.693	1907
257.756	751
257.818	387
257.880	3
257.943	-118
258.005	-68
258.067	35
258.130	79
258.192	324
258.254	-952
258.317	-341
258.379	800
258.441	224
258.503	553
258.566	-4
258.628	247
258.690	-219
258.753	428
258.815	590
258.877	-279
258.939	379
259.001	848
259.064	336
259.126	-511
259.188	606
259.250	510
259.312	-493
259.375	813
259.437	776
259.499	323
259.561	200
259.623	377
259.685	40
259.747	-42
259.809	552
259.872	294
259.934	1968
259.996	5459
260.058	2040
260.120	-610
260.182	79
260.244	-262
260.306	-263
260.368	444
260.430	59
260.492	2510
260.554	5896
260.616	264
260.678	486
260.740	59
260.802	-400
260.864	-604
260.926	-583
260.988	-249
261.050	527
261.112	3576
261.174	8617
261.236	1896
261.298	834
261.359	-39
261.421	1054
261.483	-424
261.545	694
261.607	-1262
261.669	-313
261.731	-251
261.793	1075
261.854	-1257
261.916	868
261.978	1081
262.040	1500
262.102	235
262.164	-796
262.225	-614
262.287	630
262.349	-917
262.411	-239
262.472	15
262.534	-1386
262.596	-585
262.658	890
262.719	-1176
262.781	308
262.843	-1178
262.904	991
262.966	-496
263.028	1055
263.090	2439
263.151	13295
263.213	6478
263.275	2775
263.336	296
263.398	1271
263.459	-497
263.521	163
263.583	124
263.644	267
263.706	-787
263.767	-399
263.829	-449
263.891	71
263.952	-610
264.014	-593
264.075	952
264.137	8735
264.198	2366
264.260	77
264.321	8
264.383	1147
264.444	10202
264.506	2897
264.567	1569
264.629	3828
264.690	9519
264.752	3687
264.813	700
264.875	-277
264.936	1019
264.998	642
265.059	258
265.120	659
265.182	220
265.243	5672
265.305	7295
265.366	1238
265.427	997
265.489	1131
265.550	-1135
265.611	491
265.673	-425
265.734	865
265.795	919
265.857	-865
265.918	-1180
265.979	1944
266.040	9844
266.102	10480
266.163	2786
266.224	1872
266.286	22
266.347	-602
266.408	-233
266.469	672
266.530	-12
266.592	152
266.653	152
266.714	630
266.775	-693
266.836	356
266.898	-869
266.959	818
267.020	1336
267.081	972
267.142	174
267.203	-296
267.264	-629
267.326	607
267.387	-717
267.448	-806
267.509	302
267.570	-134
267.631	-812
267.692	-932
267.753	177
267.814	-346
267.875	-1196
267.936	447
267.997	2248
268.058	1062
268.119	-131
268.180	-248
268.241	-1397
268.302	-61
268.363	-594
268.424	-9
268.485	72
268.546	-498
268.607	-73
268.668	-355
268.729	-853
268.790	-541
268.851	269
268.912	63
268.972	-216
269.033	-478
269.094	-945
269.155	478
269.216	150
269.277	-390
269.338	14
269.398	42
269.459	-770
269.520	284
269.581	-955
269.642	542
269.702	-1662
269.763	66
269.824	-327
269.885	-498
269.945	1140
270.006	-643
270.067	-693
270.128	-246
270.188	-1392
270.249	-586
270.310	-391
270.370	-81
270.431	-554
270.492	-896
270.553	-436
270.613	-1017
270.674	-626
270.734	-504
270.795	-394
270.856	338
270.916	-997
270.977	12
271.038	-152
271.098	-619
271.159	-697
271.219	-42
271.280	-728
271.340	-14
271.401	-697
271.462	-564
271.522	9
271.583	-51
271.643	21
271.704	-569
271.764	-374
271.825	709
271.885	1709
271.946	4323
272.006	72
272.066	1736
272.127	2843
272.187	3942
272.248	1403
272.308	-146
272.369	2108
272.429	1220
272.489	237
272.550	1728
272.610	953
272.671	815
272.731	-37
272.791	882
272.852	-21
272.912	208
272.972	-123
273.033	-514
273.093	-337
273.153	734
273.214	532
273.274	995
273.334	3155
273.394	4489
273.455	742
273.515	1910
273.575	3031
273.635	1723
273.696	1760
273.756	2837
273.816	455
273.876	860
273.936	591
273.997	3108
274.057	461
274.117	7
274.177	78
274.237	4673
274.297	4139
274.358	899
274.418	1489
274.478	939
274.538	-210
274.598	-654
274.658	-419
274.718	-365
274.778	-587
274.838	-71
274.898	290
274.958	913
275.018	1620
275.078	1352
275.138	-262
275.198	60
275.258	-834
275.318	-1075
275.378	-765
275.438	-572
275.498	-236
275.558	20
275.618	430
275.678	841
275.738	1310
275.798	1970
275.858	2071
275.918	421
275.978	-402
276.038	47
276.098	-757
276.157	292
276.217	175
276.277	-258
276.337	-1083
276.397	98
276.457	-81
276.517	16
276.576	-740
276.636	-1237
276.696	-269
276.756	172
276.815	-807
276.875	-359
276.935	-192
276.995	429
277.055	534
277.114	358
277.174	-754
277.234	871
277.293	328
277.353	-898
277.413	-516
277.472	-518
277.532	-262
277.592	359
277.651	3571
277.711	10361
277.771	2563
277.830	9541
277.890	8512
277.950	4708
278.009	17541
278.069	6104
278.128	6154
278.188	11400
278.248	4094
278.307	10396
278.367	8141
278.426	1066
278.486	1315
278.545	127
278.605	-282
278.664	232
278.724	-483
278.783	820
278.843	3034
278.902	1167
278.962	651
279.021	695
279.081	2034
279.140	1156
279.199	569
279.259	947
279.318	1260
279.378	2768
279.437	2940
279.496	10653
279.556	45286
279.615	40768
279.675	9549
279.734	5100
279.793	4495
279.853	7580
279.912	3876
279.971	2819
280.031	788
280.090	2746
280.149	5334
280.208	6008
280.268	33977
280.327	39015
280.386	7403
280.445	3111
280.505	2494
280.564	1979
280.623	1304
280.682	799
280.742	1805
280.801	657
280.860	-172
280.919	352
280.978	354
281.037	178
281.097	-283
281.156	1569
281.215	-136
281.274	-166
281.333	1006
281.392	1152
281.451	-339
281.510	390
281.569	-213
281.628	-419
281.688	-283
281.747	-434
281.806	165
281.865	494
281.924	-79
281.983	207
282.042	-586
282.101	-591
282.160	-413
282.219	-39
282.278	-613
282.337	-44
282.396	-921
282.454	-275
282.513	294
282.572	493
282.631	39
282.690	-802
282.749	173
282.808	-184
282.867	3
282.926	-256
282.985	-481
283.043	673
283.102	-934
283.161	-217
283.220	795
283.279	2408
283.338	252
283.396	-694
283.455	96
283.514	51
283.573	-128
283.631	657
283.690	-4
283.749	58
283.808	716
283.866	858
283.925	-460
283.984	850
284.043	-68
284.101	907
284.160	411
284.219	2053
284.277	1803
284.336	946
284.395	2028
284.453	1982
284.512	1384
284.570	1468
284.629	1521
284.688	2727
284.746	3230
284.805	4007
284.863	5826
284.922	8217
284.981	9197
285.039	14140
285.098	22511
285.156	43852
285.215	54498
285.273	54266
285.332	49490
285.390	30673
285.449	18233
285.507	12283
285.566	8672
285.624	7273
285.683	5129
285.741	3413
285.799	3768
285.858	2714
285.916	1851
285.975	1485
286.033	1024
286.091	1114
286.150	693
286.208	481
286.267	1208
286.325	996
286.383	544
286.442	993
286.500	506
286.558	1019
286.616	76
286.675	755
286.733	55
286.791	333
286.850	345
286.908	1372
286.966	362
287.024	153
287.083	35
287.141	-309
287.199	982
287.257	69
287.315	24
287.374	-55
287.432	-134
287.490	427
287.548	678
287.606	321
287.664	489
287.723	351
287.781	852
287.839	447
287.897	65
287.955	1229
288.013	2348
288.071	4385
288.129	18050
288.187	62583
288.245	29431
288.303	8232
288.361	4397
288.419	3525
288.477	2287
288.535	1594
288.593	773
288.651	909
288.709	-175
288.767	1023
288.825	-355
288.883	179
288.941	-154
288.999	455
289.057	357
289.115	240
289.173	-28
289.231	707
289.289	-1025
289.346	-986
289.404	-217
289.462	21
289.520	-214
289.578	-210
289.636	-150
289.694	550
289.751	523
289.809	221
289.867	148
289.925	1012
289.983	-135
290.040	-90
290.098	-364
290.156	52
290.214	-565
290.271	300
290.329	652
290.387	470
290.444	-363
290.502	-120
290.560	381
290.617	964
290.675	2
290.733	236
290.790	-544
290.848	537
290.906	-99
290.963	-112
291.021	-383
291.078	219
291.136	-466
291.194	2957
291.251	8040
291.309	2022
291.366	-302
291.424	607
291.481	169
291.539	132
291.596	76
291.654	-117
291.711	-7
291.769	12
291.826	-643
291.884	1055
291.941	-702
291.999	77
292.056	-26
292.114	-441
292.171	-393
292.228	176
292.286	-230
292.343	914
292.401	360
292.458	454
292.515	-317
292.573	-30
292.630	-153
292.687	411
292.745	-113
292.802	966
292.859	5655
292.917	3286
292.974	715
293.031	222
293.089	598
293.146	-224
293.203	534
293.260	122
293.318	123
293.375	3091
293.432	1934
293.489	884
293.546	273
293.604	603
293.661	946
293.718	6110
293.775	3745
293.832	1208
293.889	1727
293.947	664
294.004	241
294.061	685
294.118	666
294.175	6027
294.232	15723
294.289	6413
294.346	1910
294.403	715
294.460	718
294.517	1310
294.574	559
294.631	453
294.688	992
294.745	2029
294.802	7744
294.859	18407
294.916	5790
294.973	1351
295.030	570
295.087	1448
295.144	1069
295.201	1153
295.258	77
295.315	298
295.372	1770
295.429	2636
295.486	1184
295.542	1441
295.599	8391
295.656	19364
295.713	8801
295.770	4528
295.827	1002
295.883	643
295.940	50
295.997	1460
296.054	823
296.111	1071
296.167	1375
296.224	521
296.281	437
296.338	504
296.394	212
296.451	985
296.508	931
296.564	4005
296.621	4305
296.678	4337
296.734	7852
296.791	3573
296.848	1885
296.904	866
296.961	1218
297.018	3709
297.074	4628
297.131	1572
297.187	854
297.244	16
297.301	3090
297.357	6383
297.414	2021
297.470	144
297.527	984
297.583	433
297.640	-153
297.696	-410
297.753	437
297.809	639
297.866	-320
297.922	602
297.979	-67
298.035	30
298.092	588
298.148	1600
298.204	1301
298.261	1094
298.317	2738
298.374	7590
298.430	2643
298.486	1026
298.543	-164
298.599	1077
298.656	1
298.712	1566
298.768	5145
298.824	5382
298.881	1303
298.937	1062
298.993	-76
299.050	308
299.106	600
299.162	367
299.218	1290
299.275	1140
299.331	822
299.387	1055
299.443	3639
299.500	10224
299.556	7980
299.612	3143
299.668	1433
299.724	6532
299.780	9728
299.837	3898
299.893	1137
299.949	6272
300.005	9658
300.061	7271
300.117	14997
300.173	6945
300.229	862
300.285	1619
300.341	1050
300.397	425
300.453	-128
300.510	1330
300.566	1099
300.622	2495
300.678	11037
300.734	16764
300.790	6717
300.845	5138
300.901	5627
300.957	11370
301.013	3321
301.069	1515
301.125	657
301.181	536
301.237	532
301.293	956
301.349	229
301.405	-141
301.461	-61
301.516	1228
301.572	81
301.628	243
301.684	27
301.740	1210
301.796	804
301.851	1541
301.907	1883
301.963	1575
302.019	2690
302.074	9561
302.130	10631
302.186	4443
302.242	1605
302.297	1906
302.353	867
302.409	1231
302.464	1091
302.520	1971
302.576	2731
302.631	3057
302.687	317
302.743	1395
302.798	476
302.854	440
302.910	1175
302.965	497
303.021	985
303.076	636
303.132	537
303.187	795
303.243	29
303.299	260
303.354	-2
303.410	847
303.465	70
303.521	897
303.576	350
303.632	312
303.687	635
303.743	3952
303.798	3094
303.853	968
303.909	24
303.964	926
304.020	823
304.075	605
304.130	440
304.186	801
304.241	1043
304.297	997
304.352	462
304.358	553
304.407	1287
304.449	854
304.463	709
304.518	740
304.539	687
304.573	568
304.629	1110
304.630	1102
304.684	878
304.720	2066
304.739	2630
304.794	4136
304.811	3522
304.850	2057
304.902	1333
304.905	1288
304.960	1685
304.992	1430
305.015	1239
305.071	1305
305.083	1143
305.126	544
305.173	719
305.181	759
305.236	585
305.264	780
305.292	941
305.347	1056
305.354	1040
305.402	1022
305.445	869
305.457	787
305.512	1379
305.535	1403
305.567	1549
305.622	1101
305.626	1126
305.678	1737
305.716	3120
305.733	3589
305.788	3775
305.807	3564
305.843	3410
305.897	3897
305.898	3897
305.953	5121
305.988	3231
306.008	2185
306.063	2452
306.078	2064
306.118	1132
306.168	1111
306.173	1106
306.228	803
306.259	608
306.283	514
306.338	909
306.349	1044
306.393	1712
306.440	1717
306.448	1731
306.503	2773
306.530	2777
306.558	3306
306.613	6351
306.620	6808
306.668	8000
306.711	5735
306.723	5093
306.778	2549
306.801	2305
306.833	2447
306.888	1523
306.892	1566
306.943	2063
306.982	1797
306.997	1787
307.052	2222
307.072	2140
307.107	2249
307.162	3141
307.163	3157
307.217	5826
307.253	7699
307.272	7987
307.327	7615
307.343	6800
307.381	5306
307.434	4109
307.436	4178
307.491	7426
307.524	10568
307.546	10869
307.600	6800
307.614	5696
307.655	3751
307.704	2869
307.710	2945
307.765	4234
307.795	5615
307.819	7192
307.874	12410
307.885	12596
307.929	9712
307.975	5902
307.984	5760
308.038	6983
308.065	7683
308.093	14210
308.148	31195
308.156	34875
308.202	53818
308.246	67316
308.257	64711
308.312	32117
308.336	19347
308.366	13664
308.421	7687
308.426	7273
308.475	6033
308.517	5411
308.530	5175
308.585	4241
308.607	3984
308.639	4440
308.694	5445
308.697	5521
308.748	10706
308.787	16358
308.803	16286
308.857	12383
308.877	10367
308.912	8654
308.967	7361
308.967	7342
309.021	9994
309.058	11845
309.076	14006
309.130	22118
309.148	24987
309.185	48938
309.238	89701
309.239	90047
309.293	98088
309.328	92471
309.348	79517
309.402	38218
309.418	27670
309.457	20289
309.508	13163
309.511	13117
309.566	13460
309.598	14157
309.620	17185
309.674	26243
309.688	28771
309.729	28023
309.778	23446
309.783	22829
309.837	14808
309.868	10657
309.892	9771
309.946	8223
309.959	8018
310.001	8855
310.049	9734
310.055	9563
310.109	7719
310.139	6310
310.163	5477
310.218	4609
310.229	4328
310.272	4193
310.319	4235
310.326	4227
310.381	4046
310.409	3947
310.435	4114
310.489	4469
310.499	4531
310.543	4434
310.589	4090
310.598	4268
310.652	5806
310.679	6264
310.706	5607
310.760	4465
310.769	4255
310.814	4252
310.859	4208
310.868	4179
310.923	4091
310.948	4013
310.977	4244
311.031	4646
311.038	4683
311.085	4182
311.128	3661
311.139	3829
311.193	4696
311.218	5033
311.247	4798
311.301	4380
311.308	4304
311.356	4956
311.398	5613
311.410	5481
311.464	4613
311.488	4253
311.518	4246
311.572	4078
311.578	4057
311.626	4112
311.668	4080
311.680	4507
311.734	6393
311.758	7253
311.788	7222
311.842	6959
311.847	6915
311.896	9467
311.937	11663
311.950	11436
312.004	10249
312.027	9679
312.058	7874
312.112	4628
312.117	4294
312.165	4643
312.207	4927
312.297	10276
312.386	7490
312.476	5528
312.566	5440
312.656	4470
312.745	4804
312.835	5885
312.925	6101
313.015	6594
313.104	6753
313.194	5289
313.284	5384
313.374	5281
313.463	5512
313.553	5660
313.643	4852
313.732	6897
313.822	6316
313.912	6918
314.001	6630
314.091	8859
314.180	12167
314.270	8446
314.360	7398
314.449	6891
314.539	6017
314.628	6818
314.718	7691
314.808	9197
314.897	6502
314.987	7068
315.076	6949
315.166	8058
315.255	8307
315.345	7970
315.434	7542
315.524	6960
315.613	7640
315.703	7151
315.792	12715
315.881	35716
315.971	13520
316.060	10581
316.150	15322
316.239	16140
316.328	8242
316.418	5912
316.507	6508
316.597	7332
316.686	7685
316.775	10342
316.865	17561
316.954	6629
317.043	5123
317.133	5452
317.222	4994
317.311	5721
317.400	3767
317.490	6263
317.579	5123
317.668	6985
317.757	7778
317.847	18290
317.936	55870
318.025	17546
318.114	14211
318.203	9598
318.293	8804
318.382	15628
318.471	13977
318.560	22022
318.649	51840
318.738	12504
318.828	6108
318.917	6996
319.006	8406
319.095	18729
319.184	54628
319.273	21424
319.362	6388
319.451	5241
319.540	4865
319.629	5722
319.718	6894
319.807	8211
319.896	16892
319.985	64478
320.074	19058
320.163	8128
320.252	11525
320.341	14549
320.430	12744
320.519	9056
320.608	7789
320.697	9449
320.786	7757
320.875	8582
320.964	8619
321.053	9465
321.142	7977
321.230	10868
321.319	15292
321.408	23511
321.497	15810
321.586	12036
321.675	17166
321.764	16932
321.852	14105
321.941	13332
322.030	10880
322.119	15004
322.207	17134
322.296	28045
322.385	21535
322.474	17913
322.562	20205
322.651	19947
322.740	11320
322.829	15505
322.917	20557
323.006	10766
323.095	8908
323.183	9633
323.272	11162
323.361	16164
323.449	47613
323.538	17168
323.626	35132
323.715	22074
323.804	11794
323.892	32768
323.981	15107
324.069	8267
324.158	21387
324.246	18427
324.335	6944
324.424	6515
324.512	5635
324.601	5572
324.689	5978
324.778	7540
324.866	13711
324.954	6098
325.043	5584
325.131	8814
325.220	17801
325.308	19068
325.397	12931
325.485	8696
325.574	4321
325.662	5747
325.750	4365
325.839	5766
325.927	4632
326.015	6075
326.104	7958
326.192	10494
326.280	5124
326.369	5712
326.457	3785
326.545	5632
326.634	4856
326.722	4889
326.810	4132
326.898	5766
326.987	5237
327.075	6101
327.163	9024
327.251	6016
327.340	6246
327.428	7937
327.516	6886
327.604	6290
327.692	5016
327.781	6821
327.869	8552
327.957	5840
328.045	3905
328.133	5120
328.221	4904
328.309	4470
328.397	5600
328.485	5598
328.574	6777
328.662	9260
328.750	8883
328.838	6696
328.926	4397
329.014	4019
329.102	5497
329.190	17817
329.278	8536
329.366	3655
329.454	4755
329.542	5214
329.630	4240
329.718	4991
329.806	4631
329.893	7094
329.981	5725
330.069	6138
330.157	14451
330.245	40457
330.333	20311
330.421	5788
330.509	4826
330.597	6532
330.684	8798
330.772	8181
330.860	15050
330.948	20932
331.036	7348
331.123	4470
331.211	4918
331.299	7676
331.387	17139
331.475	27410
331.562	8044
331.650	5036
331.738	5210
331.825	8116
331.913	4347
332.001	3937
332.089	6286
332.176	12302
332.264	21250
332.352	15243
332.439	7080
332.527	6273
332.614	4877
332.702	7243
332.790	5107
332.877	10296
332.965	20492
333.052	7950
333.140	7671
333.228	15946
333.315	6366
333.403	6670
333.490	14791
333.578	12107
333.665	19131
333.753	10788
333.840	5102
333.928	7881
334.015	15441
334.103	25267
334.190	70614
334.278	25223
334.365	19285
334.452	17109
334.540	11489
334.627	13953
334.715	15939
334.802	25723
334.889	78622
334.977	80711
335.064	27730
335.151	14402
335.239	12587
335.326	14283
335.413	40026
335.501	50953
335.588	12048
335.675	11451
335.762	16766
335.850	27650
335.937	23502
336.024	44027
336.111	112940
336.199	68748
336.286	25123
336.373	14481
336.460	10469
336.547	8998
336.635	8843
336.722	7906
336.809	7484
336.896	8332
336.983	22440
337.070	56854
337.157	72475
337.245	44489
337.332	29559
337.419	8176
337.506	7330
337.593	8553
337.680	23208
337.767	67338
337.854	17712
337.941	22511
338.028	16609
338.115	8184
338.202	13243
338.289	16741
338.376	39336
338.463	15365
338.550	39855
338.637	38593
338.724	11099
338.811	16835
338.898	5173
338.984	5906
339.071	7166
339.158	5671
339.245	7792
339.332	6871
339.419	11996
339.506	11590
339.593	3733
339.679	4364
339.766	3316
339.853	5173
339.940	4306
340.027	4468
340.113	3517
340.200	4118
340.287	4089
340.374	4300
340.460	4791
340.547	4015
340.634	3445
340.720	5702
340.807	3561
340.894	4363
340.980	3158
341.067	3746
341.154	5159
341.240	4181
341.327	4386
341.414	3346
341.500	3277
341.587	4864
341.674	4275
341.760	4794
341.847	2963
341.933	3022
342.020	2881
342.106	4248
342.193	3844
342.279	3817
342.366	3362
342.452	3866
342.539	2646
342.625	4443
342.712	3451
342.798	4080
342.885	3261
342.971	3263
343.058	2407
343.144	3251
343.230	3691
343.317	3585
343.403	2165
343.490	3598
343.576	3020
343.662	4085
343.749	2564
343.835	3787
343.921	4114
344.008	13441
344.094	25821
344.180	6868
344.267	3875
344.353	8282
344.439	12306
344.525	5001
344.612	6988
344.698	7892
344.784	4825
344.870	4152
344.957	2476
345.043	4526
345.129	2511
345.215	4598
345.301	3019
345.387	3973
345.474	3526
345.560	4188
345.646	4487
345.732	5121
345.818	2578
345.904	4497
345.990	3751
346.076	4780
346.162	7251
346.249	4797
346.335	2531
346.421	4128
346.507	3999
346.593	8734
346.679	4561
346.765	5526
346.851	5787
346.937	5241
347.023	3250
347.108	3754
347.194	4002
347.280	3728
347.366	3579
347.452	11399
347.538	17675
347.624	11635
347.710	9775
347.796	5564
347.882	4337
347.967	5068
348.053	7833
348.139	5178
348.225	3392
348.311	3149
348.397	3341
348.482	4411
348.568	3924
348.654	5473
348.740	14424
348.825	15654
348.911	8347
348.997	7721
349.083	13450
349.168	5314
349.254	3230
349.340	4627
349.425	3158
349.511	4224
349.597	4597
349.682	3977
349.768	5961
349.854	4845
349.939	5034
350.025	3595
350.110	3829
350.196	4340
350.282	2340
350.367	4247
350.453	5478
350.538	5706
350.624	4780
350.709	5398
350.795	2783
350.880	2659
350.966	4239
351.051	4733
351.137	3828
351.222	3713
351.308	3205
351.393	4960
351.479	2537
351.564	2769
351.649	3078
351.735	3450
351.820	2792
351.906	3300
351.991	3171
352.076	5086
352.162	4730
352.247	3238
352.332	2785
352.418	3352
352.503	3654
352.588	6010
352.673	3988
352.759	3245
352.844	2476
352.929	2872
353.014	2162
353.100	3404
353.185	3233
353.270	2658
353.355	2493
353.441	3630
353.526	2829
353.611	3555
353.696	1736
353.781	3982
353.866	1444
353.952	3438
354.037	2419
354.122	4145
354.207	3516
354.292	4010
354.377	2623
354.462	3387
354.547	2667
354.632	4467
354.717	6247
354.802	2934
354.887	2456
354.972	3422
355.057	2702
355.142	3024
355.227	3260
355.312	3175
355.397	1870
355.482	4470
355.567	3547
355.652	4575
355.737	3474
355.822	5676
355.907	3770
355.991	3543
356.076	2219
356.161	3977
356.246	2583
356.331	2811
356.416	3034
356.501	11696
356.585	9887
356.670	2457
356.755	5106
356.840	4223
356.924	7873
357.009	23566
357.094	9451
357.179	4453
357.263	3323
357.348	5130
357.433	4951
357.517	3163
357.602	2975
357.687	2997
357.771	4046
357.856	9445
357.941	6718
358.025	8075
358.110	30763
358.195	13426
358.279	3284
358.364	4193
358.448	4467
358.533	7545
358.617	5523
358.702	7382
358.787	3859
358.871	3552
358.956	3241
359.040	3216
359.125	2446
359.209	3573
359.294	5489
359.378	9454
359.462	4834
359.547	5026
359.631	4266
359.716	2588
359.800	4050
359.885	8027
359.969	3359
360.053	4650
360.138	3288
360.222	3632
360.306	4050
360.391	4603
360.475	5151
360.559	6831
360.644	4325
360.728	4951
360.812	8182
360.896	16497
360.981	15741
361.065	13332
361.149	5050
361.233	4422
361.318	3654
361.402	4505
361.486	4925
361.570	4022
361.654	3989
361.739	4727
361.823	10448
361.907	17572
361.991	6594
362.075	6629
362.159	7819
362.243	16871
362.327	39580
362.411	59991
362.495	23761
362.580	12106
362.664	10944
362.748	11472
362.832	16595
362.916	35040
363.000	102142
363.084	147755
363.168	64611
363.252	19827
363.336	13082
363.420	14060
363.503	51047
363.587	60710
363.671	11849
363.755	9119
363.839	10576
363.923	8539
364.007	11138
364.091	16443
364.175	33026
364.258	109810
364.342	142609
364.426	220508
364.510	116370
364.594	40337
364.677	21136
364.761	19316
364.845	14349
364.929	7402
365.013	6152
365.096	6035
365.180	6672
365.264	21383
365.347	80263
365.431	39208
365.515	11364
365.598	4018
365.682	6497
365.766	13962
365.849	19290
365.933	5867
366.017	11432
366.100	11384
366.184	4327
366.267	6688
366.351	3755
366.435	4036
366.518	3239
366.602	4446
366.685	4475
366.769	3934
366.852	10305
366.936	13900
367.019	4753
367.103	9411
367.186	21233
367.270	6878
367.353	3520
367.436	5743
367.520	3952
367.603	4092
367.687	3899
367.770	4460
367.853	4319
367.937	7604
368.020	7911
368.104	3768
368.187	3674
368.270	4935
368.353	4334
368.437	9085
368.520	27888
368.603	14393
368.687	6506
368.770	8735
368.853	4688
368.936	9768
369.020	14854
369.103	4685
369.186	3786
369.269	3602
369.352	4097
369.436	6204
369.519	5089
369.602	3280
369.685	5482
369.768	3429
369.851	5356
369.934	3511
370.018	3385
370.101	3042
370.184	7133
370.267	7371
370.350	5996
370.433	9685
370.516	12096
370.599	22259
370.682	9470
370.765	8156
370.848	8254
370.931	11933
371.014	13737
371.097	4838
371.180	4383
371.263	4916
371.346	2296
371.429	4241
371.511	3643
371.594	5026
371.677	10189
371.760	19585
371.843	7799
371.926	15850
372.009	31271
372.091	15594
372.174	11519
372.257	24392
372.340	12668
372.423	19885
372.505	29030
372.588	10368
372.671	6664
372.754	8703
372.836	7748
372.919	25614
373.002	53407
373.085	12783
373.167	6251
373.250	6844
373.332	10908
373.415	18622
373.498	34479
373.580	17566
373.663	35812
373.746	41477
373.828	9645
373.911	8487
373.993	9866
374.076	47913
374.159	45619
374.241	10084
374.324	9937
374.406	8536
374.489	11640
374.571	26053
374.654	11045
374.736	9366
374.819	19143
374.901	24679
374.983	25048
375.066	9227
375.148	8014
375.231	38163
375.313	76064
375.395	30446
375.478	8259
375.560	7252
375.643	6172
375.725	9495
375.807	19782
375.890	29506
375.972	22211
376.054	12812
376.136	23993
376.219	10781
376.301	7177
376.383	13026
376.465	7282
376.548	4834
376.630	5269
376.712	11520
376.794	5911
376.877	3544
376.959	2736
377.041	5859
377.123	15500
377.205	19348
377.287	3499
377.369	3336
377.452	3543
377.534	4008
377.616	3743
377.698	3574
377.780	2597
377.862	3454
377.944	4474
378.026	3812
378.108	4412
378.190	3497
378.272	4374
378.354	3671
378.436	2634
378.518	6192
378.600	24140
378.682	12449
378.764	4577
378.846	5606
378.928	6257
379.010	4796
379.091	3629
379.173	3918
379.255	3010
379.337	3373
379.419	4428
379.501	8355
379.583	6748
379.664	4351
379.746	2521
379.828	8541
379.910	5465
379.991	7113
380.073	3397
380.155	4377
380.237	2828
380.318	3612
380.400	2848
380.482	4377
380.564	4744
380.645	4156
380.727	4385
380.809	4573
380.890	3328
380.972	2957
381.053	4091
381.135	5222
381.217	3649
381.298	7857
381.380	4726
381.461	6401
381.543	10695
381.624	12357
381.706	5309
381.787	7654
381.869	6703
381.951	8942
382.032	24410
382.113	18805
382.195	7676
382.276	8725
382.358	7077
382.439	13032
382.521	15931
382.602	24875
382.684	15967
382.765	25268
382.846	56003
382.928	123006
383.009	70023
383.090	48444
383.172	164419
383.253	238220
383.334	75481
383.416	35617
383.497	21917
383.578	21557
383.659	43163
383.741	143485
383.822	325115
383.903	166186
383.984	39879
384.066	27689
384.147	17011
384.228	12614
384.309	10283
384.390	8854
384.471	8342
384.553	8829
384.634	9663
384.715	9655
384.796	6912
384.877	6827
384.958	8042
385.039	7823
385.120	5462
385.201	7326
385.282	10594
385.363	14666
385.444	10105
385.525	10598
385.606	14821
385.687	13293
385.768	11713
385.849	12974
385.930	18200
386.011	28185
386.092	10857
386.173	8403
386.254	8941
386.335	8730
386.416	7072
386.496	9193
386.577	11394
386.658	13838
386.739	10076
386.820	13117
386.901	11872
386.981	11660
387.062	7774
387.143	9084
387.224	10750
387.304	15794
387.385	13802
387.466	14264
387.547	19000
387.627	12295
387.708	12762
387.789	17162
387.869	15464
387.950	11735
388.031	8279
388.111	9327
388.192	23866
388.273	33642
388.353	18345
388.434	8050
388.514	7302
388.595	13887
388.676	14375
388.756	9118
388.837	8464
388.917	6076
388.998	4909
389.078	6278
389.159	5283
389.239	4140
389.320	7253
389.400	3825
389.480	9069
389.561	11110
389.641	6654
389.722	5961
389.802	5158
389.883	8897
389.963	11484
390.043	13301
390.124	10315
390.204	7722
390.284	7317
390.365	8658
390.445	32378
390.525	48016
390.605	25072
390.686	6851
390.766	6096
390.846	5688
390.927	3768
391.007	5087
391.087	6772
391.167	6392
391.247	4882
391.328	11073
391.408	17474
391.488	14814
391.568	5111
391.648	6179
391.728	6268
391.808	6631
391.888	6159
391.969	9078
392.049	9627
392.129	15713
392.209	12415
392.289	13181
392.369	15461
392.449	33625
392.529	20805
392.609	14990
392.689	14182
392.769	18779
392.849	21121
392.929	35020
393.009	53854
393.089	52525
393.169	86969
393.248	219198
393.328	492093
393.408	501515
393.488	226079
393.568	87256
393.648	44799
393.728	28828
393.807	19703
393.887	17972
393.967	14478
394.047	12300
394.127	11285
394.206	14400
394.286	35231
394.366	149893
394.446	158914
394.525	35992
394.605	11480
394.685	15390
394.764	37886
394.844	65660
394.924	50746
395.003	13822
395.083	7769
395.163	6974
395.242	6644
395.322	6763
395.402	5427
395.481	10031
395.561	24158
395.640	71313
395.720	75795
395.799	76849
395.879	51232
395.958	18764
396.038	48636
396.117	190650
396.197	212531
396.276	74211
396.356	35338
396.435	36978
396.515	27735
396.594	32210
396.673	65487
396.753	201362
396.832	448918
396.912	335036
396.991	104989
397.070	42224
397.150	22984
397.229	22045
397.308	39894
397.388	78328
397.467	37625
397.546	13285
397.625	6860
397.705	9201
397.784	6644
397.863	6794
397.942	5900
398.022	7691
398.101	21593
398.180	61883
398.259	36413
398.338	12136
398.417	5814
398.497	6009
398.576	6013
398.655	3873
398.734	5160
398.813	5964
398.892	18645
398.971	62396
399.050	31209
399.129	4996
399.208	4749
399.287	4773
399.366	3509
399.445	4950
399.524	4020
399.603	3008
399.682	4580
399.761	13219
399.840	59480
399.919	49733
399.998	9027
400.077	3219
400.156	1916
400.235	6572
400.313	4056
400.392	4543
400.471	5440
400.550	6263
400.629	2951
400.708	5242
400.786	5472
400.865	18821
400.944	19952
401.023	8524
401.102	1622
401.180	3011
401.259	4082
401.338	4801
401.416	4837
401.495	3281
401.574	4771
401.652	4101
401.731	5343
401.810	3887
401.888	2794
401.967	2537
402.046	2804
402.124	5641
402.203	4525
402.281	4319
402.360	5055
402.438	22310
402.517	17106
402.596	5994
402.674	5799
402.753	4312
402.831	4012
402.910	3815
402.988	4163
403.066	13045
403.145	7783
403.223	6015
403.302	7271
403.380	7756
403.459	6627
403.537	5458
403.615	4224
403.694	2202
403.772	2850
403.850	3565
403.929	1795
404.007	3689
404.085	4593
404.164	3029
404.242	3252
404.320	12799
404.398	40166
404.477	33126
404.555	18439
404.633	17586
404.711	27422
404.789	19933
404.868	4593
404.946	3286
405.024	2461
405.102	1351
405.180	997
405.258	911
405.336	2509
405.415	2399
405.493	6991
405.571	4691
405.649	2388
405.727	2631
405.805	4809
405.883	4004
405.961	5392
406.039	8302
406.117	2690
406.195	2142
406.273	1543
406.351	9608
406.429	10759
406.507	8106
406.585	3642
406.663	2446
406.740	1807
406.818	1332
406.896	1424
406.974	2668
407.052	1255
407.130	5768
407.208	6101
407.285	3296
407.363	692
407.441	2414
407.519	1885
407.596	2264
407.674	4848
407.752	21803
407.830	27035
407.907	12840
407.985	2502
408.063	3412
408.141	1790
408.218	6749
408.296	4723
408.373	2391
408.451	2240
408.529	2658
408.606	1793
408.684	3709
408.762	1946
408.839	3074
408.917	3198
408.994	3217
409.072	2895
409.149	5221
409.227	8934
409.304	12384
409.382	14463
409.459	15034
409.537	20024
409.614	19354
409.692	14070
409.769	13517
409.846	20213
409.924	27247
410.001	18230
410.079	13397
410.156	9592
410.233	7359
410.311	5207
410.388	5277
410.465	4967
410.543	4519
410.620	4682
410.697	5815
410.775	3766
410.852	2719
410.929	5270
411.006	5823
411.083	4047
411.161	5540
411.238	9535
411.315	7933
411.392	3013
411.469	3703
411.547	4216
411.624	2491
411.701	2030
411.778	3334
411.855	2926
411.932	2587
412.009	2601
412.086	3009
412.163	3411
412.240	4312
412.317	6114
412.394	4696
412.471	2884
412.548	2737
412.625	1474
412.702	3761
412.779	5899
412.856	4658
412.933	2367
413.010	2842
413.087	2694
413.164	3504
413.241	4536
413.318	1272
413.395	2220
413.471	2430
413.548	1240
413.625	3403
413.702	2512
413.779	3787
413.855	2557
413.932	1835
414.009	728
414.086	2037
414.162	1849
414.239	3199
414.316	4495
414.393	5867
414.469	1329
414.546	1772
414.623	1175
414.699	1625
414.776	895
414.853	2015
414.929	2519
415.006	2602
415.082	3981
415.159	4144
415.236	1937
415.312	1605
415.389	1593
415.465	1775
415.542	2165
415.618	1045
415.695	698
415.771	2230
415.848	1575
415.924	2207
416.000	2535
416.077	3076
416.153	741
416.230	831
416.306	1299
416.383	2158
416.459	2168
416.535	870
416.612	2165
416.688	2243
416.764	1187
416.841	1053
416.917	1828
416.993	3090
417.069	1880
417.146	2452
417.222	2251
417.298	1618
417.374	1090
417.451	2733
417.527	1085
417.603	1569
417.679	736
417.755	1391
417.831	1625
417.908	1224
417.984	1248
418.060	805
418.136	1618
418.212	2055
418.288	1216
418.364	3215
418.440	554
418.516	3118
418.592	6436
418.668	5973
418.744	2270
418.820	2628
418.896	2218
418.972	1788
419.048	1751
419.124	3256
419.200	920
419.276	2673
419.352	1744
419.428	2316
419.504	1713
419.579	1648
419.655	1516
419.731	2114
419.807	2775
419.883	2489
419.959	2070
420.034	3525
420.110	3312
420.186	3524
420.262	3772
420.337	4101
420.413	3497
420.489	3862
420.565	4624
420.640	4382
420.716	4800
420.792	3704
420.867	5771
420.943	5046
421.019	4683
421.094	5276
421.170	6003
421.245	6080
421.321	6593
421.397	7443
421.472	10146
421.548	17509
421.623	13851
421.699	11944
421.774	12144
421.850	13638
421.925	17100
422.001	20321
422.076	24612
422.152	30832
422.227	40216
422.302	56995
422.378	83653
422.453	138994
422.529	237238
422.604	313896
422.679	256578
422.755	303501
422.830	257012
422.905	154317
422.981	95516
423.056	65680
423.131	47433
423.207	36406
423.282	28239
423.357	23510
423.432	18754
423.508	17395
423.583	14295
423.658	13139
423.733	12927
423.808	12098
423.883	9794
423.959	11623
424.034	11422
424.109	12534
424.184	7270
424.259	7323
424.334	5683
424.409	5099
424.484	4933
424.559	5267
424.634	4020
424.709	3596
424.784	4219
424.859	4132
424.934	3744
425.009	4617
425.084	4391
425.159	4504
425.234	3354
425.309	2467
425.384	4171
425.459	4373
425.534	3862
425.609	4700
425.683	3239
425.758	2684
425.833	2646
425.908	3683
425.983	1508
426.058	4685
426.132	4211
426.207	4670
426.282	8566
426.357	8213
426.431	3065
426.506	3644
426.581	3069
426.655	3036
426.730	2268
426.805	1708
426.879	2708
426.954	2464
427.029	2726
427.103	4097
427.178	7168
427.253	5557
427.327	3287
427.402	6020
427.476	10895
427.551	4850
427.625	3591
427.700	4159
427.774	2633
427.849	4718
427.923	2378
427.998	2812
428.072	3758
428.147	10600
428.221	36195
428.296	110685
428.370	62163
428.444	11059
428.519	10105
428.593	20736
428.667	17805
428.742	21649
428.816	23495
428.890	77669
428.965	113025
429.039	35822
429.113	23943
429.188	8547
429.262	3378
429.336	3314
429.410	4750
429.485	6023
429.559	15596
429.633	14425
429.707	5517
429.781	15934
429.855	83894
429.930	115737
430.004	52960
430.078	77092
430.152	78251
430.226	141435
430.300	138351
430.374	30800
430.448	10778
430.522	23084
430.596	62753
430.670	41821
430.744	83733
430.818	90514
430.892	16683
430.966	4665
431.040	2972
431.114	2241
431.188	1833
431.262	2725
431.336	2709
431.410	8142
431.484	19504
431.557	11214
431.631	2891
431.705	5356
431.779	26405
431.853	100889
431.927	70088
432.000	10577
432.074	3844
432.148	4233
432.222	2890
432.295	2115
432.369	1754
432.443	2827
432.516	6441
432.590	9734
432.664	5435
432.737	1864
432.811	743
432.885	671
432.958	991
433.032	293
433.106	162
433.179	1161
433.253	160
433.326	908
433.400	360
433.473	788
433.547	-27
433.620	662
433.694	496
433.767	2017
433.841	1474
433.914	547
433.988	136
434.061	1401
434.134	953
434.208	1478
434.281	171
434.355	655
434.428	1128
434.501	1234
434.575	1066
434.648	1372
434.721	872
434.795	690
434.868	790
434.941	1094
435.014	642
435.088	1388
435.161	1720
435.234	3102
435.307	2541
435.381	3588
435.454	5273
435.527	10075
435.600	10696
435.673	9441
435.746	6033
435.819	4218
435.892	3379
435.966	2602
436.039	2347
436.112	2903
436.185	1000
436.258	1740
436.331	161
436.404	1046
436.477	1089
436.550	1306
436.623	245
436.696	850
436.769	793
436.842	1504
436.915	1462
436.987	1808
437.060	758
437.133	1004
437.206	931
437.279	1296
437.352	565
437.425	932
437.498	63
437.570	1609
437.643	498
437.716	558
437.789	-145
437.861	2033
437.934	3117
438.007	1418
438.080	638
438.152	591
438.225	1042
438.298	4223
438.370	10498
438.443	6425
438.516	2919
438.588	2103
438.661	-9
438.734	-238
438.806	952
438.879	1890
438.951	930
439.024	2233
439.096	524
439.169	912
439.241	265
439.314	887
439.386	3151
439.459	3645
439.531	3744
439.604	1593
439.676	598
439.749	340
439.821	101
439.893	1599
439.966	644
440.038	1267
440.110	861
440.183	535
440.255	-313
440.327	2419
440.400	4246
440.472	10241
440.544	4967
440.617	2003
440.689	2069
440.761	2026
440.833	2937
440.905	2433
440.978	632
441.050	1034
441.122	1048
441.194	320
441.266	562
441.338	1282
441.411	415
441.483	1955
441.555	2287
441.627	2506
441.699	5157
441.771	5707
441.843	1205
441.915	1728
441.987	1268
442.059	1918
442.131	3115
442.203	6173
442.275	6229
442.347	8845
442.419	16183
442.491	78118
442.563	170137
442.635	70905
442.706	27332
442.778	14614
442.850	4377
442.922	3812
442.994	4630
443.066	6253
443.137	6252
443.209	7785
443.281	10809
443.353	25460
443.425	88576
443.496	249005
443.568	258820
443.640	108245
443.711	24098
443.783	9931
443.855	5826
443.926	3994
443.998	4177
444.070	6475
444.141	3769
444.213	3240
444.285	3101
444.356	3527
444.428	4233
444.499	3020
444.571	1991
444.642	2942
444.714	2707
444.785	2941
444.857	6027
444.928	17532
445.000	9938
445.071	13844
445.143	15443
445.214	12485
445.285	23726
445.357	63139
445.428	168422
445.500	297280
445.571	241089
445.642	156273
445.714	60236
445.785	34949
445.856	10625
445.928	5832
445.999	3850
446.070	4009
446.141	2239
446.213	3111
446.284	2928
446.355	5094
446.426	3010
446.497	2335
446.569	5092
446.640	4181
446.711	604
446.782	1469
446.853	2335
446.924	1794
446.995	1046
447.066	2814
447.138	6329
447.209	3799
447.280	-53
447.351	774
447.422	623
447.493	2826
447.564	1400
447.635	530
447.706	-122
447.777	353
447.847	168
447.918	485
447.989	2672
448.060	3479
448.131	9135
448.202	5439
448.273	2228
448.344	1285
448.414	399
448.485	786
448.556	352
448.627	777
448.698	1270
448.768	289
448.839	1674
448.910	4329
448.981	3217
449.051	1345
449.122	101
449.193	719
449.263	801
449.334	901
449.405	851
449.475	1133
449.546	1940
449.616	5933
449.687	5271
449.758	1375
449.828	686
449.899	800
449.969	231
450.040	762
450.110	532
450.181	1876
450.251	-81
450.322	1355
450.392	338
450.463	1891
450.533	401
450.604	1523
450.674	281
450.744	1976
450.815	1293
450.885	1784
450.955	1815
451.026	1810
451.096	912
451.166	2902
451.237	6573
451.307	17309
451.377	5104
451.447	1953
451.518	431
451.588	1240
451.658	1077
451.728	3021
451.799	16774
451.869	16833
451.939	2409
452.009	1120
452.079	41
452.149	2239
452.219	4165
452.289	20873
452.360	12001
452.430	1831
452.500	1542
452.570	3179
452.640	10119
452.710	29081
452.780	35960
452.850	14471
452.920	4905
452.990	3516
453.060	2345
453.129	2742
453.199	3855
453.269	17082
453.339	31687
453.409	46344
453.479	55077
453.549	79130
453.619	88171
453.688	27450
453.758	3892
453.828	1828
453.898	1059
453.968	1116
454.037	1116
454.087	1100
454.107	1086
454.168	161
454.177	12
454.247	1216
454.249	1205
454.316	602
454.330	797
454.386	1451
454.411	4188
454.456	8581
454.492	10973
454.525	13167
454.574	5814
454.595	2618
454.655	1327
454.665	1137
454.734	1846
454.736	1940
454.804	4229
454.817	6645
454.873	16144
454.898	16191
454.943	16197
454.979	9308
455.013	3171
455.060	2214
455.082	1932
455.141	3021
455.152	3119
455.221	11394
455.222	11549
455.291	20265
455.303	18074
455.360	8301
455.384	9686
455.430	12232
455.465	11110
455.499	9813
455.546	13765
455.569	15371
455.627	8688
455.638	7554
455.707	687
455.708	704
455.777	1834
455.789	1809
455.846	1560
455.869	1400
455.916	986
455.950	1093
455.985	1229
456.031	1251
456.054	1274
456.112	958
456.124	894
456.193	1267
456.193	1254
456.262	1549
456.274	1816
456.332	3147
456.355	2892
456.401	2037
456.436	1989
456.470	1949
456.516	1136
456.540	801
456.597	1210
456.609	1267
456.678	625
456.678	612
456.747	1191
456.759	1060
456.817	661
456.840	889
456.886	1073
456.920	1170
456.955	1254
457.001	1600
457.024	1843
457.082	1951
457.093	1947
457.162	2411
457.163	2426
457.232	2253
457.243	2242
457.301	2148
457.324	1853
457.370	1213
457.405	1594
457.439	2190
457.485	1926
457.508	1694
457.566	2573
457.577	2846
457.646	3529
457.647	3565
457.715	8992
457.727	10105
457.784	16269
457.808	22583
457.853	31311
457.889	38337
457.922	41174
457.969	27648
457.991	25929
458.050	27718
458.060	28046
458.129	50859
458.130	51540
458.198	61117
458.211	55053
458.267	31012
458.292	21963
458.336	12505
458.372	11627
458.405	14600
458.453	20968
458.474	25534
458.533	47494
458.543	49372
458.611	86632
458.614	86900
458.680	61587
458.694	49711
458.749	20510
458.775	14796
458.818	7999
458.855	6528
458.887	5528
458.936	4383
458.955	3817
459.016	2843
459.024	2858
459.093	4230
459.097	4234
459.162	3105
459.177	3021
459.230	2786
459.257	2514
459.299	2415
459.338	2720
459.368	3038
459.418	3207
459.437	3084
459.499	2833
459.505	2810
459.574	2722
459.579	2726
459.643	2541
459.659	2330
459.711	2237
459.740	2594
459.780	2830
459.820	2992
459.849	3096
459.900	3125
459.917	3138
459.981	3432
459.986	3415
460.054	2867
460.061	2826
460.123	2525
460.141	2537
460.191	3038
460.222	2977
460.260	2482
460.302	2532
460.328	2845
460.382	3154
460.397	3075
460.462	2772
460.465	2868
460.534	5690
460.543	6017
460.602	13867
460.623	16875
460.671	24033
460.703	33120
460.739	32964
460.783	26931
460.808	23697
460.864	7271
460.876	5353
460.944	3116
460.945	3091
461.013	3381
461.024	3316
461.081	2668
461.104	2478
461.150	2303
461.184	2302
461.218	2401
461.264	2452
461.286	2650
461.345	3208
461.355	3177
461.423	3003
461.425	2993
461.491	3145
461.505	3326
461.559	6186
461.585	7342
461.628	10877
461.665	14843
461.696	16399
461.745	21133
461.764	19490
461.825	6726
461.832	6286
461.901	3542
461.905	3529
461.969	3261
461.985	3122
462.037	3698
462.065	4196
462.105	4548
462.145	4600
462.173	5907
462.225	8745
462.241	9525
462.305	13884
462.310	13610
462.378	8820
462.385	7909
462.446	4519
462.465	3909
462.514	3632
462.545	3878
462.582	3938
462.625	3745
462.650	3754
462.705	3810
462.718	3971
462.785	4812
462.786	4838
462.854	6127
462.865	6475
462.922	7998
462.945	8600
462.990	6707
463.025	4303
463.058	3970
463.104	4062
463.126	3815
463.184	3725
463.194	3819
463.262	3934
463.264	3944
463.330	4162
463.344	4093
463.398	4573
463.424	5120
463.466	4776
463.504	4292
463.533	4681
463.583	5278
463.601	5138
463.663	4151
463.669	4239
463.737	6172
463.743	6296
463.805	10147
463.823	11375
463.873	16819
463.903	20330
463.940	21327
463.982	23188
464.008	19625
464.062	8711
464.076	7721
464.142	3885
464.144	3867
464.211	3751
464.221	3852
464.279	4499
464.301	4549
464.347	4837
464.381	5299
464.414	5424
464.461	5321
464.482	5731
464.540	7328
464.550	7033
464.617	4142
464.620	4043
464.685	4841
464.699	5019
464.753	5086
464.779	5177
464.820	5940
464.859	6491
464.888	6252
464.938	6131
464.956	6650
465.018	8309
465.023	8117
465.091	5486
465.098	5169
465.158	4940
465.177	4976
465.226	4948
465.257	4854
465.293	5163
465.336	5621
465.361	5873
465.416	6286
465.428	7038
465.495	11018
465.496	11087
465.563	19060
465.575	20505
465.631	25897
465.654	28350
465.698	17960
465.734	8165
465.765	6727
465.813	4883
465.833	4883
465.893	5486
465.900	5488
465.968	5467
465.972	5447
466.035	4699
466.052	4489
466.102	4775
466.131	4962
466.170	5259
466.210	5541
466.237	5572
466.290	5603
466.304	5729
466.369	6189
466.372	6201
466.439	6323
466.449	6317
466.506	6074
466.528	5977
466.573	9768
466.607	12556
466.641	18430
466.687	26649
466.708	29618
466.766	37993
466.775	34935
466.842	11134
466.845	9983
466.909	7013
466.925	6409
466.977	5995
467.004	5756
467.044	6610
467.083	7487
467.111	7689
467.163	8009
467.178	8118
467.242	8506
467.245	8470
467.312	7452
467.321	7306
467.379	8199
467.400	8501
467.446	9758
467.480	10638
467.559	8729
467.638	7868
467.717	7424
467.796	7395
467.875	8229
467.955	8747
468.034	14919
468.113	33733
468.192	50607
468.271	15059
468.350	14227
468.429	16592
468.508	17903
468.588	12339
468.667	8845
468.746	8345
468.825	8090
468.904	7147
468.983	8988
469.062	13341
469.141	17137
469.220	7090
469.299	7639
469.378	6778
469.456	8884
469.535	7406
469.614	8373
469.693	7603
469.772	12060
469.851	14688
469.930	11794
470.009	6416
470.088	6608
470.166	6977
470.245	9410
470.324	10552
470.403	8307
470.482	6658
470.560	6615
470.639	6436
470.718	6059
470.797	6469
470.875	7922
470.954	10072
471.033	13194
471.111	6605
471.190	6128
471.269	6413
471.347	6527
471.426	6621
471.505	7910
471.583	6913
471.662	7217
471.740	6322
471.819	7176
471.898	6575
471.976	6250
472.055	6372
472.133	8382
472.212	10076
472.290	10129
472.369	7531
472.447	6899
472.526	6112
472.604	7676
472.683	6825
472.761	6119
472.839	6223
472.918	7016
472.996	6967
473.075	8264
473.153	8085
473.231	7659
473.310	7448
473.388	7662
473.466	6684
473.545	6549
473.623	7310
473.701	6250
473.780	6768
473.858	5229
473.936	7052
474.014	6769
474.093	7227
474.171	12979
474.249	16007
474.327	12089
474.405	5640
474.484	6247
474.562	5655
474.640	6555
474.718	6284
474.796	6131
474.874	6695
474.952	5928
475.030	5774
475.108	5803
475.187	5849
475.265	6269
475.343	5782
475.421	6724
475.499	6277
475.577	6431
475.655	8918
475.733	19435
475.811	33184
475.889	28903
475.966	21262
476.044	6918
476.122	7633
476.200	7722
476.278	7490
476.356	6939
476.434	7611
476.512	7886
476.590	8016
476.667	8590
476.745	6725
476.823	7700
476.901	7591
476.979	9397
477.056	8257
477.134	8301
477.212	6820
477.290	7977
477.367	6700
477.445	7004
477.523	6401
477.601	7261
477.678	7673
477.756	9910
477.834	10230
477.911	6486
477.989	7324
478.066	7650
478.144	8799
478.222	7762
478.299	6777
478.377	7657
478.454	6695
478.532	7450
478.609	6755
478.687	7598
478.764	5987
478.842	5708
478.919	5893
478.997	7772
479.074	6413
479.152	8680
479.229	10710
479.307	8499
479.384	5721
479.461	7449
479.539	6965
479.616	8087
479.694	7216
479.771	7986
479.848	8143
479.926	10192
480.003	13755
480.080	7192
480.157	6863
480.235	6957
480.312	6258
480.389	8433
480.467	12719
480.544	16403
480.621	9755
480.698	9267
480.775	9761
480.853	10237
480.930	9010
481.007	8996
481.084	9245
481.161	11025
481.238	10094
481.315	7886
481.392	7373
481.470	7453
481.547	7842
481.624	8310
481.701	7995
481.778	8475
481.855	8451
481.932	14546
482.009	20496
482.086	16900
482.163	8328
482.240	9329
482.317	9284
482.393	8404
482.470	8456
482.547	9498
482.624	8175
482.701	8741
482.778	7396
482.855	7117
482.932	6502
483.009	7439
483.085	8654
483.162	9383
483.239	10620
483.316	8855
483.393	9122
483.469	8063
483.546	9023
483.623	11109
483.699	7697
483.776	7197
483.853	8370
483.930	12339
484.006	29880
484.083	51314
484.160	21439
484.236	18348
484.313	14897
484.389	12553
484.466	13288
484.543	12904
484.619	15103
484.696	17569
484.772	16395
484.849	16821
484.925	11515
485.002	11321
485.078	12371
485.155	12739
485.231	10798
485.308	10673
485.384	11010
485.461	14826
485.537	26177
485.614	35158
485.690	12837
485.766	10344
485.843	10262
485.919	11048
485.995	9945
486.072	9384
486.148	9556
486.224	10123
486.301	10914
486.377	13113
486.453	10955
486.530	12148
486.606	13508
486.682	15086
486.758	21764
486.835	27948
486.911	19399
486.987	32750
487.063	22489
487.139	12898
487.215	12244
487.292	14666
487.368	13257
487.444	15625
487.520	19240
487.596	24941
487.672	54503
487.748	166086
487.824	248370
487.900	87576
487.976	25300
488.052	17345
488.128	16324
488.204	13524
488.280	12981
488.356	15541
488.432	33232
488.508	52394
488.584	17131
488.660	9870
488.736	8855
488.812	9603
488.888	10042
488.964	9825
489.039	9295
489.115	12321
489.191	11552
489.267	10712
489.343	9872
489.418	8854
489.494	9505
489.570	7961
489.646	10268
489.722	9633
489.797	10216
489.873	17562
489.949	38538
490.024	36751
490.100	9816
490.176	8959
490.251	9052
490.327	8912
490.403	8253
490.478	8266
490.554	8052
490.629	8282
490.705	7622
490.781	8455
490.856	8599
490.932	9129
491.007	7151
491.083	8086
491.158	8109
491.234	12545
491.309	30074
491.385	33720
491.460	9627
491.536	10668
491.611	8257
491.686	7341
491.762	6920
491.837	8821
491.913	12499
491.988	16846
492.063	12152
492.139	17848
492.214	14444
492.289	7153
492.365	6692
492.440	8507
492.515	8439
492.590	9959
492.666	6744
492.741	11235
492.816	17548
492.891	10280
492.967	7226
493.042	7323
493.117	5296
493.192	7656
493.267	8641
493.342	19062
493.418	25872
493.493	9200
493.568	5904
493.643	7962
493.718	8703
493.793	12209
493.868	10238
493.943	5901
494.018	7554
494.093	7085
494.168	8206
494.243	6105
494.318	6697
494.393	6698
494.468	5601
494.543	6390
494.618	5409
494.693	6399
494.768	6854
494.842	7174
494.917	6460
494.992	6922
495.067	6454
495.142	5603
495.217	6466
495.292	6286
495.366	6897
495.441	8507
495.516	10816
495.591	9176
495.665	10643
495.740	15299
495.815	12049
495.890	10241
495.964	8478
496.039	11536
496.114	9648
496.188	11719
496.263	11129
496.338	10874
496.412	10678
496.487	13791
496.561	10327
496.636	11024
496.710	9924
496.785	11885
496.860	13194
496.934	10556
497.009	10348
497.083	9949
497.158	9600
497.232	11589
497.307	14830
497.381	12539
497.455	14401
497.530	19560
497.604	13143
497.679	14217
497.753	19977
497.827	24443
497.902	16211
497.976	20868
498.050	55059
498.125	205042
498.199	228389
498.273	26330
498.348	13501
498.422	12812
498.496	12858
498.570	12512
498.645	10621
498.719	11517
498.793	15716
498.867	25255
498.941	35827
499.016	93091
499.090	232822
499.164	103810
499.238	12882
499.312	11198
499.386	10833
499.460	12888
499.534	12708
499.609	16351
499.683	22098
499.757	22733
499.831	43161
499.905	160631
499.979	176385
500.053	30797
500.127	26344
500.201	13429
500.275	12267
500.349	11963
500.422	12272
500.496	14340
500.570	22906
500.644	87851
500.718	184881
500.792	51541
500.866	13509
500.940	18444
501.013	15629
501.087	12382
501.161	14692
501.235	22298
501.309	65696
501.382	172787
501.456	170710
501.530	37013
501.603	63842
501.677	31040
501.751	9777
501.825	13916
501.898	25956
501.972	73291
502.046	58681
502.119	13425
502.193	32553
502.266	80231
502.340	47445
502.413	37155
502.487	77722
502.561	47525
502.634	15164
502.708	8731
502.781	7518
502.855	9169
502.928	7174
503.002	9657
503.075	7600
503.149	9883
503.222	9893
503.295	10046
503.369	12284
503.442	17574
503.516	54936
503.589	142532
503.662	106683
503.736	33869
503.809	67308
503.882	68524
503.956	84596
504.029	98086
504.102	100329
504.175	144732
504.249	59405
504.322	25875
504.395	18099
504.468	12581
504.542	12205
504.615	8565
504.688	7945
504.761	7137
504.834	9026
504.907	7150
504.980	7447
505.053	7883
505.127	4302
505.200	11122
505.273	12885
505.346	9897
505.419	7184
505.492	7735
505.565	6547
505.638	6382
505.711	6301
505.784	6004
505.857	5947
505.930	8594
506.003	6091
506.076	8892
506.149	9504
506.221	12844
506.294	11116
506.367	28958
506.440	97663
506.513	64745
506.586	12488
506.659	8833
506.731	5228
506.804	6149
506.877	6468
506.950	7987
507.022	6638
507.095	8410
507.168	11610
507.241	6584
507.313	4784
507.386	4867
507.459	6081
507.531	5301
507.604	4419
507.677	7051
507.749	3538
507.822	6399
507.894	6090
507.967	9394
508.040	6125
508.112	6819
508.185	5896
508.257	4632
508.330	7151
508.402	5783
508.475	6955
508.547	7745
508.620	7499
508.692	13648
508.765	9037
508.837	5620
508.909	6208
508.982	5745
509.054	5619
509.127	5387
509.199	5698
509.271	5102
509.344	4415
509.416	5786
509.488	5231
509.560	5992
509.633	5148
509.705	5873
509.777	6232
509.849	6661
509.922	4312
509.994	5191
510.066	6063
510.138	5514
510.210	10318
510.283	7817
510.355	7490
510.427	7271
510.499	5750
510.571	5862
510.643	4453
510.715	7301
510.787	4479
510.859	8321
510.931	8160
511.003	6934
511.076	7225
511.148	5317
511.219	6812
511.291	13026
511.363	17250
511.435	6813
511.507	5611
511.579	6535
511.651	6120
511.723	6820
511.795	5711
511.867	5926
511.939	7070
512.010	16901
512.082	16201
512.154	5342
512.226	6072
512.298	7559
512.369	7675
512.441	6934
512.513	5689
512.585	4673
512.656	6522
512.728	6559
512.800	5608
512.871	5789
512.943	4917
513.015	4105
513.086	5433
513.158	6405
513.230	4267
513.301	5515
513.373	5734
513.444	4808
513.516	4842
513.588	4648
513.659	5097
513.731	5216
513.802	4051
513.874	7376
513.945	4857
514.016	4638
514.088	5734
514.159	3842
514.231	6194
514.302	7512
514.374	7265
514.445	7513
514.516	21360
514.588	17325
514.659	9398
514.730	20424
514.802	14760
514.873	4826
514.944	8901
515.016	6107
515.087	5925
515.158	11634
515.229	21821
515.301	6792
515.372	7063
515.443	4793
515.514	4555
515.585	4549
515.656	5476
515.728	5459
515.799	4992
515.870	6126
515.941	5157
516.012	5577
516.083	7166
516.154	6280
516.225	6763
516.296	8732
516.367	6797
516.438	7266
516.509	8955
516.580	13063
516.651	42881
516.722	130921
516.793	67088
516.864	17321
516.935	17257
517.006	18978
517.077	21803
517.148	42640
517.219	172575
517.289	305206
517.360	138755
517.431	57564
517.502	13248
517.573	13347
517.643	11814
517.714	12965
517.785	12286
517.856	13366
517.926	16049
517.997	17433
518.068	16963
518.138	23998
518.209	34685
518.280	119694
518.350	408607
518.421	192382
518.492	29700
518.562	23996
518.633	27638
518.703	32643
518.774	70869
518.845	184737
518.915	189809
518.986	57125
519.056	27104
519.127	20984
519.197	31244
519.268	101391
519.338	89009
519.408	18590
519.479	11762
519.549	8819
519.620	10473
519.690	8941
519.760	8852
519.831	8295
519.901	8175
519.971	8885
520.042	9114
520.112	10905
520.182	10334
520.253	8817
520.323	7873
520.393	8639
520.463	10524
520.534	7276
520.604	16193
520.674	12001
520.744	11015
520.814	13543
520.885	15073
520.955	37128
521.025	133413
521.095	65798
521.165	11319
521.235	9923
521.305	7769
521.375	8018
521.445	7888
521.515	5317
521.585	7845
521.655	6410
521.725	7671
521.795	9195
521.865	6952
521.935	15557
522.005	13163
522.075	7385
522.145	8862
522.215	7895
522.285	15195
522.355	19076
522.424	39024
522.494	34931
522.564	12754
522.634	8013
522.704	9051
522.774	6592
522.843	7735
522.913	6883
522.983	6069
523.053	6072
523.122	7689
523.192	6034
523.262	5884
523.331	6454
523.401	7806
523.471	6132
523.540	6020
523.610	6105
523.680	6027
523.749	7774
523.819	9644
523.888	10774
523.958	6953
524.027	8604
524.097	8772
524.166	7883
524.236	5674
524.305	10106
524.375	6910
524.444	5488
524.514	9095
524.583	8087
524.653	10714
524.722	12641
524.791	7764
524.861	8569
524.930	6846
524.999	7550
525.069	9264
525.138	10391
525.207	13351
525.277	10760
525.346	8975
525.415	9859
525.484	9715
525.554	12036
525.623	14078
525.692	13336
525.761	14928
525.830	17652
525.900	21073
525.969	34440
526.038	60845
526.107	126583
526.176	369572
526.245	312276
526.314	87217
526.383	178545
526.452	261313
526.522	360196
526.591	373889
526.660	61167
526.729	31153
526.797	34252
526.867	47082
526.935	144632
527.004	553873
527.073	391321
527.142	47761
527.211	20785
527.280	14166
527.349	11812
527.418	8691
527.487	10448
527.555	7395
527.624	7960
527.693	6142
527.762	7583
527.831	6346
527.899	8341
527.968	7173
528.037	5723
528.106	7250
528.174	7990
528.243	11103
528.312	13935
528.380	13649
528.449	7627
528.518	7461
528.586	4183
528.655	7085
528.723	6004
528.792	6539
528.861	6785
528.929	5478
528.998	7314
529.066	6261
529.135	6713
529.203	6692
529.272	6052
529.340	7534
529.409	9085
529.477	6946
529.545	9165
529.614	12325
529.682	10939
529.751	14778
529.819	14593
529.887	10311
529.956	8166
530.024	9118
530.092	6184
530.161	6758
530.229	7377
530.297	6750
530.365	8088
530.434	7440
530.502	8087
530.570	8058
530.638	5569
530.707	7904
530.775	9411
530.843	6845
530.911	7919
530.979	8030
531.047	9289
531.115	8488
531.183	7873
531.252	8787
531.320	8270
531.388	6872
531.456	8488
531.524	5923
531.592	8809
531.660	10060
531.728	7231
531.796	7262
531.864	9038
531.932	8155
532.000	8277
532.067	7752
532.135	8895
532.203	9693
532.271	9473
532.339	11722
532.407	11791
532.475	9847
532.542	10152
532.610	9815
532.678	8739
532.746	11788
532.814	16774
532.881	10219
532.949	9827
533.017	10073
533.084	9885
533.152	9262
533.220	8942
533.287	6213
533.355	9326
533.423	9810
533.490	9463
533.558	9754
533.625	9372
533.693	8574
533.761	10205
533.828	10349
533.896	9180
533.963	11808
534.031	13082
534.098	14780
534.166	12902
534.233	12090
534.300	14261
534.368	13966
534.435	12683
534.503	12749
534.570	15294
534.637	14471
534.705	17271
534.772	20050
534.840	37364
534.907	160780
534.974	223026
535.041	31734
535.109	17604
535.176	12431
535.243	12639
535.310	11603
535.378	10256
535.445	10879
535.512	10133
535.579	10844
535.646	11576
535.714	11592
535.781	12785
535.848	12244
535.915	14707
535.982	13386
536.049	12748
536.116	14124
536.183	12260
536.250	11658
536.317	10361
536.384	12019
536.451	12232
536.518	11804
536.585	10244
536.652	13555
536.719	12495
536.786	9543
536.853	10883
536.920	13690
536.987	14504
537.053	9894
537.120	14533
537.187	14073
537.254	11577
537.321	11352
537.388	13253
537.454	10709
537.521	11932
537.588	11255
537.654	12018
537.721	12538
537.788	13673
537.855	11193
537.921	12354
537.988	11341
538.055	11533
538.121	10531
538.188	10521
538.254	10277
538.321	11082
538.388	11325
538.454	13291
538.521	12541
538.587	12899
538.654	11511
538.720	11313
538.787	11749
538.853	12318
538.920	13576
538.986	13156
539.053	12074
539.119	12505
539.185	11578
539.252	12436
539.318	11527
539.385	14686
539.451	11846
539.517	13006
539.583	13087
539.650	13880
539.716	16726
539.782	12933
539.849	10458
539.915	12336
539.981	10635
540.047	11530
540.114	11040
540.180	13660
540.246	11530
540.312	12841
540.378	12685
540.444	13867
540.510	12358
540.576	15083
540.643	11966
540.709	10688
540.775	11800
540.841	12392
540.907	15636
540.973	18411
541.039	12973
541.105	12386
541.171	12032
541.237	12422
541.303	13334
541.369	14644
541.435	12036
541.500	11782
541.566	9792
541.632	11053
541.698	10592
541.764	12761
541.830	11887
541.896	12071
541.961	11873
542.027	11440
542.093	12619
542.159	13224
542.224	10899
542.290	13732
542.356	12446
542.421	13661
542.487	11871
542.553	11418
542.618	14115
542.684	12057
542.750	11488
542.815	13604
542.881	14154
542.947	17236
543.012	14158
543.078	11495
543.143	10318
543.209	11735
543.274	11004
543.340	11983
543.405	12112
543.471	12885
543.536	12858
543.602	12967
543.667	11259
543.732	13931
543.798	11590
543.863	13950
543.928	11811
543.994	11376
544.059	12270
544.124	12340
544.190	11966
544.255	13063
544.320	12783
544.386	13054
544.451	13830
544.516	13257
544.581	11884
544.646	15157
544.712	16879
544.777	16747
544.842	16261
544.907	19225
544.972	15497
545.037	16589
545.102	17590
545.168	17683
545.233	17267
545.298	19861
545.363	19398
545.428	20594
545.493	19106
545.558	18309
545.623	19048
545.688	19613
545.753	18823
545.818	19974
545.883	20355
545.947	19852
546.012	22098
546.077	23537
546.142	23382
546.207	22203
546.272	23012
546.337	23388
546.401	24824
546.466	25178
546.531	25987
546.596	28090
546.661	27744
546.725	29571
546.790	29959
546.855	33665
546.919	34645
546.984	39013
547.049	42134
547.113	49059
547.178	52276
547.243	58714
547.307	66410
547.372	74567
547.436	78334
547.501	76348
547.565	81104
547.630	74845
547.695	72673
547.759	76888
547.823	77399
547.888	74944
547.952	76107
548.017	78650
548.081	81988
548.146	87688
548.210	87813
548.274	87355
548.339	85882
548.403	78954
548.468	74249
548.532	73156
548.596	74903
548.660	73998
548.725	82695
548.789	91399
548.853	89708
548.917	83928
548.982	86707
549.046	81553
549.110	66643
549.174	68636
549.238	78922
549.303	85499
549.367	88759
549.431	83435
549.495	77700
549.559	79391
549.623	90073
549.687	102197
549.751	98576
549.815	117637
549.879	120690
549.943	114396
550.007	119745
550.071	118285
550.135	107261
550.199	101790
550.263	99506
550.327	95399
550.391	103174
550.455	108147
550.519	112175
550.582	118195
550.646	131699
550.710	134974
550.774	132811
550.838	135171
550.901	139443
550.965	148460
551.029	152648
551.093	165439
551.156	181101
551.220	220070
551.284	245505
551.347	180430
551.411	183486
551.475	190069
551.538	148307
551.602	137507
551.666	127383
551.729	120950
551.793	118570
551.856	115869
551.920	112774
551.983	113567
552.047	112166
552.110	112873
552.174	112214
552.237	116386
552.301	107641
552.364	101979
552.428	100291
552.491	103348
552.554	105681
552.618	105328
552.681	106658
552.745	104641
552.808	111800
552.871	121376
552.934	111551
552.998	107201
553.061	105186
553.124	99803
553.187	97551
553.251	103182
553.314	103618
553.377	103733
553.440	112039
553.503	127317
553.567	141587
553.630	115234
553.693	109940
553.756	110961
553.819	107761
553.882	104505
553.945	103610
554.008	103849
554.071	104922
554.134	106760
554.197	99820
554.260	95594
554.323	98110
554.386	99353
554.449	103758
554.512	104600
554.575	100320
554.638	99600
554.701	98277
554.764	98024
554.827	94195
554.889	92243
554.952	86134
555.015	84499
555.078	84903
555.141	86572
555.203	84633
555.266	85733
555.329	83759
555.391	80238
555.454	79355
555.517	78008
555.580	73883
555.642	71414
555.705	69452
555.768	70627
555.830	68838
555.893	64084
555.955	62717
556.018	63210
556.080	64271
556.143	63786
556.206	63957
556.268	63560
556.330	61574
556.393	61144
556.455	58948
556.518	63340
556.580	62608
556.643	54316
556.705	52065
556.767	51807
556.830	52604
556.892	50625
556.955	50005
557.017	48255
557.079	48856
557.142	47328
557.204	45522
557.266	47616
557.328	44838
557.391	41900
557.453	41591
557.515	40243
557.577	41973
557.639	42241
557.701	41820
557.764	41657
557.826	42314
557.888	44562
557.950	45024
558.012	49138
558.074	62281
558.136	126245
558.198	296116
558.260	119018
558.322	48334
558.384	48673
558.446	48465
558.508	52515
558.570	58467
558.632	65076
558.694	81052
558.756	136634
558.818	368113
558.880	813255
558.942	340891
559.003	308940
559.065	160937
559.127	59588
559.189	57667
559.251	63858
559.312	90143
559.374	204036
559.436	600699
559.498	328469
559.559	70932
559.621	57025
559.683	66965
559.744	110671
559.806	320239
559.868	483799
559.929	113662
559.991	66955
560.052	102225
560.114	280931
560.176	193937
560.237	160527
560.299	265569
560.360	68527
560.422	29792
560.483	28109
560.545	26275
560.606	25291
560.667	25051
560.729	24785
560.790	21987
560.852	22148
560.913	22300
560.974	21232
561.036	20520
561.097	21479
561.158	21860
561.220	21866
561.281	19807
561.342	19374
561.403	20514
561.465	18783
561.526	20278
561.587	20696
561.648	18284
561.709	19494
561.771	18469
561.832	18650
561.893	18780
561.954	18035
562.015	17800
562.076	17890
562.137	18202
562.198	17925
562.259	16655
562.320	17449
562.381	16772
562.442	17959
562.503	17202
562.564	16720
562.625	16024
562.686	17046
562.747	16692
562.808	17810
562.869	17356
562.930	20626
562.991	19277
563.051	19538
563.112	17653
563.173	17506
563.234	15900
563.294	16636
563.355	16138
563.416	16410
563.477	16109
563.537	16641
563.598	17047
563.659	16991
563.720	15661
563.780	16404
563.841	16045
563.901	16172
563.962	15845
564.023	16390
564.083	15798
564.144	15736
564.204	15192
564.265	16486
564.325	19045
564.386	30968
564.446	28829
564.507	16187
564.567	14910
564.628	14721
564.688	15530
564.749	15962
564.809	16523
564.869	20073
564.930	15121
564.990	14404
565.050	13170
565.111	15625
565.171	12980
565.231	14097
565.292	15397
565.352	13435
565.412	13434
565.472	14665
565.532	13164
565.593	13248
565.653	13445
565.713	14078
565.773	14371
565.833	14756
565.893	14398
565.953	13770
566.013	13223
566.074	14538
566.134	18096
566.194	25921
566.254	25039
566.314	18705
566.374	14071
566.434	14318
566.494	13706
566.554	13883
566.614	13828
566.673	14571
566.733	15295
566.793	15072
566.853	14749
566.913	15080
566.973	15608
567.033	15852
567.092	15115
567.152	14587
567.212	15402
567.272	16289
567.331	16799
567.391	16410
567.451	16574
567.511	22068
567.570	22795
567.630	15787
567.690	13954
567.749	14523
567.809	14743
567.868	14688
567.928	15686
567.988	16563
568.047	15904
568.107	16606
568.166	17404
568.226	19943
568.285	23296
568.345	21833
568.404	19969
568.464	18307
568.523	17558
568.582	18398
568.642	18258
568.701	20058
568.761	22871
568.820	30185
568.879	30957
568.939	30873
568.998	23650
569.057	19662
569.116	16188
569.176	16520
569.235	15785
569.294	15336
569.353	13846
569.413	14926
569.472	14073
569.531	14405
569.590	13348
569.649	12913
569.708	12104
569.767	13481
569.827	14433
569.886	12599
569.945	12293
570.004	13548
570.063	12293
570.122	13211
570.181	14673
570.240	15846
570.299	15931
570.358	14889
570.417	12643
570.475	14130
570.534	13833
570.593	13758
570.652	13182
570.711	13127
570.770	13315
570.829	14295
570.887	12470
570.946	12888
571.005	13113
571.064	13313
571.122	13768
571.181	14305
571.240	13894
571.299	13593
571.357	14184
571.416	14114
571.475	16121
571.533	17223
571.592	14130
571.650	14996
571.709	13497
571.768	14521
571.826	14390
571.885	13645
571.943	13092
572.002	12868
572.060	13097
572.119	12255
572.177	12547
572.236	11797
572.294	11834
572.352	12353
572.411	12096
572.469	13584
572.528	11193
572.586	11793
572.644	11805
572.703	13062
572.761	11020
572.819	12727
572.877	11962
572.936	11077
572.994	10956
573.052	11355
573.110	10822
573.169	12348
573.227	11189
573.285	11468
573.343	11008
573.401	12129
573.459	11807
573.517	11362
573.576	11213
573.634	12062
573.692	11643
573.750	11710
573.808	12048
573.866	12871
573.924	14625
573.982	15119
574.040	11899
574.098	11284
574.155	10736
574.213	10921
574.271	10597
574.329	11453
574.387	11533
574.445	10164
574.503	10250
574.560	9448
574.618	10662
574.676	9308
574.734	9625
574.792	9576
574.849	9818
574.907	8787
574.965	8723
575.022	8419
575.080	8118
575.138	9630
575.195	8375
575.253	8215
575.311	8070
575.368	9021
575.426	8487
575.483	9656
575.541	9551
575.598	9113
575.656	9602
575.713	9045
575.771	9309
575.828	9935
575.886	8844
575.943	9848
576.001	8835
576.058	9342
576.115	9080
576.173	11666
576.230	11351
576.287	10715
576.345	10437
576.402	10139
576.459	10926
576.517	10091
576.574	11740
576.631	11328
576.688	10228
576.746	10004
576.803	9296
576.860	8494
576.917	9174
576.974	9546
577.031	8420
577.089	10065
577.146	9537
577.203	8963
577.260	10220
577.317	10798
577.374	11884
577.431	10535
577.488	8953
577.545	8581
577.602	8553
577.659	9286
577.716	9263
577.773	10150
577.830	9051
577.886	8788
577.943	8817
578.000	9830
578.057	9264
578.114	10422
578.171	10728
578.227	12762
578.284	12978
578.341	11471
578.398	9471
578.454	10899
578.511	10721
578.568	12751
578.625	10559
578.681	9261
578.738	8489
578.794	9273
578.851	9042
578.908	9053
578.964	8198
579.021	8319
579.077	8177
579.134	8407
579.190	8387
579.247	9143
579.303	7830
579.360	8441
579.416	7910
579.473	8696
579.529	7728
579.586	8917
579.642	8421
579.698	8577
579.755	9268
579.811	9508
579.867	8048
579.924	9102
579.980	9204
580.036	11462
580.093	11391
580.149	16010
580.205	17593
580.261	13981
580.317	11648
580.374	11253
580.430	12142
580.486	11290
580.542	10185
580.598	9968
580.619	9442
580.654	8537
580.692	9308
580.710	9703
580.765	9061
580.767	9046
580.823	9430
580.838	9266
580.879	8880
580.911	8642
580.935	8473
580.984	9396
580.991	9533
581.047	10093
581.057	9885
581.103	8992
581.130	9871
581.159	10783
581.203	10588
581.215	10544
581.270	11252
581.276	11160
581.326	10360
581.349	10404
581.382	10427
581.422	10390
581.438	10399
581.494	10626
581.494	10605
581.550	8875
581.567	9399
581.606	10437
581.640	10015
581.661	9786
581.713	10696
581.717	10779
581.773	9904
581.786	10070
581.829	10503
581.859	10323
581.885	10267
581.932	10271
581.940	10253
581.996	10091
582.004	10087
582.052	10077
582.077	9788
582.107	9449
582.150	9963
582.163	10126
582.219	9417
582.223	9504
582.274	10612
582.296	10718
582.330	10918
582.368	10928
582.386	10947
582.441	9807
582.441	9805
582.497	10524
582.514	10218
582.552	9762
582.587	10021
582.608	10085
582.659	9870
582.663	9865
582.719	9941
582.732	10021
582.774	10174
582.805	10484
582.830	10828
582.877	10721
582.885	10685
582.941	10923
582.950	10793
582.996	10229
583.023	11087
583.052	12188
583.095	12503
583.107	12571
583.162	14403
583.168	14403
583.218	14032
583.240	13545
583.273	12747
583.313	11727
583.328	11307
583.384	11794
583.385	11741
583.439	10536
583.458	10632
583.494	10741
583.531	10192
583.549	10010
583.603	10431
583.605	10440
583.660	10193
583.676	10349
583.715	10521
583.748	10172
583.770	10238
583.820	11386
583.825	11425
583.881	10687
583.893	10610
583.936	10812
583.965	10694
583.991	10492
584.038	11038
584.046	11148
584.101	11159
584.110	11101
584.156	10681
584.183	10721
584.211	10790
584.255	10688
584.266	10694
584.321	11116
584.328	11214
584.376	12005
584.400	11846
584.431	11544
584.472	11896
584.486	12031
584.541	11961
584.545	11974
584.596	12251
584.617	12080
584.651	12178
584.689	12716
584.706	12686
584.761	12967
584.762	12967
584.816	13892
584.834	14079
584.871	14337
584.906	14816
584.926	15100
584.978	14780
584.980	14785
585.035	16835
585.051	17005
585.090	17453
585.123	18500
585.145	19126
585.195	20016
585.200	20176
585.254	21838
585.267	22434
585.309	24270
585.340	26058
585.364	27660
585.412	31454
585.419	32105
585.473	38351
585.484	40085
585.528	50213
585.556	61145
585.583	81351
585.628	129934
585.637	146875
585.692	294918
585.700	321076
585.747	415593
585.772	354973
585.801	227044
585.845	86677
585.856	67814
585.910	36388
585.917	33466
585.965	27545
585.989	25574
586.019	24011
586.061	22125
586.074	21741
586.128	21546
586.133	21454
586.183	20937
586.205	21143
586.237	21439
586.277	21269
586.292	21383
586.346	21126
586.349	21106
586.401	20535
586.421	20775
586.455	21594
586.493	22588
586.509	23590
586.564	27609
586.565	27800
586.618	38081
586.637	38402
586.672	35217
586.709	30316
586.727	28510
586.781	28568
586.781	28584
586.835	23846
586.853	23209
586.889	22829
586.925	21671
586.944	21225
586.996	22191
586.998	22250
587.052	21886
587.068	22051
587.106	22494
587.140	22178
587.161	22382
587.212	23492
587.215	23528
587.269	23664
587.284	23629
587.323	24195
587.356	24757
587.377	24968
587.427	24964
587.431	25046
587.485	26262
587.499	26526
587.539	27536
587.571	28027
587.593	28365
587.643	30112
587.648	30303
587.702	30106
587.715	30379
587.755	31307
587.786	31469
587.810	32063
587.858	33690
587.864	33906
587.917	35037
587.930	35469
587.971	37241
588.001	38169
588.025	38978
588.073	40111
588.079	40411
588.133	42370
588.145	43028
588.187	45870
588.217	47344
588.241	49588
588.288	55147
588.295	55888
588.348	59945
588.360	61023
588.402	67318
588.431	71399
588.456	75893
588.503	85113
588.510	86940
588.564	101235
588.575	104290
588.617	120586
588.646	133112
588.671	150048
588.718	184535
588.725	194642
588.778	279018
588.789	298133
588.832	436831
588.861	540902
588.886	645676
588.932	850265
588.939	857761
588.993	838414
589.004	828071
589.047	700082
589.075	593428
589.100	479313
589.147	289975
589.154	278754
589.207	206732
589.218	192665
589.261	179392
589.290	172626
589.314	181030
589.361	200620
589.368	210607
589.421	297170
589.433	317441
589.475	477299
589.504	599815
589.528	676134
589.576	798228
589.582	785256
589.635	600514
589.647	555491
589.689	353856
589.718	226655
589.742	189263
589.790	123118
589.795	120580
589.849	97589
589.861	92681
589.902	85647
589.932	78982
589.955	73302
590.004	61103
590.009	60627
590.062	55540
590.075	54124
590.115	51402
590.146	49428
590.168	48865
590.218	47039
590.222	47005
590.275	45452
590.289	44932
590.328	44665
590.360	44153
590.381	43845
590.431	43140
590.435	43202
590.488	42212
590.503	41989
590.541	41842
590.574	41288
590.594	41545
590.645	42187
590.647	42303
590.700	42356
590.716	42409
590.753	42737
590.787	42735
590.806	42954
590.859	43300
590.859	43400
590.912	43113
590.930	42970
590.965	42879
591.001	42686
591.018	42808
591.071	42641
591.072	42534
591.124	42078
591.143	41892
591.177	42182
591.214	42128
591.230	42400
591.283	43068
591.285	42979
591.336	42600
591.356	42406
591.389	42635
591.427	42311
591.442	42271
591.495	42020
591.498	41889
591.547	42510
591.569	42692
591.600	42645
591.640	42103
591.653	42221
591.706	42467
591.711	42385
591.759	44351
591.782	45207
591.811	46513
591.853	48146
591.864	47921
591.917	45919
591.924	45527
591.969	46524
591.995	46962
592.022	47106
592.066	46945
592.075	47448
592.127	49843
592.137	50178
592.180	52209
592.208	53257
592.233	52341
592.279	50087
592.285	50157
592.338	49780
592.350	49561
592.390	49913
592.421	49972
592.443	50665
592.491	51728
592.495	51920
592.548	52638
592.562	52698
592.600	52239
592.633	51578
592.653	51621
592.704	51101
592.705	51417
592.775	52535
592.846	54784
592.916	54578
592.987	54525
593.058	55619
593.128	56949
593.199	56721
593.270	56673
593.341	57123
593.411	59012
593.482	60870
593.553	62175
593.623	61062
593.694	65227
593.764	65520
593.835	63851
593.906	64752
593.976	65547
594.047	68140
594.117	73427
594.188	73293
594.258	71884
594.329	71738
594.399	73098
594.470	74046
594.540	77843
594.611	78164
594.681	77466
594.751	77271
594.822	82861
594.892	84761
594.963	86392
595.033	88238
595.103	89985
595.174	92585
595.244	98906
595.314	105266
595.384	98404
595.455	99528
595.525	103256
595.595	106598
595.665	107532
595.736	105315
595.806	106883
595.876	108548
595.946	109982
596.016	113219
596.087	116564
596.157	117227
596.227	116571
596.297	124245
596.367	131934
596.437	139610
596.507	141682
596.577	145066
596.647	142143
596.717	147490
596.787	149747
596.857	148164
596.927	150294
596.997	150975
597.067	153701
597.137	156709
597.207	157009
597.277	156400
597.347	151538
597.417	147089
597.487	147302
597.557	151381
597.626	156437
597.696	156776
597.766	158209
597.836	151842
597.906	139868
597.975	137340
598.045	138362
598.115	144077
598.185	156034
598.254	171877
598.324	187334
598.394	190676
598.464	184261
598.533	180531
598.603	168774
598.672	163394
598.742	166327
598.812	166828
598.881	174810
598.951	171359
599.020	175945
599.090	180580
599.159	184821
599.229	177015
599.299	173189
599.368	177792
599.437	175323
599.507	162798
599.576	157883
599.646	155158
599.715	152397
599.785	151570
599.854	149422
599.924	147283
599.993	145817
600.062	148640
600.132	153315
600.201	161914
600.270	187387
600.340	195673
600.409	191413
600.478	191085
600.547	196776
600.617	176691
600.686	142369
600.755	129163
600.824	123714
600.894	121572
600.963	122471
601.032	121986
601.101	116362
601.170	112638
601.239	110634
601.308	109060
601.378	109695
601.447	110881
601.516	112324
601.585	112827
601.654	114905
601.723	115522
601.792	118894
601.861	121937
601.930	128382
601.999	128787
602.068	128112
602.137	128709
602.206	130375
602.275	133420
602.343	134160
602.412	135000
602.481	134999
602.550	136749
602.619	141651
602.688	143062
602.756	143261
602.825	144181
602.894	149434
602.963	151250
603.032	154339
603.100	152951
603.169	152203
603.238	155453
603.307	154712
603.375	155935
603.444	160783
603.513	160672
603.581	161218
603.650	165938
603.719	159939
603.787	163949
603.856	168186
603.924	171172
603.993	177498
604.061	184380
604.130	193130
604.198	196144
604.267	199491
604.335	200881
604.404	206089
604.472	207792
604.541	210413
604.609	211634
604.678	213400
604.746	214451
604.815	221780
604.883	224919
604.951	223683
605.020	228043
605.088	230834
605.156	233576
605.225	238882
605.293	237154
605.361	236549
605.429	237630
605.498	244284
605.566	249645
605.634	262749
605.702	272101
605.771	280108
605.839	281158
605.907	272668
605.975	266170
606.043	259127
606.111	260534
606.180	263767
606.248	256203
606.316	255929
606.384	254304
606.452	256053
606.520	257474
606.588	265578
606.656	268502
606.724	263600
606.792	245217
606.860	223442
606.928	202477
606.996	193305
607.064	190317
607.132	195916
607.200	210242
607.267	216694
607.335	220722
607.403	225392
607.471	218793
607.539	211090
607.607	211187
607.674	185774
607.742	184941
607.810	184446
607.878	183676
607.946	189233
608.013	196062
608.081	200905
608.149	201298
608.216	208835
608.284	215582
608.352	217779
608.419	215666
608.487	215465
608.555	207372
608.622	213784
608.690	227086
608.757	249554
608.825	254191
608.893	248303
608.960	232434
609.028	223573
609.095	227282
609.163	223132
609.230	198982
609.298	182408
609.365	191909
609.432	210263
609.500	225133
609.567	260942
609.635	296598
609.702	311650
609.769	295822
609.837	227592
609.904	196724
609.971	199160
610.039	213274
610.106	251355
610.173	395658
610.241	735273
610.308	463636
610.375	239600
610.442	213625
610.509	202683
610.577	203546
610.644	207307
610.711	213736
610.778	219883
610.845	230462
610.912	242966
610.980	254488
611.047	255334
611.114	249492
611.181	241816
611.248	239155
611.315	256517
611.382	260875
611.449	271807
611.516	275645
611.583	270272
611.650	272211
611.717	273836
611.784	277832
611.851	287189
611.918	296079
611.984	329560
612.051	403333
612.118	625801
612.185	1131298
612.252	803414
612.319	392604
612.386	347959
612.452	321418
612.519	308631
612.586	307465
612.653	313151
612.719	320244
612.786	307712
612.853	285166
612.919	281313
612.986	286753
613.053	269752
613.120	251489
613.186	243986
613.253	245045
613.319	244187
613.386	247044
613.453	252327
613.519	252231
613.586	245013
613.652	250515
613.719	246210
613.785	251222
613.852	256834
613.918	253831
613.985	256124
614.051	264865
614.118	266664
614.184	256658
614.250	253936
614.317	258292
614.383	255888
614.449	261524
614.516	258607
614.582	260631
614.648	255492
614.715	251776
614.781	247591
614.847	247975
614.914	247169
614.980	241241
615.046	240674
615.112	247655
615.179	249910
615.245	254596
615.311	249174
615.377	253568
615.443	257863
615.509	257992
615.575	263470
615.642	260743
615.708	267374
615.774	277807
615.840	290115
615.906	298083
615.972	333558
616.038	432002
616.104	709629
616.170	1227704
616.236	1040861
616.302	481228
616.368	398162
616.434	318327
616.500	300694
616.565	316201
616.631	365868
616.697	326947
616.763	328086
616.829	427405
616.895	652470
616.961	615311
617.026	342985
617.092	274249
617.158	264033
617.224	260804
617.289	244063
617.355	232802
617.421	231914
617.487	232244
617.552	218357
617.618	217823
617.684	216110
617.749	220744
617.815	211051
617.880	204559
617.946	206767
618.012	211022
618.077	215124
618.143	205490
618.208	207766
618.274	224110
618.339	223566
618.405	184834
618.470	187455
618.536	187408
618.601	184287
618.667	171540
618.732	162395
618.798	160572
618.863	160175
618.928	157232
618.994	162024
619.059	160198
619.124	162617
619.190	160940
619.255	158789
619.320	160848
619.386	160246
619.451	158000
619.516	153992
619.581	156500
619.647	160835
619.712	162105
619.777	153451
619.842	155391
619.907	157438
619.972	161959
620.038	160080
620.103	156194
620.168	155636
620.233	158750
620.298	159308
620.363	161126
620.428	165757
620.493	168964
620.558	169424
620.623	173377
620.688	174662
620.753	169150
620.818	174071
620.883	175472
620.948	173983
621.013	172775
621.078	169646
621.143	172800
621.207	175136
621.272	172181
621.337	166354
621.402	166337
621.467	168416
621.532	167953
621.596	167632
621.661	161193
621.726	160391
621.791	160397
621.855	160926
621.920	157869
621.985	162507
622.049	167187
622.114	166253
622.179	167363
622.243	173045
622.308	176939
622.373	183160
622.437	178957
622.502	171827
622.566	167958
622.631	168126
622.695	171254
622.760	172733
622.824	169994
622.889	170600
622.953	170410
623.018	180032
623.082	181366
623.147	178187
623.211	175710
623.276	175462
623.340	167215
623.404	166347
623.469	161422
623.533	167197
623.597	161327
623.662	160913
623.726	149603
623.790	141564
623.854	139131
623.919	142479
623.983	144439
624.047	143356
624.111	145214
624.176	148194
624.240	148693
624.304	155361
624.368	147352
624.432	148057
624.496	150797
624.560	156996
624.625	158515
624.689	157843
624.753	165923
624.817	158116
624.881	153965
624.945	139417
625.009	135485
625.073	140680
625.137	141779
625.201	149260
625.265	148171
625.329	141657
625.393	142770
625.456	146014
625.520	149424
625.584	153258
625.648	160162
625.712	171432
625.776	190219
625.839	185481
625.903	136265
625.967	121119
626.031	138403
626.095	167503
626.158	140374
626.222	111016
626.286	103385
626.349	100369
626.413	92194
626.477	94474
626.540	94317
626.604	92446
626.668	92918
626.731	90637
626.795	90757
626.858	91848
626.922	89636
626.986	88747
627.049	87183
627.113	93621
627.176	89844
627.240	87958
627.303	86720
627.366	85335
627.430	87025
627.493	86897
627.557	84008
627.620	87334
627.684	90397
627.747	90448
627.810	81667
627.874	76486
627.937	71761
628.000	76383
628.064	73823
628.127	65025
628.190	65338
628.253	63821
628.317	60684
628.380	58477
628.443	58412
628.506	57614
628.569	54480
628.632	52232
628.696	53446
628.759	53842
628.822	50546
628.885	50664
628.948	48828
629.011	48416
629.074	46243
629.137	45361
629.200	44426
629.263	44900
629.326	43358
629.389	45099
629.452	44278
629.515	43277
629.578	42296
629.641	44945
629.704	43302
629.767	42760
629.830	41318
629.892	41527
629.955	39618
630.018	43205
630.081	39401
630.144	41257
630.207	39165
630.269	41813
630.332	39025
630.395	39585
630.458	37584
630.520	35368
630.583	38217
630.646	38360
630.708	37466
630.771	37434
630.834	40603
630.896	39252
630.959	39240
631.021	37812
631.084	37386
631.146	39545
631.209	39216
631.272	37034
631.334	38085
631.397	38844
631.459	38101
631.522	38936
631.584	39559
631.646	40743
631.709	42009
631.771	40923
631.834	40776
631.896	39858
631.958	36257
632.021	37741
632.083	35583
632.145	37422
632.208	35688
632.270	37401
632.332	34409
632.395	35812
632.457	37265
632.519	34412
632.581	35765
632.643	34295
632.706	35639
632.768	34141
632.830	35262
632.892	35766
632.954	35602
633.016	37601
633.078	35228
633.141	35423
633.203	35418
633.265	35934
633.327	35725
633.389	34954
633.451	35268
633.513	34696
633.575	36434
633.637	35271
633.698	35802
633.760	37747
633.822	38453
633.884	38084
633.946	38236
634.008	38935
634.070	39622
634.132	40045
634.193	41178
634.255	44242
634.317	43736
634.379	44116
634.441	40657
634.502	38498
634.564	36542
634.626	34533
634.687	33353
634.749	33691
634.811	33003
634.873	32272
634.934	32707
634.996	33036
635.057	33253
635.119	33274
635.181	33959
635.242	35065
635.304	31418
635.365	36687
635.427	33407
635.488	32828
635.550	32706
635.611	33793
635.673	31264
635.734	35557
635.796	34424
635.857	38519
635.918	36859
635.980	42153
636.041	40686
636.102	43248
636.164	43837
636.225	43566
636.286	37337
636.348	35488
636.409	33632
636.470	32922
636.531	33286
636.593	32893
636.654	31317
636.715	31281
636.776	31081
636.838	29313
636.899	29510
636.960	29711
637.021	28303
637.082	29172
637.143	28598
637.204	27662
637.265	27731
637.326	28328
637.387	28808
637.448	27058
637.509	28869
637.570	27763
637.631	27982
637.692	27040
637.753	25699
637.814	27672
637.875	26277
637.936	27624
637.997	26444
638.058	26138
638.119	27807
638.179	26587
638.240	26410
638.301	26939
638.362	25005
638.423	25879
638.483	26204
638.544	24434
638.605	25616
638.666	24895
638.726	25481
638.787	25942
638.848	24958
638.908	25314
638.969	23417
639.030	23510
639.090	23119
639.151	23923
639.211	25158
639.272	25470
639.332	24675
639.393	24354
639.453	24510
639.514	25964
639.574	24403
639.635	21917
639.695	23669
639.756	21474
639.816	22040
639.877	21960
639.937	22112
639.997	21886
640.058	21520
640.118	21015
640.178	23310
640.239	22702
640.299	21366
640.359	22085
640.420	23618
640.480	24337
640.540	25891
640.600	26308
640.661	25133
640.721	23865
640.781	24249
640.841	21084
640.901	23198
640.961	23062
641.021	22968
641.082	23420
641.142	20730
641.202	21906
641.262	19025
641.322	22005
641.382	20667
641.442	21348
641.502	21583
641.562	21609
641.622	20774
641.682	22520
641.742	23547
641.802	23020
641.861	21917
641.921	20257
641.981	20815
642.041	19935
642.101	19816
642.161	18618
642.221	20042
642.280	19946
642.340	19121
642.400	19709
642.460	21731
642.519	20233
642.579	20582
642.639	20770
642.698	17930
642.758	22698
642.818	20103
642.877	19885
642.937	20277
642.997	20566
643.056	19697
643.116	18997
643.175	21256
643.235	20969
643.294	20942
643.354	22423
643.414	23248
643.473	26456
643.532	28782
643.592	35767
643.651	52004
643.711	83066
643.770	150440
643.830	335917
643.889	592824
643.948	176176
644.008	48470
644.067	32137
644.126	25940
644.186	24114
644.245	21844
644.304	19522
644.363	21735
644.423	18647
644.482	19831
644.541	20927
644.600	19336
644.659	24816
644.719	29038
644.778	40459
644.837	63046
644.896	122746
644.955	255859
645.014	86867
645.073	28012
645.132	23428
645.191	21525
645.250	22231
645.309	22932
645.368	24082
645.427	29871
645.486	44909
645.545	70250
645.604	26735
645.663	20134
645.722	18862
645.781	20812
645.840	23363
645.898	25386
645.957	34660
646.016	46934
646.075	79514
646.134	143829
646.192	350761
646.251	454075
646.310	93520
646.369	36165
646.427	30966
646.486	24173
646.545	21904
646.603	19485
646.662	18358
646.721	17897
646.779	16948
646.838	18041
646.896	22791
646.955	27692
647.014	41811
647.072	73356
647.131	179972
647.189	84105
647.248	20937
647.306	17112
647.365	17383
647.423	13588
647.481	16128
647.540	12684
647.598	14986
647.657	14617
647.715	15016
647.773	14182
647.832	15058
647.890	12714
647.948	13252
648.007	12878
648.065	12932
648.123	12054
648.181	13673
648.240	14079
648.298	11845
648.356	12426
648.414	13299
648.472	12069
648.531	12890
648.589	11619
648.647	11267
648.705	11550
648.763	12337
648.821	12030
648.879	12701
648.937	14368
648.995	15755
649.053	17579
649.111	25620
649.169	38503
649.227	66259
649.285	133397
649.343	336101
649.401	155855
649.459	29744
649.516	18628
649.574	15498
649.632	18964
649.690	20591
649.748	21933
649.806	30501
649.863	53357
649.921	132713
649.979	83029
650.037	17253
650.094	11654
650.152	11778
650.210	10568
650.268	11588
650.325	10205
650.383	10733
650.440	8643
650.498	9885
650.556	9546
650.613	8641
650.671	10063
650.728	9590
650.786	9296
650.843	12082
650.901	9281
650.958	10100
651.016	8386
651.073	8404
651.131	8303
651.188	8185
651.246	8267
651.303	7453
651.360	8588
651.418	7214
651.475	8820
651.532	7061
651.590	8338
651.647	7606
651.704	7932
651.762	7251
651.819	7436
651.876	8221
651.933	7271
651.990	8423
652.048	6288
652.105	6444
652.162	7796
652.219	6761
652.276	6799
652.333	7264
652.390	5396
652.448	7090
652.505	6316
652.562	6901
652.619	6884
652.676	7794
652.733	8806
652.790	6316
652.847	4961
652.904	7243
652.961	4964
653.017	6612
653.074	6387
653.131	6594
653.188	6281
653.245	6112
653.302	6298
653.359	6022
653.415	6138
653.472	5790
653.529	6144
653.586	5313
653.642	4946
653.699	6384
653.756	5895
653.813	5764
653.869	6489
653.926	5603
653.983	5978
654.039	6465
654.096	5820
654.152	6708
654.209	5245
654.266	6566
654.322	5159
654.379	6875
654.435	6044
654.492	6226
654.548	6275
654.605	6582
654.661	6661
654.717	6573
654.774	6559
654.830	6319
654.887	6125
654.943	6485
655.000	7029
655.056	6605
655.112	5936
655.168	5505
655.225	5615
655.281	6345
655.337	6334
655.394	8927
655.450	7033
655.506	7221
655.562	8552
655.618	8593
655.675	4813
655.731	6080
655.787	6069
655.843	6805
655.899	5042
655.955	6679
656.011	5842
656.067	5586
656.123	5603
656.179	6009
656.235	7186
656.291	4461
656.347	6370
656.403	5719
656.459	6023
656.515	6352
656.571	6138
656.627	6007
656.683	5933
656.739	6492
656.795	4986
656.850	5589
656.906	5817
656.962	6769
657.018	5471
657.074	7801
657.129	8647
657.185	13227
657.241	28032
657.297	15331
657.352	6411
657.408	4804
657.464	5753
657.519	5851
657.575	4154
657.630	5372
657.686	5277
657.742	3851
657.797	4566
657.853	5437
657.908	6336
657.964	4603
658.019	4820
658.075	5143
658.130	5862
658.186	4836
658.241	5473
658.297	4809
658.352	4815
658.407	5499
658.463	4166
658.518	5593
658.573	5269
658.629	3751
658.684	4523
658.739	5641
658.795	4259
658.850	5346
658.905	4057
658.960	4918
659.016	3869
659.071	4957
659.126	4662
659.181	4992
659.236	5386
659.291	6010
659.346	4340
659.401	5463
659.457	5603
659.512	5234
659.567	6306
659.622	4953
659.677	4696
659.732	4735
659.787	5245
659.842	4586
659.897	6013
659.952	4849
660.007	4267
660.061	5376
660.116	3747
660.171	4696
660.226	4190
660.281	5091
660.336	3923
660.391	4720
660.445	2768
660.500	4385
660.555	4091
660.610	4288
660.664	4546
660.719	4413
660.774	5010
660.828	4633
660.883	4181
660.938	4988
660.992	3299
661.047	4679
661.101	3943
661.156	4781
661.211	3756
661.265	4488
661.320	3673
661.374	4412
661.429	3365
661.483	4285
661.538	3282
661.592	4539
661.647	4360
661.701	5705
661.755	3878
661.810	3959
661.864	3648
661.919	4405
661.973	5065
662.027	4538
662.081	2811
662.136	4979
662.190	4383
662.244	5151
662.299	3958
662.353	4705
662.407	4096
662.461	3896
662.515	4759
662.569	4133
662.624	4836
662.678	3871
662.732	4487
662.786	5167
662.840	3890
662.894	4966
662.948	4504
663.002	3840
663.056	4228
663.110	3736
663.164	3337
663.218	4955
663.272	4327
663.326	4573
663.380	4482
663.434	4969
663.488	3576
663.542	4873
663.595	4880
663.649	4823
663.703	4239
663.757	4196
663.811	4077
663.864	3771
663.918	4235
663.972	4196
664.026	3484
664.079	4180
664.133	4164
664.187	3379
664.240	4107
664.294	5153
664.348	4852
664.401	5398
664.455	4604
664.508	3583
664.562	4798
664.615	5191
664.669	4486
664.722	4208
664.776	4206
664.829	4492
664.883	3907
664.936	4601
664.990	4467
665.043	5303
665.097	5388
665.150	6970
665.203	4702
665.257	4714
665.310	5839
665.363	4606
665.417	5248
665.470	4538
665.523	4574
665.576	4798
665.630	5062
665.683	4956
665.736	4879
665.789	5400
665.842	3896
665.895	4623
665.949	5274
666.002	4611
666.055	5772
666.108	4934
666.161	4980
666.214	4395
666.267	5360
666.320	5016
666.373	5152
666.426	5325
666.479	5218
666.532	4961
666.585	4587
666.638	5680
666.691	5259
666.744	5835
666.796	5341
666.849	5711
666.902	6310
666.955	5667
667.008	4241
667.060	4839
667.113	4437
667.166	5392
667.219	4792
667.271	4977
667.324	5468
667.377	6178
667.430	4701
667.482	5549
667.535	5012
667.587	5168
667.640	4803
667.693	4872
667.745	5349
667.798	5161
667.850	4911
667.903	4709
667.955	6016
668.008	5779
668.060	5396
668.113	6095
668.165	5529
668.218	6664
668.270	5291
668.322	5424
668.375	5006
668.427	5023
668.479	5335
668.532	5277
668.584	4955
668.636	5084
668.689	4941
668.741	5122
668.793	4751
668.845	4709
668.898	5566
668.950	5227
669.002	5454
669.054	5099
669.106	5668
669.158	5615
669.211	4530
669.263	5070
669.315	6007
669.367	5895
669.419	5077
669.471	5824
669.523	5399
669.575	5641
669.627	4126
669.679	4908
669.731	4981
669.783	5540
669.835	5905
669.886	5220
669.938	5596
669.990	4713
670.042	4423
670.094	4941
670.146	4790
670.197	6062
670.249	5474
670.301	5596
670.353	5634
670.404	6741
670.456	8479
670.508	10332
670.560	15130
670.611	21928
670.663	34503
670.715	79849
670.766	116271
670.818	32946
670.869	8273
670.921	6985
670.972	6780
671.024	6178
671.075	5089
671.127	5387
671.178	4142
671.230	5134
671.281	6060
671.333	5408
671.384	7422
671.436	7871
671.487	10075
671.538	13434
671.590	19836
671.641	30419
671.692	52782
671.744	92480
671.795	61742
671.846	23160
671.897	12486
671.949	9530
672.000	7663
672.051	7067
672.102	6437
672.153	5464
672.204	5805
672.256	5076
672.307	4973
672.358	5198
672.409	4658
672.460	5373
672.511	4693
672.562	3774
672.613	3906
672.664	4705
672.715	4272
672.766	3783
672.817	4689
672.868	5005
672.919	4546
672.970	4451
673.021	3267
673.071	4889
673.122	3542
673.173	4262
673.224	3808
673.275	4116
673.326	3933
673.376	4068
673.427	3438
673.478	4206
673.528	4243
673.579	3359
673.630	4320
673.680	5633
673.731	3424
673.782	3095
673.832	4203
673.883	4606
673.934	3449
673.984	3392
674.035	4496
674.085	4491
674.136	4045
674.186	4384
674.237	4622
674.287	5044
674.338	4160
674.388	3819
674.438	3454
674.489	4135
674.539	4903
674.589	3914
674.640	4456
674.690	5292
674.740	4881
674.791	4255
674.841	3874
674.891	4412
674.942	3671
674.992	3645
675.042	3791
675.092	3290
675.142	2447
675.193	2737
675.243	2724
675.293	4297
675.343	4332
675.393	3962
675.443	3461
675.493	3540
675.543	2979
675.593	4444
675.643	3073
675.693	4857
675.743	3772
675.793	3862
675.843	2680
675.893	3616
675.943	3577
675.993	3330
676.043	3061
676.093	4450
676.142	2846
676.192	3484
676.242	2797
676.292	3325
676.341	3589
676.391	3503
676.441	3416
676.491	3535
676.540	2855
676.590	2891
676.640	3618
676.689	3442
676.739	1818
676.789	3083
676.838	3105
676.888	2834
676.937	3166
676.987	2931
677.037	3220
677.086	2627
677.136	2564
677.185	1736
677.235	2445
677.284	2604
677.333	2402
677.383	2194
677.432	2124
677.482	2441
677.531	3252
677.580	2035
677.630	2467
677.679	3026
677.728	2016
677.778	2722
677.827	2984
677.876	2898
677.925	2478
677.975	3121
678.024	2788
678.073	3483
678.122	3067
678.171	3268
678.220	2884
678.269	4179
678.319	3477
678.368	3773
678.417	3301
678.466	4088
678.515	3627
678.564	3358
678.613	2995
678.662	2460
678.711	3277
678.760	3699
678.809	2462
678.857	2820
678.906	3401
678.955	3547
679.004	3801
679.053	2576
679.102	2861
679.151	3570
679.199	2751
679.248	2361
679.297	2406
679.346	3091
679.394	2586
679.443	2492
679.492	2827
679.540	2366
679.589	2759
679.638	2650
679.686	2198
679.735	3490
679.784	3802
679.832	3907
679.881	2987
679.929	3260
679.978	2485
680.026	2996
680.075	2630
680.123	2652
680.172	1497
680.220	2660
680.268	2338
680.317	1751
680.365	2647
680.414	1899
680.462	2520
680.510	3061
680.559	2041
680.607	2589
680.655	1816
680.703	2412
680.752	2323
680.800	1466
680.848	2783
680.896	2392
680.945	1790
680.993	1945
681.041	2695
681.089	2118
681.137	1863
681.185	2228
681.233	2452
681.258	2205
681.281	1948
681.329	1794
681.377	1934
681.380	1973
681.425	2227
681.473	3657
681.502	2700
681.521	1993
681.569	3974
681.617	2315
681.624	2406
681.665	2805
681.713	2754
681.745	2991
681.761	3069
681.809	2544
681.857	3482
681.867	3513
681.904	3518
681.952	2855
681.989	2792
682.000	2744
682.048	2712
682.096	2696
682.111	2696
682.143	2588
682.191	2658
682.233	3759
682.239	3906
682.286	2677
682.334	4119
682.354	3795
682.382	3321
682.430	3676
682.476	3491
682.477	3464
682.525	3413
682.572	2613
682.598	3259
682.620	3773
682.667	3354
682.715	3683
682.720	3695
682.763	3583
682.810	3719
682.841	3331
682.857	3094
682.905	3617
682.952	4109
682.963	3925
683.000	3166
683.047	3598
683.085	4211
683.095	4376
683.142	3887
683.190	4188
683.206	4031
683.237	3612
683.284	4709
683.328	3712
683.332	3614
683.379	4139
683.426	3913
683.449	3917
683.473	3889
683.521	3695
683.568	4616
683.571	4575
683.615	3749
683.662	4221
683.693	4122
683.709	4050
683.757	4171
683.804	4554
683.814	4522
683.851	4364
683.898	4654
683.936	4945
683.945	4985
683.992	4469
684.039	4320
684.057	4329
684.086	4325
684.133	4800
684.179	4511
684.180	4487
684.227	4431
684.274	4648
684.300	5054
684.321	5393
684.368	4772
684.415	5448
684.422	5412
684.462	5059
684.509	4771
684.543	4926
684.556	4953
684.603	5640
684.649	4834
684.665	4765
684.696	4630
684.743	5687
684.786	6019
684.790	6037
684.837	5040
684.883	5733
684.908	6066
684.930	6319
684.977	5641
685.023	5976
685.029	5919
685.070	5373
685.117	5718
685.150	5775
685.164	5826
685.210	6624
685.257	7346
685.272	7293
685.303	6988
685.350	5938
685.393	6220
685.396	6236
685.443	5346
685.490	6188
685.514	6102
685.536	6087
685.583	6282
685.629	6909
685.636	6829
685.675	6148
685.722	6194
685.757	5878
685.768	5798
685.815	6114
685.861	6886
685.878	6806
685.908	6665
685.954	6501
686.000	7112
686.000	7114
686.047	7084
686.093	7046
686.121	6801
686.139	6659
686.185	7392
686.232	6910
686.242	6945
686.278	6865
686.324	6525
686.363	6247
686.370	6268
686.416	7006
686.463	7812
686.484	7853
686.509	7651
686.555	7084
686.601	7041
686.606	7039
686.647	7118
686.693	7107
686.727	6995
686.739	6964
686.785	7634
686.831	7235
686.848	7272
686.877	7267
686.923	6970
686.969	7051
686.969	7052
687.015	7508
687.061	7898
687.090	8603
687.107	8852
687.153	8404
687.199	7715
687.211	7586
687.245	7271
687.291	7529
687.332	7625
687.336	7660
687.382	8054
687.428	7755
687.453	8023
687.474	8185
687.520	7906
687.565	8246
687.574	8234
687.611	8331
687.657	8848
687.695	8677
687.702	8628
687.748	9621
687.794	8992
687.816	9107
687.839	9133
687.885	8794
687.931	8886
687.937	8815
687.976	8527
688.022	8944
688.058	8698
688.067	8613
688.113	8647
688.158	8406
688.179	8493
688.204	8660
688.249	8194
688.295	8681
688.300	8664
688.340	8790
688.386	9637
688.421	8996
688.431	8779
688.477	8773
688.522	9429
688.542	9428
688.567	9598
688.613	8986
688.658	9519
688.663	9564
688.703	9582
688.749	9307
688.784	9137
688.794	9147
688.839	9537
688.884	9287
688.905	9439
688.930	9621
688.975	8797
689.020	9469
689.026	9501
689.065	9746
689.110	9472
689.146	9304
689.155	9331
689.201	9660
689.246	9505
689.267	9846
689.291	10023
689.336	10036
689.381	9800
689.388	9768
689.426	9644
689.471	9276
689.509	9275
689.516	9352
689.561	9572
689.606	9604
689.630	9922
689.651	10011
689.696	9664
689.741	9392
689.750	9306
689.785	9434
689.830	9884
689.871	9852
689.875	9810
689.920	9976
689.965	9519
689.992	9504
690.010	9720
690.054	9649
690.099	9983
690.112	10001
690.144	9951
690.189	9962
690.233	9698
690.233	9710
690.278	9894
690.323	10083
690.354	9937
690.367	10027
690.412	10356
690.457	10239
690.474	10452
690.501	10727
690.546	11130
690.590	11154
690.595	11168
690.635	11615
690.680	11695
690.716	12125
690.724	12390
690.769	13763
690.813	15168
690.836	15631
690.857	17283
690.902	21274
690.946	25600
690.957	26533
690.991	35019
691.035	47541
691.077	58294
691.080	58147
691.124	51367
691.168	44752
691.198	40888
691.213	38001
691.257	29722
691.301	20689
691.318	17438
691.346	16543
691.390	14823
691.434	13183
691.439	12970
691.478	12847
691.522	12957
691.559	12840
691.567	12820
691.611	12597
691.655	12331
691.680	12071
691.699	12004
691.743	12322
691.787	11923
691.800	11886
691.831	11915
691.875	12253
691.919	12154
691.921	12143
691.964	12472
692.008	12287
692.041	12163
692.052	12104
692.096	11759
692.139	11897
692.162	11706
692.183	11741
692.227	11929
692.271	11828
692.282	11834
692.315	11710
692.359	11549
692.402	11443
692.403	11466
692.447	11215
692.490	11605
692.523	11480
692.534	11446
692.578	11736
692.622	11665
692.643	11651
692.666	11820
692.709	11959
692.753	12063
692.763	12064
692.797	11883
692.840	11961
692.884	11840
692.884	11864
692.928	11680
692.971	11639
693.004	11797
693.015	11912
693.059	11828
693.102	11967
693.124	11811
693.146	11971
693.189	12755
693.233	13405
693.245	13658
693.276	14304
693.320	14339
693.363	14661
693.365	14647
693.407	15817
693.450	17088
693.485	18074
693.493	18695
693.537	21396
693.580	24418
693.605	26240
693.624	30122
693.667	39028
693.710	48387
693.725	51550
693.753	68110
693.797	94682
693.840	121312
693.845	123986
693.883	111473
693.926	96932
693.966	84307
693.970	82478
694.013	62373
694.056	42189
694.086	27960
694.099	26812
694.142	23394
694.185	20080
694.206	18348
694.229	17746
694.272	16370
694.315	15276
694.326	14954
694.358	14675
694.401	14467
694.444	13716
694.446	13672
694.487	13824
694.530	13489
694.566	13588
694.573	13644
694.616	13164
694.659	13234
694.686	13176
694.702	13121
694.745	12931
694.787	12649
694.806	12461
694.830	12678
694.873	13237
694.916	13521
694.926	13576
694.959	13483
695.002	13632
695.044	13349
695.046	13319
695.087	13594
695.130	13552
695.166	13607
695.172	13673
695.215	13793
695.258	14317
695.286	14352
695.301	14389
695.343	14555
695.386	14664
695.406	14664
695.428	14969
695.471	15693
695.514	16300
695.526	16406
695.556	16994
695.599	17867
695.641	18688
695.646	18735
695.684	18069
695.726	17230
695.766	16418
695.769	16428
695.811	16124
695.854	15787
695.886	15527
695.896	15652
695.938	15789
695.981	16108
696.005	16163
696.023	16470
696.065	17108
696.108	18157
696.125	18366
696.150	18563
696.192	19057
696.235	19310
696.245	19364
696.277	19558
696.319	19786
696.361	19957
696.365	19923
696.404	20168
696.446	20407
696.485	20543
696.488	20559
696.530	20053
696.572	19631
696.604	19320
696.614	19318
696.656	18885
696.698	18565
696.724	18322
696.740	18576
696.783	19219
696.825	19813
696.844	20018
696.867	19990
696.909	19860
696.951	19546
696.964	19475
696.992	19536
697.034	19454
697.076	19370
697.083	19307
697.118	19682
697.160	20109
697.202	20533
697.203	20490
697.244	20530
697.286	20607
697.323	20627
697.327	20674
697.369	20589
697.411	20472
697.442	20380
697.453	20475
697.494	20580
697.536	20816
697.562	20846
697.578	20859
697.620	20706
697.661	20605
697.682	20463
697.703	20838
697.744	21649
697.786	22446
697.801	22635
697.828	22385
697.869	21936
697.911	21422
697.921	21261
697.952	21398
697.994	21526
698.035	21600
698.040	21561
698.077	21950
698.118	22249
698.160	22555
698.160	22498
698.201	22848
698.243	23097
698.279	23281
698.284	23364
698.325	23570
698.367	23787
698.399	23857
698.408	24038
698.449	24615
698.491	25225
698.518	25528
698.532	25501
698.573	25224
698.614	24969
698.638	24751
698.656	24868
698.697	24999
698.738	25132
698.757	25125
698.779	25130
698.820	25018
698.862	24909
698.877	24800
698.903	25183
698.944	25702
698.985	26214
698.996	26290
699.026	25971
699.067	25435
699.116	24732
699.235	25269
699.354	24807
699.474	23948
699.593	23884
699.713	24097
699.832	23707
699.951	24065
700.070	23736
700.190	22596
700.309	22067
700.428	21963
700.547	21961
700.667	22181
700.786	21600
700.905	21189
701.024	20876
701.143	20824
701.262	20496
701.381	21787
701.500	21814
701.619	20934
701.738	22130
701.857	21396
701.976	20621
702.095	21267
702.214	22077
702.333	21661
702.452	20131
702.571	21384
702.690	21469
702.809	21242
702.928	19534
703.047	19428
703.165	20133
703.284	19721
703.403	19491
703.522	20175
703.640	17979
703.759	19869
703.878	19461
703.997	18624
704.115	18766
704.234	18161
704.353	18323
704.471	17913
704.590	16895
704.708	17460
704.827	16883
704.946	18163
705.064	16728
705.183	16682
705.301	20144
705.420	22648
705.538	20558
705.656	18302
705.775	18157
705.893	22248
706.012	23721
706.130	18485
706.249	18350
706.367	18067
706.485	18294
706.604	17748
706.722	17135
706.840	19431
706.958	20353
707.077	18312
707.195	17114
707.313	17924
707.431	16972
707.549	16885
707.668	15034
707.786	17606
707.904	15729
708.022	17131
708.140	16086
708.258	16677
708.376	16161
708.494	15551
708.612	18573
708.730	20123
708.848	19074
708.966	18043
709.084	17799
709.202	18625
709.320	17780
709.438	17240
709.556	16895
709.674	16056
709.791	17409
709.909	17662
710.027	16180
710.145	16566
710.263	16010
710.380	16599
710.498	15466
710.616	15424
710.733	15222
710.851	15687
710.969	15634
711.086	15500
711.204	15450
711.322	16503
711.439	15735
711.557	14453
711.674	15806
711.792	14942
711.909	15201
712.027	15656
712.144	13362
712.262	15329
712.379	15977
712.497	20164
712.614	20698
712.732	17770
712.849	17110
712.966	17398
713.084	17758
713.201	17051
713.318	17269
713.436	17448
713.553	16416
713.670	17373
713.787	17453
713.905	17790
714.022	17725
714.139	18480
714.256	19753
714.373	26336
714.490	42654
714.608	104859
714.725	391964
714.842	333817
714.959	39847
715.076	22019
715.193	18829
715.310	18142
715.427	15550
715.544	16285
715.661	15424
715.778	15444
715.895	15917
716.011	16277
716.128	14663
716.245	13933
716.362	14699
716.479	13843
716.596	14792
716.713	13972
716.829	14259
716.946	14070
717.063	13092
717.180	12723
717.296	13562
717.413	13926
717.530	12354
717.646	12410
717.763	11726
717.880	12534
717.996	11603
718.113	12203
718.229	12020
718.346	11493
718.462	11122
718.579	12290
718.695	10953
718.812	12677
718.928	12984
719.045	11391
719.161	11241
719.277	11464
719.394	12358
719.510	13181
719.626	12600
719.743	15761
719.859	21740
719.975	39743
720.092	144585
720.208	275605
720.324	36958
720.440	14969
720.557	13185
720.673	13600
720.789	15156
720.905	21313
721.021	12073
721.137	11139
721.253	10842
721.369	10892
721.486	10896
721.602	12571
721.718	10790
721.834	9957
721.950	10541
722.066	10131
722.181	9360
722.297	10074
722.413	9255
722.529	9394
722.645	9604
722.761	8700
722.877	9013
722.993	9775
723.108	11950
723.224	10499
723.340	9399
723.456	8879
723.571	8715
723.687	7950
723.803	9023
723.918	8836
724.034	8873
724.150	9422
724.265	9382
724.381	11854
724.497	11488
724.612	8780
724.728	8241
724.843	8004
724.959	9014
725.074	12965
725.190	11200
725.305	9118
725.421	8583
725.536	8576
725.651	8880
725.767	8523
725.882	8702
725.997	8552
726.113	8560
726.228	8454
726.343	7408
726.459	7658
726.574	7527
726.689	8246
726.804	7742
726.920	8214
727.035	7428
727.150	8041
727.265	7103
727.380	7883
727.495	7876
727.610	7619
727.725	7898
727.841	8223
727.956	9912
728.071	9985
728.186	7352
728.301	7443
728.416	7578
728.531	7423
728.645	6189
728.760	7597
728.875	6918
728.990	8031
729.105	6847
729.220	8049
729.335	7840
729.449	7084
729.564	7084
729.679	7408
729.794	6947
729.908	7194
730.023	6233
730.138	7087
730.253	7605
730.367	7632
730.482	8241
730.596	7622
730.711	7435
730.826	10038
730.940	8981
731.055	8294
731.169	8234
731.284	8910
731.398	8207
731.513	8697
731.627	9660
731.742	12106
731.856	14059
731.970	13160
732.085	15517
732.199	21061
732.313	35389
732.428	88095
732.542	240733
732.656	125073
732.771	28225
732.885	17992
732.999	16704
733.113	18842
733.227	17501
733.342	17002
733.456	16913
733.570	15914
733.684	14728
733.798	15744
733.912	13741
734.026	14714
734.140	15146
734.254	14338
734.368	15816
734.482	15219
734.596	14059
734.710	14265
734.824	12765
734.938	13353
735.052	13414
735.166	13735
735.280	13396
735.393	12846
735.507	12491
735.621	13690
735.735	14965
735.849	13281
735.962	12623
736.076	13024
736.190	12096
736.303	13964
736.417	12823
736.531	11555
736.644	12802
736.758	11390
736.872	11270
736.985	12330
737.099	11573
737.212	12846
737.326	11086
737.439	12311
737.553	10531
737.666	11771
737.780	10569
737.893	11845
738.007	11962
738.120	11881
738.233	10759
738.347	11681
738.460	10605
738.573	11834
738.687	10343
738.800	10096
738.913	10285
739.026	11144
739.140	10616
739.253	10814
739.366	10431
739.479	10413
739.592	10009
739.705	9423
739.818	10516
739.932	8679
740.045	10173
740.158	9808
740.271	11018
740.384	10617
740.497	9665
740.610	9961
740.723	8866
740.836	10246
740.949	10314
741.062	11054
741.174	9432
741.287	8686
741.400	9729
741.513	8652
741.626	8556
741.739	9198
741.851	9443
741.964	9654
742.077	9017
742.189	9117
742.302	9289
742.415	8471
742.527	8810
742.640	8775
742.753	7929
742.865	8521
742.978	8129
743.090	8788
743.203	8661
743.316	8042
743.428	8199
743.541	9149
743.653	8274
743.766	8297
743.878	8999
743.990	7503
744.103	8768
744.215	8012
744.327	7297
744.440	8863
744.552	7305
744.664	7907
744.777	8319
744.889	7991
745.001	7573
745.113	8761
745.226	7272
745.338	7604
745.450	8498
745.562	8204
745.674	7306
745.786	8652
745.898	8279
746.010	7255
746.122	7166
746.234	7435
746.347	7468
746.459	8582
746.570	6797
746.682	8002
746.794	8236
746.906	6724
747.018	7333
747.130	8059
747.242	7008
747.354	6771
747.466	8106
747.577	6795
747.689	7719
747.801	7856
747.913	6431
748.024	7131
748.136	6546
748.248	6691
748.359	6823
748.471	7662
748.583	6478
748.694	6035
748.806	7695
748.918	7143
749.029	6772
749.141	7437
749.252	7324
749.364	6142
749.475	6843
749.587	6552
749.698	6242
749.809	6977
749.921	6955
750.032	6960
750.144	6250
750.255	6597
750.366	6698
750.478	6721
750.589	6484
750.700	6409
750.811	6602
750.923	6681
751.034	5999
751.145	7415
751.256	5933
751.367	6792
751.479	6069
751.590	6091
751.701	5729
751.812	5585
751.923	5874
752.034	7303
752.145	7138
752.256	6653
752.367	6309
752.478	5855
752.589	7007
752.700	6583
752.811	5730
752.922	6558
753.032	6215
753.143	7028
753.254	5709
753.365	7682
753.476	6220
753.586	7072
753.697	5892
753.808	6366
753.919	7050
754.029	6815
754.140	5985
754.251	6599
754.361	5989
754.472	7689
754.582	5733
754.693	5950
754.804	6398
754.914	6654
755.025	4970
755.135	6955
755.246	6501
755.356	6358
755.466	6562
755.577	6685
755.687	6795
755.798	6540
755.908	6276
756.018	6706
756.129	7016
756.239	7215
756.349	7246
756.460	6920
756.570	7619
756.680	6392
756.790	6856
756.900	7003
757.011	6910
757.121	6860
757.231	6327
757.341	6726
757.451	7462
757.561	6418
757.671	5993
757.781	7519
757.891	7399
758.001	8023
758.111	7143
758.221	7751
758.331	7745
758.441	7120
758.551	6556
758.661	7578
758.771	8112
758.880	8353
758.990	7806
759.100	7931
759.210	8036
759.320	8245
759.429	8172
759.539	8369
759.649	8642
759.758	9585
759.868	9336
759.978	9994
760.087	10165
760.197	10570
760.307	10459
760.416	10431
760.526	8966
760.635	10339
760.745	9948
760.854	11618
760.964	12563
761.073	12178
761.182	12148
761.292	11132
761.401	10528
761.511	10794
761.620	10695
761.729	11908
761.839	10527
761.948	11422
762.057	11535
762.166	12880
762.276	10673
762.385	12743
762.494	13512
762.603	13291
762.712	13133
762.822	14161
762.931	14186
763.040	13971
763.149	15891
763.258	16475
763.367	17474
763.476	17465
763.585	18248
763.694	18936
763.803	20360
763.912	21833
764.021	21373
764.130	23597
764.238	24989
764.347	26542
764.456	28977
764.565	31154
764.674	33207
764.783	36703
764.891	40552
765.000	46279
765.109	51152
765.217	59416
765.326	68511
765.435	82917
765.543	100172
765.652	124510
765.761	159543
765.869	214055
765.978	292843
766.086	421221
766.195	606737
766.303	770518
766.412	569929
766.520	635116
766.629	658702
766.737	497918
766.846	359144
766.954	258970
767.062	195637
767.171	150817
767.279	118668
767.387	96277
767.496	80819
767.604	70341
767.712	62640
767.820	55274
767.928	49330
768.037	45150
768.145	44124
768.253	42520
768.361	40035
768.469	40865
768.577	40892
768.685	43772
768.793	46206
768.901	50148
769.009	58338
769.117	70738
769.225	90804
769.333	126389
769.441	186865
769.549	301212
769.657	505912
769.765	685987
769.873	557648
769.981	576928
770.088	403055
770.196	259962
770.304	177859
770.412	128929
770.519	99754
770.627	80219
770.735	64601
770.842	55354
770.950	47118
771.058	42708
771.165	39933
771.273	35127
771.380	32514
771.488	32181
771.595	30994
771.703	29194
771.810	25933
771.918	25077
772.025	26307
772.133	27053
772.240	24046
772.348	25209
772.455	23396
772.562	21349
772.670	20001
772.777	21433
772.884	20054
772.991	19399
773.099	19688
773.206	18721
773.313	19159
773.420	17790
773.528	16645
773.635	16396
773.742	18300
773.849	15805
773.956	16693
774.063	16301
774.170	15596
774.277	16160
774.384	15107
774.491	15157
774.598	15071
774.705	13331
774.812	13601
774.919	14466
775.026	13450
775.133	13798
775.239	12899
775.346	13869
775.453	13083
775.560	13254
775.667	12584
775.773	12639
775.880	13178
775.987	13114
776.093	12064
776.200	13015
776.307	10355
776.413	10746
776.520	12393
776.627	12166
776.733	10048
776.840	9734
776.946	13119
777.053	10911
777.159	9930
777.266	10056
777.372	10851
777.478	10672
777.585	10645
777.691	9334
777.798	11495
777.904	9804
778.010	9829
778.117	10239
778.223	9674
778.329	10489
778.435	8983
778.542	10760
778.648	8459
778.754	8335
778.860	9676
778.966	9700
779.072	9274
779.178	8846
779.284	8269
779.391	8968
779.497	8306
779.603	11512
779.708	10734
779.815	18557
779.920	54183
780.026	78478
780.132	15497
780.238	9810
780.344	7837
780.450	9903
780.556	6494
780.661	7593
780.767	8800
780.873	6975
780.979	6822
781.085	8861
781.190	6834
781.296	6994
781.402	5995
781.507	7195
781.613	5969
781.719	7521
781.824	7258
781.930	6822
782.035	6930
782.141	7294
782.246	5783
782.352	6335
782.457	6796
782.563	6930
782.668	6653
782.773	6823
782.879	5104
782.984	6675
783.090	5937
783.195	6686
783.300	6399
783.405	6066
783.511	6249
783.616	6327
783.721	6940
783.826	6110
783.932	5943
784.037	6605
784.142	5817
784.247	4888
784.352	6545
784.457	5651
784.562	5597
784.667	6786
784.772	4996
784.877	4782
784.982	6594
785.087	6402
785.192	5922
785.297	5727
785.402	5910
785.507	5893
785.611	4864
785.716	4258
785.821	5029
785.926	5123
786.031	4564
786.135	5162
786.240	6228
786.345	4564
786.450	5137
786.554	5728
786.659	4444
786.763	3731
786.868	4529
786.973	6158
787.077	3953
787.182	3724
787.286	5714
787.391	5095
787.495	3382
787.600	3248
787.704	4436
787.809	4812
787.913	3709
788.017	5167
788.122	4966
788.226	4334
788.330	3666
788.435	4386
788.539	4951
788.643	4133
788.747	2593
788.852	4237
788.956	3624
789.060	5035
789.164	4647
789.268	4145
789.372	4252
789.476	4392
789.580	2722
789.684	4023
789.788	5414
789.892	4301
789.996	3827
790.100	3465
790.204	4301
790.308	5322
790.412	2610
790.516	2904
790.620	3297
790.724	4975
790.828	3633
790.931	2598
791.035	5001
791.139	3843
791.242	2575
791.346	4723
791.450	4444
791.554	3494
791.657	2421
791.761	4314
791.864	5247
791.968	4622
792.072	3762
792.175	3214
792.279	2594
792.382	4050
792.486	2618
792.589	2840
792.693	3569
792.796	2268
792.899	4045
793.003	4868
793.106	1917
793.209	3038
793.313	3996
793.416	1221
793.519	4261
793.623	3873
793.726	3617
793.829	2824
793.932	2884
794.035	1959
794.138	4443
794.242	3478
794.345	2792
794.448	4420
794.551	6300
794.654	25379
794.757	42062
794.860	7331
794.963	3499
795.066	2887
795.169	3629
795.272	2656
795.375	3445
795.477	2654
795.580	2922
795.683	2389
795.786	3151
795.889	2086
795.991	3022
796.094	3376
796.197	1103
796.300	3871
796.402	2119
796.505	2277
796.608	1809
796.710	3686
796.813	2898
796.915	2774
797.018	2862
797.120	3058
797.223	1924
797.326	3922
797.428	1714
797.530	1770
797.633	2022
797.735	3534
797.838	2182
797.940	3761
798.042	1615
798.145	2543
798.247	1971
798.349	1172
798.452	3099
798.554	1908
798.656	2067
798.758	3831
798.860	1122
798.962	1916
799.065	1907
799.167	1612
799.269	3094
799.371	3529
799.473	3202
799.575	1591
799.677	1972
799.779	3073
799.881	1542
799.983	2807
800.085	1910
800.187	3184
800.289	1199
800.390	2710
800.492	2682
800.594	3284
800.696	1532
800.798	2554
800.899	1505
801.001	2525
801.103	1820
801.205	1638
801.306	2098
801.408	1325
801.509	2128
801.611	2407
801.713	1540
801.814	2156
801.916	1383
802.017	1362
802.119	903
802.220	2096
802.322	669
802.423	3155
802.525	936
802.626	2157
802.727	1802
802.829	2540
802.930	-140
803.031	2979
803.133	1453
803.234	1764
803.335	1852
803.436	1872
803.538	2107
803.639	726
803.740	2376
803.841	1100
803.942	2087
804.043	1995
804.144	746
804.245	1767
804.346	1383
804.447	2046
804.548	1967
804.649	2367
804.750	1116
804.851	1793
804.952	823
805.053	1629
805.154	-5
805.255	2572
805.355	637
805.456	1473
805.557	1351
805.658	676
805.758	1979
805.859	1845
805.960	1556
806.061	986
806.161	1277
806.262	880
806.362	960
806.463	1139
806.564	3078
806.664	1149
806.765	1218
806.865	1535
806.966	912
807.066	1277
807.166	2086
807.267	1766
807.367	464
807.468	1466
807.568	134
807.668	2035
807.769	2467
807.869	1408
807.969	1192
808.069	1533
808.170	1302
808.270	934
808.370	1080
808.470	1325
808.570	352
808.670	2103
808.770	1538
808.870	1600
808.970	1197
809.070	1006
809.170	311
809.271	2412
809.370	1429
809.470	1675
809.570	195
809.670	1007
809.770	976
809.870	1858
809.970	941
810.070	1031
810.169	1789
810.269	301
810.369	1454
810.469	1191
810.568	201
810.668	822
810.768	390
810.867	1640
810.967	491
811.066	641
811.166	950
811.265	1725
811.365	-267
811.464	1552
811.564	1253
811.663	1179
811.763	-103
811.862	1789
811.962	1449
812.061	1302
812.160	48
812.260	1744
812.359	1053
812.458	1179
812.557	2149
812.657	1631
812.756	1292
812.855	1051
812.954	1361
813.053	1720
813.153	1131
813.252	480
813.351	866
813.450	1163
813.549	1204
813.648	1351
813.747	1060
813.846	1825
813.945	1527
814.044	1259
814.143	1358
814.242	1678
814.341	621
814.439	2106
814.538	1253
814.637	1404
814.736	2023
814.835	2403
814.933	1197
815.032	2473
815.131	3640
815.229	6603
815.328	8310
815.427	5554
815.525	5372
815.624	5563
815.722	4160
815.821	5624
815.919	6283
816.018	4404
816.116	5542
816.215	5570
816.313	6049
816.412	7510
816.510	6668
816.609	8295
816.707	7785
816.805	7430
816.904	6875
817.002	6667
817.100	7509
817.198	8241
817.296	6987
817.395	7337
817.493	7949
817.591	6769
817.689	7295
817.787	7942
817.885	9084
817.983	11091
818.081	19140
818.179	37725
818.277	86994
818.375	68444
818.473	19577
818.571	10289
818.669	9340
818.767	10013
818.865	9093
818.963	9027
819.061	11586
819.158	16815
819.256	32761
819.354	69533
819.452	143032
819.549	84237
819.647	26022
819.745	12085
819.842	10040
819.940	8734
820.038	7009
820.135	6045
820.233	7384
820.330	5394
820.428	5633
820.525	6179
820.623	5650
820.720	5068
820.818	6234
820.915	5415
821.012	5972
821.110	3458
821.207	6183
821.304	4053
821.402	4726
821.499	5564
821.596	4149
821.693	4853
821.791	5421
821.888	4914
821.985	5797
822.082	3149
822.179	5790
822.276	4910
822.373	4182
822.470	4322
822.567	4396
822.664	3370
822.761	5102
822.858	4298
822.955	4697
823.052	4150
823.149	3768
823.246	4167
823.343	3678
823.440	4466
823.536	4302
823.633	4652
823.730	3158
823.827	4264
823.923	3925
824.020	4054
824.117	3768
824.213	3779
824.310	4068
824.407	3416
824.503	4611
824.600	3265
824.696	3788
824.793	4987
824.889	3816
824.986	3549
825.082	3021
825.179	3441
825.275	4018
825.371	4051
825.468	3340
825.564	1047
825.660	3775
825.757	5239
825.853	3680
825.949	2041
826.045	3367
826.142	3571
826.238	4028
826.334	3565
826.430	2808
826.526	2781
826.622	1796
826.718	3752
826.814	4284
826.910	4651
827.006	2193
827.102	2104
827.198	4232
827.294	4138
827.390	3467
827.486	3033
827.582	1463
827.678	2104
827.774	4058
827.869	1770
827.965	3721
828.061	1709
828.157	4024
828.252	3486
828.348	2279
828.444	3667
828.539	1803
828.635	3646
828.731	3115
828.826	1687
828.922	2629
829.017	4508
829.113	3857
829.208	2593
829.304	2199
829.399	4446
829.495	2549
829.590	2702
829.685	2103
829.781	3710
829.876	3203
829.971	1986
830.066	1285
830.162	2152
830.257	3482
830.352	2728
830.447	2198
830.543	2482
830.638	1353
830.733	3632
830.828	1592
830.923	3375
831.018	2267
831.113	3314
831.208	1378
831.303	1591
831.398	1511
831.493	2540
831.588	3436
831.683	2034
831.778	823
831.873	1404
831.967	2895
832.062	1686
832.157	1935
832.252	2406
832.346	1546
832.441	3958
832.536	1866
832.631	3203
832.725	1517
832.820	2153
832.914	1630
833.009	1571
833.104	1143
833.198	2349
833.293	1567
833.387	2131
833.482	2091
833.576	1327
833.670	2757
833.765	2360
833.859	2241
833.954	2843
834.048	1579
834.142	1480
834.237	1377
834.331	1408
834.425	2500
834.519	758
834.613	2118
834.708	1364
834.802	2153
834.896	1756
834.990	1909
835.084	1249
835.178	1696
835.272	1802
835.366	2072
835.460	2781
835.554	1996
835.648	1497
835.742	778
835.836	1596
835.930	792
836.024	2241
836.117	2657
836.211	1204
836.305	1400
836.399	2042
836.493	588
836.586	3266
836.680	1372
836.774	983
836.867	2411
836.961	147
837.055	343
837.148	1405
837.242	2208
837.335	1234
837.429	663
837.522	1234
837.616	1464
837.709	2474
837.803	1193
837.896	2913
837.989	1265
838.083	2084
838.176	1147
838.269	617
838.363	2929
838.456	1268
838.549	2082
838.642	1377
838.735	1944
838.829	1782
838.922	1243
839.015	1112
839.108	458
839.201	1437
839.294	1507
839.387	1724
839.480	156
839.573	1053
839.666	1072
839.759	696
839.852	221
839.945	1696
840.038	879
840.131	842
840.223	302
840.316	1391
840.409	851
840.502	1702
840.594	1349
840.687	-667
840.780	1022
840.873	505
840.965	340
841.058	1751
841.150	1908
841.243	1057
841.336	907
841.428	1011
841.521	-249
841.613	1245
841.706	1142
841.798	789
841.890	1226
841.983	-363
842.075	637
842.167	1392
842.260	714
842.352	1939
842.444	755
842.537	1807
842.629	1244
842.721	319
842.813	58
842.905	-115
842.997	1169
843.090	1282
843.182	765
843.274	564
843.366	4304
843.458	4952
843.550	2794
843.642	1173
843.734	953
843.826	561
843.918	-11
844.009	1106
844.101	506
844.193	931
844.285	811
844.377	2505
844.469	713
844.560	880
844.652	201
844.744	837
844.835	113
844.927	1176
845.019	1020
845.110	1071
845.202	534
845.293	1408
845.385	50
845.476	1770
845.568	1234
845.659	558
845.751	957
845.842	898
845.934	184
846.025	954
846.116	757
846.208	983
846.299	399
846.390	942
846.482	566
846.573	856
846.664	158
846.755	581
846.846	1017
846.937	-550
847.029	725
847.120	1055
847.211	542
847.302	1553
847.393	953
847.484	1785
847.575	286
847.666	283
847.757	31
847.847	1063
847.938	1080
848.029	442
848.120	1013
848.211	680
848.302	427
848.392	-12
848.483	1593
848.574	804
848.664	650
848.755	774
848.846	283
848.936	75
849.027	1210
849.118	1129
849.208	-400
849.299	1663
849.389	2098
849.480	4046
849.570	7241
849.661	13041
849.751	20940
849.841	8098
849.932	1705
850.022	916
850.112	638
850.203	817
850.293	481
850.383	374
850.474	-95
850.564	534
850.654	214
850.744	480
850.834	785
850.924	912
851.014	984
851.104	453
851.194	-217
851.284	1102
851.374	727
851.464	115
851.554	732
851.644	210
851.734	850
851.824	696
851.914	354
852.004	1211
852.094	-18
852.183	691
852.273	525
852.363	-395
852.452	1000
852.542	358
852.632	-104
852.721	-82
852.811	351
852.901	681
852.990	1042
853.080	487
853.169	723
853.259	1161
853.348	1146
853.438	845
853.527	1498
853.617	1838
853.706	4865
853.795	8873
853.885	18368
853.974	32620
854.063	60638
854.152	82034
854.242	30532
854.331	6814
854.420	3381
854.509	2558
854.598	1791
854.687	2147
854.777	973
854.866	514
854.955	922
855.044	199
855.133	-208
855.222	696
855.311	671
855.400	783
855.488	669
855.577	779
855.666	128
855.755	592
855.844	310
855.933	970
856.021	617
856.110	689
856.199	-1140
856.288	-225
856.376	157
856.465	-661
856.554	-169
856.642	599
856.731	659
856.819	994
856.908	137
856.996	1105
857.085	70
857.173	-555
857.262	274
857.350	1020
857.438	-137
857.527	563
857.615	-467
857.703	1292
857.792	-9
857.880	251
857.968	-369
858.056	-160
858.145	-434
858.233	327
858.321	-66
858.409	478
858.497	-640
858.585	-367
858.673	438
858.761	56
858.849	660
858.937	-571
859.025	362
859.113	1223
859.201	-65
859.289	1385
859.377	-378
859.465	326
859.552	-25
859.640	-172
859.728	142
859.816	243
859.903	373
859.991	-268
860.079	217
860.166	583
860.254	-454
860.342	811
860.429	583
860.517	272
860.604	572
860.692	103
860.779	-261
860.867	-316
860.954	132
861.042	-86
861.129	636
861.216	1038
861.304	-477
861.391	26
861.478	42
861.565	945
861.653	350
861.740	577
861.827	439
861.914	301
862.001	-92
862.089	-221
862.176	686
862.263	55
862.350	160
862.437	587
862.524	367
862.611	81
862.698	633
862.785	123
862.871	751
862.958	448
863.045	278
863.132	815
863.219	1001
863.306	205
863.392	882
863.479	251
863.566	-140
863.652	-258
863.739	664
863.826	1206
863.912	71
863.999	15
864.086	147
864.172	790
864.259	1161
864.345	442
864.432	972
864.518	870
864.604	308
864.691	1095
864.777	1138
864.863	2546
864.950	2577
865.036	3769
865.122	7333
865.209	8938
865.295	6535
865.381	5969
865.467	6033
865.553	5467
865.639	6611
865.726	9211
865.812	12699
865.898	22020
865.984	29721
866.070	52516
866.156	52476
866.242	16898
866.328	7220
866.414	5794
866.499	5136
866.585	5342
866.671	5582
866.757	5561
866.843	4666
866.928	4540
867.014	4485
867.100	5426
867.186	4490
867.271	5203
867.357	5091
867.442	5119
867.528	4792
867.614	4975
867.699	4648
867.785	5158
867.870	4520
867.956	3986
868.041	4310
868.127	4656
868.212	4098
868.297	4363
868.383	4882
868.468	4009
868.553	4388
868.639	3870
868.724	4196
868.809	4009
868.894	3702
868.979	4283
869.065	4164
869.150	3363
869.235	3579
869.320	4520
869.405	4059
869.490	4131
869.575	3261
869.660	2839
869.745	4087
869.830	3877
869.915	3894
870.000	3229
870.085	2546
870.169	4794
870.254	4430
870.339	2256
870.424	2781
870.509	3927
870.593	4069
870.678	4370
870.763	2846
870.847	3260
870.932	3185
871.016	3766
871.101	2364
871.186	4093
871.270	3698
871.355	1919
871.439	2823
871.523	3941
871.608	2618
871.692	2691
871.777	3601
871.861	3511
871.945	3161
872.030	3969
872.114	2711
872.198	2141
872.282	3639
872.367	3466
872.451	3631
872.535	2838
872.619	3219
872.703	1924
872.787	2969
872.871	3171
872.955	1202
873.039	1685
873.123	2846
873.207	4264
873.291	2066
873.375	1740
873.459	2865
873.543	3101
873.627	994
873.711	1544
873.794	2944
873.878	2855
873.962	1542
874.045	2439
874.129	2406
874.137	2431
874.213	2679
874.245	2350
874.296	1825
874.352	1700
874.380	1632
874.460	1923
874.464	1935
874.547	2545
874.568	2582
874.631	2686
874.676	2548
874.714	2434
874.784	2892
874.798	2988
874.881	2932
874.892	2644
874.965	619
874.999	1247
875.048	2122
875.107	2069
875.131	2046
875.215	2055
875.215	2055
875.298	1628
875.323	1789
875.381	2208
875.430	3010
875.465	3569
875.538	2802
875.548	2683
875.631	873
875.646	1020
875.714	1812
875.753	1572
875.798	1315
875.861	2277
875.881	2573
875.964	974
875.968	1049
876.047	2362
876.076	2118
876.130	1702
876.183	1940
876.213	2047
876.291	2141
876.296	2149
876.379	1562
876.398	1498
876.462	1236
876.506	1341
876.545	1485
876.613	1359
876.628	1323
876.711	2100
876.721	2102
876.794	2176
876.828	1899
876.877	1380
876.935	1153
876.960	1154
877.043	1590
877.043	1593
877.125	1975
877.150	2142
877.208	2508
877.258	1814
877.291	1371
877.365	968
877.374	919
877.456	1372
877.472	1425
877.539	1607
877.579	1570
877.622	1554
877.687	1926
877.704	2011
877.787	1496
877.794	1490
877.869	1425
877.901	1305
877.952	1212
878.008	1369
878.034	1369
878.115	442
878.117	424
878.199	1025
878.222	992
878.282	1166
878.329	1915
878.364	2278
878.437	1705
878.447	1633
878.529	505
878.544	557
878.611	811
878.651	948
878.694	1289
878.758	1831
878.776	1882
878.858	1647
878.865	1597
878.941	920
878.972	658
879.023	382
879.078	327
879.105	361
879.185	1639
879.187	1657
879.269	1190
879.292	1158
879.351	1285
879.399	1195
879.433	1025
879.506	1535
879.516	1639
879.598	1613
879.613	1533
879.680	911
879.720	1026
879.762	1171
879.827	635
879.844	543
879.926	829
879.933	910
880.007	1575
880.040	1501
880.089	1131
880.147	980
880.171	1174
880.253	1848
880.254	1850
880.335	1656
880.360	1957
880.417	2860
880.467	3289
880.499	3576
880.574	4026
880.580	4018
880.662	2071
880.680	1767
880.744	738
880.787	614
880.825	668
880.893	1174
880.907	1211
880.989	959
881.000	916
881.070	1018
881.106	1088
881.152	1092
881.213	1079
881.233	1128
881.315	1781
881.319	1790
881.396	1705
881.426	1624
881.478	1303
881.532	1081
881.559	991
881.639	633
881.641	639
881.722	930
881.745	989
881.803	962
881.852	1258
881.885	1228
881.958	694
881.966	689
882.047	1054
882.064	1016
882.129	681
882.171	437
882.210	86
882.277	220
882.291	392
882.372	777
882.383	866
882.454	887
882.489	753
882.535	820
882.596	1237
882.616	1226
882.697	806
882.702	752
882.778	440
882.808	461
882.859	83
882.914	87
882.940	285
883.020	283
883.021	284
883.102	712
883.127	863
883.183	1389
883.233	1749
883.264	1441
883.339	337
883.345	321
883.426	508
883.445	556
883.507	434
883.551	496
883.587	821
883.657	1062
883.668	963
883.749	455
883.763	306
883.830	441
883.869	755
883.910	486
883.975	9
883.991	149
884.072	806
884.081	883
884.152	1143
884.187	1191
884.233	1171
884.292	913
884.314	773
884.394	627
884.398	616
884.475	572
884.504	539
884.555	492
884.610	565
884.636	653
884.716	1183
884.716	1184
884.797	1017
884.821	946
884.877	895
884.927	684
884.958	592
885.033	753
885.038	745
885.118	126
885.139	174
885.199	451
885.244	468
885.279	739
885.350	1226
885.359	1209
885.439	1078
885.456	982
885.520	819
885.561	927
885.600	746
885.667	447
885.680	509
885.760	535
885.773	621
885.840	872
885.878	712
885.920	451
885.984	416
886.000	460
886.080	605
886.089	633
886.160	790
886.195	763
886.240	627
886.300	435
886.320	532
886.400	1136
886.406	1169
886.480	597
886.511	309
886.560	419
886.616	622
886.640	660
886.720	850
886.722	852
886.800	907
886.827	957
886.879	1115
886.932	1155
886.959	1120
887.038	1177
887.039	1178
887.119	1049
887.143	1038
887.198	1248
887.248	1363
887.278	1186
887.354	632
887.358	625
887.437	621
887.459	605
887.517	643
887.564	643
887.596	654
887.669	730
887.676	742
887.755	945
887.774	964
887.835	855
887.880	818
887.914	891
887.985	962
887.994	1014
888.073	1555
888.090	1647
888.153	1326
888.195	1125
888.232	1199
888.300	1258
888.311	1188
888.391	812
888.405	717
888.470	438
888.510	332
888.549	593
888.615	973
888.628	983
888.708	1084
888.720	1090
888.787	1396
888.825	1541
888.866	860
888.930	-123
888.945	-65
889.024	213
889.035	255
889.103	1117
889.140	1567
889.182	1171
889.245	595
889.261	684
889.340	1100
889.349	1147
889.419	840
889.454	693
889.498	782
889.559	918
889.577	796
889.656	245
889.664	196
889.735	980
889.768	1352
889.814	879
889.873	251
889.978	668
890.083	943
890.187	296
890.292	505
890.397	118
890.501	114
890.606	328
890.710	1430
890.815	1785
890.919	911
891.024	907
891.128	452
891.233	782
891.337	793
891.442	1004
891.546	1210
891.650	427
891.755	949
891.859	1505
891.963	245
892.068	907
892.172	692
892.276	317
892.380	416
892.484	1632
892.589	501
892.693	712
892.797	-164
892.901	1036
893.005	796
893.109	324
893.213	1285
893.317	1398
893.421	279
893.525	-22
893.629	-58
893.733	1179
893.837	728
893.941	1057
894.045	1125
894.148	604
894.252	372
894.356	477
894.460	1123
894.564	647
894.667	453
894.771	475
894.875	708
894.978	925
895.082	240
895.186	1676
895.289	1120
895.393	321
895.496	433
895.600	77
895.703	381
895.807	494
895.910	-42
896.014	1063
896.117	50
896.221	838
896.324	500
896.427	555
896.531	-765
896.634	481
896.737	389
896.840	548
896.944	782
897.047	1029
897.150	35
897.253	417
897.356	495
897.460	323
897.563	-1189
897.666	478
897.769	419
897.872	-66
897.975	-74
898.078	222
898.181	447
898.284	583
898.387	1082
898.490	1273
898.593	771
898.695	232
898.798	211
898.901	1474
899.004	120
899.107	956
899.209	585
899.312	1397
899.415	731
899.518	-206
899.620	-168
899.723	-63
899.826	778
899.928	732
900.031	360
900.133	1004
900.236	270
900.338	438
900.441	891
900.543	74
900.646	-102
900.748	-105
900.851	920
900.953	431
901.055	42
901.158	306
901.260	234
901.362	424
901.465	33
901.567	760
901.669	629
901.771	242
901.873	-199
901.976	-209
902.078	714
902.180	307
902.282	-51
902.384	-617
902.486	558
902.588	495
902.690	-195
902.792	-409
902.894	-220
902.996	807
903.098	410
903.200	310
903.302	897
903.404	275
903.505	-465
903.607	905
903.709	1187
903.811	637
903.913	233
904.014	914
904.116	437
904.218	1175
904.319	610
904.421	1145
904.523	780
904.624	644
904.726	209
904.827	67
904.929	312
905.030	198
905.132	513
905.233	467
905.335	-109
905.436	179
905.537	188
905.639	62
905.740	439
905.841	1241
905.943	340
906.044	333
906.145	-176
906.247	320
906.348	-184
906.449	645
906.550	66
906.651	1087
906.752	-199
906.854	523
906.955	380
907.056	432
907.157	192
907.258	1038
907.359	272
907.460	642
907.561	-305
907.662	411
907.762	-485
907.863	464
907.964	836
908.065	314
908.166	-492
908.267	361
908.367	-687
908.468	147
908.569	-553
908.670	232
908.770	918
908.871	812
908.971	80
909.072	838
909.173	-49
909.273	592
909.374	1237
909.474	155
909.575	-388
909.675	245
909.776	477
909.876	230
909.977	413
910.077	1094
910.177	19
910.278	512
910.378	-2
910.478	-360
910.579	281
910.679	1392
910.779	-664
910.879	660
910.980	-43
911.080	332
911.180	-400
911.280	131
911.380	49
911.480	455
911.580	33
911.680	637
911.780	-418
911.880	49
911.980	138
912.080	371
912.180	350
912.280	694
912.380	11
912.480	318
912.580	-348
912.679	280
912.779	-231
912.879	793
912.979	232
913.078	198
913.178	561
913.278	269
913.377	-168
913.477	-677
913.577	-561
913.676	682
913.776	-80
913.875	417
913.975	191
914.074	647
914.174	-305
914.273	-58
914.373	249
914.472	187
914.572	-252
914.671	29
914.770	370
914.870	-162
914.969	-461
915.068	262
915.167	186
915.267	588
915.366	-194
915.465	280
915.564	50
915.663	447
915.763	-204
915.862	801
915.961	-25
916.060	-279
916.159	175
916.258	-836
916.357	-774
916.456	1306
916.555	-152
916.654	-33
916.752	602
916.851	1323
916.950	-371
917.049	521
917.148	-408
917.247	317
917.345	-252
917.444	280
917.543	8
917.642	37
917.740	294
917.839	1260
917.937	-34
918.036	450
918.135	8
918.233	1218
918.332	188
918.430	344
918.529	181
918.627	372
918.726	-50
918.824	1232
918.923	-52
919.021	434
919.119	-134
919.218	514
919.316	171
919.414	277
919.512	845
919.611	789
919.709	41
919.807	1214
919.905	1148
920.003	113
920.102	515
920.200	699
920.298	156
920.396	841
920.494	-22
920.592	151
920.690	823
920.788	1157
920.886	-430
920.984	742
921.082	654
921.180	1381
921.277	842
921.375	885
921.473	837
921.571	1376
921.669	1197
921.766	1181
921.864	322
921.962	1522
922.060	1383
922.157	1249
922.255	1027
922.352	736
922.450	1789
922.548	1199
922.645	1637
922.743	2566
922.840	4504
922.938	5082
923.035	2975
923.133	3778
923.230	4513
923.327	5478
923.425	4828
923.522	5688
923.619	3914
923.717	4407
923.814	3666
923.911	4433
924.008	4154
924.106	3236
924.203	3444
924.300	3128
924.397	3227
924.494	4546
924.591	3078
924.688	2421
924.786	2875
924.883	3866
924.979	3071
925.077	3364
925.173	3275
925.270	3417
925.367	2715
925.464	3746
925.561	3658
925.658	4576
925.755	2214
925.852	3748
925.948	3112
926.045	3902
926.142	2753
926.239	3039
926.335	1805
926.432	4253
926.529	3769
926.625	4033
926.722	2296
926.818	2741
926.915	3921
927.011	2749
927.108	2464
927.204	3360
927.301	2721
927.397	3243
927.494	4095
927.590	2114
927.687	2603
927.783	3380
927.879	3776
927.976	2673
928.072	2754
928.168	3081
928.264	3187
928.361	2694
928.457	2657
928.553	2195
928.649	2546
928.745	3721
928.841	2245
928.937	2665
929.033	3414
929.129	3588
929.225	3029
929.321	2592
929.417	2274
929.513	2674
929.609	2021
929.705	2546
929.801	2614
929.897	2092
929.993	2154
930.089	2651
930.184	2172
930.280	2144
930.376	3016
930.471	2045
930.567	1102
930.663	2637
930.758	1242
930.854	1779
930.950	2592
931.045	2802
931.141	2225
931.236	3296
931.332	1554
931.427	2021
931.523	2400
931.618	2244
931.714	1035
931.809	2081
931.905	1594
932.000	2210
932.095	1038
932.191	3300
932.286	2422
932.381	2537
932.476	1547
932.572	2230
932.667	640
932.762	1158
932.857	1983
932.952	2440
933.047	1727
933.142	1119
933.237	1822
933.332	2617
933.427	2592
933.522	1837
933.617	450
933.712	2279
933.807	2326
933.902	2190
933.997	2698
934.092	1952
934.187	1891
934.282	1147
934.376	1868
934.471	2054
934.566	1663
934.661	2025
934.755	1659
934.850	2580
934.945	1983
935.039	2129
935.134	1071
935.228	1527
935.323	2818
935.417	2001
935.512	661
935.606	556
935.701	1419
935.795	1626
935.890	969
935.984	649
936.079	965
936.173	1717
936.267	1415
936.362	870
936.456	2078
936.550	2482
936.644	1650
936.738	982
936.833	691
936.927	1446
937.021	648
937.115	1663
937.209	191
937.303	2431
937.397	215
937.491	1689
937.585	1450
937.679	1319
937.773	664
937.867	1074
937.961	741
938.055	2287
938.149	2363
938.243	401
938.337	128
938.430	1380
938.524	841
938.618	1064
938.712	1224
938.805	1499
938.899	449
938.993	2293
939.086	1046
939.180	791
939.274	561
939.367	1952
939.461	1842
939.554	197
939.648	615
939.741	529
939.835	531
939.928	2305
940.022	1994
940.115	1612
940.208	1249
940.302	2033
940.395	1823
940.488	-276
940.582	748
940.675	5
940.768	466
940.861	1241
940.954	1483
941.048	484
941.141	505
941.234	155
941.327	468
941.420	1521
941.513	1819
941.606	-123
941.699	1147
941.792	866
941.885	506
941.978	1111
942.071	165
942.164	348
942.257	256
942.349	630
942.442	929
942.535	64
942.628	219
942.721	421
942.813	-166
942.906	1252
942.999	1074
943.091	397
943.184	658
943.277	1195
943.369	484
943.462	285
943.554	240
943.647	692
943.739	1418
943.832	966
943.924	-293
944.017	1017
944.109	-45
944.201	823
944.294	527
944.386	950
944.478	321
944.571	485
944.663	685
944.755	1167
944.847	1058
944.940	1266
945.032	-665
945.124	-114
945.216	1262
945.308	92
945.400	433
945.492	888
945.584	75
945.676	987
945.768	453
945.860	1505
945.952	-91
946.044	1002
946.136	441
946.228	883
946.320	324
946.412	998
946.503	52
946.595	1483
946.687	507
946.779	257
946.870	-65
946.962	364
947.054	162
947.145	1037
947.237	468
947.329	582
947.420	-147
947.512	579
947.603	415
947.695	365
947.786	-389
947.878	703
947.969	660
948.061	608
948.152	-40
948.243	-235
948.335	-514
948.426	484
948.517	327
948.609	134
948.700	427
948.791	664
948.882	-4
948.973	400
949.065	617
949.156	835
949.247	-694
949.338	193
949.429	-370
949.520	602
949.611	-415
949.702	1593
949.793	952
949.884	423
949.975	-341
950.066	160
950.157	-455
950.247	264
950.338	20
950.429	-439
950.520	-116
950.611	19
950.701	-267
950.792	1192
950.883	598
950.973	36
951.064	-213
951.155	484
951.245	1044
951.336	555
951.427	313
951.517	859
951.608	178
951.698	34
951.788	660
951.879	173
951.969	170
952.060	319
952.150	114
952.240	1134
952.331	-1276
952.421	1727
952.511	-594
952.602	-24
952.692	-466
952.782	-267
952.872	-245
952.962	774
953.052	-129
953.143	-169
953.233	96
953.323	195
953.413	-649
953.503	194
953.593	-465
953.683	-212
953.773	-415
953.863	428
953.953	302
954.042	832
954.132	-557
954.222	501
954.312	-739
954.402	300
954.492	120
954.581	515
954.671	-643
954.761	196
954.850	439
954.940	-531
955.030	-552
955.119	-745
955.209	184
955.298	-21
955.388	-142
955.477	809
955.567	-966
955.656	738
955.746	-111
955.835	-380
955.925	-498
956.014	570
956.103	-109
956.193	1090
956.282	77
956.371	-36
956.461	-415
956.550	-441
956.639	-1129
956.728	-677
956.817	-196
956.906	293
956.995	392
957.085	-1109
957.174	75
957.263	-594
957.352	251
957.441	270
957.530	-593
957.619	-381
957.708	-504
957.796	279
957.885	-54
957.974	472
958.063	-129
958.152	-527
958.241	239
958.329	776
958.418	-235
958.507	-547
958.596	545
958.684	-1191
958.773	1
958.861	-675
958.950	-143
959.039	342
959.127	26
959.216	681
959.304	-102
959.393	1004
959.481	639
959.570	-511
959.658	-174
959.746	-185
959.835	347
959.923	-251
960.011	-656
960.100	744
960.188	-593
960.276	-36
960.365	-560
960.453	-147
960.541	-1123
960.629	-219
960.717	-828
960.805	-633
960.893	-204
960.981	-614
961.069	389
961.158	-519
961.245	800
961.333	-75
961.421	-438
961.509	-674
961.597	-830
961.685	377
961.773	-56
961.861	-1022
961.949	889
962.036	-1130
962.124	406
962.212	371
962.299	-872
962.387	-455
962.475	-257
962.562	-450
962.650	465
962.738	-643
962.825	-1193
962.913	-1001
963.000	-384
963.088	-840
963.175	106
963.263	-301
963.350	-633
963.438	-365
963.525	-475
963.612	112
963.700	762
963.787	1861
963.874	-418
963.962	-341
964.049	-552
964.136	-539
964.223	-1324
964.310	-362
964.398	-914
964.485	-253
964.572	-568
964.659	379
964.746	-33
964.833	-153
964.920	-541
965.007	-634
965.094	-299
965.181	-466
965.268	-397
965.355	-414
965.441	-538
965.528	-1308
965.615	-305
965.702	-405
965.789	-876
965.875	690
965.962	-689
966.049	-390
966.136	-943
966.222	-135
966.309	263
966.395	60
966.482	-1102
966.569	-814
966.655	-626
966.742	-428
966.828	-308
966.915	-310
967.001	-612
967.087	-696
967.174	-801
967.260	-482
967.347	-610
967.433	474
967.519	409
967.605	-342
967.692	-974
967.778	38
967.864	-720
967.950	-197
968.036	-1553
968.123	-483
968.209	-883
968.295	-1674
968.381	-727
968.467	-324
968.553	-2088
968.639	109
968.725	-1590
968.811	-467
968.897	104
968.983	-633
969.069	-1209
969.154	17
969.240	-108
969.326	-1976
969.412	-1659
969.497	-647
969.583	-1498
969.669	206
969.755	-922
969.840	-240
969.926	-173
970.012	678
970.097	686
970.183	426
970.268	-1050
970.354	172
970.439	-2208
970.525	1079
970.610	-990
970.696	310
970.781	-477
970.866	-1786
970.952	-1150
971.037	-580
971.122	-1183
971.208	10
971.293	-866
971.378	-1736
971.463	-1312
971.549	-382
971.634	-1505
971.719	-277
971.804	-1035
971.889	-77
971.974	-588
972.059	-174
972.144	-928
972.229	-65
972.314	-2248
972.399	94
972.484	-894
972.569	67
972.654	-1686
972.739	993
972.824	-676
972.908	-724
972.993	-1591
973.078	-1191
973.163	-1260
973.247	-1132
973.332	-2054
973.417	305
973.501	-2105
973.586	-722
973.671	-1317
973.755	-991
973.840	-107
973.924	44
974.009	-603
974.093	-786
974.178	704
974.262	-615
974.346	-749
974.431	-774
974.515	-1176
974.600	-872
974.684	-943
974.768	-375
974.852	-348
974.937	-2138
975.021	-678
975.105	-330
975.189	-1255
975.273	-448
975.358	-1749
975.442	-1549
975.526	-426
975.610	-1501
975.694	-1375
975.778	-560
975.862	-1270
975.946	-2512
976.030	-292
976.114	-1769
976.198	-721
976.281	-1183
976.365	-951
976.449	-730
976.533	-1145
976.617	-1650
976.700	-2080
976.784	-330
976.868	-1327
976.951	-1105
977.035	-1889
977.119	353
977.202	-557
977.286	-387
977.369	-870
977.453	307
977.536	-366
977.620	-669
977.703	-615
977.787	-1188
977.870	-584
977.953	456
978.037	-1551
978.120	-112
978.203	-1116
978.287	248
978.370	-786
978.453	-42
978.536	-1840
978.620	216
978.703	-413
978.786	-1738
978.869	-1311
978.952	-1703
979.035	396
979.118	-1
979.201	-1435
979.284	-335
979.367	-1611
979.450	-188
979.533	-1962
979.616	-1113
979.699	-1357
979.782	-300
979.865	-1271
979.948	-1941
980.030	-1644
980.113	-298
980.196	-1220
980.279	-423
980.361	-728
980.444	-1097
980.526	-475
980.609	-61
980.692	235
980.774	15
980.857	-1816
980.939	757
981.022	-764
981.104	-666
981.187	-1526
981.269	-642
981.352	-1299
981.434	-1375
981.516	-1319
981.599	33
981.681	-1160
981.763	-419
981.846	-880
981.928	-606
982.010	-835
982.092	-1404
982.174	210
982.256	-726
982.339	-1318
982.421	-528
982.503	-730
982.585	-1627
982.667	-803
982.749	-729
982.831	-721
982.913	-1153
982.995	-783
983.077	-1337
983.158	541
983.240	-1576
983.322	-229
983.404	409
983.486	-777
983.568	283
983.649	-1145
983.731	-367
983.813	-752
983.894	-415
983.976	-918
984.058	-906
984.139	410
984.221	-1159
984.302	-124
984.384	404
984.465	-1519
984.547	-130
984.628	-1306
984.710	-77
984.791	-858
984.872	-299
984.954	-1130
985.035	112
985.116	-1538
985.198	-693
985.279	227
985.360	-1717
985.441	-418
985.522	-453
985.604	-1155
985.685	-1735
985.766	-261
985.847	1259
985.928	-1583
986.009	-504
986.090	-522
986.171	-429
986.252	-1224
986.333	97
986.414	-1666
986.495	-385
986.576	-1106
986.656	-1118
986.737	-591
986.818	-269
986.899	-723
986.980	-258
987.060	-189
987.141	-668
987.222	-167
987.302	209
987.383	420
987.464	-300
987.544	294
987.625	-43
987.705	890
987.786	-40
987.866	-755
987.947	-113
988.027	-76
988.108	-204
988.188	325
988.268	66
988.349	343
988.429	-1271
988.509	12
988.589	-612
988.670	-1443
988.750	586
988.830	-478
988.910	530
988.990	-859
989.070	55
989.151	-470
989.231	-1012
989.311	-441
989.391	48
989.471	-834
989.551	-431
989.631	-1130
989.711	204
989.791	-1222
989.870	-660
989.950	646
990.030	-1029
990.110	-35
990.190	-329
990.269	-610
990.349	212
990.429	-656
990.509	-635
990.588	-994
990.668	28
990.747	-1169
990.827	-248
990.907	-468
990.986	-574
991.066	-978
991.145	-611
991.225	-996
991.304	-285
991.383	-1086
991.463	-809
991.542	-789
991.622	-309
991.701	-572
991.780	-778
991.859	-649
991.939	-850
992.018	-453
992.097	10
992.176	-355
992.256	-500
992.335	-1514
992.414	179
992.493	-954
992.572	-853
992.651	198
992.730	-506
992.809	-912
992.888	-934
992.967	-1186
993.046	240
993.125	-1833
993.203	336
993.282	-802
993.361	-1008
993.440	-871
993.519	-1144
993.597	-1610
993.676	-1431
993.755	-215
993.834	-1166
993.912	-1855
993.991	-284
994.069	-818
994.148	-885
994.226	-922
994.305	-72
994.384	-1323
994.462	-41
994.540	-1811
994.619	-1121
994.697	-508
994.776	-1363
994.854	-945
994.932	-1019
995.011	-600
995.089	-1166
995.167	-1031
995.245	-333
995.324	-1240
995.402	-275
995.480	-1625
995.558	-505
995.636	-1986
995.714	-1562
995.792	-520
995.870	-705
995.948	-1328
996.026	-923
996.104	-3076
996.182	-580
996.260	-1655
996.338	-371
996.416	-1243
996.494	-599
996.572	-434
996.649	-1206
996.727	-2085
996.805	-532
996.883	-1130
996.960	-1718
997.038	-874
997.116	-839
997.193	-1390
997.271	-824
997.348	-1481
997.426	-328
997.504	-2275
997.581	-422
997.658	-954
997.736	-2658
997.813	-1961
997.891	153
997.968	-1492
998.046	-724
998.123	-1109
998.200	-929
998.277	-1421
998.355	-904
998.432	-2828
998.509	-191
998.586	-1428
998.663	-1076
998.741	-1418
998.818	-826
998.895	-1708
998.972	-407
999.049	-1386
999.126	-991
999.203	-623
999.280	-820
999.357	-1838
999.434	-2216
999.511	-1581
999.587	-1174
999.664	-1912
999.741	-1018
999.818	-1094
999.895	-1970
999.971	-2537
1000.048	-2526
1000.125	-1399
1000.202	-1883
1000.278	-1294
1000.355	-1783
1000.431	-1713
1000.508	-1439
1000.584	-1608
1000.661	-1398
1000.738	-2104
1000.814	-1372
1000.890	-1088
1000.967	-1387
1001.043	-1381
1001.120	-2300
1001.196	-1935
1001.272	-1503
1001.349	-1588
1001.425	-812
1001.501	-1826
1001.577	-2451
1001.654	-1535
1001.730	-783
1001.806	-783
1001.882	-1879
1001.958	-1150
1002.034	-1617
1002.110	-1124
1002.186	-1950
1002.262	-2499
1002.338	-1768
1002.414	-2197
1002.490	-595
1002.566	-1944
1002.642	-1782
1002.718	-1297
1002.794	-1091
1002.870	-1704
1002.945	-1427
1003.021	-3014
1003.097	-652
1003.173	-1923
1003.248	-2366
1003.324	-2367
1003.400	-1492
1003.475	-2730
1003.551	-1827
1003.626	-1357
1003.702	-2293
1003.777	-1867
1003.853	-1635
1003.928	-1978
1004.004	-1085
1004.079	-1443
1004.155	-2035
1004.230	-2538
1004.305	-976
1004.381	-2544
1004.456	-1654
1004.531	-1506
1004.607	-2087
1004.682	-3027
1004.757	-1683
1004.832	-1708
1004.907	-1765
1004.982	-1377
1005.057	-1240
1005.133	-2920
1005.208	-1359
1005.283	-1917
1005.358	-980
1005.433	-2578
1005.508	-1779
1005.583	-2367
1005.657	-1287
1005.732	-1408
1005.807	-1714
1005.882	-1997
1005.957	-1844
1006.032	-857
1006.106	-1603
1006.181	-1472
1006.256	-1338
1006.331	-2511
1006.405	-2344
1006.480	-2431
1006.554	-1771
1006.629	-1388
1006.704	-1699
1006.778	-1715
1006.853	-1257
1006.927	-2641
1007.002	-2419
1007.076	-1767
1007.150	-1557
1007.225	-3483
1007.299	-1876
1007.373	-2187
1007.448	-1546
1007.522	-1420
1007.596	-1597
1007.671	-2387
1007.745	-1417
1007.819	-2582
1007.893	-1322
1007.967	-2306
1008.041	-2255
1008.115	-1555
1008.190	-2209
1008.264	-1454
1008.338	-1777
1008.412	-3314
1008.486	-2168
1008.560	-1422
1008.633	-2113
1008.707	-1966
1008.781	-1525
1008.855	-2054
1008.929	-1290
1009.003	-2916
1009.076	-1502
1009.150	-1302
1009.224	-2107
1009.298	-1727
1009.371	-1932
1009.445	-2115
1009.519	-1844
1009.592	-1835
1009.666	-1204
1009.739	-1753
1009.813	-2728
1009.886	-1481
1009.960	-2633
1010.033	-1819
1010.107	-1833
1010.180	-2557
1010.253	-1946
1010.327	-2498
1010.400	-1710
1010.473	-2661
1010.547	-775
1010.620	-2871
1010.693	-2477
1010.766	-2386
1010.840	-1456
1010.913	-2259
1010.986	-2013
1011.059	-2064
1011.132	-2316
1011.205	-1279
1011.278	-1856
1011.351	-3019
1011.424	-2220
1011.497	-1857
1011.570	-1565
1011.643	-2507
1011.716	-2925
1011.789	-1988
1011.862	-1594
1011.934	-1441
1012.007	-2114
1012.080	-2019
1012.153	-2028
1012.225	-1755
1012.298	-1777
1012.371	-2275
1012.443	-2232
1012.516	-2810
1012.588	-2060
1012.661	-2240
1012.733	-2100
1012.806	-1870
1012.879	-1985
1012.951	-1793
1013.023	-2722
1013.096	-1803
1013.168	-2859
1013.241	-2217
1013.313	-1559
1013.385	-2787
1013.458	-1744
1013.530	-2064
1013.602	-1697
1013.674	-1775
1013.746	-2052
1013.819	-2275
1013.891	-1251
1013.963	-2359
1014.035	-2370
1014.107	-1599
1014.179	-1826
1014.251	-2176
1014.323	-1503
1014.395	-2074
1014.467	-2048
1014.539	-2565
1014.611	-2585
1014.683	-1524
1014.754	-1965
1014.826	-2427
1014.898	-1081
1014.970	-2922
1015.042	-1462
1015.113	-2079
1015.185	-2077
1015.257	-3183
1015.328	-1461
1015.400	-2558
1015.471	-1245
1015.543	-2797
1015.615	-2024
1015.686	-1936
1015.757	-1484
1015.829	-1276
1015.901	-2657
1015.972	-2248
1016.043	-2327
1016.115	-1694
1016.186	-1822
1016.257	-2460
1016.328	-1203
1016.400	-2202
1016.471	-2434
1016.542	-2401
1016.613	-2260
1016.685	-2238
1016.756	-1226
1016.827	-1331
1016.898	-2541
1016.969	-2097
1017.040	-1543
1017.111	-1950
1017.182	-2101
1017.253	-2379
1017.324	-2780
1017.395	-2756
1017.466	-1924
1017.537	-1648
1017.608	-1794
1017.678	-2483
1017.749	-2301
1017.820	-2813
1017.891	-2084
1017.961	-3064
1018.032	-2137
1018.103	-2680
1018.173	-1527
1018.244	-2694
1018.315	-2178
1018.385	-1909
1018.456	-1640
1018.526	-2853
1018.597	-1569
1018.667	-2551
1018.738	-2521
1018.808	-2036
1018.878	-1845
1018.949	-2243
1019.019	-2062
1019.089	-2176
1019.160	-1711
1019.230	-2009
1019.300	-2128
1019.371	-2869
1019.441	-2276
1019.511	-2233
1019.581	-2025
1019.651	-2288
1019.721	-2148
1019.791	-2269
1019.861	-1863
1019.931	-2786
1020.001	-2841
1020.071	-2741
1020.141	-2663
1020.211	-2315
1020.281	-2469
1020.351	-1809
1020.421	-2463
1020.491	-2068
1020.560	-2525
1020.630	-1985
1020.700	-1723
1020.770	-2303
1020.839	-1337
1020.909	-2540
1020.979	-2190
1021.048	-2265
1021.118	-1877
1021.187	-1650
1021.257	-1850
1021.326	-1392
1021.396	-2344
1021.465	-2428
1021.535	-1915
1021.604	-2962
1021.674	-1488
1021.743	-1818
1021.812	-2195
1021.882	-2264
1021.951	-2245
1022.020	-1893
1022.089	-1793
1022.159	-2726
1022.228	-2138
1022.297	-2978
1022.366	-1955
1022.435	-2365
1022.504	-1976
1022.573	-2916
1022.642	-2132
1022.711	-2750
1022.781	-1814
1022.849	-3269
1022.918	-1833
1022.987	-2130
1023.056	-1800
1023.125	-2690
1023.194	-2269
1023.263	-2377
1023.331	-1028
1023.400	-2178
1023.469	-2064
1023.538	-2110
1023.606	-2054
1023.675	-2137
1023.744	-2880
1023.812	-2433
1023.881	-2278
1023.949	-2169
1024.018	-1773
1024.086	-2259
1024.155	-2134
1024.223	-2550
1024.292	-1793
1024.360	-1123
1024.429	-2104
1024.497	-2012
1024.565	-1604
1024.634	-3165
1024.702	-1874
1024.770	-1845
1024.838	-1887
1024.907	-2861
1024.975	-1872
1025.043	-1820
1025.111	-2105
1025.179	-2405
1025.247	-1431
1025.315	-2253
1025.383	-1956
1025.451	-2751
1025.519	-2195
1025.587	-2095
1025.655	-2412
1025.723	-2663
1025.791	-2491
1025.859	-1775
1025.927	-2165
1025.995	-3191
1026.062	-1776
1026.130	-2173
1026.198	-1637
1026.266	-2821
1026.333	-1861
1026.401	-2581
1026.469	-2104
1026.536	-2159
1026.604	-2459
1026.671	-2721
1026.739	-2690
1026.806	-2804
1026.874	-2294
1026.941	-2304
1027.009	-2213
1027.076	-1751
1027.144	-2086
1027.211	-2510
1027.278	-2607
1027.345	-2599
1027.413	-2095
1027.480	-3256
1027.547	-1618
1027.614	-2616
1027.682	-2325
1027.749	-2983
1027.816	-2499
1027.883	-2768
1027.950	-2246
1028.017	-2936
1028.084	-2085
1028.151	-2971
1028.218	-1654
1028.285	-2593
1028.352	-2566
1028.419	-2634
1028.486	-2146
1028.553	-2851
1028.619	-2295
1028.686	-2437
1028.753	-2247
1028.820	-2415
1028.886	-2372
1028.953	-2455
1029.020	-2164
1029.086	-3057
1029.153	-2310
1029.220	-3191
1029.286	-2154
1029.353	-2301
1029.419	-2468
1029.486	-3937
1029.552	-2202
1029.619	-3137
1029.685	-2101
1029.751	-2820
1029.818	-820
1029.884	-3096
1029.951	-1386
1030.017	-2693
1030.083	-2554
1030.149	-2599
1030.216	-2839
1030.282	-2548
1030.348	-2042
1030.414	-2442
1030.480	-2764
1030.546	-2341
1030.612	-2348
1030.678	-2871
1030.744	-1658
1030.810	-1821
1030.876	-2666
1030.942	-2783
1031.008	-2460
1031.074	-2797
1031.140	-2583
1031.206	-1802
1031.272	-2992
1031.337	-2377
1031.403	-2265
1031.469	-2321
1031.534	-2379
1031.600	-2713
1031.666	-2721
1031.731	-2370
1031.797	-2366
1031.863	-2499
1031.928	-2805
1031.994	-2789
1032.059	-2507
1032.125	-3087
1032.190	-2306
1032.256	-3677
1032.321	-2624
1032.386	-2515
1032.452	-1588
1032.517	-2229
1032.582	-2913
1032.647	-2434
1032.713	-3092
1032.778	-2936
1032.843	-1610
1032.908	-2575
1032.974	-2683
1033.039	-3316
1033.104	-1859
1033.169	-2445
1033.234	-2302
1033.299	-2198
1033.364	-1978
1033.429	-2571
1033.494	-2643
1033.559	-2472
1033.624	-2420
1033.688	-2522
1033.753	-2920
1033.818	-2607
1033.883	-2548
1033.948	-3263
1034.013	-1615
1034.077	-2546
1034.142	-1082
1034.207	-2229
1034.271	-1217
1034.336	-1619
1034.400	-1466
1034.465	-2412
1034.530	-2115
1034.594	-2470
1034.658	-2653
1034.723	-3343
1034.787	-1838
1034.852	-2761
1034.916	-2516
1034.981	-3308
1035.045	-2552
1035.109	-2425
1035.173	-1513
1035.238	-3741
1035.302	-2623
1035.366	-2265
1035.430	-1521
1035.495	-3032
1035.559	-2448
1035.623	-2320
1035.687	-2292
1035.751	-2483
1035.815	-2056
1035.879	-2479
1035.943	-2179
1036.007	-3414
1036.071	-2430
1036.135	-2498
1036.198	-2207
1036.262	-1998
1036.326	-1804
1036.390	-2752
1036.454	-1388
1036.517	-1891
1036.581	-1642
1036.645	-2309
1036.709	-2093
1036.772	-2744
1036.836	-2833
1036.900	-3103
1036.963	-2200
1037.026	-2615
1037.090	-2035
1037.154	-3433
1037.217	-2737
1037.280	-3133
1037.344	-2353
1037.407	-2692
1037.471	-2190
1037.534	-2781
1037.597	-2282
1037.661	-3226
1037.724	-2073
1037.787	-3395
1037.850	-2793
1037.913	-3057
1037.977	-1661
1038.040	-3023
1038.103	-2815
1038.166	-2574
1038.229	-1859
1038.292	-2234
1038.355	-2063
1038.418	-2802
1038.481	-1979
1038.544	-2643
1038.607	-1985
1038.670	-2688
1038.732	-1811
1038.795	-2655
1038.858	-2498
1038.921	-2980
1038.984	-1789
1039.046	-1616
1039.109	-2611
1039.172	-1969
1039.234	-2692
1039.297	-2658
1039.360	-1815
1039.422	-2700
1039.485	-3007
1039.547	-2891
1039.610	-1489
1039.672	-2199
1039.734	-2008
1039.797	-2723
1039.859	-2286
1039.922	-2380
1039.984	-2034
1040.046	-3043
1040.109	-1551
1040.171	-3102
1040.233	-2179
1040.295	-3065
1040.358	-1691
1040.420	-1932
1040.482	-2228
1040.544	-2788
1040.606	-2303
1040.668	-3035
1040.730	-2207
1040.792	-2964
1040.854	-1726
1040.916	-3100
1040.978	-2224
1041.040	-1640
1041.102	-2456
1041.164	-3524
1041.225	-2038
1041.287	-3106
1041.349	-2230
1041.411	-2577
1041.472	-1630
1041.534	-2606
1041.596	-3203
1041.657	-2772
1041.719	-1812
1041.781	-2585
1041.842	-3090
1041.904	-3457
1041.965	-2768
1042.027	-2671
1042.088	-2096
1042.150	-2755
1042.211	-2248
1042.272	-1909
1042.334	-2821
1042.395	-2400
1042.456	-2373
1042.518	-2606
1042.579	-1575
1042.640	-3224
1042.701	-2097
1042.763	-2503
1042.824	-2597
1042.885	-2710
1042.946	-1539
1043.007	-2336
1043.068	-1723
1043.129	-2714
1043.190	-2441
1043.251	-2053
1043.312	-1820
1043.373	-2645
1043.434	-1618
1043.495	-2491
1043.556	-1758
1043.616	-2407
1043.677	-2165
1043.738	-3632
1043.799	-2807
1043.859	-1781
1043.920	-2394
1043.981	-2259
1044.041	-2114
1044.102	-2942
1044.162	-2410
1044.223	-2945
1044.284	-2515
1044.344	-3173
1044.405	-1510
1044.465	-2097
1044.525	-2016
1044.586	-1976
1044.646	-2035
1044.707	-1814
1044.767	-2204
1044.827	-3265
1044.887	-2454
1044.948	-1647
1045.008	-2229
1045.068	-1812
1045.128	-1687
1045.188	-2128
1045.249	-1771
1045.309	-3038
1045.369	-1298
1045.429	-2334
1045.489	-2512
1045.549	-2523
1045.609	-2376
1045.669	-2019
1045.729	-1596
1045.789	-3218
1045.848	-2634
1045.908	-2110
1045.968	-1697
1046.028	-2528
1046.088	-1269
1046.147	-2290
1046.207	-1377
1046.267	-2057
1046.326	-2127
1046.386	-1858
1046.446	-1459
1046.505	-1485
1046.565	-1906
1046.624	-1043
1046.684	-493
1046.743	-1671
1046.803	-661
1046.862	-505
1046.922	0
