'Start Wavelength	183.907
'End Wavelength	1046.922
'Gate Delay	5.000
'Gate Width (ms)	1.050
'Laser Output Level	0.000
'X Position	0.000
'Y Position	0.000
'Z Position	0.000
'Grid Point Number	1.000
'Shot Number	100.000
183.907	932.000
183.977	122.000
184.047	-71
184.116	262
184.186	428
184.256	370
184.325	575
184.395	-595
184.465	1229
184.534	-711
184.604	297
184.674	-122
184.743	-51
184.813	266
184.883	253
184.952	-517
185.022	811
185.092	-765
185.161	465
185.231	260
185.301	-96
185.370	-312
185.440	-160
185.509	-208
185.579	350
185.649	-17
185.718	59
185.788	396
185.857	1048
185.927	-294
185.996	40
186.066	-193
186.136	563
186.205	604
186.275	983
186.344	-92
186.414	82
186.483	-255
186.553	1422
186.622	-81
186.692	259
186.761	-202
186.831	714
186.900	-310
186.970	181
187.039	275
187.109	383
187.178	32
187.248	134
187.317	-25
187.387	216
187.456	-110
187.526	761
187.595	-224
187.664	382
187.734	-73
187.803	277
187.873	-410
187.942	47
188.012	-699
188.081	739
188.150	68
188.220	217
188.289	269
188.358	376
188.428	112
188.497	-318
188.567	432
188.636	448
188.705	-302
188.775	922
188.844	-335
188.913	357
188.983	133
189.052	521
189.121	213
189.191	-237
189.260	363
189.329	-212
189.399	-129
189.468	437
189.537	-417
189.606	706
189.676	-236
189.745	607
189.814	-603
189.883	1
189.953	-84
190.022	-216
190.091	-397
190.161	487
190.230	411
190.299	673
190.368	-514
190.437	862
190.507	874
190.576	-187
190.645	167
190.714	529
190.783	-203
190.853	626
190.922	427
190.991	903
191.060	-244
191.129	-94
191.198	-10
191.268	647
191.337	214
191.406	396
191.475	-772
191.544	-664
191.613	-221
191.682	-224
191.752	1058
191.821	-29
191.890	-356
191.959	-38
192.028	362
192.097	716
192.166	-470
192.235	-414
192.304	195
192.373	120
192.442	-271
192.511	131
192.580	-825
192.650	818
192.719	-26
192.788	274
192.857	339
192.926	319
192.995	-516
193.064	-279
193.133	-394
193.202	717
193.271	-47
193.340	685
193.409	-249
193.478	-31
193.547	654
193.615	653
193.684	-585
193.753	-129
193.822	432
193.891	227
193.960	722
194.029	309
194.098	-92
194.167	-30
194.236	202
194.305	38
194.374	-146
194.443	-82
194.512	401
194.580	-299
194.649	64
194.718	-42
194.787	527
194.856	-214
194.925	179
194.994	-249
195.062	840
195.131	-1
195.200	467
195.269	402
195.338	-14
195.407	369
195.475	172
195.544	364
195.613	-226
195.682	401
195.751	-46
195.819	-455
195.888	-301
195.957	561
196.026	-18
196.094	608
196.163	-881
196.232	-362
196.301	535
196.369	167
196.438	54
196.507	-835
196.576	-675
196.644	-339
196.713	205
196.782	659
196.850	78
196.919	451
196.988	-325
197.056	-457
197.125	-126
197.194	-234
197.262	-167
197.331	474
197.400	-773
197.468	-748
197.537	-542
197.606	196
197.674	831
197.743	9
197.812	-948
197.880	845
197.949	137
198.017	115
198.086	-57
198.155	-296
198.223	-233
198.292	-1047
198.360	-176
198.429	-455
198.497	-15
198.566	136
198.635	142
198.703	716
198.772	813
198.840	413
198.909	-498
198.977	450
199.046	-189
199.114	898
199.183	138
199.251	240
199.320	-931
199.388	-211
199.457	-231
199.525	224
199.594	313
199.662	754
199.731	-261
199.799	-91
199.867	63
199.936	557
200.004	-199
200.073	249
200.141	140
200.210	-54
200.278	-384
200.346	518
200.415	431
200.483	-90
200.552	309
200.620	181
200.688	369
200.757	86
200.825	-962
200.893	-78
200.962	-572
201.030	66
201.098	233
201.167	444
201.235	164
201.303	-503
201.372	402
201.440	471
201.508	5
201.577	475
201.645	266
201.713	380
201.781	-460
201.850	537
201.918	-162
201.986	191
202.055	394
202.123	37
202.191	-134
202.259	54
202.327	-110
202.396	146
202.464	289
202.532	-709
202.600	194
202.669	291
202.737	-425
202.805	-379
202.873	-753
202.941	808
203.009	-103
203.078	-520
203.146	62
203.214	66
203.282	-930
203.350	496
203.418	-637
203.487	456
203.555	12
203.623	802
203.691	94
203.759	679
203.827	-310
203.895	47
203.963	600
204.031	914
204.099	-267
204.168	-95
204.236	-13
204.304	110
204.372	313
204.440	234
204.508	55
204.576	-174
204.644	117
204.712	98
204.780	-45
204.848	989
204.916	-522
204.984	597
205.052	337
205.120	-12
205.188	63
205.256	-228
205.324	5
205.392	894
205.460	540
205.528	247
205.596	-335
205.664	802
205.732	-428
205.799	118
205.867	181
205.935	-646
206.003	290
206.071	118
206.139	-282
206.207	544
206.275	-244
206.343	171
206.411	-23
206.478	351
206.546	245
206.614	75
206.682	-439
206.750	72
206.818	-568
206.885	554
206.953	-611
207.021	917
207.089	-608
207.157	-403
207.225	-310
207.292	424
207.360	-160
207.428	633
207.496	-867
207.563	-186
207.631	275
207.699	-271
207.767	-665
207.834	-380
207.902	294
207.970	-344
208.038	-129
208.105	665
208.173	-439
208.241	468
208.309	-262
208.376	-306
208.444	564
208.512	-88
208.579	-1357
208.647	555
208.715	252
208.782	-255
208.850	-476
208.918	-206
208.985	-136
209.053	501
209.120	105
209.188	-27
209.256	148
209.323	-122
209.391	-496
209.459	912
209.526	-588
209.594	-148
209.661	442
209.729	-88
209.796	-646
209.864	-272
209.932	-1443
209.999	1165
210.067	-32
210.134	-74
210.202	-375
210.269	289
210.337	182
210.404	111
210.472	-112
210.539	396
210.607	-1050
210.674	226
210.742	-146
210.809	398
210.877	-684
210.944	845
211.012	-1315
211.079	895
211.146	-1025
211.214	-49
211.281	-997
211.349	647
211.416	-174
211.484	712
211.551	301
211.618	676
211.686	-267
211.753	-780
211.821	175
211.888	113
211.955	-164
212.023	435
212.090	162
212.157	549
212.225	-711
212.292	329
212.359	-137
212.427	854
212.494	-120
212.561	364
212.629	-787
212.696	-229
212.763	171
212.831	-959
212.898	-250
212.965	24
213.032	305
213.100	555
213.167	-468
213.234	380
213.301	378
213.369	301
213.436	223
213.503	-309
213.570	16
213.638	490
213.705	-317
213.772	-766
213.839	-439
213.906	730
213.973	-306
214.041	-268
214.108	-326
214.175	-142
214.242	-402
214.309	147
214.376	-24
214.444	-170
214.511	-349
214.578	-992
214.645	431
214.712	-60
214.779	-230
214.846	282
214.913	358
214.980	-46
215.048	-182
215.115	844
215.182	31
215.249	757
215.316	-546
215.383	172
215.450	-103
215.517	56
215.584	-5
215.651	-153
215.718	-401
215.785	-22
215.852	-807
215.919	715
215.986	327
216.053	199
216.120	-786
216.187	-30
216.254	-319
216.321	172
216.388	-183
216.455	363
216.522	-479
216.589	-575
216.656	-216
216.722	106
216.789	231
216.856	192
216.923	-663
216.990	485
217.057	-514
217.124	1083
217.191	-486
217.258	600
217.324	-771
217.391	21
217.458	-404
217.525	367
217.592	-16
217.659	-534
217.725	369
217.792	-21
217.859	-506
217.926	149
217.993	-558
218.059	883
218.126	108
218.193	-40
218.260	-701
218.327	-39
218.393	-1104
218.460	107
218.527	-671
218.594	995
218.660	-450
218.727	635
218.794	-799
218.860	274
218.927	-189
218.994	-263
219.061	-964
219.127	-245
219.194	-135
219.261	292
219.327	-459
219.394	441
219.461	-162
219.527	450
219.594	-4
219.661	-463
219.727	-627
219.794	680
219.860	-723
219.927	299
219.994	1213
220.060	496
220.127	1888
220.193	1661
220.260	-57
220.326	821
220.393	-75
220.460	23
220.526	-657
220.593	-335
220.659	969
220.726	-425
220.792	443
220.859	579
220.925	-685
220.992	828
221.058	458
221.125	920
221.191	676
221.258	-199
221.324	-39
221.391	-961
221.457	-930
221.524	870
221.590	-66
221.657	697
221.723	-684
221.789	-258
221.856	857
221.922	-99
221.989	-85
222.055	-637
222.121	-1605
222.188	1435
222.254	399
222.321	619
222.387	-655
222.453	96
222.520	602
222.586	-480
222.652	-21
222.719	-502
222.785	374
222.851	58
222.918	-666
222.984	-126
223.050	-918
223.116	-1252
223.183	31
223.249	-255
223.315	-319
223.382	-186
223.448	-472
223.514	-233
223.580	-563
223.647	-69
223.713	-1097
223.779	-267
223.845	-877
223.911	-54
223.978	-746
224.044	346
224.110	-732
224.176	-11
224.242	-311
224.309	-542
224.375	-141
224.441	-527
224.507	-575
224.573	-81
224.639	-316
224.705	-388
224.772	-278
224.838	-520
224.904	-752
224.970	-271
225.036	-690
225.102	-420
225.168	903
225.234	-119
225.300	385
225.366	-176
225.432	-276
225.499	-528
225.565	-251
225.631	-344
225.697	-474
225.763	31
225.829	-563
225.895	87
225.961	28
226.027	-177
226.093	-934
226.159	1352
226.225	716
226.291	395
226.357	1761
226.423	1422
226.489	83
226.554	-201
226.620	113
226.686	192
226.752	-664
226.818	1732
226.884	2800
226.950	2232
227.016	622
227.082	749
227.148	57
227.214	319
227.279	-56
227.345	394
227.411	496
227.477	1115
227.543	2140
227.609	2867
227.674	2800
227.740	862
227.806	346
227.872	-279
227.938	507
228.003	735
228.069	-188
228.135	44
228.201	-790
228.267	-730
228.332	-665
228.398	-701
228.464	-341
228.530	114
228.595	668
228.661	-584
228.727	-1104
228.792	962
228.858	60
228.924	-1466
228.990	483
229.055	-852
229.121	-142
229.187	-255
229.252	-264
229.318	114
229.384	-580
229.449	-68
229.515	-1824
229.581	-1498
229.646	984
229.712	-193
229.777	-370
229.843	-164
229.909	-942
229.974	-150
230.040	-934
230.105	92
230.171	-975
230.236	-15
230.302	-749
230.368	-1187
230.433	-766
230.499	165
230.564	-159
230.630	-377
230.695	175
230.761	423
230.826	-1752
230.892	927
230.957	-1197
231.023	-387
231.088	17
231.154	-482
231.219	461
231.284	-1101
231.350	304
231.415	-721
231.481	381
231.546	-561
231.612	-584
231.677	-760
231.742	-992
231.808	1121
231.873	-1400
231.939	-2181
232.004	409
232.069	582
232.135	-989
232.200	-631
232.265	-610
232.331	-537
232.396	-19
232.461	-500
232.527	-1097
232.592	-1028
232.657	463
232.723	-93
232.788	-517
232.853	511
232.918	-517
232.984	60
233.049	-548
233.114	-618
233.179	-18
233.245	1076
233.310	111
233.375	-1264
233.440	191
233.506	-631
233.571	-1063
233.636	-477
233.701	-1275
233.766	-347
233.832	-339
233.897	-375
233.962	-1971
234.027	744
234.092	470
234.157	-1161
234.222	-768
234.288	79
234.353	-405
234.418	126
234.483	130
234.548	-268
234.613	-399
234.678	425
234.743	-786
234.808	1201
234.873	-1244
234.938	1151
235.004	226
235.069	-37
235.134	-1475
235.199	-283
235.264	129
235.329	-1305
235.394	535
235.459	830
235.524	-2220
235.589	-407
235.654	-801
235.719	-1608
235.784	187
235.849	-383
235.913	-656
235.978	-4
236.043	72
236.108	474
236.173	-541
236.238	419
236.303	-736
236.368	-522
236.433	336
236.498	-554
236.563	-303
236.627	484
236.692	3759
236.757	2435
236.822	321
236.887	-122
236.952	1380
237.017	-1313
237.081	722
237.146	-189
237.211	743
237.276	4035
237.341	6899
237.405	2190
237.470	682
237.535	433
237.600	22
237.664	990
237.729	-871
237.794	-726
237.859	816
237.923	1043
237.988	-474
238.053	965
238.118	14
238.182	-153
238.247	1358
238.312	-1236
238.376	-594
238.441	-889
238.506	461
238.570	-1296
238.635	603
238.700	236
238.764	-821
238.829	272
238.893	-1420
238.958	-301
239.023	-407
239.087	109
239.152	89
239.216	233
239.281	57
239.346	37
239.410	-773
239.475	-306
239.539	326
239.604	-430
239.668	1274
239.733	1093
239.797	3480
239.862	6600
239.926	4894
239.991	2757
240.055	927
240.120	-114
240.184	958
240.249	-696
240.313	-157
240.378	339
240.442	-314
240.507	428
240.571	-1163
240.635	-201
240.700	-577
240.764	377
240.829	-979
240.893	-1014
240.957	-414
241.022	22
241.086	427
241.151	-944
241.215	-987
241.279	1005
241.344	-646
241.408	872
241.472	-598
241.537	1451
241.601	-88
241.665	-390
241.730	-1208
241.794	710
241.858	-821
241.922	-348
241.987	-491
242.051	-62
242.115	-1534
242.179	-97
242.244	-1139
242.308	356
242.372	-834
242.436	-592
242.501	-340
242.565	-1931
242.629	-146
242.693	127
242.757	-439
242.822	162
242.886	-438
242.950	600
243.014	-1787
243.078	145
243.142	-618
243.206	-679
243.271	194
243.335	-893
243.399	508
243.463	402
243.527	3301
243.591	343
243.655	-220
243.719	-1317
243.783	242
243.847	-414
243.911	-305
243.975	-92
244.040	-2091
244.104	1640
244.168	-89
244.232	-227
244.296	-454
244.360	730
244.424	-900
244.488	16
244.552	257
244.615	-1145
244.679	-454
244.743	120
244.807	-508
244.871	89
244.935	-127
244.999	-1806
245.063	-459
245.127	689
245.191	-202
245.255	-343
245.319	-339
245.383	-1551
245.446	636
245.510	-678
245.574	-566
245.638	349
245.702	-1123
245.766	832
245.829	888
245.893	-511
245.957	-456
246.021	-216
246.085	-921
246.149	72
246.212	880
246.276	1122
246.340	-400
246.404	-433
246.467	189
246.531	-2413
246.595	819
246.659	761
246.722	-1005
246.786	448
246.850	-134
246.913	670
246.977	-1424
247.041	284
247.104	-662
247.168	-55
247.232	338
247.295	1381
247.359	947
247.423	95
247.486	151
247.550	825
247.614	-745
247.677	-10
247.741	3
247.804	-20
247.868	240
247.932	-586
247.995	2211
248.059	-923
248.122	-1449
248.186	1040
248.249	280
248.313	2526
248.376	3253
248.440	1525
248.503	-1289
248.567	1492
248.630	-495
248.694	120
248.757	1379
248.821	3148
248.884	2489
248.948	151
249.011	2755
249.075	3460
249.138	2909
249.202	784
249.265	115
249.328	1286
249.392	-748
249.455	370
249.519	708
249.582	350
249.645	-292
249.709	242
249.772	-640
249.835	-134
249.899	-278
249.962	140
250.025	-449
250.089	784
250.152	1882
250.215	844
250.279	-984
250.342	755
250.405	374
250.468	720
250.532	19
250.595	1302
250.658	2136
250.721	7230
250.785	1459
250.848	2060
250.911	-251
250.974	1229
251.038	355
251.101	1221
251.164	225
251.227	779
251.290	495
251.354	881
251.417	5592
251.480	5783
251.543	3585
251.606	11028
251.669	8021
251.732	2812
251.795	2155
251.859	3207
251.922	5927
251.985	4103
252.048	1429
252.111	1086
252.174	-80
252.237	1631
252.300	3832
252.363	3421
252.426	9600
252.489	2905
252.552	1235
252.615	945
252.678	1091
252.741	2457
252.804	2082
252.867	9327
252.930	4287
252.993	2583
253.056	1085
253.119	-12
253.182	336
253.245	583
253.308	258
253.371	399
253.434	69
253.497	1176
253.559	1612
253.622	875
253.685	873
253.748	476
253.811	-626
253.874	820
253.937	-959
254.000	-54
254.062	193
254.125	1623
254.188	1354
254.251	483
254.314	-487
254.376	290
254.439	419
254.502	492
254.565	344
254.628	1803
254.690	429
254.753	-928
254.816	855
254.878	-531
254.941	1370
255.004	1303
255.067	-168
255.129	187
255.192	-168
255.255	-1172
255.317	14
255.380	71
255.443	-834
255.505	191
255.568	-949
255.631	-179
255.693	241
255.756	-909
255.819	1151
255.881	-16
255.944	-63
256.006	-467
256.069	34
256.132	-371
256.194	-523
256.257	521
256.319	-101
256.382	-91
256.444	1952
256.507	784
256.569	14
256.632	139
256.694	-946
256.757	2630
256.819	7105
256.882	1512
256.944	707
257.007	1186
257.069	-663
257.132	-467
257.194	1007
257.257	-150
257.319	-803
257.381	247
257.444	1651
257.506	7825
257.569	8273
257.631	2366
257.693	753
257.756	165
257.818	-154
257.880	282
257.943	596
258.005	-360
258.067	-893
258.130	-19
258.192	97
258.254	609
258.317	-88
258.379	242
258.441	-226
258.503	1435
258.566	346
258.628	1214
258.690	-547
258.753	195
258.815	-256
258.877	-533
258.939	-651
259.001	-14
259.064	-767
259.126	-325
259.188	-217
259.250	490
259.312	52
259.375	-675
259.437	-278
259.499	620
259.561	-576
259.623	185
259.685	-812
259.747	634
259.809	752
259.872	892
259.934	575
259.996	2939
260.058	587
260.120	-340
260.182	-351
260.244	179
260.306	-245
260.368	821
260.430	-1307
260.492	905
260.554	500
260.616	-1024
260.678	520
260.740	901
260.802	133
260.864	-261
260.926	-1152
260.988	1180
261.050	-341
261.112	271
261.174	2008
261.236	1205
261.298	-386
261.359	904
261.421	1458
261.483	-390
261.545	991
261.607	-337
261.669	858
261.731	451
261.793	935
261.854	-615
261.916	514
261.978	-678
262.040	-94
262.102	880
262.164	-742
262.225	938
262.287	568
262.349	-402
262.411	-309
262.472	654
262.534	211
262.596	-175
262.658	670
262.719	47
262.781	604
262.843	-377
262.904	240
262.966	886
263.028	-77
263.090	1013
263.151	2183
263.213	1600
263.275	-20
263.336	890
263.398	654
263.459	-695
263.521	-667
263.583	865
263.644	253
263.706	11
263.767	-738
263.829	691
263.891	-218
263.952	149
264.014	209
264.075	-169
264.137	696
264.198	998
264.260	-396
264.321	171
264.383	-231
264.444	2448
264.506	344
264.567	86
264.629	390
264.690	624
264.752	627
264.813	768
264.875	-1454
264.936	554
264.998	-77
265.059	387
265.120	708
265.182	-517
265.243	1600
265.305	3874
265.366	1175
265.427	742
265.489	364
265.550	-1098
265.611	-80
265.673	-442
265.734	-376
265.795	819
265.857	-782
265.918	-228
265.979	949
266.040	5079
266.102	4758
266.163	787
266.224	443
266.286	732
266.347	-966
266.408	170
266.469	-403
266.530	985
266.592	-78
266.653	885
266.714	53
266.775	-335
266.836	449
266.898	-520
266.959	-451
267.020	115
267.081	425
267.142	-78
267.203	299
267.264	-519
267.326	-129
267.387	-186
267.448	-229
267.509	91
267.570	-839
267.631	-723
267.692	-1150
267.753	-580
267.814	-1446
267.875	332
267.936	289
267.997	71
268.058	-437
268.119	-202
268.180	-809
268.241	-534
268.302	-485
268.363	49
268.424	114
268.485	416
268.546	-645
268.607	337
268.668	-20
268.729	-1048
268.790	-41
268.851	29
268.912	-336
268.972	661
269.033	-430
269.094	-592
269.155	-108
269.216	-443
269.277	-830
269.338	-754
269.398	-198
269.459	-278
269.520	233
269.581	-412
269.642	-382
269.702	-557
269.763	185
269.824	-472
269.885	-471
269.945	-24
270.006	295
270.067	-694
270.128	319
270.188	-862
270.249	-233
270.310	-45
270.370	296
270.431	-95
270.492	-836
270.553	188
270.613	627
270.674	1157
270.734	-578
270.795	133
270.856	178
270.916	-1089
270.977	-211
271.038	389
271.098	54
271.159	329
271.219	-339
271.280	310
271.340	-418
271.401	-114
271.462	712
271.522	178
271.583	-628
271.643	-699
271.704	-623
271.764	-47
271.825	502
271.885	2995
271.946	4651
272.006	1034
272.066	2035
272.127	4363
272.187	5092
272.248	2480
272.308	665
272.369	3278
272.429	1334
272.489	-27
272.550	-49
272.610	1055
272.671	-252
272.731	522
272.791	139
272.852	239
272.912	25
272.972	246
273.033	-630
273.093	486
273.153	-72
273.214	443
273.274	9
273.334	1483
273.394	3425
273.455	505
273.515	715
273.575	1968
273.635	451
273.696	1633
273.756	2537
273.816	1351
273.876	1324
273.936	252
273.997	948
274.057	830
274.117	-235
274.177	482
274.237	3214
274.297	3638
274.358	1408
274.418	2616
274.478	1193
274.538	436
274.598	264
274.658	644
274.718	549
274.778	859
274.838	195
274.898	410
274.958	1117
275.018	2033
275.078	2122
275.138	495
275.198	176
275.258	196
275.318	-500
275.378	623
275.438	790
275.498	1395
275.558	-69
275.618	2142
275.678	1973
275.738	1369
275.798	672
275.858	375
275.918	-675
275.978	204
276.038	-280
276.098	502
276.157	370
276.217	1952
276.277	1081
276.337	197
276.397	597
276.457	1001
276.517	750
276.576	787
276.636	-290
276.696	244
276.756	1643
276.815	1242
276.875	759
276.935	1207
276.995	-123
277.055	1109
277.114	1163
277.174	269
277.234	1325
277.293	391
277.353	-418
277.413	100
277.472	-153
277.532	363
277.592	878
277.651	2392
277.711	5074
277.771	2679
277.830	4882
277.890	4503
277.950	2426
278.009	10817
278.069	3953
278.128	3727
278.188	6464
278.248	3373
278.307	5632
278.367	4109
278.426	1607
278.486	277
278.545	-595
278.605	509
278.664	130
278.724	730
278.783	1331
278.843	5086
278.902	1647
278.962	584
279.021	496
279.081	1990
279.140	99
279.199	1416
279.259	1500
279.318	1338
279.378	2407
279.437	2638
279.496	6016
279.556	21439
279.615	19080
279.675	4760
279.734	2581
279.793	3454
279.853	3991
279.912	2639
279.971	1264
280.031	1266
280.090	1971
280.149	3835
280.208	2266
280.268	13340
280.327	16705
280.386	3848
280.445	1894
280.505	2075
280.564	1577
280.623	1176
280.682	1084
280.742	2805
280.801	765
280.860	817
280.919	455
280.978	1293
281.037	361
281.097	445
281.156	834
281.215	885
281.274	971
281.333	2790
281.392	1851
281.451	388
281.510	747
281.569	234
281.628	913
281.688	757
281.747	1209
281.806	413
281.865	402
281.924	121
281.983	560
282.042	199
282.101	-346
282.160	1040
282.219	143
282.278	445
282.337	1099
282.396	175
282.454	1242
282.513	-175
282.572	1893
282.631	1667
282.690	-71
282.749	-62
282.808	320
282.867	754
282.926	364
282.985	409
283.043	928
283.102	617
283.161	-322
283.220	1249
283.279	2208
283.338	1526
283.396	1552
283.455	373
283.514	897
283.573	1206
283.631	1308
283.690	697
283.749	858
283.808	1247
283.866	1411
283.925	242
283.984	1679
284.043	1190
284.101	1216
284.160	1026
284.219	773
284.277	452
284.336	1115
284.395	3484
284.453	2716
284.512	1768
284.570	2324
284.629	2125
284.688	2374
284.746	2190
284.805	2674
284.863	4081
284.922	4048
284.981	6171
285.039	8857
285.098	14416
285.156	27377
285.215	39897
285.273	38779
285.332	33006
285.390	18635
285.449	12278
285.507	8748
285.566	6251
285.624	4776
285.683	4164
285.741	3183
285.799	3658
285.858	2995
285.916	2472
285.975	887
286.033	1331
286.091	1714
286.150	804
286.208	1529
286.267	1946
286.325	1117
286.383	1793
286.442	1019
286.500	1641
286.558	580
286.616	1680
286.675	1355
286.733	984
286.791	609
286.850	2025
286.908	1573
286.966	1723
287.024	777
287.083	1147
287.141	786
287.199	1668
287.257	1024
287.315	1295
287.374	711
287.432	2072
287.490	1759
287.548	1401
287.606	548
287.664	527
287.723	962
287.781	1193
287.839	1386
287.897	1428
287.955	887
288.013	2031
288.071	2858
288.129	9121
288.187	33472
288.245	17911
288.303	4365
288.361	2785
288.419	2656
288.477	1950
288.535	886
288.593	1138
288.651	558
288.709	669
288.767	1221
288.825	485
288.883	497
288.941	661
288.999	814
289.057	570
289.115	300
289.173	1415
289.231	1127
289.289	664
289.346	417
289.404	1051
289.462	660
289.520	1474
289.578	979
289.636	1056
289.694	834
289.751	1078
289.809	1300
289.867	707
289.925	981
289.983	1246
290.040	1102
290.098	1648
290.156	535
290.214	1113
290.271	784
290.329	1274
290.387	1284
290.444	1178
290.502	164
290.560	1427
290.617	693
290.675	1581
290.733	745
290.790	1004
290.848	929
290.906	1369
290.963	897
291.021	1946
291.078	1135
291.136	510
291.194	1300
291.251	3563
291.309	1284
291.366	1026
291.424	1066
291.481	1274
291.539	799
291.596	982
291.654	282
291.711	1753
291.769	501
291.826	1230
291.884	1278
291.941	1130
291.999	651
292.056	602
292.114	715
292.171	1187
292.228	802
292.286	1348
292.343	823
292.401	874
292.458	1359
292.515	1
292.573	1365
292.630	1865
292.687	760
292.745	941
292.802	202
292.859	1271
292.917	3359
292.974	2323
293.031	704
293.089	279
293.146	528
293.203	692
293.260	994
293.318	1103
293.375	932
293.432	705
293.489	721
293.546	1184
293.604	135
293.661	1709
293.718	6082
293.775	3649
293.832	1144
293.889	1667
293.947	954
294.004	1461
294.061	1080
294.118	1878
294.175	3865
294.232	4992
294.289	2542
294.346	2439
294.403	1612
294.460	1459
294.517	-376
294.574	1000
294.631	873
294.688	1070
294.745	1721
294.802	6243
294.859	7129
294.916	3271
294.973	1197
295.030	773
295.087	1030
295.144	1068
295.201	1390
295.258	1368
295.315	1136
295.372	2703
295.429	4005
295.486	2633
295.542	2115
295.599	3607
295.656	5479
295.713	3550
295.770	4236
295.827	2161
295.883	631
295.940	1247
295.997	1424
296.054	1189
296.111	612
296.167	975
296.224	245
296.281	757
296.338	868
296.394	830
296.451	316
296.508	2355
296.564	4095
296.621	3226
296.678	4436
296.734	8318
296.791	3917
296.848	1741
296.904	1147
296.961	2496
297.018	5198
297.074	4565
297.131	2576
297.187	1618
297.244	1996
297.301	5091
297.357	10268
297.414	4632
297.470	2009
297.527	1496
297.583	850
297.640	890
297.696	934
297.753	1566
297.809	132
297.866	1227
297.922	402
297.979	294
298.035	274
298.092	686
298.148	2580
298.204	3002
298.261	692
298.317	2833
298.374	6847
298.430	4143
298.486	2200
298.543	998
298.599	625
298.656	937
298.712	1497
298.768	2813
298.824	2411
298.881	860
298.937	441
298.993	595
299.050	273
299.106	1056
299.162	455
299.218	1931
299.275	424
299.331	1431
299.387	2225
299.443	7043
299.500	14883
299.556	11634
299.612	4100
299.668	4266
299.724	8790
299.780	13386
299.837	5119
299.893	3976
299.949	9328
300.005	14801
300.061	10387
300.117	17812
300.173	8779
300.229	4393
300.285	2844
300.341	2610
300.397	1881
300.453	2265
300.510	1941
300.566	2729
300.622	3333
300.678	15910
300.734	22403
300.790	12302
300.845	9088
300.901	10564
300.957	15489
301.013	8709
301.069	3676
301.125	1971
301.181	1751
301.237	1259
301.293	414
301.349	1597
301.405	1613
301.461	1081
301.516	1039
301.572	1226
301.628	567
301.684	1148
301.740	1624
301.796	2997
301.851	2377
301.907	3044
301.963	3567
302.019	5082
302.074	15697
302.130	17122
302.186	8454
302.242	3180
302.297	1793
302.353	2339
302.409	2419
302.464	3432
302.520	2006
302.576	5289
302.631	6629
302.687	3992
302.743	1341
302.798	1576
302.854	373
302.910	1454
302.965	257
303.021	2125
303.076	910
303.132	2723
303.187	2439
303.243	1438
303.299	1958
303.354	766
303.410	289
303.465	664
303.521	1110
303.576	1464
303.632	1674
303.687	1878
303.743	5234
303.798	5681
303.853	1850
303.909	801
303.964	1045
304.020	1342
304.075	1590
304.130	1414
304.186	1566
304.241	3031
304.297	1773
304.352	1191
304.358	1158
304.407	893
304.449	1187
304.463	1287
304.518	547
304.539	654
304.573	811
304.629	1198
304.630	1205
304.684	1517
304.720	2657
304.739	3233
304.794	6490
304.811	5869
304.850	4362
304.902	1967
304.905	1811
304.960	429
304.992	912
305.015	1263
305.071	1489
305.083	1334
305.126	795
305.173	527
305.181	476
305.236	1061
305.264	799
305.292	496
305.347	655
305.354	611
305.402	563
305.445	1238
305.457	1370
305.512	1673
305.535	1616
305.567	1595
305.622	887
305.626	967
305.678	2432
305.716	3873
305.733	4395
305.788	6252
305.807	5542
305.843	4358
305.897	5833
305.898	5850
305.953	5212
305.988	4180
306.008	3595
306.063	2569
306.078	2321
306.118	1797
306.168	1249
306.173	1190
306.228	2128
306.259	1437
306.283	906
306.338	819
306.349	880
306.393	1129
306.440	1418
306.448	1478
306.503	1434
306.530	1594
306.558	1946
306.613	1851
306.620	2115
306.668	3598
306.711	4434
306.723	4556
306.778	4200
306.801	3606
306.833	3008
306.888	2209
306.892	2191
306.943	2049
306.982	1717
306.997	1558
307.052	1207
307.072	1048
307.107	694
307.162	1130
307.163	1128
307.217	1605
307.253	1758
307.272	1731
307.327	2333
307.343	2073
307.381	1583
307.434	2010
307.436	2046
307.491	2682
307.524	3568
307.546	3921
307.600	4305
307.614	3985
307.655	2894
307.704	2091
307.710	2075
307.765	2323
307.795	2439
307.819	2424
307.874	3286
307.885	3307
307.929	3539
307.975	4293
307.984	4507
308.038	5127
308.065	6189
308.093	9919
308.148	18471
308.156	21230
308.202	36046
308.246	45770
308.257	45123
308.312	25639
308.336	17249
308.366	11929
308.421	7195
308.426	6811
308.475	4160
308.517	3257
308.530	3156
308.585	2896
308.607	2907
308.639	2892
308.694	2838
308.697	2835
308.748	2981
308.787	3896
308.803	4251
308.857	3950
308.877	3989
308.912	3974
308.967	4248
308.967	4247
309.021	5159
309.058	6445
309.076	7841
309.130	12020
309.148	14056
309.185	26970
309.238	49879
309.239	50047
309.293	59108
309.328	55411
309.348	48721
309.402	24179
309.418	18170
309.457	12661
309.508	8482
309.511	8332
309.566	7493
309.598	7414
309.620	8043
309.674	10024
309.688	10709
309.729	10861
309.778	9654
309.783	9475
309.837	7298
309.868	5885
309.892	5670
309.946	5979
309.959	6254
310.001	6880
310.049	7061
310.055	6949
310.109	5563
310.139	4590
310.163	3864
310.218	2707
310.229	2531
310.272	2888
310.319	2922
310.326	2821
310.381	2584
310.409	2356
310.435	2524
310.489	2845
310.499	2885
310.543	2738
310.589	2860
310.598	2934
310.652	3046
310.679	3171
310.706	2991
310.760	2402
310.769	2328
310.814	2679
310.859	2912
310.868	2888
310.923	2767
310.948	2762
310.977	2944
311.031	3067
311.038	3097
311.085	2669
311.128	2140
311.139	2265
311.193	2995
311.218	3348
311.247	3519
311.301	3529
311.308	3552
311.356	3313
311.398	2950
311.410	2995
311.464	3290
311.488	3356
311.518	3231
311.572	3010
311.578	2973
311.626	3100
311.668	3270
311.680	3393
311.734	3797
311.758	3978
311.788	3568
311.842	2818
311.847	2732
311.896	3201
311.937	3601
311.950	3622
312.004	3690
312.027	3709
312.058	3627
312.112	3465
312.117	3444
312.165	3729
312.207	3964
312.297	2816
312.386	2294
312.476	3452
312.566	4068
312.656	3802
312.745	3001
312.835	3180
312.925	2795
313.015	4083
313.104	3351
313.194	5138
313.284	3392
313.374	3728
313.463	4316
313.553	5047
313.643	4572
313.732	5038
313.822	4470
313.912	5871
314.001	5912
314.091	5088
314.180	4915
314.270	6477
314.360	5874
314.449	5688
314.539	4895
314.628	5996
314.718	5626
314.808	5896
314.897	5960
314.987	6298
315.076	6546
315.166	6585
315.255	6194
315.345	6181
315.434	6517
315.524	5893
315.613	5753
315.703	7038
315.792	12346
315.881	28969
315.971	11559
316.060	7924
316.150	6619
316.239	6089
316.328	5911
316.418	6483
316.507	6173
316.597	7348
316.686	7429
316.775	7459
316.865	6571
316.954	6926
317.043	5579
317.133	6417
317.222	4955
317.311	4839
317.400	3569
317.490	5767
317.579	5145
317.668	5259
317.757	7246
317.847	17118
317.936	44766
318.025	16504
318.114	14325
318.203	8502
318.293	7566
318.382	10510
318.471	11075
318.560	11145
318.649	12851
318.738	6576
318.828	5530
318.917	4191
319.006	4791
319.095	5232
319.184	12072
319.273	7494
319.362	5641
319.451	4514
319.540	4111
319.629	4986
319.718	5124
319.807	5733
319.896	6416
319.985	14888
320.074	7244
320.163	4748
320.252	4969
320.341	6037
320.430	6340
320.519	5973
320.608	6588
320.697	7541
320.786	8132
320.875	9224
320.964	9078
321.053	10284
321.142	11672
321.230	12319
321.319	12442
321.408	14042
321.497	13324
321.586	12521
321.675	11065
321.764	10510
321.852	11337
321.941	11222
322.030	11098
322.119	12780
322.207	14314
322.296	16379
322.385	16587
322.474	16488
322.562	18312
322.651	15051
322.740	11972
322.829	10746
322.917	9898
323.006	9178
323.095	8557
323.183	8041
323.272	8149
323.361	8598
323.449	10370
323.538	7495
323.626	8460
323.715	7132
323.804	6571
323.892	7991
323.981	6107
324.069	5927
324.158	6855
324.246	6203
324.335	6330
324.424	6138
324.512	5644
324.601	5366
324.689	6045
324.778	7134
324.866	5288
324.954	5682
325.043	5074
325.131	4415
325.220	6160
325.308	5341
325.397	6108
325.485	5422
325.574	4221
325.662	5310
325.750	4033
325.839	5661
325.927	5156
326.015	4930
326.104	4631
326.192	4700
326.280	4662
326.369	4231
326.457	5030
326.545	5322
326.634	4072
326.722	5198
326.810	4703
326.898	6603
326.987	6631
327.075	4949
327.163	5679
327.251	5655
327.340	5586
327.428	7800
327.516	8085
327.604	7568
327.692	5982
327.781	5532
327.869	4653
327.957	4859
328.045	4673
328.133	4446
328.221	4105
328.309	4906
328.397	4611
328.485	5782
328.574	7310
328.662	11200
328.750	7356
328.838	6529
328.926	6194
329.014	5478
329.102	4717
329.190	6050
329.278	5180
329.366	4763
329.454	4721
329.542	4852
329.630	4093
329.718	5159
329.806	4444
329.893	4563
329.981	3952
330.069	5481
330.157	6261
330.245	8521
330.333	6438
330.421	4813
330.509	4957
330.597	6245
330.684	5059
330.772	4749
330.860	4849
330.948	5456
331.036	4709
331.123	4196
331.211	5135
331.299	5108
331.387	5406
331.475	5914
331.562	5201
331.650	5248
331.738	5395
331.825	5334
331.913	4506
332.001	5381
332.089	4693
332.176	4897
332.264	5386
332.352	5796
332.439	4871
332.527	5113
332.614	4859
332.702	5592
332.790	5925
332.877	6209
332.965	6009
333.052	6577
333.140	6272
333.228	7805
333.315	5557
333.403	5503
333.490	6454
333.578	6540
333.665	9882
333.753	8237
333.840	7521
333.928	8528
334.015	9586
334.103	12927
334.190	20764
334.278	18897
334.365	21693
334.452	21937
334.540	16880
334.627	17671
334.715	21149
334.802	28710
334.889	41758
334.977	47670
335.064	31662
335.151	19780
335.239	15229
335.326	12861
335.413	18280
335.501	20171
335.588	13810
335.675	15513
335.762	19012
335.850	25638
335.937	33740
336.024	48268
336.111	66469
336.199	56025
336.286	31215
336.373	20695
336.460	14278
336.547	12176
336.635	11165
336.722	9142
336.809	8554
336.896	8843
336.983	9677
337.070	13592
337.157	17762
337.245	10867
337.332	8947
337.419	7698
337.506	7388
337.593	7799
337.680	8454
337.767	12474
337.854	7496
337.941	6824
338.028	6456
338.115	5755
338.202	7228
338.289	6476
338.376	7362
338.463	7001
338.550	8937
338.637	9224
338.724	5769
338.811	6460
338.898	5726
338.984	5562
339.071	5196
339.158	5316
339.245	5220
339.332	5296
339.419	5652
339.506	5570
339.593	4683
339.679	5462
339.766	5116
339.853	5556
339.940	5171
340.027	5121
340.113	5223
340.200	5534
340.287	4262
340.374	4551
340.460	4554
340.547	3418
340.634	6045
340.720	7251
340.807	4809
340.894	5989
340.980	5999
341.067	5498
341.154	5653
341.240	5340
341.327	5921
341.414	5570
341.500	4146
341.587	6486
341.674	5733
341.760	6227
341.847	5106
341.933	4603
342.020	3572
342.106	5953
342.193	5164
342.279	5792
342.366	5253
342.452	5756
342.539	5391
342.625	5603
342.712	6284
342.798	5686
342.885	4907
342.971	4321
343.058	3989
343.144	4539
343.230	5426
343.317	5737
343.403	3865
343.490	4779
343.576	4908
343.662	4663
343.749	4819
343.835	5114
343.921	5002
344.008	12053
344.094	20422
344.180	7242
344.267	5777
344.353	7654
344.439	7850
344.525	5392
344.612	8499
344.698	7461
344.784	5807
344.870	5353
344.957	5032
345.043	5478
345.129	4122
345.215	5088
345.301	5159
345.387	4747
345.474	4470
345.560	5170
345.646	4407
345.732	5278
345.818	4390
345.904	4792
345.990	4785
346.076	4402
346.162	5345
346.249	5236
346.335	3989
346.421	5927
346.507	6240
346.593	9961
346.679	4278
346.765	6450
346.851	8410
346.937	7359
347.023	6532
347.108	4738
347.194	4838
347.280	5605
347.366	7005
347.452	15297
347.538	22543
347.624	14606
347.710	8741
347.796	5493
347.882	5934
347.967	4958
348.053	5332
348.139	5359
348.225	4332
348.311	5274
348.397	5239
348.482	6310
348.568	6304
348.654	8176
348.740	20550
348.825	24109
348.911	11861
348.997	9672
349.083	12272
349.168	5889
349.254	5250
349.340	6015
349.425	5529
349.511	5443
349.597	5701
349.682	6176
349.768	8755
349.854	6087
349.939	6102
350.025	5711
350.110	5753
350.196	5458
350.282	4559
350.367	5174
350.453	5323
350.538	5755
350.624	4427
350.709	6053
350.795	5050
350.880	5042
350.966	5756
351.051	5648
351.137	5053
351.222	5605
351.308	6291
351.393	6723
351.479	4977
351.564	5095
351.649	5391
351.735	4984
351.820	4849
351.906	4412
351.991	4591
352.076	6424
352.162	6703
352.247	4907
352.332	5552
352.418	5160
352.503	5196
352.588	8592
352.673	6602
352.759	5059
352.844	4844
352.929	5512
353.014	4616
353.100	5083
353.185	5358
353.270	5358
353.355	5433
353.441	5428
353.526	3759
353.611	5367
353.696	4987
353.781	4965
353.866	3628
353.952	5645
354.037	3762
354.122	6894
354.207	5161
354.292	5773
354.377	4726
354.462	5100
354.547	4435
354.632	5353
354.717	5389
354.802	4520
354.887	4870
354.972	6021
355.057	4751
355.142	4390
355.227	5715
355.312	6414
355.397	4980
355.482	6536
355.567	5474
355.652	6682
355.737	5682
355.822	9196
355.907	6688
355.991	5954
356.076	4823
356.161	5079
356.246	4609
356.331	5861
356.416	5987
356.501	14177
356.585	11594
356.670	5649
356.755	8278
356.840	6684
356.924	10042
357.009	21636
357.094	10887
357.179	6031
357.263	5961
357.348	6603
357.433	5867
357.517	6502
357.602	5867
357.687	6028
357.771	6873
357.856	9152
357.941	6486
358.025	9743
358.110	25946
358.195	13300
358.279	5765
358.364	6794
358.448	7742
358.533	13386
358.617	8474
358.702	10426
358.787	5958
358.871	6350
358.956	6428
359.040	6139
359.125	5574
359.209	5466
359.294	7481
359.378	9953
359.462	9217
359.547	6021
359.631	5748
359.716	5569
359.800	5371
359.885	7258
359.969	4363
360.053	6670
360.138	5323
360.222	6442
360.306	5425
360.391	6361
360.475	6837
360.559	8456
360.644	7475
360.728	6200
360.812	10081
360.896	17929
360.981	9125
361.065	7220
361.149	7771
361.233	7415
361.318	6276
361.402	6926
361.486	7698
361.570	7278
361.654	8189
361.739	8528
361.823	15169
361.907	21229
361.991	11968
362.075	12905
362.159	16328
362.243	30460
362.327	58222
362.411	75619
362.495	34975
362.580	20555
362.664	20260
362.748	22194
362.832	33182
362.916	62689
363.000	133093
363.084	157662
363.168	77763
363.252	31779
363.336	19680
363.420	16926
363.503	20578
363.587	20546
363.671	12684
363.755	13078
363.839	15975
363.923	16038
364.007	20168
364.091	26312
364.175	41086
364.258	87879
364.342	153876
364.426	208417
364.510	123906
364.594	53519
364.677	29320
364.761	26887
364.845	20274
364.929	13022
365.013	11101
365.096	10628
365.180	8961
365.264	11771
365.347	22242
365.431	11928
365.515	7155
365.598	6886
365.682	9484
365.766	7070
365.849	7819
365.933	7351
366.017	9093
366.100	7841
366.184	6761
366.267	9187
366.351	8092
366.435	7551
366.518	7412
366.602	7085
366.685	7788
366.769	6864
366.852	7991
366.936	7998
367.019	7424
367.103	7620
367.186	8609
367.270	6741
367.353	6677
367.436	8348
367.520	8269
367.603	8769
367.687	7114
367.770	7901
367.853	8190
367.937	10810
368.020	11845
368.104	6174
368.187	7700
368.270	7650
368.353	5890
368.437	6661
368.520	7494
368.603	6952
368.687	7585
368.770	11732
368.853	6133
368.936	6703
369.020	6816
369.103	6715
369.186	5460
369.269	5597
369.352	6921
369.436	6708
369.519	5941
369.602	5132
369.685	7296
369.768	5364
369.851	6839
369.934	5246
370.018	5519
370.101	4719
370.184	7985
370.267	7489
370.350	6945
370.433	6888
370.516	13535
370.599	22780
370.682	10550
370.765	9494
370.848	10733
370.931	12936
371.014	8722
371.097	5345
371.180	6577
371.263	6870
371.346	4695
371.429	7395
371.511	5865
371.594	5735
371.677	7538
371.760	8666
371.843	6904
371.926	13976
372.009	21658
372.091	14028
372.174	8875
372.257	13685
372.340	9377
372.423	8305
372.505	8897
372.588	6603
372.671	9150
372.754	12690
372.836	8823
372.919	10620
373.002	12802
373.085	7930
373.167	8483
373.250	8934
373.332	13456
373.415	18724
373.498	27154
373.580	16223
373.663	30344
373.746	33730
373.828	11427
373.911	8870
373.993	8796
374.076	13023
374.159	12022
374.241	8786
374.324	12101
374.406	11670
374.489	13134
374.571	24791
374.654	12909
374.736	10624
374.819	17701
374.901	23777
374.983	22080
375.066	10706
375.148	8835
375.231	13775
375.313	18743
375.395	11093
375.478	9555
375.560	9676
375.643	8043
375.725	10802
375.807	20795
375.890	17164
375.972	7191
376.054	8830
376.136	8351
376.219	7988
376.301	11217
376.383	17664
376.465	10706
376.548	7158
376.630	8397
376.712	15502
376.794	9357
376.877	6901
376.959	5689
377.041	6585
377.123	6614
377.205	7252
377.287	6505
377.369	7179
377.452	6735
377.534	7477
377.616	7210
377.698	7281
377.780	6026
377.862	7349
377.944	8254
378.026	6227
378.108	7200
378.190	6803
378.272	7161
378.354	6941
378.436	5890
378.518	6072
378.600	7528
378.682	7756
378.764	9340
378.846	8028
378.928	6186
379.010	6723
379.091	6639
379.173	6595
379.255	5084
379.337	5810
379.419	7308
379.501	12034
379.583	7574
379.664	6059
379.746	5590
379.828	10275
379.910	9774
379.991	10561
380.073	5261
380.155	6713
380.237	5558
380.318	5279
380.400	6140
380.482	6252
380.564	5855
380.645	6186
380.727	6383
380.809	7171
380.890	5838
380.972	4695
381.053	5382
381.135	7595
381.217	6408
381.298	10620
381.380	6563
381.461	6777
381.543	14031
381.624	16415
381.706	7584
381.787	6489
381.869	7503
381.951	10057
382.032	21814
382.113	17780
382.195	6360
382.276	8590
382.358	9345
382.439	14538
382.521	17744
382.602	22982
382.684	14157
382.765	19226
382.846	26274
382.928	44097
383.009	27262
383.090	25502
383.172	67421
383.253	86641
383.334	33020
383.416	24590
383.497	15804
383.578	15116
383.659	22735
383.741	64751
383.822	128882
383.903	65741
383.984	22872
384.066	25732
384.147	15976
384.228	11640
384.309	10715
384.390	11093
384.471	11834
384.553	10430
384.634	9599
384.715	9374
384.796	8361
384.877	8532
384.958	11529
385.039	10285
385.120	8717
385.201	9287
385.282	8306
385.363	9480
385.444	9028
385.525	10677
385.606	15813
385.687	15098
385.768	11102
385.849	10624
385.930	16990
386.011	23226
386.092	11610
386.173	11085
386.254	10375
386.335	10785
386.416	10251
386.496	11692
386.577	12686
386.658	11083
386.739	8578
386.820	11258
386.901	9626
386.981	12246
387.062	11250
387.143	12917
387.224	15886
387.304	17859
387.385	15732
387.466	14162
387.547	15912
387.627	15813
387.708	17141
387.789	22318
387.869	22997
387.950	16785
388.031	12310
388.111	10535
388.192	13777
388.273	14019
388.353	11448
388.434	10282
388.514	9605
388.595	17306
388.676	17110
388.756	12560
388.837	11955
388.917	9693
388.998	7271
389.078	9163
389.159	8704
389.239	7100
389.320	9770
389.400	6861
389.480	9162
389.561	12182
389.641	10641
389.722	9124
389.802	8247
389.883	11016
389.963	13763
390.043	11589
390.124	8114
390.204	9755
390.284	10831
390.365	8890
390.445	12037
390.525	14807
390.605	12956
390.686	9765
390.766	9420
390.846	9240
390.927	8170
391.007	7553
391.087	8834
391.167	8911
391.247	7381
391.328	9606
391.408	10491
391.488	10018
391.568	7602
391.648	9867
391.728	10724
391.808	10986
391.888	10683
391.969	12868
392.049	13699
392.129	14468
392.209	13449
392.289	18434
392.369	16151
392.449	16360
392.529	15484
392.609	17986
392.689	20214
392.769	26473
392.849	29023
392.929	35077
393.009	47877
393.089	64070
393.169	105011
393.248	206585
393.328	325881
393.408	318544
393.488	203883
393.568	102836
393.648	57783
393.728	39902
393.807	28886
393.887	25123
393.967	20972
394.047	18019
394.127	16062
394.206	17057
394.286	27467
394.366	81815
394.446	88083
394.525	25715
394.605	13290
394.685	13533
394.764	15775
394.844	27233
394.924	34063
395.003	17060
395.083	11606
395.163	10671
395.242	9575
395.322	10691
395.402	8448
395.481	12483
395.561	14427
395.640	38154
395.720	71811
395.799	45551
395.879	21024
395.958	17297
396.038	33371
396.117	104137
396.197	113941
396.276	40172
396.356	23386
396.435	25448
396.515	30595
396.594	42821
396.673	80753
396.753	182537
396.832	298536
396.912	246384
396.991	112092
397.070	54287
397.150	33120
397.229	31288
397.308	52941
397.388	98184
397.467	54379
397.546	20798
397.625	13069
397.705	14990
397.784	11483
397.863	11489
397.942	10875
398.022	10185
398.101	10358
398.180	15751
398.259	11382
398.338	10235
398.417	7894
398.497	7996
398.576	8928
398.655	7005
398.734	8040
398.813	7663
398.892	8925
398.971	14752
399.050	10295
399.129	6446
399.208	7214
399.287	7997
399.366	6952
399.445	6105
399.524	6720
399.603	5610
399.682	6532
399.761	8638
399.840	15466
399.919	13328
399.998	6600
400.077	5139
400.156	5252
400.235	8200
400.313	5706
400.392	5097
400.471	7669
400.550	8409
400.629	5499
400.708	6376
400.786	4831
400.865	6311
400.944	4571
401.023	7634
401.102	4417
401.180	5119
401.259	4748
401.338	5062
401.416	5118
401.495	3984
401.574	6245
401.652	4840
401.731	5431
401.810	3813
401.888	4903
401.967	4582
402.046	5752
402.124	5629
402.203	4090
402.281	6081
402.360	3841
402.438	6725
402.517	4009
402.596	6026
402.674	4426
402.753	5157
402.831	6027
402.910	6200
402.988	5199
403.066	8505
403.145	7590
403.223	6570
403.302	8404
403.380	8294
403.459	7006
403.537	6270
403.615	5242
403.694	4125
403.772	6022
403.850	5860
403.929	4987
404.007	4587
404.085	6709
404.164	5161
404.242	6303
404.320	12561
404.398	27420
404.477	23460
404.555	20932
404.633	19136
404.711	21315
404.789	16546
404.868	6527
404.946	4465
405.024	4116
405.102	5580
405.180	4135
405.258	3446
405.336	4979
405.415	3421
405.493	4619
405.571	5080
405.649	3587
405.727	3821
405.805	6286
405.883	4824
405.961	5959
406.039	3868
406.117	3908
406.195	5181
406.273	5434
406.351	12868
406.429	9702
406.507	4162
406.585	4352
406.663	4856
406.740	4061
406.818	4021
406.896	4581
406.974	6212
407.052	3252
407.130	9764
407.208	10714
407.285	7183
407.363	3909
407.441	5456
407.519	4657
407.596	5283
407.674	11675
407.752	37826
407.830	29663
407.907	8840
407.985	3803
408.063	4634
408.141	4090
408.218	5430
408.296	3917
408.373	5008
408.451	6298
408.529	5647
408.606	5356
408.684	7011
408.762	6404
408.839	7685
408.917	6443
408.994	7809
409.072	8234
409.149	9900
409.227	14625
409.304	18980
409.382	21742
409.459	23329
409.537	29859
409.614	29797
409.692	24696
409.769	24505
409.846	30093
409.924	38125
410.001	28968
410.079	23684
410.156	19137
410.233	14370
410.311	13031
410.388	11149
410.465	10538
410.543	8877
410.620	10337
410.697	9145
410.775	8324
410.852	7327
410.929	8967
411.006	9536
411.083	7795
411.161	8572
411.238	8700
411.315	8143
411.392	7366
411.469	7740
411.547	7245
411.624	5199
411.701	5694
411.778	6483
411.855	6771
411.932	5568
412.009	6120
412.086	5360
412.163	5553
412.240	5430
412.317	6129
412.394	6091
412.471	5692
412.548	4758
412.625	5375
412.702	5896
412.779	4993
412.856	5705
412.933	4303
413.010	5130
413.087	4449
413.164	6078
413.241	7547
413.318	4427
413.395	5535
413.471	5196
413.548	4239
413.625	5126
413.702	3580
413.779	4243
413.855	4496
413.932	3652
414.009	3540
414.086	4300
414.162	4543
414.239	5053
414.316	6185
414.393	8044
414.469	4230
414.546	3706
414.623	3726
414.699	3989
414.776	3837
414.853	3955
414.929	4704
415.006	3758
415.082	4096
415.159	4427
415.236	4047
415.312	4307
415.389	3995
415.465	4398
415.542	4383
415.618	3138
415.695	4164
415.771	3652
415.848	3602
415.924	4225
416.000	3104
416.077	5385
416.153	3174
416.230	3117
416.306	3553
416.383	3671
416.459	4448
416.535	2919
416.612	3540
416.688	4413
416.764	3504
416.841	4045
416.917	4092
416.993	4549
417.069	4005
417.146	4173
417.222	3863
417.298	4569
417.374	2675
417.451	4313
417.527	3863
417.603	3427
417.679	3749
417.755	4731
417.831	3336
417.908	4565
417.984	3859
418.060	3137
418.136	5378
418.212	4096
418.288	4270
418.364	4931
418.440	3738
418.516	4617
418.592	4930
418.668	4989
418.744	4549
418.820	5089
418.896	4585
418.972	4240
419.048	4615
419.124	6440
419.200	3695
419.276	5810
419.352	5063
419.428	5460
419.504	4962
419.579	5548
419.655	5685
419.731	6083
419.807	6844
419.883	7079
419.959	6406
420.034	7411
420.110	6573
420.186	8831
420.262	10032
420.337	8331
420.413	7597
420.489	9949
420.565	10153
420.640	9835
420.716	11117
420.792	10993
420.867	11770
420.943	11627
421.019	13180
421.094	13533
421.170	14565
421.245	15805
421.321	17212
421.397	18945
421.472	26257
421.548	41014
421.623	34152
421.699	28127
421.774	31265
421.850	34405
421.925	40544
422.001	47200
422.076	58009
422.152	70043
422.227	88125
422.302	113620
422.378	146977
422.453	184130
422.529	197274
422.604	155472
422.679	109784
422.755	150769
422.830	195027
422.905	183651
422.981	150732
423.056	119734
423.131	96535
423.207	76078
423.282	62764
423.357	52554
423.432	43610
423.508	38965
423.583	33124
423.658	30421
423.733	26185
423.808	24765
423.883	23952
423.959	23589
424.034	24851
424.109	22477
424.184	18401
424.259	16675
424.334	14393
424.409	13855
424.484	12862
424.559	12767
424.634	11702
424.709	10333
424.784	10121
424.859	10056
424.934	8709
425.009	10495
425.084	10751
425.159	8541
425.234	7737
425.309	7935
425.384	8153
425.459	8071
425.534	7856
425.609	6432
425.683	5851
425.758	7015
425.833	6943
425.908	6746
425.983	5527
426.058	8532
426.132	5614
426.207	5224
426.282	6662
426.357	4801
426.431	5101
426.506	6400
426.581	4843
426.655	5754
426.730	4702
426.805	4280
426.879	5335
426.954	5192
427.029	4417
427.103	8526
427.178	11782
427.253	7811
427.327	4709
427.402	4961
427.476	5140
427.551	5359
427.625	5121
427.700	4591
427.774	4501
427.849	5939
427.923	4445
427.998	6113
428.072	6260
428.147	13624
428.221	39407
428.296	100757
428.370	60919
428.444	14133
428.519	7638
428.593	7896
428.667	6942
428.742	9531
428.816	17797
428.890	65608
428.965	94060
429.039	31279
429.113	9678
429.188	6464
429.262	4709
429.336	5481
429.410	5345
429.485	6080
429.559	5979
429.633	6604
429.707	7856
429.781	16657
429.855	61845
429.930	86997
430.004	31864
430.078	25778
430.152	54752
430.226	129877
430.300	128102
430.374	42975
430.448	16606
430.522	12392
430.596	16784
430.670	28076
430.744	80263
430.818	86698
430.892	21789
430.966	7021
431.040	5702
431.114	3763
431.188	4035
431.262	3511
431.336	3037
431.410	4592
431.484	4486
431.557	6489
431.631	5202
431.705	10157
431.779	32074
431.853	98193
431.927	68361
432.000	15287
432.074	5888
432.148	4376
432.222	3376
432.295	3674
432.369	3178
432.443	2494
432.516	5378
432.590	10434
432.664	5291
432.737	2466
432.811	2199
432.885	2465
432.958	2649
433.032	1765
433.106	1906
433.179	2356
433.253	1795
433.326	2415
433.400	2080
433.473	2257
433.547	1317
433.620	2565
433.694	2038
433.767	2301
433.841	2398
433.914	2866
433.988	2267
434.061	2512
434.134	2563
434.208	2510
434.281	2064
434.355	2342
434.428	2700
434.501	2006
434.575	1506
434.648	1956
434.721	1828
434.795	1577
434.868	2113
434.941	2185
435.014	2935
435.088	3000
435.161	3519
435.234	4093
435.307	5172
435.381	6482
435.454	7696
435.527	11442
435.600	14971
435.673	15068
435.746	11774
435.819	9375
435.892	7155
435.966	5683
436.039	4811
436.112	5730
436.185	3119
436.258	3788
436.331	2619
436.404	3289
436.477	2842
436.550	2943
436.623	2893
436.696	3083
436.769	2171
436.842	2398
436.915	2655
436.987	2945
437.060	2362
437.133	1752
437.206	2612
437.279	2202
437.352	1903
437.425	2282
437.498	1866
437.570	2555
437.643	1727
437.716	2723
437.789	1789
437.861	2245
437.934	1984
438.007	1934
438.080	1559
438.152	2246
438.225	3211
438.298	7473
438.370	18453
438.443	8959
438.516	3069
438.588	2358
438.661	1447
438.734	2171
438.806	2486
438.879	2986
438.951	1846
439.024	2706
439.096	1913
439.169	1806
439.241	1604
439.314	2765
439.386	1419
439.459	2354
439.531	2096
439.604	1891
439.676	2311
439.749	2414
439.821	1070
439.893	3230
439.966	1722
440.038	2374
440.110	2369
440.183	2125
440.255	2199
440.327	2636
440.400	4035
440.472	8941
440.544	7784
440.617	3070
440.689	4052
440.761	2478
440.833	3079
440.905	2660
440.978	2362
441.050	2028
441.122	2928
441.194	2186
441.266	2674
441.338	2640
441.411	2440
441.483	5107
441.555	5793
441.627	3772
441.699	3260
441.771	3469
441.843	2992
441.915	3995
441.987	3597
442.059	3666
442.131	5243
442.203	5619
442.275	7596
442.347	12166
442.419	27560
442.491	88596
442.563	161853
442.635	81587
442.706	22823
442.778	12664
442.850	8245
442.922	7236
442.994	7353
443.066	8495
443.137	10882
443.209	13310
443.281	20292
443.353	40930
443.425	104489
443.496	215465
443.568	236233
443.640	122454
443.711	37935
443.783	18272
443.855	11191
443.926	8417
443.998	7240
444.070	6968
444.141	5776
444.213	4481
444.285	5410
444.356	5317
444.428	4719
444.499	4927
444.571	4334
444.642	5066
444.714	5619
444.785	6063
444.857	6778
444.928	8598
445.000	8876
445.071	11027
445.143	14788
445.214	20755
445.285	34241
445.357	74667
445.428	170098
445.500	244914
445.571	235405
445.642	173165
445.714	74170
445.785	29349
445.856	14783
445.928	10205
445.999	8403
446.070	6555
446.141	6092
446.213	5705
446.284	3157
446.355	4657
446.426	2905
446.497	2677
446.569	2086
446.640	3401
446.711	3037
446.782	3245
446.853	3557
446.924	2913
446.995	2230
447.066	2169
447.138	2355
447.209	2137
447.280	1587
447.351	1344
447.422	1097
447.493	1893
447.564	1321
447.635	1448
447.706	1448
447.777	1104
447.847	1241
447.918	1037
447.989	1783
448.060	2662
448.131	1860
448.202	2118
448.273	1869
448.344	1827
448.414	1075
448.485	1082
448.556	726
448.627	722
448.698	1677
448.768	927
448.839	603
448.910	1869
448.981	1919
449.051	940
449.122	1010
449.193	1279
449.263	906
449.334	395
449.405	1266
449.475	2019
449.546	2288
449.616	2713
449.687	1818
449.758	1749
449.828	406
449.899	1325
449.969	936
450.040	837
450.110	1358
450.181	1433
450.251	654
450.322	1487
450.392	918
450.463	1244
450.533	1247
450.604	1395
450.674	1186
450.744	1130
450.815	1357
450.885	2671
450.955	1864
451.026	2161
451.096	1948
451.166	1917
451.237	2630
451.307	4371
451.377	3432
451.447	2529
451.518	1922
451.588	699
451.658	458
451.728	2707
451.799	2318
451.869	3747
451.939	1714
452.009	1574
452.079	1097
452.149	2641
452.219	1791
452.289	3601
452.360	3463
452.430	2467
452.500	3957
452.570	5932
452.640	13016
452.710	28469
452.780	34630
452.850	21093
452.920	10430
452.990	6627
453.060	4360
453.129	3397
453.199	2570
453.269	5595
453.339	9444
453.409	13341
453.479	10146
453.549	15426
453.619	15731
453.688	7611
453.758	1344
453.828	2332
453.898	1307
453.968	640
454.037	1229
454.087	1689
454.107	1868
454.168	700
454.177	506
454.247	1087
454.249	1074
454.316	302
454.330	409
454.386	772
454.411	1028
454.456	1269
454.492	2146
454.525	2937
454.574	2428
454.595	2197
454.655	847
454.665	613
454.734	1995
454.736	2025
454.804	2095
454.817	2444
454.873	3529
454.898	3781
454.943	4158
454.979	2638
455.013	1272
455.060	1272
455.082	1320
455.141	1585
455.152	1610
455.221	3531
455.222	3596
455.291	5009
455.303	5081
455.360	5100
455.384	5990
455.430	6960
455.465	6203
455.499	5565
455.546	4230
455.569	3529
455.627	3382
455.638	3373
455.707	1884
455.708	1901
455.777	1996
455.789	1947
455.846	1429
455.869	1590
455.916	1912
455.950	1953
455.985	2019
456.031	1775
456.054	1628
456.112	2125
456.124	2201
456.193	1817
456.193	1798
456.262	1788
456.274	2003
456.332	2652
456.355	2392
456.401	2015
456.436	2295
456.470	2396
456.516	2098
456.540	2030
456.597	2101
456.609	2052
456.678	3015
456.678	3002
456.747	3123
456.759	3007
456.817	2452
456.840	2694
456.886	3008
456.920	3208
456.955	3390
457.001	3112
457.024	3000
457.082	3515
457.093	3580
457.162	3681
457.163	3701
457.232	3724
457.243	3766
457.301	3889
457.324	3944
457.370	3974
457.405	4251
457.439	4636
457.485	4697
457.508	4780
457.566	5876
457.577	6294
457.646	8894
457.647	8972
457.715	20644
457.727	23178
457.784	38651
457.808	50121
457.853	64178
457.889	75813
457.922	76878
457.969	54213
457.991	53718
458.050	61469
458.060	63171
458.129	103769
458.130	105046
458.198	110960
458.211	101904
458.267	60549
458.292	42865
458.336	28025
458.372	25946
458.405	33591
458.453	48903
458.474	60220
458.533	104071
458.543	107354
458.611	162247
458.614	163236
458.680	112227
458.694	92075
458.749	45307
458.775	32105
458.818	18920
458.855	14347
458.887	11678
458.936	9407
458.955	8626
459.016	7471
459.024	7428
459.093	7319
459.097	7320
459.162	6328
459.177	6282
459.230	6385
459.257	6290
459.299	6148
459.338	6124
459.368	6089
459.418	5794
459.437	5524
459.499	5050
459.505	5070
459.574	5410
459.579	5427
459.643	5086
459.659	5055
459.711	4896
459.740	4819
459.780	4908
459.820	5141
459.849	5343
459.900	5588
459.917	5606
459.981	5503
459.986	5441
460.054	5429
460.061	5373
460.123	5355
460.141	5341
460.191	5584
460.222	6072
460.260	6414
460.302	6146
460.328	5962
460.382	6376
460.397	6601
460.462	7466
460.465	7722
460.534	13551
460.543	14382
460.602	34814
460.623	42770
460.671	63546
460.703	83865
460.739	77305
460.783	60172
460.808	50903
460.864	14191
460.876	11043
460.944	6912
460.945	6860
461.013	6344
461.024	6167
461.081	5147
461.104	5155
461.150	5667
461.184	5643
461.218	5401
461.264	5080
461.286	5079
461.345	5562
461.355	5571
461.423	5169
461.425	5165
461.491	5355
461.505	5502
461.559	7007
461.585	7422
461.628	8624
461.665	10139
461.696	10634
461.745	11493
461.764	10549
461.825	6644
461.832	6602
461.901	5808
461.905	5830
461.969	5657
461.985	5445
462.037	5897
462.065	6471
462.105	6279
462.145	5816
462.173	6699
462.225	8469
462.241	8692
462.305	9274
462.310	9114
462.378	7304
462.385	7007
462.446	6610
462.465	6580
462.514	5992
462.545	5509
462.582	5403
462.625	5500
462.650	5613
462.705	5702
462.718	5735
462.785	6190
462.786	6204
462.854	6620
462.865	6720
462.922	6956
462.945	6931
462.990	6660
463.025	6551
463.058	6166
463.104	5664
463.126	5702
463.184	5701
463.194	5827
463.262	6508
463.264	6541
463.330	6366
463.344	6264
463.398	6793
463.424	7046
463.466	6727
463.504	6571
463.533	6663
463.583	6538
463.601	6518
463.663	6439
463.669	6422
463.737	6638
463.743	6619
463.805	8218
463.823	8710
463.873	10990
463.903	12331
463.940	12476
463.982	12879
464.008	11293
464.062	7449
464.076	7361
464.142	6880
464.144	6864
464.211	5736
464.221	5671
464.279	6300
464.301	6403
464.347	6502
464.381	6641
464.414	6759
464.461	6856
464.482	6986
464.540	7323
464.550	7329
464.617	7176
464.620	7171
464.685	7135
464.699	7027
464.753	7832
464.779	8320
464.820	8519
464.859	8742
464.888	8241
464.938	7248
464.956	7464
465.018	8168
465.023	8141
465.091	7693
465.098	7619
465.158	7755
465.177	7895
465.226	7870
465.257	7654
465.293	7309
465.336	6922
465.361	7147
465.416	7662
465.428	8128
465.495	10663
465.496	10693
465.563	12604
465.575	12960
465.631	14530
465.654	15197
465.698	11412
465.734	8125
465.765	8158
465.813	8091
465.833	8146
465.893	8430
465.900	8337
465.968	7358
465.972	7279
466.035	7878
466.052	8026
466.102	8162
466.131	8226
466.170	7903
466.210	7491
466.237	7563
466.290	7674
466.304	7759
466.369	8055
466.372	8095
466.439	8909
466.449	9002
466.506	8925
466.528	8877
466.573	10479
466.607	11635
466.641	13431
466.687	15947
466.708	17233
466.766	20650
466.775	19454
466.842	10196
466.845	9737
466.909	8650
466.925	8379
466.977	9632
467.004	10297
467.044	9940
467.083	9559
467.111	10017
467.163	10777
467.178	10832
467.242	11006
467.245	10991
467.312	10265
467.321	10152
467.379	10565
467.400	10685
467.446	10901
467.480	11022
467.559	11803
467.638	9805
467.717	11094
467.796	12230
467.875	11988
467.955	12032
468.034	15911
468.113	24336
468.192	31836
468.271	19714
468.350	25628
468.429	32079
468.508	34057
468.588	23349
468.667	17490
468.746	14089
468.825	12944
468.904	11343
468.983	12759
469.062	12935
469.141	14085
469.220	11481
469.299	11473
469.378	9898
469.456	11741
469.535	11204
469.614	10464
469.693	10615
469.772	12178
469.851	13679
469.930	11441
470.009	10242
470.088	10545
470.166	12282
470.245	14390
470.324	14962
470.403	12956
470.482	11305
470.560	10224
470.639	10872
470.718	11339
470.797	10514
470.875	10731
470.954	11991
471.033	12229
471.111	10312
471.190	10345
471.269	9540
471.347	9215
471.426	10045
471.505	9673
471.583	10612
471.662	10009
471.740	9931
471.819	10267
471.898	9994
471.976	10703
472.055	10096
472.133	12723
472.212	13996
472.290	11925
472.369	9543
472.447	10191
472.526	10055
472.604	9992
472.683	10475
472.761	10078
472.839	10388
472.918	11291
472.996	10394
473.075	11086
473.153	10859
473.231	10426
473.310	10866
473.388	10519
473.466	10199
473.545	10676
473.623	11454
473.701	11025
473.780	11354
473.858	8638
473.936	12378
474.014	11384
474.093	12553
474.171	15620
474.249	14755
474.327	12126
474.405	10127
474.484	11476
474.562	10173
474.640	10631
474.718	10587
474.796	10811
474.874	9997
474.952	9031
475.030	9325
475.108	10057
475.187	9838
475.265	10291
475.343	10944
475.421	11219
475.499	9131
475.577	11247
475.655	11234
475.733	13791
475.811	18924
475.889	17683
475.966	14198
476.044	10320
476.122	9564
476.200	9394
476.278	8854
476.356	9621
476.434	10262
476.512	10425
476.590	10223
476.667	10813
476.745	9457
476.823	10305
476.901	10464
476.979	10111
477.056	10484
477.134	10960
477.212	10393
477.290	10560
477.367	8876
477.445	10333
477.523	10908
477.601	9548
477.678	10292
477.756	10435
477.834	11248
477.911	9439
477.989	10765
478.066	10082
478.144	9425
478.222	9588
478.299	11431
478.377	11386
478.454	12165
478.532	10573
478.609	9220
478.687	11213
478.764	9968
478.842	11401
478.919	11107
478.997	11031
479.074	9673
479.152	10467
479.229	11895
479.307	10839
479.384	10456
479.461	10474
479.539	9871
479.616	10688
479.694	10245
479.771	10657
479.848	10561
479.926	10980
480.003	12212
480.080	11292
480.157	10162
480.235	9755
480.312	10097
480.389	10691
480.467	12902
480.544	13498
480.621	12471
480.698	12410
480.775	12675
480.853	11643
480.930	11171
481.007	10893
481.084	16258
481.161	20676
481.238	15879
481.315	10493
481.392	11016
481.470	10971
481.547	11694
481.624	10998
481.701	10416
481.778	11638
481.855	12877
481.932	14786
482.009	17330
482.086	14996
482.163	13976
482.240	15512
482.317	15897
482.393	15007
482.470	13762
482.547	14249
482.624	13122
482.701	13533
482.778	12070
482.855	12548
482.932	12685
483.009	13534
483.085	16385
483.162	20471
483.239	20364
483.316	16437
483.393	16658
483.469	15151
483.546	14052
483.623	14825
483.699	12343
483.776	11850
483.853	12437
483.930	14483
484.006	20958
484.083	27032
484.160	18243
484.236	22487
484.313	19778
484.389	18110
484.466	19718
484.543	21085
484.619	25095
484.696	27117
484.772	21346
484.849	19261
484.925	16181
485.002	15495
485.078	16038
485.155	16146
485.231	14704
485.308	14320
485.384	14839
485.461	16421
485.537	19507
485.614	21623
485.690	14311
485.766	13944
485.843	13797
485.919	15416
485.995	14919
486.072	14254
486.148	13044
486.224	12846
486.301	13864
486.377	14734
486.453	13964
486.530	15713
486.606	17237
486.682	18002
486.758	19620
486.835	20706
486.911	19922
486.987	25411
487.063	22130
487.139	26592
487.215	27898
487.292	27055
487.368	25865
487.444	30344
487.520	41289
487.596	61008
487.672	132364
487.748	375536
487.824	573705
487.900	245878
487.976	76087
488.052	41225
488.128	31043
488.204	24072
488.280	20930
488.356	20497
488.432	25284
488.508	29168
488.584	17353
488.660	15930
488.736	15013
488.812	15471
488.888	15738
488.964	16548
489.039	20732
489.115	26097
489.191	20881
489.267	15202
489.343	14129
489.418	13808
489.494	13456
489.570	12711
489.646	14946
489.722	13477
489.797	13480
489.873	17040
489.949	23112
490.024	19199
490.100	12403
490.176	13189
490.251	14233
490.327	15063
490.403	12074
490.478	13093
490.554	11909
490.629	12714
490.705	13166
490.781	13760
490.856	13160
490.932	14111
491.007	13453
491.083	12572
491.158	12203
491.234	14339
491.309	18883
491.385	18220
491.460	11902
491.536	13047
491.611	12572
491.686	12842
491.762	12790
491.837	15974
491.913	19881
491.988	24785
492.063	26380
492.139	15725
492.214	12797
492.289	11769
492.365	10782
492.440	11248
492.515	10913
492.590	12690
492.666	11784
492.741	12877
492.816	14463
492.891	10905
492.967	11808
493.042	12462
493.117	11156
493.192	11223
493.267	15161
493.342	26655
493.418	30656
493.493	12439
493.568	11232
493.643	11254
493.718	12093
493.793	12255
493.868	12929
493.943	11808
494.018	11510
494.093	10626
494.168	12333
494.243	11205
494.318	11041
494.393	10999
494.468	11186
494.543	11154
494.618	10890
494.693	11680
494.768	11368
494.842	11468
494.917	11886
494.992	10738
495.067	11216
495.142	10937
495.217	11442
495.292	11783
495.366	11749
495.441	10392
495.516	13058
495.591	14160
495.665	23388
495.740	39060
495.815	20962
495.890	12520
495.964	10894
496.039	14127
496.114	15342
496.188	21746
496.263	17640
496.338	13527
496.412	12139
496.487	13167
496.561	12783
496.636	13235
496.710	12519
496.785	13674
496.860	13387
496.934	10552
497.009	10751
497.083	11539
497.158	11542
497.232	12560
497.307	13193
497.381	12601
497.455	12775
497.530	13913
497.604	11717
497.679	12650
497.753	14013
497.827	15855
497.902	13694
497.976	17070
498.050	37122
498.125	118782
498.199	101423
498.273	16847
498.348	13341
498.422	13202
498.496	13007
498.570	14844
498.645	12430
498.719	11117
498.793	13911
498.867	17422
498.941	20873
499.016	53344
499.090	121110
499.164	38601
499.238	13421
499.312	13540
499.386	12883
499.460	13703
499.534	13585
499.609	14740
499.683	16238
499.757	16137
499.831	28996
499.905	82418
499.979	66352
500.053	17026
500.127	16229
500.201	12634
500.275	13133
500.349	12779
500.422	13280
500.496	14361
500.570	21583
500.644	49406
500.718	76237
500.792	20915
500.866	12436
500.940	14515
501.013	12905
501.087	12465
501.161	15038
501.235	16516
501.309	32050
501.382	69205
501.456	53241
501.530	20241
501.603	26138
501.677	15259
501.751	10118
501.825	14333
501.898	16530
501.972	31223
502.046	20065
502.119	11963
502.193	18389
502.266	31765
502.340	17729
502.413	19617
502.487	27575
502.561	18065
502.634	12771
502.708	11762
502.781	11118
502.855	12932
502.928	11022
503.002	11782
503.075	10834
503.149	11302
503.222	12002
503.295	12049
503.369	13992
503.442	14864
503.516	29650
503.589	54200
503.662	37271
503.736	25106
503.809	39195
503.882	40827
503.956	64339
504.029	99545
504.102	222827
504.175	322617
504.249	156971
504.322	64512
504.395	37298
504.468	25690
504.542	19227
504.615	15143
504.688	15051
504.761	12355
504.834	13503
504.907	12492
504.980	13699
505.053	11425
505.127	10082
505.200	14487
505.273	12082
505.346	10569
505.419	9216
505.492	11159
505.565	10032
505.638	9937
505.711	9021
505.784	8987
505.857	9159
505.930	10758
506.003	8256
506.076	12236
506.149	9616
506.221	9146
506.294	11436
506.367	15245
506.440	38403
506.513	20608
506.586	11103
506.659	9263
506.731	8745
506.804	8159
506.877	9602
506.950	9442
507.022	9818
507.095	7978
507.168	10664
507.241	9570
507.313	8101
507.386	7428
507.459	10269
507.531	8894
507.604	7700
507.677	9934
507.749	7501
507.822	10711
507.894	11363
507.967	12458
508.040	9728
508.112	10597
508.185	9771
508.257	8187
508.330	11932
508.402	10265
508.475	9792
508.547	10116
508.620	9490
508.692	12199
508.765	10527
508.837	8751
508.909	10268
508.982	10391
509.054	10248
509.127	9484
509.199	9191
509.271	9370
509.344	8786
509.416	9458
509.488	10514
509.560	9588
509.633	10104
509.705	10645
509.777	9998
509.849	11368
509.922	10114
509.994	10257
510.066	11268
510.138	9153
510.210	14570
510.283	12092
510.355	11448
510.427	11248
510.499	10364
510.571	10267
510.643	9344
510.715	12277
510.787	8991
510.859	11871
510.931	10905
511.003	11486
511.076	11515
511.148	10389
511.219	10551
511.291	13684
511.363	13323
511.435	11299
511.507	9738
511.579	11012
511.651	11111
511.723	9944
511.795	10342
511.867	9421
511.939	11080
512.010	13249
512.082	12599
512.154	9122
512.226	9471
512.298	12498
512.369	13011
512.441	12150
512.513	11699
512.585	9632
512.656	11727
512.728	9841
512.800	10478
512.871	10350
512.943	10185
513.015	9573
513.086	10713
513.158	10370
513.230	9907
513.301	11283
513.373	10755
513.444	10485
513.516	9365
513.588	10504
513.659	10427
513.731	9933
513.802	9095
513.874	13878
513.945	13862
514.016	9546
514.088	9718
514.159	9708
514.231	11638
514.302	13137
514.374	11503
514.445	10372
514.516	15919
514.588	11802
514.659	11236
514.730	13712
514.802	12271
514.873	9035
514.944	12698
515.016	11831
515.087	11143
515.158	13000
515.229	14755
515.301	10573
515.372	12418
515.443	9878
515.514	10370
515.585	10098
515.656	11795
515.728	11899
515.799	10753
515.870	11744
515.941	13152
516.012	10739
516.083	13415
516.154	12630
516.225	14581
516.296	14720
516.367	14358
516.438	15222
516.509	17707
516.580	23293
516.651	57357
516.722	155651
516.793	65093
516.864	22225
516.935	20677
517.006	21988
517.077	27780
517.148	56523
517.219	217940
517.289	303956
517.360	71936
517.431	26538
517.502	16644
517.573	17215
517.643	16296
517.714	16903
517.785	17315
517.856	19896
517.926	23031
517.997	25552
518.068	27662
518.138	34342
518.209	49600
518.280	161497
518.350	506597
518.421	192793
518.492	49055
518.562	47456
518.633	60258
518.703	88121
518.774	186435
518.845	421981
518.915	398858
518.986	145637
519.056	64763
519.127	45860
519.197	39529
519.268	54804
519.338	38073
519.408	21819
519.479	19233
519.549	17828
519.620	17575
519.690	14740
519.760	14573
519.831	14142
519.901	13566
519.971	14098
520.042	14993
520.112	14540
520.182	14812
520.253	14677
520.323	13066
520.393	13488
520.463	16466
520.534	11013
520.604	19331
520.674	14855
520.744	14411
520.814	17592
520.885	18708
520.955	22651
521.025	49080
521.095	21028
521.165	14195
521.235	12256
521.305	11934
521.375	12760
521.445	13553
521.515	13148
521.585	15150
521.655	13587
521.725	13791
521.795	13869
521.865	10613
521.935	15427
522.005	13142
522.075	11948
522.145	14352
522.215	13920
522.285	16481
522.355	16292
522.424	21374
522.494	17427
522.564	15305
522.634	15995
522.704	27079
522.774	15823
522.843	13711
522.913	14526
522.983	14208
523.053	13339
523.122	14495
523.192	14065
523.262	18744
523.331	17630
523.401	14089
523.471	12263
523.540	13236
523.610	12036
523.680	13682
523.749	14613
523.819	17740
523.888	16399
523.958	14363
524.027	13471
524.097	13684
524.166	13638
524.236	12675
524.305	15285
524.375	13029
524.444	12478
524.514	16162
524.583	14585
524.653	13772
524.722	16772
524.791	13174
524.861	16464
524.930	13463
524.999	14334
525.069	16331
525.138	15658
525.207	16156
525.277	18170
525.346	17731
525.415	19198
525.484	20471
525.554	22318
525.623	26540
525.692	31944
525.761	34975
525.830	40838
525.900	49858
525.969	78084
526.038	146890
526.107	300371
526.176	787871
526.245	648487
526.314	214764
526.383	402885
526.452	570178
526.522	738231
526.591	678864
526.660	154406
526.729	79577
526.797	83202
526.867	124952
526.935	350715
527.004	1037382
527.073	681246
527.142	135571
527.211	55824
527.280	39152
527.349	29303
527.418	23121
527.487	23046
527.555	18983
527.624	17868
527.693	16286
527.762	18696
527.831	17264
527.899	17159
527.968	15712
528.037	14160
528.106	15318
528.174	15867
528.243	16355
528.312	16927
528.380	15869
528.449	14397
528.518	16385
528.586	13503
528.655	15883
528.723	15169
528.792	14765
528.861	15275
528.929	14338
528.998	17877
529.066	24677
529.135	41762
529.203	40047
529.272	51462
529.340	67593
529.409	60932
529.477	56071
529.545	54355
529.614	59280
529.682	67934
529.751	75220
529.819	78888
529.887	91607
529.956	85227
530.024	80993
530.092	74143
530.161	74113
530.229	73641
530.297	83367
530.365	81947
530.434	86418
530.502	91687
530.570	81277
530.638	71681
530.707	68379
530.775	64306
530.843	63962
530.911	74542
530.979	72524
531.047	84395
531.115	81755
531.183	74100
531.252	69526
531.320	68203
531.388	66072
531.456	75016
531.524	81322
531.592	83409
531.660	95257
531.728	86815
531.796	81615
531.864	82739
531.932	80386
532.000	80491
532.067	87713
532.135	93270
532.203	95905
532.271	102092
532.339	99016
532.407	99732
532.475	93665
532.542	90950
532.610	89508
532.678	95055
532.746	111310
532.814	125721
532.881	108219
532.949	96709
533.017	91910
533.084	89282
533.152	85298
533.220	82828
533.287	84053
533.355	90673
533.423	90916
533.490	94441
533.558	88479
533.625	85625
533.693	80979
533.761	79708
533.828	79077
533.896	78674
533.963	88092
534.031	88657
534.098	94391
534.166	89213
534.233	83511
534.300	83890
534.368	80873
534.435	78604
534.503	77938
534.570	82440
534.637	85236
534.705	92671
534.772	99248
534.840	134654
534.907	389277
534.974	474213
535.041	117337
535.109	75482
535.176	68149
535.243	70444
535.310	68587
535.378	69704
535.445	65589
535.512	62409
535.579	60112
535.646	57364
535.714	57345
535.781	57754
535.848	60651
535.915	64602
535.982	63403
536.049	62844
536.116	59521
536.183	55906
536.250	52463
536.317	51839
536.384	51529
536.451	52324
536.518	53416
536.585	52626
536.652	57189
536.719	55602
536.786	49306
536.853	47550
536.920	49616
536.987	47763
537.053	47425
537.120	60216
537.187	59405
537.254	50321
537.321	50082
537.388	49934
537.454	46604
537.521	45286
537.588	45058
537.654	43270
537.721	44802
537.788	44629
537.855	44550
537.921	46664
537.988	44062
538.055	43862
538.121	40298
538.188	39913
538.254	39587
538.321	39664
538.388	39585
538.454	42506
538.521	43404
538.587	43445
538.654	42921
538.720	42635
538.787	41305
538.853	41072
538.920	40244
538.986	36781
539.053	36151
539.119	36761
539.185	36877
539.252	39864
539.318	41291
539.385	43143
539.451	39570
539.517	39887
539.583	39119
539.650	39984
539.716	44868
539.782	37217
539.849	35239
539.915	35700
539.981	35179
540.047	36519
540.114	36484
540.180	37594
540.246	36681
540.312	39420
540.378	38178
540.444	38495
540.510	39832
540.576	47298
540.643	37087
540.709	33806
540.775	35701
540.841	35429
540.907	35189
540.973	35659
541.039	35015
541.105	34853
541.171	34788
541.237	36189
541.303	36060
541.369	37853
541.435	36635
541.500	37273
541.566	31973
541.632	32318
541.698	33801
541.764	34511
541.830	33465
541.896	32863
541.961	33567
542.027	31425
542.093	34911
542.159	37123
542.224	32888
542.290	35171
542.356	34364
542.421	34961
542.487	32469
542.553	31495
542.618	32296
542.684	32149
542.750	32224
542.815	34260
542.881	35341
542.947	43522
543.012	42137
543.078	32730
543.143	30949
543.209	31819
543.274	31242
543.340	32727
543.405	35357
543.471	38133
543.536	33969
543.602	33357
543.667	31542
543.732	35047
543.798	33954
543.863	33548
543.928	33583
543.994	33476
544.059	34464
544.124	33599
544.190	34778
544.255	35049
544.320	35367
544.386	35263
544.451	37612
544.516	37252
544.581	36586
544.646	41499
544.712	46021
544.777	38097
544.842	36451
544.907	36288
544.972	37099
545.037	38033
545.102	38598
545.168	39369
545.233	41492
545.298	41751
545.363	39555
545.428	43177
545.493	44161
545.558	47441
545.623	43801
545.688	42196
545.753	43417
545.818	44458
545.883	46882
545.947	47702
546.012	50028
546.077	50222
546.142	53282
546.207	53280
546.272	57041
546.337	59250
546.401	59423
546.466	61601
546.531	63639
546.596	69561
546.661	71572
546.725	73816
546.790	77831
546.855	84054
546.919	91701
546.984	101345
547.049	106881
547.113	120808
547.178	134661
547.243	151362
547.307	170357
547.372	190790
547.436	194303
547.501	198777
547.565	216075
547.630	199827
547.695	192186
547.759	192719
547.823	195168
547.888	195683
547.952	202186
548.017	208837
548.081	219960
548.146	215484
548.210	217523
548.274	233189
548.339	232714
548.403	211127
548.468	200910
548.532	196602
548.596	202807
548.660	203742
548.725	217900
548.789	236302
548.853	230972
548.917	222875
548.982	215928
549.046	197969
549.110	179208
549.174	182165
549.238	210694
549.303	230772
549.367	237610
549.431	227538
549.495	212940
549.559	212661
549.623	239695
549.687	265148
549.751	256795
549.815	299559
549.879	311466
549.943	296587
550.007	307337
550.071	306757
550.135	278729
550.199	265922
550.263	264347
550.327	250018
550.391	254513
550.455	278396
550.519	292602
550.582	306982
550.646	343974
550.710	350803
550.774	345320
550.838	347933
550.901	358587
550.965	375960
551.029	389580
551.093	415327
551.156	446055
551.220	482209
551.284	487151
551.347	413845
551.411	382961
551.475	365250
551.538	370041
551.602	351342
551.666	332209
551.729	316144
551.793	306388
551.856	305068
551.920	298257
551.983	297846
552.047	292547
552.110	296648
552.174	296973
552.237	307114
552.301	288903
552.364	275447
552.428	268054
552.491	274321
552.554	282242
552.618	279332
552.681	284905
552.745	271779
552.808	284003
552.871	297302
552.934	291011
552.998	282324
553.061	275324
553.124	266486
553.187	264775
553.251	272470
553.314	272176
553.377	275831
553.440	292276
553.503	307860
553.567	315310
553.630	294420
553.693	289654
553.756	292129
553.819	287317
553.882	276983
553.945	274102
554.008	277629
554.071	278771
554.134	282900
554.197	268876
554.260	260802
554.323	264071
554.386	267780
554.449	279043
554.512	279678
554.575	267952
554.638	264939
554.701	263431
554.764	265547
554.827	253051
554.889	245379
554.952	234130
555.015	228211
555.078	231785
555.141	233940
555.203	230558
555.266	230100
555.329	229070
555.391	218387
555.454	218435
555.517	211635
555.580	203972
555.642	198408
555.705	197034
555.768	194279
555.830	188996
555.893	180170
555.955	176423
556.018	175053
556.080	174356
556.143	179184
556.206	177299
556.268	173273
556.330	170526
556.393	166771
556.455	162247
556.518	159553
556.580	154104
556.643	148480
556.705	146185
556.767	144694
556.830	143374
556.892	141026
556.955	138610
557.017	132724
557.079	133376
557.142	129590
557.204	129053
557.266	128533
557.328	121207
557.391	114430
557.453	111791
557.515	111808
557.577	113045
557.639	112810
557.701	113817
557.764	113337
557.826	114519
557.888	115482
557.950	119450
558.012	127882
558.074	156383
558.136	286173
558.198	595585
558.260	263596
558.322	126699
558.384	120189
558.446	122433
558.508	128977
558.570	139412
558.632	158206
558.694	197740
558.756	311548
558.818	738141
558.880	1294638
558.942	676234
559.003	648252
559.065	352630
559.127	155709
559.189	142960
559.251	156790
559.312	207524
559.374	431044
559.436	1027836
559.498	582554
559.559	184878
559.621	142252
559.683	157817
559.744	237895
559.806	605380
559.868	820775
559.929	253802
559.991	161458
560.052	232256
560.114	565695
560.176	397276
560.237	348897
560.299	528785
560.360	157110
560.422	72995
560.483	63956
560.545	59629
560.606	58067
560.667	55692
560.729	53207
560.790	52817
560.852	50533
560.913	49919
560.974	47647
561.036	47830
561.097	49046
561.158	46573
561.220	46051
561.281	45688
561.342	43457
561.403	43990
561.465	44162
561.526	46477
561.587	47624
561.648	41533
561.709	40771
561.771	40471
561.832	40220
561.893	39038
561.954	39519
562.015	38509
562.076	38379
562.137	37361
562.198	38210
562.259	37777
562.320	37891
562.381	39298
562.442	38686
562.503	36207
562.564	36436
562.625	36395
562.686	35407
562.747	35560
562.808	35781
562.869	35355
562.930	35505
562.991	33550
563.051	33165
563.112	33140
563.173	34586
563.234	33356
563.294	33527
563.355	32438
563.416	31736
563.477	32049
563.537	33408
563.598	31955
563.659	32389
563.720	31861
563.780	32306
563.841	31665
563.901	32141
563.962	31680
564.023	31211
564.083	30763
564.144	31009
564.204	30023
564.265	31118
564.325	30278
564.386	33595
564.446	32144
564.507	31031
564.567	28930
564.628	30440
564.688	29253
564.749	29689
564.809	31879
564.869	31099
564.930	29042
564.990	29271
565.050	28864
565.111	29032
565.171	29029
565.231	29329
565.292	29605
565.352	28069
565.412	29043
565.472	29364
565.532	28427
565.593	28146
565.653	28574
565.713	28843
565.773	29755
565.833	29282
565.893	31222
565.953	28817
566.013	27405
566.074	27998
566.134	28150
566.194	29173
566.254	30270
566.314	27979
566.374	26860
566.434	27355
566.494	27969
566.554	26756
566.614	28184
566.673	28713
566.733	29099
566.793	29068
566.853	27805
566.913	28512
566.973	29235
567.033	28873
567.092	28368
567.152	28293
567.212	29708
567.272	29195
567.331	30328
567.391	30371
567.451	30946
567.511	31713
567.570	30799
567.630	30174
567.690	29018
567.749	28526
567.809	29811
567.868	28889
567.928	27848
567.988	28731
568.047	29468
568.107	28979
568.166	30055
568.226	29004
568.285	30338
568.345	30991
568.404	30511
568.464	30607
568.523	28692
568.582	30538
568.642	29662
568.701	29710
568.761	28492
568.820	29668
568.879	30485
568.939	31137
568.998	29270
569.057	29104
569.116	29738
569.176	29164
569.235	28599
569.294	28705
569.353	27270
569.413	28126
569.472	28091
569.531	26967
569.590	26970
569.649	27533
569.708	27358
569.767	27454
569.827	29342
569.886	27566
569.945	26626
570.004	28965
570.063	27817
570.122	28439
570.181	28710
570.240	29238
570.299	29419
570.358	28628
570.417	27850
570.475	29339
570.534	28836
570.593	29486
570.652	30279
570.711	28934
570.770	28957
570.829	27832
570.887	28445
570.946	30031
571.005	28422
571.064	28199
571.122	28974
571.181	28737
571.240	28145
571.299	28818
571.357	27292
571.416	26970
571.475	27030
571.533	29060
571.592	29817
571.650	30689
571.709	29409
571.768	31611
571.826	32783
571.885	31055
571.943	29767
572.002	28579
572.060	28904
572.119	26834
572.177	27870
572.236	27939
572.294	27493
572.352	28819
572.411	28846
572.469	28594
572.528	27967
572.586	27119
572.644	26668
572.703	28414
572.761	26003
572.819	25295
572.877	24730
572.936	25644
572.994	24306
573.052	24141
573.110	25817
573.169	26401
573.227	26331
573.285	26089
573.343	25940
573.401	26102
573.459	25684
573.517	26300
573.576	26784
573.634	25820
573.692	25120
573.750	26006
573.808	25527
573.866	26066
573.924	26227
573.982	24940
574.040	24333
574.098	24550
574.155	23645
574.213	24800
574.271	24596
574.329	26800
574.387	23528
574.445	24308
574.503	23331
574.560	23185
574.618	22914
574.676	23138
574.734	24158
574.792	23539
574.849	22795
574.907	21377
574.965	20227
575.022	20829
575.080	20804
575.138	21277
575.195	20614
575.253	19700
575.311	19526
575.368	20914
575.426	19966
575.483	21456
575.541	22569
575.598	20488
575.656	20075
575.713	21257
575.771	22196
575.828	21316
575.886	19789
575.943	20660
576.001	19516
576.058	19882
576.115	19106
576.173	20380
576.230	20963
576.287	21471
576.345	21260
576.402	21063
576.459	20628
576.517	20643
576.574	20164
576.631	18813
576.688	20141
576.746	18593
576.803	18854
576.860	18435
576.917	19246
576.974	19883
577.031	19441
577.089	19134
577.146	18273
577.203	19039
577.260	19419
577.317	18762
577.374	18921
577.431	19835
577.488	18996
577.545	18942
577.602	19195
577.659	19727
577.716	18328
577.773	19590
577.830	19528
577.886	19942
577.943	19497
578.000	18650
578.057	19742
578.114	21323
578.171	22196
578.227	26086
578.284	26701
578.341	21973
578.398	20693
578.454	20793
578.511	19338
578.568	20710
578.625	19775
578.681	19881
578.738	19193
578.794	18966
578.851	18889
578.908	19314
578.964	19431
579.021	19930
579.077	18840
579.134	19465
579.190	20362
579.247	20813
579.303	19981
579.360	19825
579.416	19613
579.473	21311
579.529	21265
579.586	20648
579.642	20988
579.698	21059
579.755	22284
579.811	22172
579.867	21897
579.924	22436
579.980	23322
580.036	25782
580.093	29097
580.149	33760
580.205	37710
580.261	31166
580.317	28085
580.374	26867
580.430	25591
580.486	25448
580.542	24483
580.598	25328
580.619	25425
580.654	25618
580.692	25857
580.710	26010
580.765	27128
580.767	27185
580.823	27296
580.838	27059
580.879	26474
580.911	26825
580.935	27139
580.984	26913
580.991	26900
581.047	28502
581.057	28538
581.103	28876
581.130	28754
581.159	28624
581.203	30339
581.215	30817
581.270	30253
581.276	30125
581.326	29038
581.349	28906
581.382	28736
581.422	28840
581.438	28918
581.494	29241
581.494	29224
581.550	28658
581.567	29062
581.606	29965
581.640	29950
581.661	29993
581.713	31207
581.717	31302
581.773	29887
581.786	30268
581.829	31696
581.859	31760
581.885	31765
581.932	31719
581.940	31737
581.996	32515
582.004	32630
582.052	33193
582.077	33183
582.107	33303
582.150	33065
582.163	32930
582.219	33917
582.223	33924
582.274	34275
582.296	34420
582.330	34669
582.368	35441
582.386	35857
582.441	36965
582.441	36967
582.497	37234
582.514	37151
582.552	37467
582.587	37930
582.608	38093
582.659	38733
582.663	38791
582.719	39973
582.732	40196
582.774	40967
582.805	41697
582.830	42493
582.877	45517
582.885	46039
582.941	49871
582.950	50562
582.996	54723
583.023	59203
583.052	63829
583.095	64757
583.107	64735
583.162	61891
583.168	61661
583.218	58820
583.240	56402
583.273	53001
583.313	50044
583.328	48989
583.384	46888
583.385	46799
583.439	44433
583.458	44131
583.494	43592
583.531	42504
583.549	42132
583.603	41737
583.605	41711
583.660	40884
583.676	41124
583.715	42055
583.748	41328
583.770	40741
583.820	41122
583.825	41181
583.881	42204
583.893	41987
583.936	41073
583.965	41181
583.991	41557
584.038	43204
584.046	43404
584.101	41635
584.110	41987
584.156	44475
584.183	45028
584.211	45161
584.255	43556
584.266	43336
584.321	46592
584.328	46659
584.376	47086
584.400	47398
584.431	47571
584.472	47719
584.486	47876
584.541	51117
584.545	51102
584.596	51434
584.617	51758
584.651	52009
584.689	52762
584.706	53233
584.761	55428
584.762	55418
584.816	55690
584.834	55903
584.871	56425
584.906	57049
584.926	57405
584.978	58290
584.980	58355
585.035	59549
585.051	60108
585.090	61676
585.123	63144
585.145	64199
585.195	65644
585.200	65917
585.254	69875
585.267	71195
585.309	76046
585.340	79807
585.364	83283
585.412	92781
585.419	94540
585.473	111707
585.484	116611
585.528	144691
585.556	172201
585.583	220089
585.628	329621
585.637	366522
585.692	677953
585.700	728886
585.747	913450
585.772	820397
585.801	582905
585.845	280625
585.856	235125
585.910	136442
585.917	127196
585.965	102910
585.989	94471
586.019	88849
586.061	83335
586.074	81974
586.128	76325
586.133	75787
586.183	71615
586.205	70002
586.237	67781
586.277	64892
586.292	64334
586.346	63154
586.349	63043
586.401	61033
586.421	59883
586.455	58958
586.493	58863
586.509	58955
586.564	57889
586.565	57863
586.618	61462
586.637	62375
586.672	64223
586.709	66629
586.727	68233
586.781	72952
586.781	73012
586.835	64367
586.853	61853
586.889	58137
586.925	55096
586.944	54133
586.996	53366
586.998	53444
587.052	53102
587.068	53077
587.106	53176
587.140	52635
587.161	52516
587.212	52447
587.215	52506
587.269	52932
587.284	52968
587.323	54308
587.356	55264
587.377	55366
587.427	55082
587.431	55217
587.485	56713
587.499	56758
587.539	56902
587.571	57384
587.593	58679
587.643	62041
587.648	62246
587.702	61734
587.715	61635
587.755	62201
587.786	62553
587.810	62611
587.858	62590
587.864	62842
587.917	64141
587.930	64348
587.971	64731
588.001	64790
588.025	64849
588.073	64997
588.079	65195
588.133	65363
588.145	65386
588.187	66115
588.217	66689
588.241	67971
588.288	70123
588.295	70478
588.348	72514
588.360	72829
588.402	74387
588.431	74949
588.456	76177
588.503	79188
588.510	80080
588.564	86547
588.575	87822
588.617	92761
588.646	96191
588.671	100884
588.718	111044
588.725	114202
588.778	140383
588.789	146724
588.832	208129
588.861	255395
588.886	343269
588.932	529089
588.939	543663
588.993	623670
589.004	622131
589.047	396667
589.075	253856
589.100	200747
589.147	125264
589.154	122795
589.207	107130
589.218	104223
589.261	103636
589.290	103962
589.314	107479
589.361	115408
589.368	119246
589.421	152082
589.433	160160
589.475	252545
589.504	324537
589.528	404110
589.576	561813
589.582	546649
589.635	331299
589.647	285656
589.689	174822
589.718	108723
589.742	99817
589.790	84993
589.795	84707
589.849	81040
589.861	80097
589.902	78212
589.932	76568
589.955	75479
590.004	72586
590.009	72694
590.062	72578
590.075	72353
590.115	71709
590.146	71143
590.168	71708
590.218	72001
590.222	72185
590.275	72997
590.289	73055
590.328	74432
590.360	74848
590.381	75032
590.431	75281
590.435	75535
590.488	76699
590.503	76905
590.541	77743
590.574	77958
590.594	78916
590.645	80867
590.647	81134
590.700	83185
590.716	83460
590.753	84665
590.787	85574
590.806	86399
590.859	87867
590.859	88114
590.912	89839
590.930	90307
590.965	91246
591.001	91548
591.018	91670
591.071	91192
591.072	90955
591.124	89724
591.143	89043
591.177	90571
591.214	91571
591.230	91822
591.283	92329
591.285	92100
591.336	92895
591.356	92861
591.389	92451
591.427	91459
591.442	91412
591.495	90376
591.498	90074
591.547	91949
591.569	92412
591.600	93994
591.640	95581
591.653	96156
591.706	97470
591.711	97343
591.759	100006
591.782	101088
591.811	103291
591.853	105612
591.864	105850
591.917	105619
591.924	105297
591.969	105702
591.995	105447
592.022	106039
592.066	106329
592.075	107202
592.127	110833
592.137	111201
592.180	113554
592.208	114540
592.233	115417
592.279	116175
592.285	116896
592.338	120280
592.350	120701
592.390	120311
592.421	119458
592.443	120468
592.491	121590
592.495	122103
592.548	124442
592.562	124735
592.600	124783
592.633	124167
592.653	125006
592.704	125567
592.705	126327
592.775	128163
592.846	133236
592.916	132217
592.987	134822
593.058	137117
593.128	139177
593.199	138460
593.270	140922
593.341	144159
593.411	149897
593.482	153370
593.553	155309
593.623	157331
593.694	159830
593.764	164448
593.835	162087
593.906	163723
593.976	165474
594.047	170814
594.117	179421
594.188	183648
594.258	180090
594.329	181886
594.399	185816
594.470	192502
594.540	195352
594.611	201851
594.681	200277
594.751	201108
594.822	206284
594.892	214304
594.963	221046
595.033	225556
595.103	232719
595.174	232828
595.244	240229
595.314	249727
595.384	252685
595.455	259621
595.525	263427
595.595	276549
595.665	275539
595.736	271744
595.806	276659
595.876	282205
595.946	283153
596.016	293662
596.087	303143
596.157	304045
596.227	305018
596.297	323814
596.367	339028
596.437	358317
596.507	358193
596.577	356614
596.647	368620
596.717	383142
596.787	390958
596.857	386764
596.927	391038
596.997	395384
597.067	399561
597.137	405566
597.207	406763
597.277	410935
597.347	398033
597.417	390888
597.487	390340
597.557	401101
597.626	409541
597.696	412552
597.766	411297
597.836	393851
597.906	379672
597.975	375045
598.045	381946
598.115	399088
598.185	422952
598.254	463241
598.324	490577
598.394	502934
598.464	491383
598.533	485298
598.603	463734
598.672	450618
598.742	462142
598.812	462786
598.881	478398
598.951	478463
599.020	484154
599.090	502990
599.159	507834
599.229	494530
599.299	488627
599.368	502124
599.437	495929
599.507	471258
599.576	465038
599.646	463204
599.715	459462
599.785	462147
599.854	453066
599.924	453156
599.993	453159
600.062	466327
600.132	476309
600.201	500911
600.270	553757
600.340	576996
600.409	570253
600.478	570435
600.547	579857
600.617	544556
600.686	485686
600.755	464558
600.824	450682
600.894	452104
600.963	456268
601.032	458911
601.101	455147
601.170	451083
601.239	448773
601.308	454879
601.378	465387
601.447	471136
601.516	478947
601.585	490263
601.654	499812
601.723	506176
601.792	520639
601.861	538339
601.930	554195
601.999	567994
602.068	562350
602.137	568067
602.206	572846
602.275	583153
602.343	584413
602.412	591886
602.481	596003
602.550	597187
602.619	611100
602.688	610729
602.756	617409
602.825	620282
602.894	629435
602.963	629839
603.032	638687
603.100	640294
603.169	632117
603.238	646929
603.307	631375
603.375	634133
603.444	653700
603.513	625149
603.581	639246
603.650	658696
603.719	585439
603.787	581875
603.856	592113
603.924	602130
603.993	617499
604.061	633922
604.130	657333
604.198	664648
604.267	671313
604.335	685670
604.404	686497
604.472	704114
604.541	706724
604.609	721477
604.678	732493
604.746	738702
604.815	763792
604.883	743554
604.951	733716
605.020	753366
605.088	722130
605.156	711902
605.225	714323
605.293	713991
605.361	717446
605.429	713759
605.498	731907
605.566	728203
605.634	760710
605.702	768771
605.771	780008
605.839	790499
605.907	756604
605.975	765155
606.043	737893
606.111	729198
606.180	758576
606.248	713364
606.316	706048
606.384	729957
606.452	650859
606.520	615864
606.588	628797
606.656	632482
606.724	624434
606.792	588763
606.860	541017
606.928	501706
606.996	482629
607.064	478385
607.132	487376
607.200	515588
607.267	529644
607.335	538693
607.403	544542
607.471	530043
607.539	517697
607.607	513796
607.674	464292
607.742	465949
607.810	460831
607.878	459457
607.946	468456
608.013	485650
608.081	496327
608.149	497297
608.216	512101
608.284	523268
608.352	521844
608.419	518830
608.487	509155
608.555	497702
608.622	513071
608.690	537705
608.757	577850
608.825	587299
608.893	572397
608.960	542401
609.028	522055
609.095	523734
609.163	520034
609.230	470304
609.298	436368
609.365	464531
609.432	497792
609.500	536413
609.567	600707
609.635	670133
609.702	691238
609.769	660585
609.837	528326
609.904	466339
609.971	476442
610.039	507544
610.106	588812
610.173	870614
610.241	1483519
610.308	1072078
610.375	604105
610.442	513267
610.509	487197
610.577	484239
610.644	495612
610.711	506967
610.778	519025
610.845	539245
610.912	566823
610.980	584161
611.047	585875
611.114	573529
611.181	562584
611.248	564226
611.315	587086
611.382	601419
611.449	618248
611.516	628194
611.583	621582
611.650	624770
611.717	629226
611.784	641876
611.851	656642
611.918	678152
611.984	744908
612.051	893228
612.118	1276090
612.185	1997256
612.252	1629705
612.319	939281
612.386	802245
612.452	738082
612.519	701109
612.586	690754
612.653	700728
612.719	722175
612.786	693282
612.853	654065
612.919	641179
612.986	648532
613.053	613294
613.120	581320
613.186	566807
613.253	567602
613.319	570693
613.386	572520
613.453	580587
613.519	583440
613.586	572213
613.652	579132
613.719	574924
613.785	583931
613.852	591824
613.918	585767
613.985	588739
614.051	611411
614.118	603817
614.184	583806
614.250	585171
614.317	596097
614.383	588113
614.449	601440
614.516	595612
614.582	599747
614.648	589672
614.715	585062
614.781	570984
614.847	575751
614.914	568218
614.980	557343
615.046	560968
615.112	577381
615.179	573771
615.245	584234
615.311	577515
615.377	582949
615.443	587401
615.509	596379
615.575	611837
615.642	605569
615.708	618459
615.774	638874
615.840	661078
615.906	685639
615.972	759410
616.038	950020
616.104	1439513
616.170	2120894
616.236	1937240
616.302	1170171
616.368	956417
616.434	776729
616.500	713942
616.565	746965
616.631	872963
616.697	784550
616.763	774199
616.829	988122
616.895	1462236
616.961	1442086
617.026	874991
617.092	668674
617.158	625157
617.224	609221
617.289	567774
617.355	548472
617.421	538401
617.487	541414
617.552	515231
617.618	511668
617.684	514123
617.749	517892
617.815	498020
617.880	489435
617.946	487590
618.012	498780
618.077	505819
618.143	487360
618.208	489463
618.274	521109
618.339	516343
618.405	443507
618.470	447328
618.536	439956
618.601	436352
618.667	408834
618.732	391639
618.798	390263
618.863	388585
618.928	391242
618.994	393740
619.059	389015
619.124	394756
619.190	391463
619.255	389733
619.320	391340
619.386	391747
619.451	389296
619.516	378327
619.581	381850
619.647	390578
619.712	391124
619.777	374576
619.842	380836
619.907	386032
619.972	389907
620.038	388518
620.103	379936
620.168	380050
620.233	387611
620.298	388000
620.363	391625
620.428	402286
620.493	413338
620.558	417933
620.623	422521
620.688	420329
620.753	415602
620.818	423841
620.883	425565
620.948	422850
621.013	420139
621.078	412745
621.143	418779
621.207	419319
621.272	413430
621.337	406059
621.402	401351
621.467	400685
621.532	400996
621.596	397440
621.661	391655
621.726	386083
621.791	391971
621.855	392204
621.920	389822
621.985	396641
622.049	399567
622.114	402038
622.179	409965
622.243	413475
622.308	426598
622.373	434277
622.437	428982
622.502	412243
622.566	408035
622.631	407621
622.695	416879
622.760	412825
622.824	411558
622.889	414810
622.953	413609
623.018	431614
623.082	435052
623.147	431808
623.211	424857
623.276	420730
623.340	408733
623.404	402421
623.469	402593
623.533	406573
623.597	395698
623.662	391191
623.726	370920
623.790	353665
623.854	347781
623.919	355026
623.983	356592
624.047	358116
624.111	363990
624.176	368445
624.240	370347
624.304	378866
624.368	368548
624.432	366695
624.496	375346
624.560	388854
624.625	394791
624.689	387209
624.753	404431
624.817	384351
624.881	377379
624.945	348969
625.009	340893
625.073	344039
625.137	352491
625.201	362672
625.265	363352
625.329	353575
625.393	357359
625.456	356106
625.520	365310
625.584	369206
625.648	379707
625.712	385903
625.776	384109
625.839	364487
625.903	316060
625.967	296463
626.031	315024
626.095	360204
626.158	335549
626.222	275253
626.286	256588
626.349	251433
626.413	238660
626.477	233725
626.540	237258
626.604	233968
626.668	232335
626.731	229535
626.795	229223
626.858	228261
626.922	225045
626.986	220832
627.049	223993
627.113	228818
627.176	225991
627.240	217247
627.303	216843
627.366	212319
627.430	215169
627.493	213359
627.557	210694
627.620	214668
627.684	219286
627.747	217497
627.810	201591
627.874	184002
627.937	177727
628.000	183765
628.064	176862
628.127	161000
628.190	156455
628.253	153047
628.317	149022
628.380	142188
628.443	139580
628.506	138820
628.569	133677
628.632	128065
628.696	126885
628.759	125625
628.822	121158
628.885	118313
628.948	117165
629.011	114742
629.074	111851
629.137	109848
629.200	107379
629.263	107433
629.326	105264
629.389	105225
629.452	103200
629.515	101252
629.578	100990
629.641	102312
629.704	102644
629.767	100668
629.830	98209
629.892	95485
629.955	94987
630.018	98474
630.081	95307
630.144	96403
630.207	93181
630.269	94663
630.332	91404
630.395	90309
630.458	88760
630.520	84632
630.583	88649
630.646	88543
630.708	89688
630.771	89755
630.834	94549
630.896	92887
630.959	91553
631.021	90007
631.084	89800
631.146	89311
631.209	90915
631.272	89836
631.334	91761
631.397	91086
631.459	93176
631.522	93751
631.584	96563
631.646	98995
631.709	101043
631.771	99953
631.834	98043
631.896	97235
631.958	91804
632.021	90728
632.083	86464
632.145	86395
632.208	85490
632.270	86296
632.332	86214
632.395	85329
632.457	85705
632.519	82563
632.581	84110
632.643	81987
632.706	84132
632.768	81738
632.830	84704
632.892	85019
632.954	85801
633.016	87948
633.078	84208
633.141	85455
633.203	85680
633.265	84845
633.327	84151
633.389	83382
633.451	85987
633.513	83624
633.575	86566
633.637	85549
633.698	85613
633.760	90646
633.822	92705
633.884	93722
633.946	95011
634.008	96331
634.070	98619
634.132	100593
634.193	106229
634.255	113014
634.317	113077
634.379	111621
634.441	102709
634.502	97373
634.564	93224
634.626	86822
634.687	84452
634.749	80705
634.811	82936
634.873	80434
634.934	80840
634.996	82481
635.057	81425
635.119	82529
635.181	83664
635.242	83560
635.304	82197
635.365	85985
635.427	82087
635.488	82643
635.550	84202
635.611	81970
635.673	81410
635.734	86901
635.796	89917
635.857	96359
635.918	99329
635.980	107266
636.041	110657
636.102	114300
636.164	114200
636.225	111623
636.286	99537
636.348	93794
636.409	87783
636.470	84326
636.531	83859
636.593	80496
636.654	79086
636.715	75958
636.776	77377
636.838	74723
636.899	74691
636.960	73416
637.021	73743
637.082	71974
637.143	71491
637.204	68814
637.265	70052
637.326	71234
637.387	72416
637.448	70666
637.509	71502
637.570	69933
637.631	71289
637.692	68299
637.753	66994
637.814	67342
637.875	67299
637.936	68050
637.997	67382
638.058	66222
638.119	67893
638.179	66940
638.240	67103
638.301	67966
638.362	65080
638.423	64128
638.483	64455
638.544	62966
638.605	65158
638.666	63818
638.726	64590
638.787	63907
638.848	64714
638.908	63434
638.969	61147
639.030	60756
639.090	60337
639.151	61400
639.211	62954
639.272	61527
639.332	63718
639.393	63082
639.453	65029
639.514	66943
639.574	62103
639.635	57892
639.695	59272
639.756	57056
639.816	58009
639.877	58093
639.937	58726
639.997	58434
640.058	56632
640.118	56892
640.178	57998
640.239	56905
640.299	57220
640.359	58691
640.420	62551
640.480	65046
640.540	69648
640.600	71287
640.661	67802
640.721	65035
640.781	70582
640.841	67022
640.901	59851
640.961	58914
641.021	61321
641.082	62100
641.142	58601
641.202	58204
641.262	54938
641.322	56302
641.382	55125
641.442	55573
641.502	54642
641.562	55874
641.622	57668
641.682	59946
641.742	63980
641.802	61337
641.861	57071
641.921	53411
641.981	54666
642.041	52432
642.101	53289
642.161	51677
642.221	53084
642.280	53585
642.340	52233
642.400	53060
642.460	55503
642.519	54088
642.579	54138
642.639	53966
642.698	53609
642.758	57374
642.818	55374
642.877	54936
642.937	55823
642.997	53997
643.056	57004
643.116	53566
643.175	56923
643.235	56422
643.294	58159
643.354	59416
643.414	62780
643.473	68334
643.532	76310
643.592	91081
643.651	124286
643.711	184915
643.770	318566
643.830	657024
643.889	1025644
643.948	406232
644.008	137173
644.067	88999
644.126	72562
644.186	65118
644.245	61131
644.304	56028
644.363	58332
644.423	54034
644.482	55730
644.541	57283
644.600	58691
644.659	67022
644.719	76424
644.778	99384
644.837	150948
644.896	275198
644.955	543280
645.014	210288
645.073	79069
645.132	63355
645.191	61719
645.250	58095
645.309	61457
645.368	63118
645.427	78982
645.486	121216
645.545	190042
645.604	74325
645.663	56502
645.722	54442
645.781	57332
645.840	61192
645.898	70523
645.957	86483
646.016	114511
646.075	174818
646.134	304468
646.192	670201
646.251	828954
646.310	239825
646.369	102391
646.427	84310
646.486	67457
646.545	57109
646.603	53960
646.662	50532
646.721	49625
646.779	48288
646.838	50572
646.896	57878
646.955	70450
647.014	97965
647.072	171351
647.131	400267
647.189	204057
647.248	56998
647.306	48627
647.365	45974
647.423	41041
647.481	43519
647.540	40004
647.598	41532
647.657	40844
647.715	41039
647.773	39630
647.832	39687
647.890	36172
647.948	35716
648.007	37710
648.065	33975
648.123	35130
648.181	36300
648.240	35638
648.298	32778
648.356	34829
648.414	34326
648.472	34278
648.531	32746
648.589	32114
648.647	34026
648.705	33771
648.763	33157
648.821	34126
648.879	33756
648.937	37223
648.995	40696
649.053	47426
649.111	62244
649.169	89095
649.227	141527
649.285	276945
649.343	635196
649.401	333816
649.459	78275
649.516	50041
649.574	42315
649.632	44511
649.690	45889
649.748	53398
649.806	72814
649.863	123798
649.921	302767
649.979	201321
650.037	45540
650.094	32492
650.152	32140
650.210	29536
650.268	29499
650.325	31202
650.383	31890
650.440	26607
650.498	25056
650.556	25807
650.613	24798
650.671	26391
650.728	25433
650.786	27793
650.843	34286
650.901	28272
650.958	23859
651.016	23665
651.073	22510
651.131	22471
651.188	21868
651.246	21691
651.303	20979
651.360	22341
651.418	20598
651.475	21428
651.532	20706
651.590	22160
651.647	20747
651.704	21418
651.762	20611
651.819	21387
651.876	19654
651.933	19851
651.990	20081
652.048	20153
652.105	19526
652.162	20673
652.219	19435
652.276	19411
652.333	19505
652.390	18726
652.448	19338
652.505	19421
652.562	18931
652.619	18987
652.676	18946
652.733	19519
652.790	18130
652.847	17582
652.904	17634
652.961	17330
653.017	16406
653.074	18230
653.131	17901
653.188	17530
653.245	16635
653.302	18155
653.359	17266
653.415	18370
653.472	16557
653.529	17907
653.586	16425
653.642	17435
653.699	17568
653.756	16604
653.813	17758
653.869	18557
653.926	16906
653.983	15810
654.039	17846
654.096	16708
654.152	17552
654.209	15684
654.266	16879
654.322	16414
654.379	16740
654.435	17356
654.492	16258
654.548	17274
654.605	15749
654.661	18955
654.717	17097
654.774	16797
654.830	17253
654.887	17754
654.943	16926
655.000	18787
655.056	17700
655.112	16565
655.168	15803
655.225	17102
655.281	16270
655.337	16584
655.394	16361
655.450	16208
655.506	16258
655.562	17370
655.618	17413
655.675	15543
655.731	15549
655.787	15570
655.843	16268
655.899	15399
655.955	17440
656.011	16844
656.067	15300
656.123	16041
656.179	15322
656.235	16553
656.291	14463
656.347	16889
656.403	15789
656.459	16412
656.515	14988
656.571	16143
656.627	15672
656.683	15660
656.739	15479
656.795	16891
656.850	15242
656.906	16743
656.962	17546
657.018	17921
657.074	20246
657.129	25542
657.185	35697
657.241	71392
657.297	44254
657.352	19089
657.408	15629
657.464	16667
657.519	14083
657.575	15081
657.630	14983
657.686	15277
657.742	14638
657.797	14990
657.853	15069
657.908	15582
657.964	13511
658.019	15573
658.075	13899
658.130	15200
658.186	13604
658.241	15209
658.297	14124
658.352	14608
658.407	13981
658.463	14380
658.518	13885
658.573	14062
658.629	14198
658.684	14657
658.739	14215
658.795	13818
658.850	14175
658.905	13172
658.960	13474
659.016	13109
659.071	13355
659.126	14830
659.181	13430
659.236	15010
659.291	13552
659.346	13681
659.401	13544
659.457	15284
659.512	13505
659.567	14204
659.622	12865
659.677	13454
659.732	12562
659.787	14185
659.842	12859
659.897	14242
659.952	13602
660.007	14000
660.061	12979
660.116	12995
660.171	13315
660.226	13846
660.281	14482
660.336	13740
660.391	13604
660.445	13261
660.500	13425
660.555	13433
660.610	13189
660.664	13922
660.719	12337
660.774	13482
660.828	12170
660.883	13063
660.938	12859
660.992	12026
661.047	13020
661.101	12418
661.156	12806
661.211	13209
661.265	12726
661.320	13049
661.374	12840
661.429	13217
661.483	12924
661.538	12343
661.592	12481
661.647	13799
661.701	15806
661.755	14055
661.810	13169
661.864	13505
661.919	11619
661.973	13097
662.027	12453
662.081	13234
662.136	12314
662.190	12958
662.244	12984
662.299	12785
662.353	13077
662.407	12491
662.461	12029
662.515	12507
662.569	12916
662.624	13287
662.678	11982
662.732	12381
662.786	11933
662.840	12631
662.894	12310
662.948	12476
663.002	12149
663.056	12535
663.110	11637
663.164	12830
663.218	12527
663.272	12693
663.326	12712
663.380	12261
663.434	11915
663.488	12183
663.542	12146
663.595	12367
663.649	11861
663.703	12780
663.757	12046
663.811	12306
663.864	11004
663.918	12361
663.972	11077
664.026	11839
664.079	12000
664.133	12989
664.187	12151
664.240	13055
664.294	12430
664.348	13565
664.401	11933
664.455	12462
664.508	11625
664.562	12596
664.615	11659
664.669	12005
664.722	11690
664.776	11986
664.829	12377
664.883	12854
664.936	11598
664.990	12783
665.043	11931
665.097	12767
665.150	13376
665.203	11905
665.257	12328
665.310	12842
665.363	12823
665.417	13537
665.470	12410
665.523	12580
665.576	12313
665.630	12704
665.683	12021
665.736	13247
665.789	11162
665.842	12304
665.895	12367
665.949	12953
666.002	13115
666.055	13572
666.108	12621
666.161	12710
666.214	13210
666.267	13847
666.320	13010
666.373	13566
666.426	12844
666.479	13668
666.532	12587
666.585	14623
666.638	13787
666.691	13927
666.744	13561
666.796	13422
666.849	12832
666.902	14144
666.955	13257
667.008	13181
667.060	13905
667.113	13447
667.166	14374
667.219	15311
667.271	15069
667.324	15471
667.377	13839
667.430	13308
667.482	13971
667.535	14682
667.587	12814
667.640	13580
667.693	13468
667.745	14231
667.798	13520
667.850	13708
667.903	14281
667.955	14651
668.008	13612
668.060	14179
668.113	13156
668.165	13521
668.218	13866
668.270	13856
668.322	13278
668.375	13080
668.427	13221
668.479	13103
668.532	13829
668.584	13881
668.636	12503
668.689	13209
668.741	12795
668.793	13251
668.845	12035
668.898	12603
668.950	12381
669.002	14260
669.054	12495
669.106	13167
669.158	13491
669.211	12306
669.263	11324
669.315	13679
669.367	11998
669.419	12128
669.471	13124
669.523	12592
669.575	12716
669.627	12337
669.679	12508
669.731	13408
669.783	12599
669.835	13754
669.886	12553
669.938	13296
669.990	12977
670.042	12896
670.094	13073
670.146	14149
670.197	15053
670.249	14962
670.301	16832
670.353	19741
670.404	22994
670.456	30424
670.508	38877
670.560	56460
670.611	82078
670.663	130348
670.715	280323
670.766	419249
670.818	164651
670.869	42432
670.921	26085
670.972	22326
671.024	17428
671.075	16541
671.127	15306
671.178	15165
671.230	15146
671.281	15840
671.333	16380
671.384	18441
671.436	22194
671.487	28368
671.538	36913
671.590	52798
671.641	81647
671.692	135548
671.744	231161
671.795	183407
671.846	80182
671.897	42193
671.949	28386
672.000	22531
672.051	18485
672.102	16753
672.153	14155
672.204	14004
672.256	13081
672.307	13123
672.358	13026
672.409	11774
672.460	11510
672.511	11313
672.562	9887
672.613	10944
672.664	10183
672.715	11066
672.766	9606
672.817	9813
672.868	10180
672.919	10190
672.970	9053
673.021	9712
673.071	9558
673.122	9589
673.173	9435
673.224	9527
673.275	9691
673.326	9577
673.376	9085
673.427	9698
673.478	9265
673.528	9921
673.579	8840
673.630	8875
673.680	10706
673.731	9230
673.782	8801
673.832	9615
673.883	8525
673.934	10534
673.984	9265
674.035	9330
674.085	8939
674.136	9868
674.186	9559
674.237	10458
674.287	9238
674.338	10373
674.388	8913
674.438	9818
674.489	9949
674.539	10567
674.589	9713
674.640	10398
674.690	10657
674.740	9508
674.791	9826
674.841	9526
674.891	8257
674.942	8311
674.992	8088
675.042	7805
675.092	8165
675.142	7689
675.193	8318
675.243	7617
675.293	8298
675.343	8141
675.393	8595
675.443	8326
675.493	7680
675.543	8892
675.593	8143
675.643	8352
675.693	7756
675.743	8331
675.793	8383
675.843	7361
675.893	7933
675.943	7707
675.993	7174
676.043	8039
676.093	8249
676.142	8100
676.192	8699
676.242	8617
676.292	7764
676.341	8468
676.391	7470
676.441	7665
676.491	7311
676.540	6856
676.590	7170
676.640	7127
676.689	6516
676.739	6730
676.789	7347
676.838	7106
676.888	6332
676.937	7341
676.987	6237
677.037	7438
677.086	6352
677.136	6470
677.185	7111
677.235	7110
677.284	7135
677.333	7052
677.383	6703
677.432	6657
677.482	5688
677.531	7155
677.580	6058
677.630	7474
677.679	6150
677.728	6936
677.778	7119
677.827	6582
677.876	6865
677.925	6628
677.975	7839
678.024	7794
678.073	7214
678.122	7224
678.171	6738
678.220	8663
678.269	8282
678.319	8616
678.368	8820
678.417	8269
678.466	7598
678.515	7746
678.564	6701
678.613	6120
678.662	5782
678.711	6370
678.760	6588
678.809	6960
678.857	6780
678.906	7238
678.955	6918
679.004	7453
679.053	7494
679.102	7535
679.151	6617
679.199	7215
679.248	6059
679.297	7103
679.346	6101
679.394	6424
679.443	5974
679.492	6143
679.540	6125
679.589	6914
679.638	6163
679.686	7110
679.735	7047
679.784	8411
679.832	7959
679.881	7204
679.929	6091
679.978	6692
680.026	6571
680.075	6549
680.123	6405
680.172	6017
680.220	5499
680.268	6519
680.317	5973
680.365	6902
680.414	4703
680.462	6329
680.510	6192
680.559	6382
680.607	5804
680.655	6718
680.703	6841
680.752	7103
680.800	5912
680.848	6704
680.896	5054
680.945	5921
680.993	5737
681.041	5747
681.089	5698
681.137	5358
681.185	5466
681.233	5766
681.258	5762
681.281	5741
681.329	5901
681.377	5057
681.380	5152
681.425	6611
681.473	5900
681.502	6220
681.521	6399
681.569	6055
681.617	6405
681.624	6315
681.665	5618
681.713	6322
681.745	6148
681.761	6039
681.809	6436
681.857	6836
681.867	6816
681.904	6675
681.952	6119
681.989	6137
682.000	6117
682.048	5514
682.096	6186
682.111	6293
682.143	6473
682.191	6781
682.233	6576
682.239	6526
682.286	6576
682.334	5662
682.354	6319
682.382	7193
682.430	7785
682.476	7148
682.477	7115
682.525	6560
682.572	6746
682.598	6277
682.620	5915
682.667	6754
682.715	6987
682.720	7010
682.763	6942
682.810	7373
682.841	7542
682.857	7622
682.905	6311
682.952	6986
682.963	6962
683.000	6785
683.047	6993
683.085	6804
683.095	6756
683.142	6634
683.190	6728
683.206	6803
683.237	6822
683.284	7142
683.328	7268
683.332	7268
683.379	6384
683.426	6916
683.449	6811
683.473	6708
683.521	7847
683.568	7091
683.571	7138
683.615	7540
683.662	7301
683.693	7322
683.709	7289
683.757	6180
683.804	7019
683.814	6843
683.851	6208
683.898	7253
683.936	7388
683.945	7412
683.992	7339
684.039	6494
684.057	7027
684.086	7872
684.133	7344
684.179	6808
684.180	6771
684.227	7169
684.274	7458
684.300	7094
684.321	6893
684.368	7291
684.415	7411
684.422	7420
684.462	7364
684.509	6972
684.543	7599
684.556	7819
684.603	8219
684.649	7749
684.665	7708
684.696	7510
684.743	7876
684.786	8608
684.790	8659
684.837	7469
684.883	7749
684.908	7678
684.930	7635
684.977	7996
685.023	8311
685.029	8292
685.070	8026
685.117	8389
685.150	7990
685.164	7799
685.210	8416
685.257	8380
685.272	8385
685.303	8528
685.350	7998
685.393	9022
685.396	9073
685.443	8131
685.490	8350
685.514	7643
685.536	7159
685.583	8300
685.629	8005
685.636	8064
685.675	8108
685.722	7917
685.757	7754
685.768	7750
685.815	8151
685.861	8415
685.878	8134
685.908	7663
685.954	8427
686.000	9214
686.000	9221
686.047	9099
686.093	9114
686.121	9242
686.139	9216
686.185	8032
686.232	8431
686.242	8313
686.278	8116
686.324	8861
686.363	9028
686.370	9018
686.416	8705
686.463	9376
686.484	8996
686.509	8734
686.555	8838
686.601	9640
686.606	9582
686.647	8636
686.693	8490
686.727	8394
686.739	8476
686.785	8412
686.831	8556
686.848	8917
686.877	9425
686.923	8628
686.969	8859
686.969	8861
687.015	8632
687.061	9917
687.090	10066
687.107	9971
687.153	10423
687.199	9434
687.211	9305
687.245	9204
687.291	8851
687.332	10054
687.336	10162
687.382	9720
687.428	10348
687.453	10046
687.474	9815
687.520	9893
687.565	10662
687.574	10553
687.611	10467
687.657	10856
687.695	11981
687.702	12230
687.748	13387
687.794	15367
687.816	15048
687.839	13837
687.885	12627
687.931	10953
687.937	10839
687.976	10974
688.022	10532
688.058	10580
688.067	10549
688.113	9966
688.158	9552
688.179	9527
688.204	9928
688.249	10360
688.295	10466
688.300	10557
688.340	10745
688.386	10824
688.421	10550
688.431	10536
688.477	10208
688.522	10901
688.542	10973
688.567	11142
688.613	11038
688.658	11313
688.663	11348
688.703	11331
688.749	10954
688.784	10751
688.794	10698
688.839	10614
688.884	10810
688.905	10687
688.930	10679
688.975	10877
689.020	10871
689.026	10861
689.065	10880
689.110	10451
689.146	10712
689.155	10804
689.201	11513
689.246	11853
689.267	11684
689.291	11221
689.336	11431
689.381	10085
689.388	10112
689.426	10938
689.471	10898
689.509	11459
689.516	11490
689.561	11363
689.606	11312
689.630	11136
689.651	11113
689.696	10838
689.741	11328
689.750	11446
689.785	11878
689.830	11213
689.871	11345
689.875	11362
689.920	11471
689.965	11320
689.992	11071
690.010	10989
690.054	11431
690.099	11208
690.112	11392
690.144	11743
690.189	11630
690.233	11578
690.233	11589
690.278	11541
690.323	11718
690.354	11649
690.367	11732
690.412	12676
690.457	12331
690.474	12559
690.501	12571
690.546	12137
690.590	12631
690.595	12514
690.635	12129
690.680	12694
690.716	12872
690.724	12993
690.769	14418
690.813	15164
690.836	15652
690.857	17192
690.902	20094
690.946	23552
690.957	24455
690.991	30260
691.035	38797
691.077	47508
691.080	47505
691.124	42112
691.168	35330
691.198	31905
691.213	29721
691.257	24204
691.301	18537
691.318	16291
691.346	15536
691.390	14916
691.434	13712
691.439	13620
691.478	13530
691.522	13253
691.559	12947
691.567	12992
691.611	13244
691.655	13334
691.680	13048
691.699	12710
691.743	13040
691.787	12490
691.800	12454
691.831	12725
691.875	13134
691.919	13428
691.921	13397
691.964	12718
692.008	13304
692.041	12925
692.052	12832
692.096	12721
692.139	12748
692.162	12654
692.183	12561
692.227	12404
692.271	12213
692.282	12064
692.315	12046
692.359	12568
692.402	12927
692.403	12944
692.447	12892
692.490	12057
692.523	11884
692.534	12049
692.578	12417
692.622	12592
692.643	12901
692.666	12970
692.709	12730
692.753	12510
692.763	12448
692.797	12717
692.840	13155
692.884	13469
692.884	13490
692.928	13175
692.971	13138
693.004	12818
693.015	12856
693.059	13579
693.102	13689
693.124	13980
693.146	14073
693.189	13738
693.233	13604
693.245	13519
693.276	14058
693.320	15097
693.363	15767
693.365	15775
693.407	16280
693.450	16620
693.485	17080
693.493	17607
693.537	20041
693.580	22568
693.605	24108
693.624	26830
693.667	32922
693.710	39125
693.725	41578
693.753	53195
693.797	71767
693.840	91966
693.845	93731
693.883	84099
693.926	71004
693.966	60224
693.970	58932
694.013	45913
694.056	32718
694.086	23857
694.099	23150
694.142	20772
694.185	18516
694.206	17199
694.229	16875
694.272	16816
694.315	16261
694.326	16160
694.358	15744
694.401	14886
694.444	14462
694.446	14393
694.487	14491
694.530	15090
694.566	14837
694.573	14726
694.616	14711
694.659	14337
694.686	14022
694.702	14088
694.745	14220
694.787	14384
694.806	14453
694.830	14369
694.873	14110
694.916	13510
694.926	13516
694.959	14287
695.002	14757
695.044	15518
695.046	15506
695.087	15093
695.130	14911
695.166	14457
695.172	14518
695.215	14932
695.258	15483
695.286	15641
695.301	15647
695.343	15740
695.386	15931
695.406	15820
695.428	16295
695.471	17442
695.514	18587
695.526	18957
695.556	19753
695.599	20558
695.641	21281
695.646	21293
695.684	20335
695.726	19455
695.766	18515
695.769	18518
695.811	18307
695.854	17641
695.886	17461
695.896	17666
695.938	17935
695.981	18543
696.005	18827
696.023	19176
696.065	19859
696.108	20681
696.125	20961
696.150	21323
696.192	21655
696.235	22163
696.245	22248
696.277	22326
696.319	22403
696.361	22319
696.365	22277
696.404	22372
696.446	22216
696.485	22195
696.488	22229
696.530	22161
696.572	21934
696.604	21753
696.614	21783
696.656	21660
696.698	21593
696.724	21515
696.740	21662
696.783	21892
696.825	22307
696.844	22297
696.867	22202
696.909	22194
696.951	22097
696.964	22070
696.992	22141
697.034	21787
697.076	21734
697.083	21682
697.118	22527
697.160	23492
697.202	24333
697.203	24307
697.244	23638
697.286	22935
697.323	22186
697.327	22281
697.369	22661
697.411	23237
697.442	23541
697.453	23623
697.494	23786
697.536	23917
697.562	23967
697.578	24059
697.620	24121
697.661	24259
697.682	24243
697.703	24435
697.744	24777
697.786	25130
697.801	25181
697.828	25207
697.869	25205
697.911	25129
697.921	25070
697.952	24946
697.994	24725
698.035	24410
698.040	24333
698.077	24759
698.118	25122
698.160	25493
698.160	25440
698.201	26013
698.243	26531
698.279	26931
698.284	27049
698.325	27597
698.367	28136
698.399	28510
698.408	28556
698.449	28458
698.491	28395
698.518	28257
698.532	28348
698.573	28506
698.614	28608
698.638	28625
698.656	28814
698.697	29085
698.738	29367
698.757	29432
698.779	29510
698.820	29550
698.862	29573
698.877	29524
698.903	29343
698.944	28944
698.985	28537
698.996	28364
699.026	28444
699.067	28471
699.116	28443
699.235	28324
699.354	28242
699.474	26577
699.593	27431
699.713	26678
699.832	28158
699.951	28779
700.070	28299
700.190	26009
700.309	26290
700.428	25147
700.547	24768
700.667	24533
700.786	24734
700.905	24464
701.024	24581
701.143	23594
701.262	26180
701.381	24372
701.500	25748
701.619	25873
701.738	26674
701.857	26147
701.976	24342
702.095	24498
702.214	26517
702.333	24450
702.452	26225
702.571	25744
702.690	25697
702.809	25319
702.928	24921
703.047	23070
703.165	24305
703.284	23435
703.403	23839
703.522	22344
703.640	23586
703.759	22954
703.878	23550
703.997	21751
704.115	23258
704.234	22715
704.353	24210
704.471	21401
704.590	22387
704.708	21040
704.827	21476
704.946	20730
705.064	22017
705.183	20301
705.301	22375
705.420	21892
705.538	22525
705.656	19377
705.775	20182
705.893	22052
706.012	24821
706.130	19835
706.249	22879
706.367	19137
706.485	20412
706.604	19607
706.722	21526
706.840	23681
706.958	30813
707.077	23023
707.195	20192
707.313	18862
707.431	18287
707.549	16743
707.668	18627
707.786	19483
707.904	18801
708.022	19099
708.140	18722
708.258	17828
708.376	19850
708.494	17601
708.612	20136
708.730	19013
708.848	19765
708.966	18826
709.084	20349
709.202	18388
709.320	18459
709.438	18939
709.556	18962
709.674	16311
709.791	17899
709.909	17187
710.027	18046
710.145	16621
710.263	18249
710.380	17336
710.498	17490
710.616	17094
710.733	16985
710.851	16633
710.969	17769
711.086	16895
711.204	16856
711.322	16131
711.439	17452
711.557	15224
711.674	16906
711.792	16101
711.909	16339
712.027	15986
712.144	15974
712.262	16202
712.379	16836
712.497	16757
712.614	17153
712.732	16402
712.849	16302
712.966	16994
713.084	18447
713.201	15205
713.318	17117
713.436	17387
713.553	17611
713.670	18284
713.787	18229
713.905	17890
714.022	18149
714.139	19240
714.256	24191
714.373	34355
714.490	66119
714.608	178056
714.725	695285
714.842	604695
714.959	61090
715.076	28741
715.193	22515
715.310	19714
715.427	16451
715.544	17043
715.661	17099
715.778	15145
715.895	16641
716.011	15490
716.128	15498
716.245	15123
716.362	15560
716.479	13255
716.596	14615
716.713	14753
716.829	14531
716.946	13474
717.063	14107
717.180	12925
717.296	14332
717.413	13126
717.530	13316
717.646	13410
717.763	13118
717.880	12156
717.996	12496
718.113	12276
718.229	13161
718.346	11562
718.462	12858
718.579	12143
718.695	14281
718.812	13406
718.928	13762
719.045	11431
719.161	12994
719.277	13127
719.394	13722
719.510	13271
719.626	15336
719.743	18894
719.859	30136
719.975	63203
720.092	258399
720.208	506568
720.324	58212
720.440	19396
720.557	16032
720.673	15534
720.789	15889
720.905	18580
721.021	13326
721.137	11196
721.253	11057
721.369	12068
721.486	12767
721.602	12118
721.718	12102
721.834	10589
721.950	11867
722.066	10403
722.181	11069
722.297	11494
722.413	11897
722.529	11551
722.645	11713
722.761	10482
722.877	11283
722.993	12593
723.108	15624
723.224	13096
723.340	12447
723.456	10670
723.571	10372
723.687	9285
723.803	10889
723.918	10458
724.034	11073
724.150	10055
724.265	10884
724.381	10618
724.497	11849
724.612	9951
724.728	10292
724.843	8743
724.959	10470
725.074	10774
725.190	13279
725.305	10259
725.421	11088
725.536	9310
725.651	11282
725.767	10025
725.882	10774
725.997	9604
726.113	10680
726.228	9550
726.343	10385
726.459	9530
726.574	10012
726.689	9510
726.804	9956
726.920	9425
727.035	9974
727.150	10215
727.265	9652
727.380	9526
727.495	10241
727.610	8194
727.725	9126
727.841	8971
727.956	10884
728.071	10589
728.186	9675
728.301	9289
728.416	10256
728.531	9576
728.645	9397
728.760	9398
728.875	9537
728.990	8462
729.105	9536
729.220	8545
729.335	9706
729.449	8411
729.564	9980
729.679	8273
729.794	9635
729.908	10200
730.023	9862
730.138	9330
730.253	9964
730.367	9534
730.482	9914
730.596	9651
730.711	12730
730.826	15245
730.940	15153
731.055	11935
731.169	12614
731.284	11548
731.398	12697
731.513	12227
731.627	14556
731.742	18652
731.856	21750
731.970	20615
732.085	26197
732.199	35987
732.313	64640
732.428	168840
732.542	444941
732.656	226163
732.771	49802
732.885	29526
732.999	28110
733.113	27581
733.227	27462
733.342	24583
733.456	24296
733.570	23321
733.684	23693
733.798	21169
733.912	22932
734.026	21833
734.140	22126
734.254	20395
734.368	22469
734.482	23043
734.596	21947
734.710	19859
734.824	20833
734.938	20751
735.052	21248
735.166	19589
735.280	20008
735.393	18943
735.507	20765
735.621	19251
735.735	19540
735.849	19589
735.962	18893
736.076	19027
736.190	19768
736.303	19483
736.417	20053
736.531	18062
736.644	18977
736.758	17883
736.872	18910
736.985	17981
737.099	17948
737.212	17334
737.326	17316
737.439	17810
737.553	16653
737.666	17668
737.780	16979
737.893	16939
738.007	17790
738.120	17321
738.233	16423
738.347	15916
738.460	16780
738.573	16673
738.687	16733
738.800	15858
738.913	16490
739.026	16382
739.140	16766
739.253	16164
739.366	15580
739.479	15948
739.592	16629
739.705	15336
739.818	17517
739.932	13950
740.045	17721
740.158	15228
740.271	17539
740.384	15004
740.497	15722
740.610	15058
740.723	14874
740.836	14880
740.949	15851
741.062	15288
741.174	14767
741.287	13892
741.400	14705
741.513	13269
741.626	16888
741.739	14526
741.851	14166
741.964	14920
742.077	13259
742.189	13080
742.302	14673
742.415	13957
742.527	14817
742.640	13021
742.753	12257
742.865	13631
742.978	13776
743.090	12737
743.203	14852
743.316	12946
743.428	14563
743.541	12504
743.653	12261
743.766	13557
743.878	12921
743.990	11924
744.103	14170
744.215	11445
744.327	12895
744.440	15042
744.552	12911
744.664	12252
744.777	14439
744.889	11790
745.001	12799
745.113	12694
745.226	12472
745.338	11000
745.450	13625
745.562	10940
745.674	12657
745.786	13274
745.898	12232
746.010	11566
746.122	12821
746.234	11786
746.347	13003
746.459	11253
746.570	10817
746.682	13498
746.794	13297
746.906	11246
747.018	12172
747.130	12043
747.242	10623
747.354	11273
747.466	12809
747.577	11263
747.689	11874
747.801	11437
747.913	10673
748.024	10664
748.136	11287
748.248	10337
748.359	11658
748.471	11261
748.583	10119
748.694	10792
748.806	11723
748.918	10500
749.029	11907
749.141	11707
749.252	11834
749.364	10403
749.475	11574
749.587	10016
749.698	10805
749.809	11157
749.921	11450
750.032	9302
750.144	10889
750.255	9468
750.366	10698
750.478	10056
750.589	10644
750.700	9598
750.811	11018
750.923	9500
751.034	10348
751.145	11240
751.256	10490
751.367	9981
751.479	10743
751.590	9368
751.701	9650
751.812	8164
751.923	10405
752.034	11352
752.145	11050
752.256	9789
752.367	11118
752.478	10547
752.589	11230
752.700	9556
752.811	10018
752.922	9957
753.032	11016
753.143	10406
753.254	10456
753.365	10866
753.476	11154
753.586	9330
753.697	10598
753.808	9269
753.919	10267
754.029	8536
754.140	10217
754.251	9523
754.361	10475
754.472	10288
754.582	9046
754.693	9414
754.804	11356
754.914	9803
755.025	9565
755.135	10080
755.246	11099
755.356	9367
755.466	9334
755.577	9376
755.687	10137
755.798	8694
755.908	9798
756.018	9684
756.129	10504
756.239	9703
756.349	11229
756.460	9384
756.570	11476
756.680	10686
756.790	10109
756.900	10023
757.011	10457
757.121	10273
757.231	10874
757.341	9631
757.451	9965
757.561	8166
757.671	11030
757.781	8986
757.891	10912
758.001	9561
758.111	11058
758.221	10340
758.331	11764
758.441	10959
758.551	11716
758.661	11607
758.771	12059
758.880	10866
758.990	11399
759.100	11147
759.210	11095
759.320	11673
759.429	11297
759.539	12362
759.649	12899
759.758	14006
759.868	15296
759.978	14152
760.087	15411
760.197	15177
760.307	14488
760.416	13841
760.526	13496
760.635	14486
760.745	15697
760.854	15845
760.964	17610
761.073	17633
761.182	17444
761.292	16004
761.401	15358
761.511	14804
761.620	14717
761.729	13862
761.839	13846
761.948	14621
762.057	15112
762.166	15837
762.276	14384
762.385	15613
762.494	15201
762.603	15547
762.712	16930
762.822	16002
762.931	16995
763.040	16244
763.149	17882
763.258	17983
763.367	19954
763.476	18828
763.585	19755
763.694	20418
763.803	22129
763.912	22766
764.021	24059
764.130	24962
764.238	27424
764.347	29074
764.456	31112
764.565	33083
764.674	35215
764.783	37041
764.891	42646
765.000	47851
765.109	53373
765.217	59413
765.326	71156
765.435	82760
765.543	102118
765.652	128026
765.761	165448
765.869	217382
765.978	302608
766.086	423468
766.195	582169
766.303	679283
766.412	492291
766.520	601581
766.629	720610
766.737	512773
766.846	349470
766.954	247267
767.062	183499
767.171	141999
767.279	115383
767.387	93852
767.496	78700
767.604	68127
767.712	60593
767.820	55805
767.928	50959
768.037	45514
768.145	45014
768.253	42274
768.361	41964
768.469	40680
768.577	42959
768.685	44417
768.793	49363
768.901	52186
769.009	60929
769.117	72908
769.225	96275
769.333	132279
769.441	198020
769.549	306583
769.657	485748
769.765	588899
769.873	513071
769.981	625844
770.088	408435
770.196	246839
770.304	168962
770.412	123439
770.519	94945
770.627	77883
770.735	67056
770.842	55378
770.950	49687
771.058	44219
771.165	42995
771.273	38981
771.380	37174
771.488	38549
771.595	35977
771.703	32854
771.810	30958
771.918	30894
772.025	32345
772.133	32587
772.240	30942
772.348	32542
772.455	31770
772.562	28654
772.670	27558
772.777	28446
772.884	27472
772.991	25333
773.099	25613
773.206	24637
773.313	24534
773.420	23975
773.528	23653
773.635	22036
773.742	24305
773.849	21438
773.956	23510
774.063	21468
774.170	21571
774.277	22779
774.384	20467
774.491	19137
774.598	21544
774.705	19023
774.812	21261
774.919	19562
775.026	19676
775.133	19800
775.239	20298
775.346	18177
775.453	19165
775.560	17299
775.667	20009
775.773	16414
775.880	18556
775.987	16286
776.093	19118
776.200	16965
776.307	15514
776.413	16509
776.520	19645
776.627	16261
776.733	16439
776.840	14150
776.946	19625
777.053	14788
777.159	15462
777.266	13494
777.372	15089
777.478	16877
777.585	15652
777.691	13151
777.798	16791
777.904	14393
778.010	14488
778.117	14773
778.223	15397
778.329	14075
778.435	13104
778.542	14995
778.648	13486
778.754	13339
778.860	14288
778.966	14041
779.072	13070
779.178	13083
779.284	12380
779.391	12521
779.497	12898
779.603	16791
779.708	15669
779.815	25409
779.920	73638
780.026	76104
780.132	18062
780.238	12435
780.344	13073
780.450	13824
780.556	10048
780.661	11531
780.767	11967
780.873	9966
780.979	11747
781.085	11107
781.190	11211
781.296	9881
781.402	11881
781.507	10383
781.613	10119
781.719	11175
781.824	12319
781.930	11085
782.035	12438
782.141	10773
782.246	10177
782.352	9179
782.457	10675
782.563	10367
782.668	10417
782.773	8722
782.879	9623
782.984	11268
783.090	10685
783.195	10924
783.300	11794
783.405	8632
783.511	8975
783.616	10402
783.721	10594
783.826	8306
783.932	9352
784.037	9664
784.142	9790
784.247	8134
784.352	10487
784.457	7514
784.562	11082
784.667	9365
784.772	7508
784.877	7190
784.982	10494
785.087	8013
785.192	8794
785.297	8011
785.402	9713
785.507	7645
785.611	8760
785.716	7483
785.821	8657
785.926	8404
786.031	7854
786.135	7451
786.240	8516
786.345	6054
786.450	8094
786.554	7682
786.659	7093
786.763	6844
786.868	8418
786.973	8558
787.077	7268
787.182	6752
787.286	9537
787.391	9371
787.495	6254
787.600	6311
787.704	7288
787.809	7055
787.913	7725
788.017	7664
788.122	8424
788.226	6998
788.330	5069
788.435	7208
788.539	8372
788.643	5524
788.747	6175
788.852	6970
788.956	6517
789.060	7854
789.164	7180
789.268	5529
789.372	7506
789.476	6638
789.580	5349
789.684	6025
789.788	8384
789.892	5204
789.996	5729
790.100	4541
790.204	7852
790.308	6394
790.412	5467
790.516	5087
790.620	7497
790.724	7886
790.828	5766
790.931	4049
791.035	7461
791.139	5546
791.242	5527
791.346	6191
791.450	6934
791.554	4764
791.657	5086
791.761	5706
791.864	7324
791.968	6249
792.072	6510
792.175	4705
792.279	6158
792.382	5047
792.486	5314
792.589	4813
792.693	6584
792.796	4193
792.899	7115
793.003	5587
793.106	4561
793.209	4908
793.313	5925
793.416	2470
793.519	6720
793.623	7040
793.726	6250
793.829	4015
793.932	5323
794.035	3392
794.138	6910
794.242	6663
794.345	5474
794.448	6749
794.551	11471
794.654	37415
794.757	40907
794.860	7091
794.963	6263
795.066	3911
795.169	6382
795.272	4329
795.375	5910
795.477	3709
795.580	4300
795.683	3459
795.786	6420
795.889	3807
795.991	6190
796.094	4609
796.197	4721
796.300	5240
796.402	4939
796.505	2994
796.608	3688
796.710	5073
796.813	5550
796.915	4409
797.018	5430
797.120	4062
797.223	4072
797.326	5154
797.428	4363
797.530	3762
797.633	4105
797.735	5523
797.838	4917
797.940	4365
798.042	4505
798.145	3731
798.247	4703
798.349	2219
798.452	5406
798.554	3828
798.656	5284
798.758	5341
798.860	4394
798.962	3678
799.065	4604
799.167	2117
799.269	4605
799.371	5384
799.473	6335
799.575	4092
799.677	3463
799.779	5038
799.881	2597
799.983	4562
800.085	5401
800.187	3726
800.289	3346
800.390	3490
800.492	5838
800.594	4018
800.696	3693
800.798	3467
800.899	4577
801.001	3105
801.103	4062
801.205	3068
801.306	5017
801.408	3171
801.509	4655
801.611	3548
801.713	4022
801.814	1939
801.916	3015
802.017	3359
802.119	2979
802.220	4527
802.322	2329
802.423	4667
802.525	1994
802.626	3305
802.727	4622
802.829	3978
802.930	899
803.031	3889
803.133	3839
803.234	3382
803.335	4117
803.436	2233
803.538	3414
803.639	2147
803.740	4349
803.841	2361
803.942	3935
804.043	3202
804.144	2499
804.245	2995
804.346	2886
804.447	2506
804.548	3014
804.649	3620
804.750	2993
804.851	2628
804.952	1891
805.053	2360
805.154	1874
805.255	4627
805.355	3625
805.456	2419
805.557	2750
805.658	1638
805.758	3902
805.859	3228
805.960	3198
806.061	2051
806.161	2714
806.262	2227
806.362	3176
806.463	2328
806.564	3842
806.664	2639
806.765	2533
806.865	2484
806.966	2583
807.066	1750
807.166	4807
807.267	2785
807.367	2572
807.468	2746
807.568	1271
807.668	2893
807.769	3441
807.869	2123
807.969	3839
808.069	2238
808.170	2954
808.270	2291
808.370	2792
808.470	2403
808.570	2143
808.670	2280
808.770	2979
808.870	1623
808.970	3153
809.070	1274
809.170	1682
809.271	3407
809.370	2339
809.470	2428
809.570	1464
809.670	1947
809.770	2664
809.870	2261
809.970	3247
810.070	1576
810.169	2860
810.269	819
810.369	4423
810.469	1462
810.568	2978
810.668	1975
810.768	2800
810.867	1966
810.967	2948
811.066	1678
811.166	2219
811.265	3537
811.365	1941
811.464	1954
811.564	2103
811.663	1724
811.763	1309
811.862	2250
811.962	3370
812.061	1959
812.160	3008
812.260	1920
812.359	2911
812.458	1612
812.557	5691
812.657	3714
812.756	3819
812.855	1788
812.954	2064
813.053	2992
813.153	3177
813.252	546
813.351	3689
813.450	2111
813.549	1809
813.648	1619
813.747	2712
813.846	2769
813.945	2227
814.044	2395
814.143	2796
814.242	3178
814.341	2354
814.439	3292
814.538	4208
814.637	2054
814.736	3319
814.835	3079
814.933	3311
815.032	4547
815.131	6036
815.229	10547
815.328	12959
815.427	8642
815.525	9007
815.624	8036
815.722	9103
815.821	8278
815.919	9543
816.018	6824
816.116	9548
816.215	8605
816.313	10899
816.412	10933
816.510	11515
816.609	12996
816.707	13080
816.805	10892
816.904	11349
817.002	10707
817.100	12565
817.198	12106
817.296	11087
817.395	10374
817.493	11258
817.591	9924
817.689	11300
817.787	9833
817.885	10503
817.983	9593
818.081	11559
818.179	13645
818.277	20686
818.375	16660
818.473	10495
818.571	8997
818.669	10608
818.767	9979
818.865	8855
818.963	8431
819.061	9927
819.158	10397
819.256	14637
819.354	16813
819.452	30808
819.549	18993
819.647	12840
819.745	7913
819.842	9984
819.940	8671
820.038	7923
820.135	8303
820.233	10024
820.330	7706
820.428	8413
820.525	9333
820.623	8448
820.720	6907
820.818	8798
820.915	8238
821.012	8736
821.110	5823
821.207	8594
821.304	6658
821.402	8964
821.499	7550
821.596	7131
821.693	7956
821.791	9029
821.888	7847
821.985	9223
822.082	5923
822.179	8612
822.276	6817
822.373	7463
822.470	7281
822.567	6892
822.664	6183
822.761	7948
822.858	6916
822.955	7401
823.052	5808
823.149	7765
823.246	6331
823.343	5562
823.440	6022
823.536	7641
823.633	5972
823.730	6345
823.827	7184
823.923	7071
824.020	5764
824.117	7477
824.213	6406
824.310	5869
824.407	4930
824.503	7888
824.600	4709
824.696	6137
824.793	6814
824.889	7085
824.986	5138
825.082	4484
825.179	5454
825.275	7849
825.371	6108
825.468	5630
825.564	3623
825.660	7290
825.757	6758
825.853	7003
825.949	3327
826.045	5259
826.142	5497
826.238	6551
826.334	5193
826.430	5191
826.526	4511
826.622	4632
826.718	6556
826.814	6855
826.910	5202
827.006	4206
827.102	3293
827.198	5960
827.294	5781
827.390	5959
827.486	4224
827.582	3458
827.678	3798
827.774	6832
827.869	3086
827.965	5094
828.061	3413
828.157	6179
828.252	4996
828.348	4198
828.444	4592
828.539	3092
828.635	5422
828.731	4333
828.826	3083
828.922	5224
829.017	5692
829.113	5890
829.208	3184
829.304	4128
829.399	6957
829.495	5010
829.590	4118
829.685	4907
829.781	5397
829.876	4936
829.971	1770
830.066	3698
830.162	3631
830.257	5875
830.352	3838
830.447	2955
830.543	3829
830.638	4302
830.733	5572
830.828	3857
830.923	4257
831.018	4806
831.113	4761
831.208	2429
831.303	1956
831.398	3542
831.493	4163
831.588	6450
831.683	2656
831.778	2938
831.873	3217
831.967	4846
832.062	4339
832.157	3613
832.252	3047
832.346	3909
832.441	5004
832.536	3744
832.631	4064
832.725	3988
832.820	3137
832.914	3808
833.009	2569
833.104	2732
833.198	2722
833.293	3298
833.387	3910
833.482	4131
833.576	2504
833.670	4208
833.765	3964
833.859	3497
833.954	4531
834.048	3462
834.142	2357
834.237	3204
834.331	2263
834.425	4200
834.519	1967
834.613	3485
834.708	1511
834.802	3630
834.896	2687
834.990	3292
835.084	2871
835.178	3177
835.272	2346
835.366	4719
835.460	4348
835.554	3287
835.648	1786
835.742	1184
835.836	1335
835.930	2363
836.024	3479
836.117	3932
836.211	1194
836.305	2171
836.399	2321
836.493	3113
836.586	3149
836.680	3542
836.774	989
836.867	2911
836.961	1364
837.055	1797
837.148	2031
837.242	2626
837.335	1966
837.429	2922
837.522	1159
837.616	2557
837.709	1661
837.803	2454
837.896	3764
837.989	2805
838.083	2091
838.176	2377
838.269	1095
838.363	3110
838.456	1973
838.549	3395
838.642	1982
838.735	2291
838.829	3094
838.922	1962
839.015	1688
839.108	1826
839.201	1282
839.294	3868
839.387	1239
839.480	1811
839.573	523
839.666	1979
839.759	1799
839.852	2311
839.945	1985
840.038	2020
840.131	1161
840.223	1693
840.316	2886
840.409	2865
840.502	1698
840.594	3038
840.687	-212
840.780	2030
840.873	817
840.965	2180
841.058	2153
841.150	2814
841.243	1204
841.336	2496
841.428	1305
841.521	2353
841.613	981
841.706	1696
841.798	1246
841.890	3060
841.983	928
842.075	2111
842.167	1164
842.260	2140
842.352	2246
842.444	2972
842.537	1483
842.629	2318
842.721	569
842.813	2472
842.905	1145
842.997	2610
843.090	1125
843.182	2101
843.274	404
843.366	2763
843.458	3639
843.550	4837
843.642	1421
843.734	2105
843.826	495
843.918	1865
844.009	1514
844.101	1235
844.193	980
844.285	2508
844.377	1685
844.469	2004
844.560	-255
844.652	1786
844.744	1297
844.835	2069
844.927	1189
845.019	1671
845.110	1045
845.202	2140
845.293	542
845.385	1062
845.476	1072
845.568	2799
845.659	346
845.751	1716
845.842	66
845.934	1520
846.025	1409
846.116	2206
846.208	1479
846.299	1280
846.390	626
846.482	1038
846.573	857
846.664	2125
846.755	1637
846.846	2626
846.937	-511
847.029	964
847.120	642
847.211	1433
847.302	1965
847.393	693
847.484	1086
847.575	1117
847.666	78
847.757	962
847.847	1093
847.938	1970
848.029	1523
848.120	1042
848.211	553
848.302	719
848.392	302
848.483	1849
848.574	167
848.664	2343
848.755	657
848.846	1777
848.936	-450
849.027	1667
849.118	1154
849.208	1310
849.299	3193
849.389	4637
849.480	9253
849.570	18806
849.661	35889
849.751	61782
849.841	21422
849.932	4600
850.022	2179
850.112	2805
850.203	891
850.293	1610
850.383	908
850.474	1282
850.564	16
850.654	1505
850.744	112
850.834	1156
850.924	1405
851.014	2586
851.104	1579
851.194	1880
851.284	736
851.374	1893
851.464	1271
851.554	2081
851.644	174
851.734	1955
851.824	1016
851.914	1897
852.004	1717
852.094	1723
852.183	627
852.273	1349
852.363	1
852.452	2661
852.542	1014
852.632	1315
852.721	1072
852.811	1508
852.901	1844
852.990	2312
853.080	2081
853.169	2505
853.259	1520
853.348	2140
853.438	2281
853.527	3989
853.617	5829
853.706	11088
853.795	20329
853.885	42437
853.974	77984
854.063	140033
854.152	197118
854.242	84382
854.331	19420
854.420	9278
854.509	5751
854.598	5450
854.687	3509
854.777	3106
854.866	1941
854.955	3044
855.044	293
855.133	2815
855.222	1300
855.311	1775
855.400	834
855.488	2005
855.577	975
855.666	1519
855.755	394
855.844	2476
855.933	652
856.021	1266
856.110	1097
856.199	890
856.288	-59
856.376	630
856.465	149
856.554	1590
856.642	921
856.731	1357
856.819	1319
856.908	1563
856.996	357
857.085	1496
857.173	426
857.262	920
857.350	665
857.438	1211
857.527	1894
857.615	613
857.703	1687
857.792	485
857.880	-33
857.968	950
858.056	389
858.145	1830
858.233	803
858.321	683
858.409	661
858.497	1063
858.585	-155
858.673	1548
858.761	-353
858.849	1034
858.937	-394
859.025	1351
859.113	287
859.201	509
859.289	921
859.377	1097
859.465	610
859.552	1524
859.640	130
859.728	285
859.816	420
859.903	1341
859.991	28
860.079	849
860.166	-723
860.254	1336
860.342	661
860.429	236
860.517	750
860.604	1325
860.692	-2
860.779	293
860.867	428
860.954	1614
861.042	1209
861.129	325
861.216	1012
861.304	1558
861.391	1303
861.478	1061
861.565	711
861.653	1537
861.740	-336
861.827	1219
861.914	661
862.001	563
862.089	1114
862.176	1026
862.263	728
862.350	1245
862.437	426
862.524	224
862.611	206
862.698	1005
862.785	221
862.871	1714
862.958	502
863.045	1219
863.132	856
863.219	1187
863.306	42
863.392	1775
863.479	387
863.566	660
863.652	329
863.739	730
863.826	1256
863.912	1151
863.999	607
864.086	1949
864.172	751
864.259	2207
864.345	1914
864.432	2376
864.518	1181
864.604	2219
864.691	1863
864.777	3194
864.863	2939
864.950	5020
865.036	5560
865.122	10679
865.209	10773
865.295	9195
865.381	8982
865.467	9078
865.553	10104
865.639	11591
865.726	16246
865.812	27982
865.898	46835
865.984	70085
866.070	118892
866.156	123136
866.242	40429
866.328	15959
866.414	10016
866.499	9553
866.585	8451
866.671	8291
866.757	8024
866.843	8265
866.928	6940
867.014	7066
867.100	7491
867.186	6549
867.271	6787
867.357	7657
867.442	6651
867.528	6987
867.614	6234
867.699	6326
867.785	7396
867.870	6613
867.956	5676
868.041	6601
868.127	5080
868.212	6415
868.297	6116
868.383	6644
868.468	6246
868.553	7523
868.639	5879
868.724	6300
868.809	6631
868.894	6620
868.979	6064
869.065	6781
869.150	4109
869.235	6458
869.320	4708
869.405	5602
869.490	5723
869.575	6055
869.660	3891
869.745	6517
869.830	4866
869.915	4367
870.000	4811
870.085	4761
870.169	6343
870.254	6738
870.339	3191
870.424	4107
870.509	5365
870.593	6460
870.678	5946
870.763	5675
870.847	4128
870.932	5504
871.016	4503
871.101	4080
871.186	5187
871.270	6079
871.355	3361
871.439	5753
871.523	5533
871.608	4750
871.692	3899
871.777	5444
871.861	4974
871.945	4817
872.030	4668
872.114	4955
872.198	3190
872.282	4586
872.367	3603
872.451	4257
872.535	3935
872.619	5070
872.703	3960
872.787	4476
872.871	3910
872.955	3870
873.039	2895
873.123	4684
873.207	3201
873.291	3762
873.375	3840
873.459	5037
873.543	3616
873.627	4441
873.711	3824
873.794	4602
873.878	4072
873.962	2929
874.045	2593
874.129	3538
874.137	3489
874.213	2997
874.245	3241
874.296	3639
874.352	3118
874.380	2859
874.460	4080
874.464	4130
874.547	2526
874.568	3055
874.631	4611
874.676	4244
874.714	3943
874.784	4559
874.798	4677
874.881	3447
874.892	3418
874.965	3301
874.999	3205
875.048	2995
875.107	3416
875.131	3602
875.215	1335
875.215	1336
875.298	1923
875.323	2252
875.381	3066
875.430	4257
875.465	5067
875.538	3659
875.548	3470
875.631	2888
875.646	2734
875.714	2012
875.753	2668
875.798	3447
875.861	3804
875.881	3890
875.964	3769
875.968	3713
876.047	2857
876.076	2961
876.130	3056
876.183	3267
876.213	3448
876.291	4062
876.296	4087
876.379	3177
876.398	3131
876.462	3038
876.506	2996
876.545	2999
876.613	3254
876.628	3343
876.711	3026
876.721	3099
876.794	3444
876.828	3126
876.877	2573
876.935	2681
876.960	2823
877.043	2536
877.043	2539
877.125	3407
877.150	3447
877.208	3413
877.258	2897
877.291	2588
877.365	2289
877.374	2244
877.456	3042
877.472	2850
877.539	2208
877.579	2926
877.622	3700
877.687	3511
877.704	3441
877.787	3162
877.794	3166
877.869	3113
877.901	3256
877.952	3387
878.008	2325
878.034	1900
878.115	2836
878.117	2859
878.199	2082
878.222	2602
878.282	3921
878.329	3494
878.364	3095
878.437	3676
878.447	3741
878.529	2090
878.544	2147
878.611	2519
878.651	2768
878.694	3237
878.758	3213
878.776	3165
878.858	3014
878.865	3052
878.941	3031
878.972	2475
879.023	1881
879.078	2492
879.105	2848
879.185	3224
879.187	3231
879.269	3390
879.292	3298
879.351	2714
879.399	2459
879.433	2565
879.506	2662
879.516	2603
879.598	3024
879.613	2847
879.680	2596
879.720	3104
879.762	3420
879.827	2616
879.844	2400
879.926	3036
879.933	2971
880.007	2664
880.040	2726
880.089	2769
880.147	3036
880.171	3147
880.253	4227
880.254	4223
880.335	3643
880.360	4066
880.417	5038
880.467	5264
880.499	5470
880.574	6610
880.580	6629
880.662	4551
880.680	4170
880.744	2909
880.787	2404
880.825	2230
880.893	3354
880.907	3524
880.989	1870
881.000	1970
881.070	3151
881.106	3017
881.152	2618
881.213	2642
881.233	2574
881.315	1987
881.319	2011
881.396	3538
881.426	3337
881.478	2406
881.532	3010
881.559	3478
881.639	3157
881.641	3132
881.722	2702
881.745	2497
881.803	2840
881.852	3247
881.885	3223
881.958	2756
881.966	2747
882.047	3125
882.064	3105
882.129	2465
882.171	2203
882.210	2422
882.277	2477
882.291	2536
882.372	3684
882.383	3776
882.454	3933
882.489	3745
882.535	3560
882.596	3833
882.616	3848
882.697	3191
882.702	3155
882.778	2596
882.808	2515
882.859	2559
882.914	2675
882.940	2739
883.020	2818
883.021	2829
883.102	3319
883.127	3683
883.183	4013
883.233	3710
883.264	3137
883.339	1826
883.345	1809
883.426	1694
883.445	1846
883.507	2988
883.551	3379
883.587	3248
883.657	3625
883.668	3781
883.749	3808
883.763	3875
883.830	2892
883.869	2356
883.910	2354
883.975	2753
883.991	2993
884.072	3059
884.081	3195
884.152	4389
884.187	4532
884.233	4249
884.292	4065
884.314	3808
884.394	2125
884.398	2100
884.475	2318
884.504	2052
884.555	1937
884.610	2285
884.636	2692
884.716	3756
884.716	3768
884.797	4562
884.821	4652
884.877	3933
884.927	3402
884.958	3320
885.033	2835
885.038	2774
885.118	2165
885.139	1893
885.199	2100
885.244	2782
885.279	3451
885.350	3820
885.359	3852
885.439	5052
885.456	4994
885.520	3576
885.561	3311
885.600	3399
885.667	2921
885.680	2933
885.760	3459
885.773	3457
885.840	2880
885.878	2726
885.920	2857
885.984	2855
886.000	2960
886.080	3748
886.089	3803
886.160	3834
886.195	3789
886.240	3589
886.300	3278
886.320	3252
886.400	3542
886.406	3524
886.480	2748
886.511	2471
886.560	2708
886.616	2940
886.640	3015
886.720	3412
886.722	3408
886.800	3241
886.827	3220
886.879	3106
886.932	2998
886.959	3336
887.038	4250
887.039	4256
887.119	3769
887.143	3729
887.198	3838
887.248	3837
887.278	3695
887.354	3169
887.358	3186
887.437	3470
887.459	3571
887.517	4049
887.564	4245
887.596	3738
887.669	2586
887.676	2566
887.755	2314
887.774	2270
887.835	2354
887.880	2371
887.914	2886
887.985	4037
887.994	4126
888.073	4670
888.090	4769
888.153	5207
888.195	5396
888.232	4565
888.300	3263
888.311	3309
888.391	3385
888.405	3418
888.470	2825
888.510	2355
888.549	2722
888.615	3501
888.628	3649
888.708	4361
888.720	4469
888.787	4283
888.825	4128
888.866	3567
888.930	2726
888.945	2856
889.024	3492
889.035	3576
889.103	3827
889.140	3898
889.182	3797
889.245	3712
889.261	3667
889.340	3363
889.349	3326
889.419	3533
889.454	3597
889.498	2947
889.559	2071
889.577	2568
889.656	4734
889.664	4937
889.735	4495
889.768	4265
889.814	4481
889.873	4737
889.978	3598
890.083	4181
890.187	3928
890.292	3992
890.397	3463
890.501	3830
890.606	2440
890.710	4647
890.815	4509
890.919	4203
891.024	3628
891.128	2647
891.233	2986
891.337	5070
891.442	4046
891.546	3936
891.650	3148
891.755	3504
891.859	5251
891.963	4539
892.068	3902
892.172	2856
892.276	2824
892.380	3368
892.484	4782
892.589	4220
892.693	3151
892.797	2640
892.901	1875
893.005	2818
893.109	5582
893.213	4311
893.317	2468
893.421	2516
893.525	1436
893.629	3386
893.733	4326
893.837	3180
893.941	2931
894.045	3158
894.148	1936
894.252	3889
894.356	4937
894.460	4823
894.564	3396
894.667	3420
894.771	1723
894.875	1300
894.978	2310
895.082	4302
895.186	3958
895.289	3895
895.393	2603
895.496	4300
895.600	2201
895.703	2316
895.807	3378
895.910	2902
896.014	3317
896.117	2776
896.221	3152
896.324	3304
896.427	1669
896.531	2418
896.634	3070
896.737	3041
896.840	3194
896.944	3773
897.047	3647
897.150	2968
897.253	1865
897.356	2761
897.460	2269
897.563	2327
897.666	4708
897.769	3250
897.872	2449
897.975	2835
898.078	2579
898.181	2051
898.284	3052
898.387	3522
898.490	4061
898.593	2731
898.695	2686
898.798	2730
898.901	1937
899.004	2994
899.107	2425
899.209	3083
899.312	4077
899.415	2120
899.518	1215
899.620	2276
899.723	1918
899.826	2702
899.928	1792
900.031	3075
900.133	3117
900.236	2667
900.338	1376
900.441	3258
900.543	1632
900.646	2901
900.748	2941
900.851	3681
900.953	2017
901.055	2247
901.158	3361
901.260	2088
901.362	1494
901.465	1684
901.567	3560
901.669	3581
901.771	2347
901.873	2727
901.976	2825
902.078	2177
902.180	2331
902.282	1945
902.384	1878
902.486	4131
902.588	2616
902.690	2311
902.792	1974
902.894	3251
902.996	2982
903.098	3767
903.200	1941
903.302	2298
903.404	2365
903.505	1803
903.607	2824
903.709	3843
903.811	2853
903.913	2427
904.014	1824
904.116	2367
904.218	2211
904.319	2370
904.421	4465
904.523	2578
904.624	2650
904.726	2106
904.827	1700
904.929	2739
905.030	1896
905.132	3163
905.233	3260
905.335	2883
905.436	1323
905.537	2438
905.639	1737
905.740	2618
905.841	3659
905.943	2222
906.044	2303
906.145	2229
906.247	1898
906.348	2098
906.449	2765
906.550	2590
906.651	1211
906.752	2229
906.854	2157
906.955	2035
907.056	2079
907.157	3935
907.258	2037
907.359	1513
907.460	1528
907.561	2265
907.662	1491
907.762	2234
907.863	2085
907.964	3613
908.065	1690
908.166	2015
908.267	2148
908.367	1848
908.468	1633
908.569	3233
908.670	1621
908.770	2450
908.871	2664
908.971	4108
909.072	2036
909.173	3130
909.273	2255
909.374	3212
909.474	1203
909.575	2092
909.675	1244
909.776	2030
909.876	981
909.977	2416
910.077	2501
910.177	3072
910.278	1657
910.378	2146
910.478	1860
910.579	2868
910.679	2601
910.779	2825
910.879	2176
910.980	2925
911.080	1938
911.180	2415
911.280	1261
911.380	2046
911.480	1302
911.580	1922
911.680	2314
911.780	3159
911.880	2259
911.980	1851
912.080	1588
912.180	2442
912.280	2496
912.380	1859
912.480	1350
912.580	1685
912.679	1753
912.779	2923
912.879	2530
912.979	1667
913.078	1509
913.178	1416
913.278	2164
913.377	1599
913.477	2337
913.577	1626
913.676	3110
913.776	3561
913.875	2215
913.975	2003
914.074	1726
914.174	2963
914.273	1032
914.373	2911
914.472	2206
914.572	1465
914.671	1437
914.770	2249
914.870	1907
914.969	1811
915.068	2334
915.167	3522
915.267	1979
915.366	1716
915.465	2736
915.564	3470
915.663	1440
915.763	2084
915.862	3030
915.961	2694
916.060	940
916.159	2123
916.258	1522
916.357	1982
916.456	2440
916.555	2461
916.654	1850
916.752	3023
916.851	2991
916.950	1285
917.049	1505
917.148	2354
917.247	2128
917.345	1785
917.444	2145
917.543	2380
917.642	2179
917.740	2943
917.839	3861
917.937	3996
918.036	2453
918.135	2724
918.233	2063
918.332	2453
918.430	2201
918.529	2418
918.627	2364
918.726	3031
918.824	2597
918.923	1955
919.021	2203
919.119	1993
919.218	2083
919.316	2237
919.414	2602
919.512	3426
919.611	3048
919.709	2830
919.807	3263
919.905	3546
920.003	2668
920.102	3481
920.200	3125
920.298	3439
920.396	2922
920.494	2630
920.592	2558
920.690	3629
920.788	3098
920.886	3632
920.984	3216
921.082	3989
921.180	4673
921.277	3244
921.375	5389
921.473	5830
921.571	5576
921.669	4935
921.766	5536
921.864	5224
921.962	5052
922.060	4668
922.157	5113
922.255	5592
922.352	4682
922.450	6471
922.548	5308
922.645	6411
922.743	9732
922.840	14887
922.938	14157
923.035	12920
923.133	13228
923.230	14999
923.327	17256
923.425	16184
923.522	16109
923.619	14145
923.717	13355
923.814	14048
923.911	12679
924.008	14286
924.106	11836
924.203	12012
924.300	13402
924.397	12576
924.494	12277
924.591	11588
924.688	12045
924.786	12881
924.883	13058
924.979	12505
925.077	11359
925.173	12124
925.270	10694
925.367	12924
925.464	13003
925.561	13738
925.658	13231
925.755	10725
925.852	12178
925.948	13173
926.045	11667
926.142	11895
926.239	11217
926.335	10519
926.432	11933
926.529	12582
926.625	12362
926.722	10612
926.818	10684
926.915	11984
927.011	10873
927.108	12080
927.204	10607
927.301	10192
927.397	12400
927.494	12961
927.590	8270
927.687	11410
927.783	13270
927.879	11228
927.976	10161
928.072	10620
928.168	11751
928.264	10661
928.361	10627
928.457	12202
928.553	9023
928.649	11069
928.745	10600
928.841	9193
928.937	10239
929.033	10092
929.129	10734
929.225	12198
929.321	9286
929.417	9785
929.513	10803
929.609	9274
929.705	10703
929.801	10780
929.897	8146
929.993	9942
930.089	9596
930.184	9250
930.280	10616
930.376	11596
930.471	8262
930.567	8355
930.663	9091
930.758	9148
930.854	9421
930.950	9484
931.045	7553
931.141	9112
931.236	11086
931.332	8861
931.427	8283
931.523	11281
931.618	8986
931.714	6478
931.809	8671
931.905	8943
932.000	6551
932.095	7239
932.191	10325
932.286	10588
932.381	8259
932.476	7638
932.572	8353
932.667	7799
932.762	6676
932.857	8700
932.952	9471
933.047	8255
933.142	7646
933.237	9035
933.332	8443
933.427	9574
933.522	7448
933.617	6695
933.712	7646
933.807	10449
933.902	9567
933.997	9273
934.092	6392
934.187	7804
934.282	7631
934.376	9141
934.471	8519
934.566	6797
934.661	6548
934.755	10080
934.850	8553
934.945	7699
935.039	5915
935.134	6855
935.228	8561
935.323	10422
935.417	6233
935.512	4828
935.606	6118
935.701	7592
935.795	8113
935.890	7537
935.984	6181
936.079	5025
936.173	6712
936.267	6889
936.362	6343
936.456	7789
936.550	8846
936.644	7386
936.738	5950
936.833	5995
936.927	4919
937.021	6427
937.115	6838
937.209	6802
937.303	6007
937.397	6009
937.491	7021
937.585	7795
937.679	5769
937.773	5655
937.867	4976
937.961	6359
938.055	8002
938.149	6146
938.243	4762
938.337	5262
938.430	6033
938.524	7949
938.618	5976
938.712	5109
938.805	5566
938.899	7591
938.993	7682
939.086	4349
939.180	3632
939.274	5031
939.367	6275
939.461	5829
939.554	5590
939.648	5074
939.741	5661
939.835	7456
939.928	7508
940.022	7068
940.115	5820
940.208	7160
940.302	7620
940.395	8302
940.488	5220
940.582	6029
940.675	3477
940.768	6436
940.861	6922
940.954	6835
941.048	2650
941.141	4657
941.234	4738
941.327	6367
941.420	5629
941.513	6841
941.606	4618
941.699	5653
941.792	7021
941.885	6010
941.978	5559
942.071	5641
942.164	3783
942.257	4206
942.349	5329
942.442	5548
942.535	4003
942.628	4867
942.721	5064
942.813	5186
942.906	6402
942.999	4464
943.091	4057
943.184	5253
943.277	4412
943.369	4737
943.462	3983
943.554	5427
943.647	4802
943.739	6686
943.832	4985
943.924	3056
944.017	4709
944.109	3828
944.201	4842
944.294	5003
944.386	4683
944.478	4171
944.571	3586
944.663	4888
944.755	4503
944.847	6259
944.940	4196
945.032	3170
945.124	3642
945.216	4891
945.308	4577
945.400	5050
945.492	4227
945.584	6051
945.676	5454
945.768	4483
945.860	5453
945.952	5708
946.044	4086
946.136	4311
946.228	4155
946.320	4832
946.412	4456
946.503	5299
946.595	5418
946.687	3443
946.779	3223
946.870	3695
946.962	3333
947.054	4767
947.145	4764
947.237	4169
947.329	3886
947.420	4190
947.512	3271
947.603	3150
947.695	3405
947.786	3642
947.878	3923
947.969	3946
948.061	4918
948.152	3584
948.243	3264
948.335	3266
948.426	3186
948.517	4494
948.609	4063
948.700	3659
948.791	3275
948.882	3567
948.973	3221
949.065	4304
949.156	3660
949.247	2966
949.338	3432
949.429	3938
949.520	3427
949.611	4178
949.702	4116
949.793	3399
949.884	3462
949.975	3129
950.066	3057
950.157	3385
950.247	2969
950.338	2768
950.429	3463
950.520	3608
950.611	2952
950.701	4555
950.792	4920
950.883	4136
950.973	3743
951.064	3705
951.155	3488
951.245	4283
951.336	4111
951.427	4240
951.517	5606
951.608	3834
951.698	3289
951.788	2342
951.879	2357
951.969	3681
952.060	2949
952.150	3451
952.240	4931
952.331	3091
952.421	4077
952.511	1991
952.602	2641
952.692	2890
952.782	2319
952.872	3386
952.962	2751
953.052	1827
953.143	1725
953.233	3830
953.323	2635
953.413	2724
953.503	3334
953.593	4043
953.683	2746
953.773	1534
953.863	1926
953.953	3292
954.042	2746
954.132	3378
954.222	3137
954.312	2164
954.402	2131
954.492	3140
954.581	3617
954.671	3547
954.761	2097
954.850	3345
954.940	1334
955.030	2234
955.119	2268
955.209	2677
955.298	2585
955.388	4153
955.477	3349
955.567	1842
955.656	2759
955.746	2256
955.835	1550
955.925	2438
956.014	3413
956.103	4402
956.193	3720
956.282	2880
956.371	3024
956.461	3387
956.550	3106
956.639	2514
956.728	2070
956.817	2858
956.906	2220
956.995	3169
957.085	2618
957.174	2929
957.263	1758
957.352	3173
957.441	2213
957.530	1859
957.619	3149
957.708	2633
957.796	2665
957.885	2881
957.974	2410
958.063	3066
958.152	1547
958.241	2727
958.329	2819
958.418	3149
958.507	1875
958.596	4160
958.684	2370
958.773	2872
958.861	2149
958.950	2115
959.039	2141
959.127	2333
959.216	3222
959.304	2257
959.393	2723
959.481	2617
959.570	2967
959.658	2234
959.746	1959
959.835	3226
959.923	2114
960.011	1425
960.100	2643
960.188	2885
960.276	2016
960.365	2388
960.453	1943
960.541	1563
960.629	1620
960.717	1225
960.805	948
960.893	2445
960.981	1576
961.069	3716
961.158	3432
961.245	3984
961.333	3093
961.421	2513
961.509	2323
961.597	2797
961.685	2225
961.773	2973
961.861	2833
961.949	3682
962.036	826
962.124	1771
962.212	1056
962.299	1861
962.387	1311
962.475	2815
962.562	1081
962.650	2782
962.738	1982
962.825	965
962.913	1832
963.000	2318
963.088	1824
963.175	1758
963.263	738
963.350	2047
963.438	1686
963.525	1482
963.612	2697
963.700	2604
963.787	3843
963.874	1961
963.962	1262
964.049	1624
964.136	971
964.223	1159
964.310	2051
964.398	1307
964.485	1645
964.572	2341
964.659	1440
964.746	2154
964.833	1681
964.920	2746
965.007	1800
965.094	1798
965.181	1993
965.268	2547
965.355	1517
965.441	2094
965.528	789
965.615	2186
965.702	1606
965.789	1824
965.875	1967
965.962	1983
966.049	1681
966.136	3339
966.222	1872
966.309	3820
966.395	2835
966.482	3164
966.569	1400
966.655	1717
966.742	1703
966.828	2334
966.915	1291
967.001	1263
967.087	676
967.174	961
967.260	2094
967.347	1909
967.433	2091
967.519	3083
967.605	1771
967.692	2041
967.778	1398
967.864	1871
967.950	1404
968.036	1040
968.123	1252
968.209	989
968.295	1503
968.381	2324
968.467	1447
968.553	538
968.639	2458
968.725	1386
968.811	2215
968.897	3012
968.983	1045
969.069	514
969.154	818
969.240	1913
969.326	417
969.412	1141
969.497	729
969.583	782
969.669	1734
969.755	3122
969.840	2538
969.926	3866
970.012	3828
970.097	5053
970.183	3116
970.268	1778
970.354	2063
970.439	1173
970.525	2523
970.610	1387
970.696	2504
970.781	702
970.866	436
970.952	1269
971.037	1341
971.122	1420
971.208	750
971.293	1967
971.378	507
971.463	1749
971.549	1654
971.634	1833
971.719	1603
971.804	1316
971.889	1127
971.974	1033
972.059	1097
972.144	1544
972.229	1653
972.314	1409
972.399	1558
972.484	736
972.569	1738
972.654	709
972.739	1738
972.824	1391
972.908	384
972.993	2000
973.078	612
973.163	2256
973.247	2338
973.332	515
973.417	3026
973.501	1282
973.586	1877
973.671	1220
973.755	877
973.840	1702
973.924	2258
974.009	3215
974.093	2269
974.178	3120
974.262	1953
974.346	2145
974.431	1178
974.515	1899
974.600	1305
974.684	1301
974.768	1306
974.852	2336
974.937	546
975.021	2208
975.105	1423
975.189	1035
975.273	1561
975.358	1238
975.442	815
975.526	1950
975.610	462
975.694	1111
975.778	1787
975.862	1194
975.946	-26
976.030	3024
976.114	471
976.198	2330
976.281	1559
976.365	1794
976.449	1073
976.533	1595
976.617	770
976.700	943
976.784	1642
976.868	790
976.951	1514
977.035	1189
977.119	520
977.202	1503
977.286	2185
977.369	3269
977.453	3627
977.536	2636
977.620	1596
977.703	2618
977.787	994
977.870	2909
977.953	1838
978.037	204
978.120	2214
978.203	1135
978.287	1768
978.370	2374
978.453	1365
978.536	854
978.620	2042
978.703	1858
978.786	426
978.869	1419
978.952	955
979.035	3077
979.118	1973
979.201	773
979.284	1939
979.367	1035
979.450	1628
979.533	723
979.616	1107
979.699	1159
979.782	1183
979.865	1262
979.948	730
980.030	513
980.113	1221
980.196	898
980.279	1529
980.361	1400
980.444	1271
980.526	2575
980.609	3821
980.692	3197
980.774	2592
980.857	1691
980.939	2833
981.022	1646
981.104	1661
981.187	1502
981.269	2276
981.352	1744
981.434	335
981.516	1275
981.599	2051
981.681	1523
981.763	826
981.846	1860
981.928	2098
982.010	1652
982.092	1813
982.174	2145
982.256	1406
982.339	1420
982.421	1322
982.503	1536
982.585	352
982.667	1606
982.749	1305
982.831	1278
982.913	1243
982.995	2285
983.077	465
983.158	1963
983.240	1350
983.322	3507
983.404	4260
983.486	3094
983.568	2150
983.649	2405
983.731	2294
983.813	1924
983.894	2608
983.976	1545
984.058	1769
984.139	2273
984.221	884
984.302	2830
984.384	1867
984.465	1266
984.547	1652
984.628	1880
984.710	2920
984.791	1626
984.872	1470
984.954	1850
985.035	1896
985.116	2126
985.198	1288
985.279	3552
985.360	1478
985.441	2583
985.522	2203
985.604	1616
985.685	-36
985.766	2681
985.847	3538
985.928	1615
986.009	1756
986.090	2265
986.171	2381
986.252	1826
986.333	1665
986.414	1903
986.495	2707
986.576	2440
986.656	2695
986.737	2590
986.818	1835
986.899	2928
986.980	1343
987.060	3478
987.141	2771
987.222	3025
987.302	3568
987.383	4608
987.464	3004
987.544	3722
987.625	2629
987.705	4019
987.786	3026
987.866	3149
987.947	3323
988.027	3232
988.108	2151
988.188	3182
988.268	2936
988.349	2923
988.429	2583
988.509	3865
988.589	2912
988.670	1135
988.750	3166
988.830	2729
988.910	2972
988.990	2420
989.070	2349
989.151	2331
989.231	1276
989.311	3026
989.391	2664
989.471	2385
989.551	2321
989.631	2208
989.711	2411
989.791	1486
989.870	1697
989.950	2611
990.030	2045
990.110	2544
990.190	1758
990.269	1459
990.349	2024
990.429	2528
990.509	2128
990.588	973
990.668	2336
990.747	1046
990.827	1357
990.907	2095
990.986	1535
991.066	1851
991.145	764
991.225	2017
991.304	2042
991.383	1168
991.463	1499
991.542	2443
991.622	1766
991.701	1952
991.780	686
991.859	1715
991.939	1906
992.018	1348
992.097	781
992.176	1096
992.256	722
992.335	1517
992.414	1511
992.493	1178
992.572	1309
992.651	2417
992.730	746
992.809	1468
992.888	1284
992.967	1636
993.046	402
993.125	1250
993.203	385
993.282	2045
993.361	773
993.440	1685
993.519	1020
993.597	1281
993.676	561
993.755	1884
993.834	727
993.912	520
993.991	2141
994.069	244
994.148	522
994.226	400
994.305	1055
994.384	1116
994.462	1965
994.540	495
994.619	532
994.697	1068
994.776	683
994.854	1802
994.932	344
995.011	739
995.089	526
995.167	1112
995.245	760
995.324	1244
995.402	813
995.480	696
995.558	627
995.636	235
995.714	1050
995.792	1595
995.870	355
995.948	415
996.026	692
996.104	426
996.182	1452
996.260	202
996.338	195
996.416	797
996.494	87
996.572	1054
996.649	269
996.727	54
996.805	633
996.883	-112
996.960	946
997.038	504
997.116	198
997.193	-378
997.271	210
997.348	-138
997.426	643
997.504	-6
997.581	-11
997.658	-145
997.736	112
997.813	121
997.891	1098
997.968	-482
998.046	-566
998.123	819
998.200	430
998.277	-1087
998.355	901
998.432	-645
998.509	260
998.586	757
998.663	-59
998.741	161
998.818	-595
998.895	-334
998.972	11
999.049	930
999.126	-726
999.203	426
999.280	-190
999.357	396
999.434	245
999.511	66
999.587	278
999.664	-400
999.741	174
999.818	611
999.895	61
999.971	-495
1000.048	43
1000.125	657
1000.202	-196
1000.278	-400
1000.355	-157
1000.431	-177
1000.508	-363
1000.584	-169
1000.661	601
1000.738	65
1000.814	-363
1000.890	1047
1000.967	105
1001.043	1058
1001.120	-668
1001.196	-34
1001.272	-801
1001.349	-127
1001.425	-27
1001.501	29
1001.577	-718
1001.654	121
1001.730	-397
1001.806	-172
1001.882	-212
1001.958	521
1002.034	-819
1002.110	-691
1002.186	-1318
1002.262	-328
1002.338	-1063
1002.414	840
1002.490	-21
1002.566	-448
1002.642	-1511
1002.718	239
1002.794	-902
1002.870	-905
1002.945	-1064
1003.021	257
1003.097	-1160
1003.173	254
1003.248	-756
1003.324	260
1003.400	-671
1003.475	-870
1003.551	-558
1003.626	-542
1003.702	-1336
1003.777	-725
1003.853	-660
1003.928	-467
1004.004	-901
1004.079	-4
1004.155	-36
1004.230	-1273
1004.305	1400
1004.381	-780
1004.456	-273
1004.531	-356
1004.607	-924
1004.682	-671
1004.757	-1024
1004.832	-426
1004.907	-1452
1004.982	-334
1005.057	-442
1005.133	-1368
1005.208	-1239
1005.283	-957
1005.358	-859
1005.433	-1143
1005.508	-939
1005.583	-1335
1005.657	-949
1005.732	8
1005.807	-1022
1005.882	-36
1005.957	-1435
1006.032	-256
1006.106	-785
1006.181	-688
1006.256	-301
1006.331	-1102
1006.405	-1143
1006.480	-892
1006.554	-1920
1006.629	-980
1006.704	-657
1006.778	-434
1006.853	-794
1006.927	-949
1007.002	-1276
1007.076	-864
1007.150	-1061
1007.225	-392
1007.299	-1391
1007.373	-1409
1007.448	-1074
1007.522	475
1007.596	-1104
1007.671	-1604
1007.745	-318
1007.819	-173
1007.893	-1100
1007.967	-301
1008.041	-1286
1008.115	-897
1008.190	-709
1008.264	381
1008.338	-1464
1008.412	-866
1008.486	-1221
1008.560	-910
1008.633	-1211
1008.707	-920
1008.781	-829
1008.855	-468
1008.929	-1920
1009.003	-1384
1009.076	-1193
1009.150	-846
1009.224	-1774
1009.298	-744
1009.371	-1212
1009.445	599
1009.519	-1111
1009.592	-1775
1009.666	-622
1009.739	-385
1009.813	-1991
1009.886	-159
1009.960	-1690
1010.033	-297
1010.107	-595
1010.180	-1268
1010.253	-846
1010.327	-1187
1010.400	-360
1010.473	-1367
1010.547	-701
1010.620	-1561
1010.693	-464
1010.766	-842
1010.840	-961
1010.913	-271
1010.986	-1877
1011.059	-1033
1011.132	-1334
1011.205	17
1011.278	-1594
1011.351	-660
1011.424	-1227
1011.497	-1647
1011.570	-1062
1011.643	-1364
1011.716	-1117
1011.789	-628
1011.862	-1214
1011.934	-234
1012.007	-2993
1012.080	-315
1012.153	-817
1012.225	-429
1012.298	-2128
1012.371	-357
1012.443	-1495
1012.516	-1463
1012.588	-1538
1012.661	-986
1012.733	-1378
1012.806	-352
1012.879	-1924
1012.951	-224
1013.023	-1803
1013.096	-819
1013.168	-773
1013.241	-609
1013.313	-2007
1013.385	-1018
1013.458	-1269
1013.530	-565
1013.602	-1272
1013.674	-475
1013.746	-1914
1013.819	-558
1013.891	-154
1013.963	-1466
1014.035	-1655
1014.107	-1533
1014.179	-856
1014.251	-1195
1014.323	-1854
1014.395	-1514
1014.467	-1607
1014.539	-660
1014.611	-1632
1014.683	-859
1014.754	-1314
1014.826	-1004
1014.898	-1375
1014.970	-1041
1015.042	-559
1015.113	-854
1015.185	-1231
1015.257	-2024
1015.328	-336
1015.400	-1348
1015.471	-894
1015.543	-1842
1015.615	-892
1015.686	-1155
1015.757	-1395
1015.829	-496
1015.901	-1674
1015.972	-904
1016.043	-1255
1016.115	-782
1016.186	-1459
1016.257	-2078
1016.328	-1417
1016.400	-690
1016.471	-1125
1016.542	-1621
1016.613	-1416
1016.685	-935
1016.756	-75
1016.827	-739
1016.898	-1307
1016.969	-421
1017.040	-903
1017.111	-1272
1017.182	-2323
1017.253	-1075
1017.324	-1910
1017.395	-464
1017.466	-954
1017.537	-1427
1017.608	-1628
1017.678	-692
1017.749	-790
1017.820	-993
1017.891	-1136
1017.961	-1435
1018.032	-1694
1018.103	-1572
1018.173	-1369
1018.244	-1164
1018.315	-2187
1018.385	-889
1018.456	-677
1018.526	-1892
1018.597	-1963
1018.667	-993
1018.738	-2043
1018.808	-1754
1018.878	-1329
1018.949	-947
1019.019	-358
1019.089	-1043
1019.160	-1655
1019.230	-1104
1019.300	-1140
1019.371	-2339
1019.441	-987
1019.511	-1393
1019.581	-1524
1019.651	-1366
1019.721	-1249
1019.791	-942
1019.861	-1528
1019.931	-964
1020.001	-1964
1020.071	-1471
1020.141	-1375
1020.211	-680
1020.281	-1714
1020.351	-1831
1020.421	-1513
1020.491	-1342
1020.560	-1463
1020.630	-1778
1020.700	-1683
1020.770	-1512
1020.839	-412
1020.909	-1810
1020.979	-1600
1021.048	-1765
1021.118	-2000
1021.187	-1679
1021.257	-1307
1021.326	-272
1021.396	-1833
1021.465	-1053
1021.535	-2103
1021.604	-1851
1021.674	-1570
1021.743	-1246
1021.812	-1568
1021.882	-1290
1021.951	-1962
1022.020	-1392
1022.089	-1105
1022.159	-1257
1022.228	-1710
1022.297	-1661
1022.366	-1777
1022.435	-787
1022.504	-1063
1022.573	-1349
1022.642	-1797
1022.711	-1947
1022.781	-675
1022.849	-1274
1022.918	-1909
1022.987	-1426
1023.056	-1014
1023.125	-1522
1023.194	-1812
1023.263	-1229
1023.331	-1594
1023.400	-1174
1023.469	-1761
1023.538	-1046
1023.606	-2052
1023.675	-927
1023.744	-1657
1023.812	-1110
1023.881	-1687
1023.949	-1247
1024.018	-1729
1024.086	-1270
1024.155	-1907
1024.223	-1950
1024.292	-1809
1024.360	-1739
1024.429	-931
1024.497	-1607
1024.565	-1719
1024.634	-1187
1024.702	-765
1024.770	-1117
1024.838	-2445
1024.907	-1162
1024.975	-1965
1025.043	-1810
1025.111	-3551
1025.179	-928
1025.247	-1634
1025.315	-1528
1025.383	-1869
1025.451	-2212
1025.519	-2280
1025.587	-1763
1025.655	-1601
1025.723	-1561
1025.791	-1428
1025.859	-728
1025.927	-1178
1025.995	-1096
1026.062	-1675
1026.130	-2282
1026.198	-2489
1026.266	-1860
1026.333	-1047
1026.401	-1117
1026.469	-1849
1026.536	-1635
1026.604	-2312
1026.671	-1521
1026.739	-2081
1026.806	-1835
1026.874	-608
1026.941	-1624
1027.009	-2069
1027.076	-804
1027.144	-1042
1027.211	-1657
1027.278	-2142
1027.345	-1607
1027.413	-1834
1027.480	-1058
1027.547	-1224
1027.614	-1504
1027.682	-1254
1027.749	-1053
1027.816	-1970
1027.883	-348
1027.950	-1774
1028.017	-1344
1028.084	-1954
1028.151	-1508
1028.218	-1793
1028.285	-1553
1028.352	-1140
1028.419	-1495
1028.486	-1815
1028.553	-1618
1028.619	-2331
1028.686	-1110
1028.753	-2027
1028.820	-1521
1028.886	-1060
1028.953	-1302
1029.020	-2462
1029.086	-1570
1029.153	-2257
1029.220	-1277
1029.286	-1185
1029.353	-978
1029.419	-1808
1029.486	-1386
1029.552	-1431
1029.619	-1680
1029.685	-2564
1029.751	-1395
1029.818	-645
1029.884	-2068
1029.951	-1409
1030.017	-2246
1030.083	-2279
1030.149	-2059
1030.216	-2394
1030.282	-1416
1030.348	-1533
1030.414	-1769
1030.480	-1542
1030.546	-1634
1030.612	-2836
1030.678	-1871
1030.744	-2218
1030.810	-1031
1030.876	-1762
1030.942	-1253
1031.008	-2018
1031.074	-1676
1031.140	-2031
1031.206	-1218
1031.272	-2308
1031.337	-2242
1031.403	-1463
1031.469	-1067
1031.534	-1550
1031.600	-1120
1031.666	-1961
1031.731	-1827
1031.797	-1901
1031.863	-1529
1031.928	-1751
1031.994	-1149
1032.059	-2372
1032.125	-1547
1032.190	-2273
1032.256	-1997
1032.321	-2710
1032.386	-1351
1032.452	-1434
1032.517	-1702
1032.582	-1671
1032.647	-1618
1032.713	-2469
1032.778	-1173
1032.843	-2208
1032.908	-1719
1032.974	-1669
1033.039	-1839
1033.104	-1445
1033.169	-2381
1033.234	-2540
1033.299	-942
1033.364	-1823
1033.429	-1496
1033.494	-1794
1033.559	-2068
1033.624	-1515
1033.688	-1185
1033.753	-2228
1033.818	-1598
1033.883	-1578
1033.948	-714
1034.013	-1535
1034.077	-158
1034.142	-426
1034.207	266
1034.271	1481
1034.336	2232
1034.400	1029
1034.465	-379
1034.530	-1153
1034.594	-388
1034.658	-2040
1034.723	-2183
1034.787	-1325
1034.852	-1844
1034.916	-1367
1034.981	-1689
1035.045	-1644
1035.109	-1421
1035.173	-2415
1035.238	-1491
1035.302	-1762
1035.366	-1464
1035.430	-2176
1035.495	-2240
1035.559	-2049
1035.623	-1723
1035.687	-2406
1035.751	-2180
1035.815	-1768
1035.879	-1020
1035.943	-2064
1036.007	-2207
1036.071	-1514
1036.135	-2242
1036.198	-2004
1036.262	-1360
1036.326	-1901
1036.390	-1864
1036.454	-2391
1036.517	-1598
1036.581	-1687
1036.645	-2429
1036.709	-1734
1036.772	-1647
1036.836	-1892
1036.900	-1930
1036.963	-2308
1037.026	-1693
1037.090	-2455
1037.154	-1783
1037.217	-2418
1037.280	-820
1037.344	-2479
1037.407	-2039
1037.471	-1941
1037.534	-1836
1037.597	-2208
1037.661	-1866
1037.724	-1954
1037.787	-1860
1037.850	-1752
1037.913	-1191
1037.977	-1872
1038.040	-2174
1038.103	-1325
1038.166	-2518
1038.229	-1610
1038.292	-1564
1038.355	-2244
1038.418	-1753
1038.481	-1264
1038.544	-1503
1038.607	-2168
1038.670	-2329
1038.732	-1611
1038.795	-2451
1038.858	-1254
1038.921	-1355
1038.984	-1750
1039.046	-1363
1039.109	-2505
1039.172	-2202
1039.234	-2059
1039.297	-2337
1039.360	-1509
1039.422	-2008
1039.485	-1893
1039.547	-2306
1039.610	-2363
1039.672	-1475
1039.734	-1927
1039.797	-1855
1039.859	-2181
1039.922	-1485
1039.984	-2720
1040.046	-2401
1040.109	-1455
1040.171	-1709
1040.233	-2020
1040.295	-2018
1040.358	-2142
1040.420	-2649
1040.482	-2201
1040.544	-1568
1040.606	-2595
1040.668	-1364
1040.730	-2218
1040.792	-1363
1040.854	-2125
1040.916	-2047
1040.978	-1424
1041.040	-846
1041.102	-1188
1041.164	-2324
1041.225	-2601
1041.287	-1950
1041.349	-1912
1041.411	-1780
1041.472	-2189
1041.534	-1315
1041.596	-2694
1041.657	-1723
1041.719	-2096
1041.781	-1527
1041.842	-2174
1041.904	-1632
1041.965	-1967
1042.027	-2065
1042.088	-1695
1042.150	-1820
1042.211	-1882
1042.272	-1621
1042.334	-1762
1042.395	-1881
1042.456	-2590
1042.518	-1896
1042.579	-1072
1042.640	-2056
1042.701	-2313
1042.763	-2683
1042.824	-1708
1042.885	-2069
1042.946	-2589
1043.007	-2420
1043.068	-2114
1043.129	-2025
1043.190	-2428
1043.251	-1262
1043.312	-1717
1043.373	-2163
1043.434	-2480
1043.495	-1273
1043.556	-1852
1043.616	-1318
1043.677	-2615
1043.738	-2395
1043.799	-2500
1043.859	-1894
1043.920	-1646
1043.981	-1826
1044.041	-1692
1044.102	-1437
1044.162	-1375
1044.223	-2174
1044.284	-1865
1044.344	-1882
1044.405	-2200
1044.465	-1364
1044.525	-2289
1044.586	-1200
1044.646	-2645
1044.707	-603
1044.767	-1611
1044.827	-2662
1044.887	-1808
1044.948	-1280
1045.008	-1709
1045.068	-1643
1045.128	-2385
1045.188	-1485
1045.249	-1886
1045.309	-1762
1045.369	-2421
1045.429	-1633
1045.489	-1862
1045.549	-1118
1045.609	-1781
1045.669	-1791
1045.729	-1409
1045.789	-1613
1045.848	-2442
1045.908	-1086
1045.968	-1252
1046.028	-870
1046.088	-1704
1046.147	-433
1046.207	-1390
1046.267	-1525
1046.326	-1360
1046.386	-861
1046.446	-1224
1046.505	-1252
1046.565	-942
1046.624	-735
1046.684	-1739
1046.743	-415
1046.803	-931
1046.862	-505
1046.922	0
