'Start Wavelength	183.907
'End Wavelength	1046.922
'Gate Delay	5.000
'Gate Width (ms)	1.050
'Laser Output Level	0.000
'X Position	0.000
'Y Position	0.000
'Z Position	0.000
'Grid Point Number	1.000
'Shot Number	100.000
183.907	-67.000
183.977	-782.000
184.047	643
184.116	304
184.186	-142
184.256	178
184.325	-1113
184.395	96
184.465	211
184.534	57
184.604	-1151
184.674	-305
184.743	-496
184.813	601
184.883	-263
184.952	149
185.022	-96
185.092	412
185.161	-482
185.231	112
185.301	-347
185.370	772
185.440	-628
185.509	-757
185.579	-292
185.649	310
185.718	-373
185.788	278
185.857	-106
185.927	-183
185.996	-116
186.066	-241
186.136	-542
186.205	-355
186.275	-414
186.344	303
186.414	-265
186.483	-550
186.553	304
186.622	734
186.692	-30
186.761	401
186.831	-222
186.900	477
186.970	279
187.039	779
187.109	177
187.178	395
187.248	127
187.317	203
187.387	-1089
187.456	637
187.526	-409
187.595	630
187.664	-504
187.734	622
187.803	-530
187.873	346
187.942	-203
188.012	877
188.081	250
188.150	-136
188.220	-535
188.289	36
188.358	-441
188.428	48
188.497	-1165
188.567	1728
188.636	-387
188.705	-305
188.775	-1319
188.844	441
188.913	399
188.983	-259
189.052	-499
189.121	-300
189.191	-560
189.260	490
189.329	65
189.399	-41
189.468	-338
189.537	-38
189.606	-119
189.676	750
189.745	-411
189.814	485
189.883	-132
189.953	294
190.022	220
190.091	118
190.161	934
190.230	251
190.299	-542
190.368	-179
190.437	-379
190.507	-213
190.576	-349
190.645	308
190.714	-422
190.783	258
190.853	448
190.922	294
190.991	-449
191.060	724
191.129	-669
191.198	-61
191.268	-364
191.337	787
191.406	-147
191.475	264
191.544	-192
191.613	559
191.682	329
191.752	500
191.821	-461
191.890	16
191.959	3
192.028	272
192.097	307
192.166	288
192.235	-520
192.304	996
192.373	-537
192.442	343
192.511	176
192.580	891
192.650	-32
192.719	1005
192.788	-295
192.857	695
192.926	-1431
192.995	567
193.064	-352
193.133	-33
193.202	32
193.271	353
193.340	547
193.409	-54
193.478	-40
193.547	252
193.615	-822
193.684	208
193.753	-991
193.822	1168
193.891	148
193.960	1288
194.029	-511
194.098	3
194.167	-224
194.236	1260
194.305	-497
194.374	-34
194.443	-785
194.512	537
194.580	-60
194.649	123
194.718	-406
194.787	584
194.856	-433
194.925	327
194.994	-314
195.062	188
195.131	-845
195.200	131
195.269	-112
195.338	-133
195.407	-475
195.475	422
195.544	-392
195.613	272
195.682	-81
195.751	-52
195.819	177
195.888	555
195.957	582
196.026	513
196.094	373
196.163	229
196.232	22
196.301	477
196.369	295
196.438	402
196.507	-479
196.576	196
196.644	-391
196.713	766
196.782	-841
196.850	1261
196.919	-383
196.988	91
197.056	-302
197.125	462
197.194	-626
197.262	185
197.331	28
197.400	681
197.468	-745
197.537	79
197.606	-1103
197.674	526
197.743	-62
197.812	79
197.880	111
197.949	7
198.017	-451
198.086	566
198.155	-626
198.223	996
198.292	-224
198.360	-227
198.429	-314
198.497	289
198.566	-1476
198.635	462
198.703	264
198.772	198
198.840	61
198.909	668
198.977	13
199.046	788
199.114	-293
199.183	258
199.251	-434
199.320	173
199.388	-300
199.457	574
199.525	-255
199.594	-626
199.662	-1080
199.731	208
199.799	-1303
199.867	442
199.936	-487
200.004	1222
200.073	-392
200.141	115
200.210	-150
200.278	539
200.346	296
200.415	563
200.483	-432
200.552	212
200.620	-350
200.688	-52
200.757	-167
200.825	-269
200.893	-1089
200.962	-411
201.030	-961
201.098	409
201.167	-253
201.235	648
201.303	-926
201.372	121
201.440	-94
201.508	130
201.577	-727
201.645	-29
201.713	-223
201.781	-268
201.850	546
201.918	224
201.986	176
202.055	483
202.123	-330
202.191	159
202.259	-44
202.327	494
202.396	94
202.464	233
202.532	-253
202.600	943
202.669	277
202.737	-112
202.805	26
202.873	573
202.941	-799
203.009	-277
203.078	227
203.146	1016
203.214	-552
203.282	-738
203.350	236
203.418	-178
203.487	-617
203.555	246
203.623	-177
203.691	118
203.759	-904
203.827	467
203.895	-1428
203.963	302
204.031	-700
204.099	700
204.168	-225
204.236	150
204.304	-598
204.372	93
204.440	-250
204.508	-156
204.576	-1321
204.644	-30
204.712	-612
204.780	462
204.848	501
204.916	-61
204.984	290
205.052	217
205.120	-398
205.188	-588
205.256	-839
205.324	-97
205.392	-935
205.460	127
205.528	-814
205.596	35
205.664	-178
205.732	-443
205.799	-765
205.867	879
205.935	-1131
206.003	699
206.071	-569
206.139	261
206.207	-607
206.275	-244
206.343	-1070
206.411	-252
206.478	45
206.546	493
206.614	-790
206.682	-407
206.750	-981
206.818	720
206.885	-480
206.953	-665
207.021	138
207.089	471
207.157	-484
207.225	-120
207.292	-941
207.360	-632
207.428	-59
207.496	-363
207.563	-871
207.631	805
207.699	-223
207.767	-248
207.834	-562
207.902	-562
207.970	-304
208.038	710
208.105	-747
208.173	-91
208.241	-387
208.309	937
208.376	94
208.444	-1
208.512	-541
208.579	-358
208.647	-362
208.715	949
208.782	-989
208.850	53
208.918	-850
208.985	-335
209.053	-878
209.120	141
209.188	-673
209.256	72
209.323	-1746
209.391	-510
209.459	519
209.526	753
209.594	-658
209.661	-570
209.729	-530
209.796	339
209.864	-462
209.932	-911
209.999	431
210.067	803
210.134	-1012
210.202	-207
210.269	-522
210.337	274
210.404	-562
210.472	161
210.539	-152
210.607	-470
210.674	-915
210.742	155
210.809	-534
210.877	706
210.944	-102
211.012	-762
211.079	815
211.146	636
211.214	-612
211.281	64
211.349	-17
211.416	-152
211.484	-905
211.551	-572
211.618	-236
211.686	33
211.753	-966
211.821	713
211.888	-714
211.955	142
212.023	-771
212.090	439
212.157	-1039
212.225	-444
212.292	-153
212.359	346
212.427	1156
212.494	673
212.561	-464
212.629	-505
212.696	-159
212.763	146
212.831	-1196
212.898	735
212.965	-1106
213.032	20
213.100	-513
213.167	-431
213.234	351
213.301	-776
213.369	-240
213.436	-83
213.503	-821
213.570	-522
213.638	-208
213.705	-528
213.772	-837
213.839	-256
213.906	-1107
213.973	-233
214.041	-839
214.108	542
214.175	-309
214.242	267
214.309	-504
214.376	447
214.444	-925
214.511	217
214.578	-607
214.645	306
214.712	-670
214.779	-122
214.846	-634
214.913	863
214.980	538
215.048	337
215.115	272
215.182	70
215.249	-576
215.316	441
215.383	144
215.450	529
215.517	-110
215.584	1012
215.651	-771
215.718	193
215.785	177
215.852	-957
215.919	-421
215.986	-378
216.053	-485
216.120	104
216.187	140
216.254	734
216.321	-705
216.388	20
216.455	395
216.522	440
216.589	-608
216.656	-521
216.722	-554
216.789	-144
216.856	35
216.923	396
216.990	-336
217.057	189
217.124	117
217.191	-700
217.258	314
217.324	-585
217.391	-41
217.458	-286
217.525	-761
217.592	988
217.659	-1191
217.725	502
217.792	-960
217.859	1011
217.926	-1046
217.993	-622
218.059	159
218.126	-315
218.193	-727
218.260	97
218.327	325
218.393	235
218.460	-841
218.527	-1
218.594	-910
218.660	-307
218.727	-112
218.794	-1199
218.860	62
218.927	-213
218.994	-195
219.061	-152
219.127	-252
219.194	-598
219.261	-471
219.327	181
219.394	-811
219.461	-1295
219.527	-473
219.594	396
219.661	-1330
219.727	-965
219.794	123
219.860	-1259
219.927	203
219.994	431
220.060	804
220.127	1153
220.193	252
220.260	-684
220.326	-582
220.393	-242
220.460	-469
220.526	197
220.593	-1298
220.659	1494
220.726	-862
220.792	440
220.859	-1098
220.925	277
220.992	455
221.058	1356
221.125	566
221.191	535
221.258	-1318
221.324	550
221.391	-1461
221.457	-585
221.524	-214
221.590	705
221.657	-340
221.723	-613
221.789	-86
221.856	1147
221.922	-666
221.989	406
222.055	-1093
222.121	-540
222.188	956
222.254	423
222.321	-157
222.387	-328
222.453	-386
222.520	-125
222.586	-1254
222.652	85
222.719	-975
222.785	291
222.851	-1219
222.918	-628
222.984	95
223.050	65
223.116	-2028
223.183	246
223.249	-1074
223.315	-1262
223.382	-856
223.448	-491
223.514	-1131
223.580	-147
223.647	-769
223.713	-423
223.779	-992
223.845	697
223.911	-232
223.978	-369
224.044	-701
224.110	-420
224.176	-683
224.242	-918
224.309	-1669
224.375	374
224.441	-1313
224.507	-883
224.573	-1777
224.639	490
224.705	-394
224.772	-713
224.838	-437
224.904	314
224.970	-1056
225.036	-276
225.102	-1347
225.168	595
225.234	-462
225.300	27
225.366	-1344
225.432	432
225.499	-563
225.565	-71
225.631	-1657
225.697	-536
225.763	-936
225.829	298
225.895	-276
225.961	633
226.027	-634
226.093	-834
226.159	82
226.225	1295
226.291	938
226.357	2243
226.423	-148
226.489	794
226.554	-156
226.620	64
226.686	-1129
226.752	207
226.818	192
226.884	3267
226.950	2233
227.016	618
227.082	-92
227.148	76
227.214	-486
227.279	526
227.345	-765
227.411	188
227.477	273
227.543	1655
227.609	2478
227.674	1086
227.740	-625
227.806	-260
227.872	-904
227.938	-567
228.003	-1076
228.069	-403
228.135	-1836
228.201	10
228.267	-1089
228.332	73
228.398	-2357
228.464	279
228.530	-1268
228.595	-194
228.661	-1101
228.727	-231
228.792	246
228.858	-781
228.924	-2330
228.990	201
229.055	-1283
229.121	110
229.187	-1741
229.252	-433
229.318	-407
229.384	347
229.449	155
229.515	-2184
229.581	-2222
229.646	1545
229.712	-863
229.777	-790
229.843	-1156
229.909	503
229.974	-368
230.040	24
230.105	-1033
230.171	-728
230.236	-487
230.302	301
230.368	-1014
230.433	-882
230.499	-1025
230.564	853
230.630	-1507
230.695	-159
230.761	-234
230.826	-825
230.892	-263
230.957	-492
231.023	-1220
231.088	-193
231.154	-978
231.219	-145
231.284	-794
231.350	273
231.415	-1655
231.481	497
231.546	-655
231.612	-21
231.677	-1172
231.742	-1303
231.808	-15
231.873	-1162
231.939	-2029
232.004	616
232.069	-290
232.135	-377
232.200	-780
232.265	435
232.331	-1225
232.396	-531
232.461	-158
232.527	-535
232.592	-2125
232.657	-318
232.723	-1092
232.788	-422
232.853	-151
232.918	286
232.984	-1089
233.049	-313
233.114	-1296
233.179	467
233.245	-587
233.310	337
233.375	-1941
233.440	88
233.506	-933
233.571	3
233.636	-183
233.701	-108
233.766	-1643
233.832	322
233.897	-1276
233.962	-823
234.027	-485
234.092	473
234.157	-692
234.222	-258
234.288	-690
234.353	-825
234.418	284
234.483	757
234.548	-581
234.613	-15
234.678	363
234.743	-1098
234.808	-145
234.873	-1164
234.938	509
235.004	-623
235.069	-1246
235.134	-1252
235.199	209
235.264	-70
235.329	-1827
235.394	39
235.459	-334
235.524	-474
235.589	300
235.654	-518
235.719	-2028
235.784	-660
235.849	-1107
235.913	-158
235.978	-1935
236.043	-196
236.108	-813
236.173	-614
236.238	-173
236.303	-1146
236.368	-826
236.433	387
236.498	-1019
236.563	948
236.627	-605
236.692	4089
236.757	2604
236.822	1087
236.887	-1887
236.952	796
237.017	-2104
237.081	873
237.146	-1445
237.211	1963
237.276	2400
237.341	7153
237.405	1304
237.470	452
237.535	244
237.600	82
237.664	154
237.729	-502
237.794	-1687
237.859	1561
237.923	-926
237.988	155
238.053	-885
238.118	-211
238.182	-763
238.247	1753
238.312	-1757
238.376	1029
238.441	-2298
238.506	693
238.570	-1860
238.635	606
238.700	-710
238.764	-3
238.829	-214
238.893	-763
238.958	-632
239.023	-791
239.087	-1679
239.152	123
239.216	-924
239.281	526
239.346	-1373
239.410	-197
239.475	-1009
239.539	880
239.604	-1255
239.668	741
239.733	-1115
239.797	1873
239.862	4228
239.926	3105
239.991	930
240.055	725
240.120	-1622
240.184	1148
240.249	-1071
240.313	344
240.378	-520
240.442	612
240.507	-363
240.571	-84
240.635	-1122
240.700	-68
240.764	-1279
240.829	18
240.893	-1726
240.957	632
241.022	-543
241.086	1255
241.151	-1628
241.215	-1165
241.279	190
241.344	-679
241.408	-34
241.472	-1078
241.537	-340
241.601	-75
241.665	-1583
241.730	161
241.794	-253
241.858	-170
241.922	-880
241.987	-111
242.051	-1183
242.115	-1974
242.179	-834
242.244	-311
242.308	-41
242.372	-128
242.436	-1408
242.501	-186
242.565	-1595
242.629	-879
242.693	312
242.757	-716
242.822	-934
242.886	-511
242.950	-98
243.014	-1346
243.078	-910
243.142	-376
243.206	-1101
243.271	-758
243.335	-1414
243.399	801
243.463	-372
243.527	4053
243.591	-290
243.655	515
243.719	-2026
243.783	349
243.847	62
243.911	-328
243.975	-1514
244.040	-1482
244.104	677
244.168	-388
244.232	-1140
244.296	-266
244.360	-803
244.424	-979
244.488	-1078
244.552	-101
244.615	-2040
244.679	73
244.743	-1433
244.807	-1069
244.871	-833
244.935	18
244.999	-2110
245.063	-734
245.127	-34
245.191	-142
245.255	-810
245.319	237
245.383	-3068
245.446	1119
245.510	-960
245.574	13
245.638	41
245.702	-1744
245.766	-1270
245.829	512
245.893	-1521
245.957	-1143
246.021	-706
246.085	-766
246.149	-1777
246.212	848
246.276	-395
246.340	-2
246.404	-788
246.467	620
246.531	-3415
246.595	309
246.659	-181
246.722	-2014
246.786	-573
246.850	274
246.913	-572
246.977	-848
247.041	-1131
247.104	339
247.168	-430
247.232	108
247.295	916
247.359	694
247.423	-849
247.486	104
247.550	-631
247.614	-301
247.677	-802
247.741	-464
247.804	-905
247.868	262
247.932	-848
247.995	1644
248.059	-486
248.122	-1610
248.186	223
248.249	208
248.313	1443
248.376	2662
248.440	352
248.503	-334
248.567	349
248.630	-676
248.694	-458
248.757	1407
248.821	2466
248.884	1653
248.948	-514
249.011	2259
249.075	2029
249.138	2770
249.202	221
249.265	-65
249.328	87
249.392	-874
249.455	-1145
249.519	-315
249.582	-260
249.645	85
249.709	88
249.772	-194
249.835	-557
249.899	-514
249.962	-422
250.025	-1337
250.089	-647
250.152	1429
250.215	-139
250.279	-888
250.342	-744
250.405	-174
250.468	-1045
250.532	-163
250.595	483
250.658	3201
250.721	8278
250.785	1694
250.848	1305
250.911	-1
250.974	537
251.038	141
251.101	1154
251.164	645
251.227	937
251.290	199
251.354	291
251.417	6063
251.480	6066
251.543	3232
251.606	12165
251.669	9936
251.732	1132
251.795	2920
251.859	2484
251.922	8208
251.985	3844
252.048	1623
252.111	-100
252.174	-48
252.237	-141
252.300	2868
252.363	2798
252.426	11587
252.489	2538
252.552	1439
252.615	-641
252.678	1370
252.741	2111
252.804	3039
252.867	10680
252.930	5154
252.993	1073
253.056	1575
253.119	-779
253.182	-318
253.245	-987
253.308	811
253.371	-699
253.434	824
253.497	-235
253.559	1827
253.622	-23
253.685	115
253.748	-477
253.811	-577
253.874	541
253.937	-764
254.000	-719
254.062	855
254.125	903
254.188	1121
254.251	-419
254.314	-802
254.376	-795
254.439	1184
254.502	-304
254.565	188
254.628	1427
254.690	495
254.753	-846
254.816	-642
254.878	-1027
254.941	1097
255.004	234
255.067	85
255.129	-489
255.192	297
255.255	-1515
255.317	-246
255.380	-429
255.443	-783
255.505	-1062
255.568	-925
255.631	-1275
255.693	512
255.756	-1573
255.819	516
255.881	-1277
255.944	-224
256.006	-1484
256.069	146
256.132	-345
256.194	184
256.257	-571
256.319	42
256.382	-1739
256.444	1205
256.507	-259
256.569	160
256.632	-981
256.694	-640
256.757	1309
256.819	7361
256.882	543
256.944	111
257.007	563
257.069	-811
257.132	-719
257.194	1250
257.257	-1092
257.319	-1014
257.381	-823
257.444	1668
257.506	6888
257.569	7841
257.631	1184
257.693	1026
257.756	-472
257.818	-11
257.880	-1188
257.943	234
258.005	-1351
258.067	-628
258.130	28
258.192	-695
258.254	-1206
258.317	-703
258.379	-277
258.441	423
258.503	-209
258.566	-188
258.628	636
258.690	-910
258.753	-84
258.815	-291
258.877	-2059
258.939	-257
259.001	-101
259.064	-443
259.126	-1010
259.188	-288
259.250	-1431
259.312	253
259.375	-97
259.437	-173
259.499	-901
259.561	-85
259.623	-703
259.685	-710
259.747	-315
259.809	784
259.872	377
259.934	2176
259.996	2102
260.058	356
260.120	-1477
260.182	-406
260.244	-928
260.306	-400
260.368	-685
260.430	-137
260.492	-278
260.554	1434
260.616	-1185
260.678	-292
260.740	798
260.802	-487
260.864	-683
260.926	-791
260.988	-357
261.050	-510
261.112	-775
261.174	2402
261.236	452
261.298	-140
261.359	-349
261.421	954
261.483	-980
261.545	473
261.607	-1891
261.669	348
261.731	-982
261.793	604
261.854	-1789
261.916	372
261.978	-1217
262.040	-23
262.102	-977
262.164	275
262.225	-708
262.287	-528
262.349	-499
262.411	14
262.472	209
262.534	-986
262.596	-729
262.658	-70
262.719	-1288
262.781	27
262.843	-1257
262.904	903
262.966	-216
263.028	-547
263.090	586
263.151	3754
263.213	898
263.275	465
263.336	-222
263.398	639
263.459	-1420
263.521	-323
263.583	-174
263.644	-186
263.706	-909
263.767	-549
263.829	-532
263.891	-350
263.952	-900
264.014	-676
264.075	-591
264.137	1167
264.198	-382
264.260	-466
264.321	-412
264.383	133
264.444	804
264.506	-89
264.567	-334
264.629	1074
264.690	343
264.752	52
264.813	-726
264.875	-116
264.936	34
264.998	-269
265.059	-129
265.120	42
265.182	-797
265.243	1968
265.305	1270
265.366	751
265.427	-976
265.489	966
265.550	-1853
265.611	-694
265.673	-1154
265.734	-824
265.795	-413
265.857	-436
265.918	-1442
265.979	517
266.040	3499
266.102	3631
266.163	531
266.224	-198
266.286	-149
266.347	-300
266.408	-270
266.469	-211
266.530	-293
266.592	-180
266.653	-633
266.714	-569
266.775	-527
266.836	573
266.898	-1207
266.959	-69
267.020	-613
267.081	828
267.142	-512
267.203	-57
267.264	-1277
267.326	453
267.387	-606
267.448	-406
267.509	-241
267.570	14
267.631	-1199
267.692	-442
267.753	-445
267.814	-563
267.875	-688
267.936	525
267.997	-709
268.058	-369
268.119	-1130
268.180	-763
268.241	-1583
268.302	-187
268.363	-1039
268.424	408
268.485	-540
268.546	-765
268.607	-1602
268.668	-244
268.729	-1584
268.790	-550
268.851	-447
268.912	-161
268.972	-486
269.033	-742
269.094	-1312
269.155	-495
269.216	-39
269.277	-531
269.338	-745
269.398	20
269.459	-1482
269.520	425
269.581	-233
269.642	-214
269.702	-1459
269.763	-396
269.824	-1514
269.885	67
269.945	-261
270.006	223
270.067	-984
270.128	-761
270.188	-1346
270.249	-512
270.310	-1495
270.370	18
270.431	-992
270.492	-442
270.553	-930
270.613	304
270.674	207
270.734	-26
270.795	-1472
270.856	-229
270.916	-674
270.977	-605
271.038	-693
271.098	-406
271.159	-1099
271.219	-55
271.280	-538
271.340	-112
271.401	-1372
271.462	67
271.522	-208
271.583	335
271.643	-461
271.704	-309
271.764	-875
271.825	86
271.885	2171
271.946	3697
272.006	-36
272.066	1851
272.127	3139
272.187	3521
272.248	167
272.308	354
272.369	843
272.429	411
272.489	75
272.550	339
272.610	-379
272.671	750
272.731	476
272.791	250
272.852	-547
272.912	416
272.972	-3
273.033	-310
273.093	-373
273.153	938
273.214	-19
273.274	293
273.334	1871
273.394	3511
273.455	1291
273.515	1232
273.575	2479
273.635	1532
273.696	1709
273.756	4107
273.816	1438
273.876	1497
273.936	193
273.997	2156
274.057	-228
274.117	352
274.177	-274
274.237	2915
274.297	2794
274.358	952
274.418	1028
274.478	1440
274.538	-328
274.598	-313
274.658	-58
274.718	469
274.778	-153
274.838	0
274.898	-1737
274.958	1396
275.018	1926
275.078	1559
275.138	287
275.198	-157
275.258	-707
275.318	13
275.378	-784
275.438	190
275.498	401
275.558	816
275.618	815
275.678	1625
275.738	-58
275.798	133
275.858	-979
275.918	-88
275.978	-737
276.038	198
276.098	-345
276.157	105
276.217	635
276.277	324
276.337	-941
276.397	-71
276.457	-386
276.517	352
276.576	-543
276.636	-357
276.696	-922
276.756	1276
276.815	-185
276.875	303
276.935	-944
276.995	41
277.055	101
277.114	79
277.174	-587
277.234	1083
277.293	-779
277.353	-228
277.413	-448
277.472	1029
277.532	-446
277.592	1170
277.651	4359
277.711	12511
277.771	3005
277.830	11046
277.890	10399
277.950	5742
278.009	19839
278.069	8566
278.128	7213
278.188	13948
278.248	4403
278.307	13709
278.367	8647
278.426	2112
278.486	183
278.545	675
278.605	-103
278.664	434
278.724	-564
278.783	2063
278.843	3321
278.902	1947
278.962	-17
279.021	1126
279.081	1946
279.140	2076
279.199	1701
279.259	1988
279.318	2790
279.378	4118
279.437	4122
279.496	14874
279.556	53522
279.615	50063
279.675	13986
279.734	7812
279.793	6581
279.853	10151
279.912	4248
279.971	3326
280.031	1574
280.090	4351
280.149	7348
280.208	7956
280.268	35663
280.327	43440
280.386	9966
280.445	4982
280.505	2864
280.564	2385
280.623	1365
280.682	1532
280.742	1505
280.801	605
280.860	299
280.919	1116
280.978	171
281.037	889
281.097	359
281.156	1488
281.215	13
281.274	1096
281.333	2064
281.392	1792
281.451	189
281.510	355
281.569	-843
281.628	145
281.688	-61
281.747	772
281.806	-43
281.865	154
281.924	-884
281.983	21
282.042	-827
282.101	243
282.160	300
282.219	244
282.278	-167
282.337	1285
282.396	-192
282.454	406
282.513	-349
282.572	1806
282.631	417
282.690	0
282.749	-498
282.808	740
282.867	-444
282.926	217
282.985	37
283.043	728
283.102	-65
283.161	330
283.220	-239
283.279	2527
283.338	318
283.396	1348
283.455	-360
283.514	1084
283.573	197
283.631	536
283.690	-133
283.749	850
283.808	175
283.866	1483
283.925	250
283.984	858
284.043	405
284.101	1568
284.160	859
284.219	2256
284.277	1696
284.336	1417
284.395	2687
284.453	4048
284.512	1914
284.570	3807
284.629	3385
284.688	5078
284.746	5418
284.805	8919
284.863	9856
284.922	14751
284.981	15836
285.039	22468
285.098	32862
285.156	49499
285.215	42855
285.273	38382
285.332	49081
285.390	39485
285.449	26196
285.507	20356
285.566	13181
285.624	11283
285.683	8094
285.741	7823
285.799	4762
285.858	4107
285.916	3206
285.975	3695
286.033	1494
286.091	2595
286.150	1889
286.208	2476
286.267	2142
286.325	2249
286.383	488
286.442	2038
286.500	208
286.558	1131
286.616	1109
286.675	815
286.733	397
286.791	1442
286.850	819
286.908	936
286.966	1113
287.024	623
287.083	-464
287.141	700
287.199	244
287.257	1166
287.315	576
287.374	626
287.432	311
287.490	971
287.548	90
287.606	841
287.664	-297
287.723	369
287.781	18
287.839	834
287.897	-486
287.955	756
288.013	409
288.071	2092
288.129	6965
288.187	31928
288.245	13730
288.303	3183
288.361	1901
288.419	1090
288.477	150
288.535	1071
288.593	-97
288.651	583
288.709	-270
288.767	542
288.825	-695
288.883	245
288.941	-563
288.999	234
289.057	-520
289.115	300
289.173	-334
289.231	907
289.289	-1246
289.346	-703
289.404	-58
289.462	472
289.520	35
289.578	959
289.636	-548
289.694	-883
289.751	-106
289.809	191
289.867	-236
289.925	592
289.983	-126
290.040	-390
290.098	-369
290.156	8
290.214	-534
290.271	252
290.329	572
290.387	-488
290.444	-733
290.502	-266
290.560	-321
290.617	-50
290.675	-928
290.733	925
290.790	-467
290.848	-244
290.906	-307
290.963	257
291.021	-382
291.078	-60
291.136	-984
291.194	443
291.251	1266
291.309	1063
291.366	-214
291.424	669
291.481	149
291.539	520
291.596	-1
291.654	-129
291.711	-454
291.769	-41
291.826	-628
291.884	-282
291.941	-1169
291.999	33
292.056	-606
292.114	409
292.171	-287
292.228	157
292.286	-549
292.343	-106
292.401	-252
292.458	710
292.515	-115
292.573	812
292.630	-692
292.687	486
292.745	-471
292.802	-469
292.859	1333
292.917	2931
292.974	-227
293.031	429
293.089	-470
293.146	647
293.203	-213
293.260	-410
293.318	-1059
293.375	639
293.432	-567
293.489	456
293.546	-641
293.604	112
293.661	1176
293.718	5688
293.775	2274
293.832	1869
293.889	1793
293.947	1834
294.004	48
294.061	656
294.118	424
294.175	2847
294.232	5805
294.289	2843
294.346	196
294.403	1019
294.460	-613
294.517	139
294.574	137
294.631	293
294.688	-252
294.745	1154
294.802	4233
294.859	6802
294.916	1379
294.973	1198
295.030	-629
295.087	342
295.144	196
295.201	1215
295.258	-284
295.315	84
295.372	1203
295.429	3384
295.486	1138
295.542	870
295.599	1390
295.656	4383
295.713	2351
295.770	3534
295.827	337
295.883	393
295.940	-782
295.997	336
296.054	-233
296.111	-15
296.167	-652
296.224	80
296.281	-1006
296.338	128
296.394	-331
296.451	905
296.508	747
296.564	2111
296.621	701
296.678	2989
296.734	5175
296.791	1510
296.848	-843
296.904	540
296.961	1052
297.018	3029
297.074	1583
297.131	615
297.187	-495
297.244	290
297.301	2805
297.357	7072
297.414	1671
297.470	1420
297.527	-244
297.583	313
297.640	-172
297.696	538
297.753	-464
297.809	-259
297.866	-335
297.922	439
297.979	-617
298.035	-422
298.092	-451
298.148	1758
298.204	1047
298.261	59
298.317	292
298.374	4080
298.430	1669
298.486	1056
298.543	-391
298.599	838
298.656	-982
298.712	340
298.768	875
298.824	1811
298.881	-1713
298.937	5
298.993	-560
299.050	-324
299.106	-8
299.162	-424
299.218	-157
299.275	-456
299.331	-143
299.387	1028
299.443	4002
299.500	9051
299.556	6209
299.612	1656
299.668	1863
299.724	6307
299.780	7468
299.837	2168
299.893	1263
299.949	6124
300.005	8728
300.061	6278
300.117	12806
300.173	6283
300.229	1526
300.285	1138
300.341	196
300.397	299
300.453	-210
300.510	593
300.566	198
300.622	2058
300.678	9125
300.734	14183
300.790	5822
300.845	5787
300.901	5527
300.957	10747
301.013	4417
301.069	1374
301.125	335
301.181	693
301.237	-205
301.293	222
301.349	-481
301.405	476
301.461	-951
301.516	815
301.572	-720
301.628	212
301.684	-539
301.740	1216
301.796	248
301.851	1511
301.907	591
301.963	674
302.019	2435
302.074	10951
302.130	10965
302.186	4920
302.242	897
302.297	1036
302.353	521
302.409	1043
302.464	324
302.520	552
302.576	1855
302.631	4056
302.687	824
302.743	1193
302.798	-925
302.854	-12
302.910	113
302.965	789
303.021	661
303.076	485
303.132	100
303.187	645
303.243	-579
303.299	-169
303.354	-664
303.410	730
303.465	-1031
303.521	376
303.576	-660
303.632	153
303.687	61
303.743	3766
303.798	3253
303.853	1043
303.909	-535
303.964	37
304.020	-682
304.075	383
304.130	601
304.186	377
304.241	1370
304.297	1647
304.352	-270
304.358	-252
304.407	-108
304.449	47
304.463	101
304.518	-150
304.539	-134
304.573	-115
304.629	381
304.630	362
304.684	-478
304.720	1806
304.739	2954
304.794	3436
304.811	3074
304.850	2145
304.902	168
304.905	42
304.960	649
304.992	297
305.015	34
305.071	205
305.083	246
305.126	368
305.173	482
305.181	507
305.236	-1005
305.264	-464
305.292	95
305.347	-122
305.354	32
305.402	968
305.445	641
305.457	550
305.512	750
305.535	358
305.567	-204
305.622	-312
305.626	-258
305.678	1005
305.716	2192
305.733	2525
305.788	3158
305.807	2760
305.843	2452
305.897	2991
305.898	2985
305.953	3707
305.988	1918
306.008	1061
306.063	1121
306.078	903
306.118	317
306.168	254
306.173	253
306.228	-39
306.259	155
306.283	368
306.338	-930
306.349	-602
306.393	597
306.440	436
306.448	418
306.503	1234
306.530	644
306.558	172
306.613	1836
306.620	1782
306.668	1374
306.711	2684
306.723	2926
306.778	1799
306.801	1374
306.833	887
306.888	520
306.892	513
306.943	736
306.982	512
306.997	408
307.052	342
307.072	57
307.107	-276
307.162	1206
307.163	1205
307.217	1106
307.253	1322
307.272	1453
307.327	723
307.343	931
307.381	1200
307.434	331
307.436	356
307.491	2063
307.524	3227
307.546	3293
307.600	2955
307.614	2552
307.655	1519
307.704	1050
307.710	1081
307.765	864
307.795	1535
307.819	2166
307.874	3400
307.885	3423
307.929	2723
307.975	2086
307.984	2164
308.038	3357
308.065	3944
308.093	7383
308.148	16125
308.156	18289
308.202	30069
308.246	38491
308.257	37165
308.312	16995
308.336	9744
308.366	7057
308.421	4310
308.426	4168
308.475	3161
308.517	2702
308.530	2678
308.585	2346
308.607	2220
308.639	2081
308.694	2848
308.697	2821
308.748	3751
308.787	5728
308.803	5851
308.857	4399
308.877	3985
308.912	4125
308.967	4688
308.967	4698
309.021	8208
309.058	10800
309.076	12887
309.130	21273
309.148	23321
309.185	37593
309.238	63114
309.239	63399
309.293	74770
309.328	73712
309.348	64474
309.402	31449
309.418	23213
309.457	17492
309.508	12214
309.511	12258
309.566	15249
309.598	17254
309.620	23542
309.674	43297
309.688	48175
309.729	44470
309.778	34603
309.783	33592
309.837	19735
309.868	12762
309.892	10922
309.946	7955
309.959	7431
310.001	7481
310.049	7566
310.055	7343
310.109	5269
310.139	3919
310.163	3216
310.218	2447
310.229	2200
310.272	1922
310.319	2097
310.326	2095
310.381	1405
310.409	1546
310.435	1807
310.489	1497
310.499	1548
310.543	1937
310.589	2037
310.598	1974
310.652	1666
310.679	1467
310.706	1451
310.760	1666
310.769	1615
310.814	1349
310.859	1516
310.868	1559
310.923	1420
310.948	1405
310.977	1439
311.031	1535
311.038	1542
311.085	1655
311.128	1632
311.139	1524
311.193	1120
311.218	866
311.247	1174
311.301	1901
311.308	1962
311.356	1774
311.398	1765
311.410	1743
311.464	1398
311.488	1288
311.518	1030
311.572	470
311.578	415
311.626	1184
311.668	1815
311.680	1790
311.734	1699
311.758	1610
311.788	1510
311.842	1453
311.847	1435
311.896	2067
311.937	2661
311.950	2606
312.004	2321
312.027	2207
312.058	1875
312.112	1251
312.117	1188
312.165	1083
312.207	990
312.297	1495
312.386	1784
312.476	1831
312.566	1720
312.656	1098
312.745	1928
312.835	914
312.925	2308
313.015	1620
313.104	1733
313.194	2417
313.284	1467
313.374	2111
313.463	2031
313.553	2439
313.643	2625
313.732	2026
313.822	2411
313.912	2398
314.001	3604
314.091	3315
314.180	2591
314.270	2834
314.360	2924
314.449	2272
314.539	2370
314.628	2473
314.718	2312
314.808	2433
314.897	2829
314.987	3545
315.076	3942
315.166	2722
315.255	3426
315.345	3377
315.434	2863
315.524	2297
315.613	2537
315.703	4002
315.792	12363
315.881	46390
315.971	11967
316.060	4377
316.150	4536
316.239	3419
316.328	2492
316.418	1698
316.507	2945
316.597	4284
316.686	3493
316.775	3356
316.865	4965
316.954	2616
317.043	1890
317.133	2224
317.222	2278
317.311	1500
317.400	844
317.490	2808
317.579	2665
317.668	2756
317.757	5569
317.847	19842
317.936	71276
318.025	17633
318.114	16493
318.203	5915
318.293	4486
318.382	5009
318.471	5049
318.560	7287
318.649	12474
318.738	3002
318.828	2658
318.917	1828
319.006	2053
319.095	4490
319.184	14663
319.273	5937
319.362	2719
319.451	1229
319.540	2614
319.629	2093
319.718	2726
319.807	2200
319.896	5445
319.985	18099
320.074	5444
320.163	1508
320.252	2592
320.341	2893
320.430	1919
320.519	2364
320.608	3028
320.697	2598
320.786	2844
320.875	4011
320.964	4902
321.053	4271
321.142	5312
321.230	6183
321.319	6366
321.408	9753
321.497	8082
321.586	5431
321.675	5118
321.764	5069
321.852	5167
321.941	4650
322.030	4033
322.119	5086
322.207	7910
322.296	9184
322.385	8466
322.474	10529
322.562	12370
322.651	8496
322.740	6279
322.829	5540
322.917	5665
323.006	3580
323.095	4346
323.183	3750
323.272	3848
323.361	6094
323.449	15840
323.538	4578
323.626	9922
323.715	5896
323.804	3319
323.892	7001
323.981	4331
324.069	3290
324.158	5255
324.246	5536
324.335	2465
324.424	2138
324.512	2453
324.601	1621
324.689	1815
324.778	2041
324.866	3222
324.954	1890
325.043	2477
325.131	1334
325.220	4989
325.308	3327
325.397	3279
325.485	2561
325.574	1711
325.662	849
325.750	1562
325.839	1798
325.927	2112
326.015	1728
326.104	2665
326.192	1582
326.280	1430
326.369	1804
326.457	988
326.545	1641
326.634	1696
326.722	1013
326.810	1356
326.898	2530
326.987	2469
327.075	1683
327.163	2914
327.251	2713
327.340	3192
327.428	3665
327.516	3567
327.604	2145
327.692	2148
327.781	966
327.869	2862
327.957	2445
328.045	1720
328.133	2127
328.221	1607
328.309	1492
328.397	1271
328.485	2226
328.574	3917
328.662	6004
328.750	2970
328.838	1579
328.926	1621
329.014	2020
329.102	2031
329.190	3459
329.278	2230
329.366	1576
329.454	1505
329.542	708
329.630	968
329.718	1666
329.806	598
329.893	1864
329.981	829
330.069	1362
330.157	3047
330.245	6055
330.333	2735
330.421	2268
330.509	2100
330.597	3496
330.684	2851
330.772	1537
330.860	2628
330.948	2861
331.036	2245
331.123	1263
331.211	1139
331.299	906
331.387	3117
331.475	3873
331.562	2231
331.650	1886
331.738	1233
331.825	1383
331.913	1126
332.001	1433
332.089	1408
332.176	2249
332.264	4160
332.352	2846
332.439	2560
332.527	1550
332.614	986
332.702	1840
332.790	1889
332.877	2917
332.965	8013
333.052	5108
333.140	5781
333.228	16344
333.315	4409
333.403	2321
333.490	4906
333.578	6232
333.665	24669
333.753	8761
333.840	3045
333.928	3245
334.015	4588
334.103	7702
334.190	19298
334.278	7993
334.365	11114
334.452	10855
334.540	5449
334.627	4185
334.715	7152
334.802	10614
334.889	30882
334.977	39470
335.064	18737
335.151	7670
335.239	5368
335.326	4171
335.413	12437
335.501	14594
335.588	5267
335.675	4262
335.762	5772
335.850	8253
335.937	11882
336.024	22474
336.111	51940
336.199	41284
336.286	15721
336.373	7454
336.460	3911
336.547	3684
336.635	3426
336.722	2390
336.809	2494
336.896	2519
336.983	5592
337.070	12573
337.157	21159
337.245	11811
337.332	8566
337.419	2743
337.506	1935
337.593	1900
337.680	5221
337.767	12355
337.854	4453
337.941	3507
338.028	3300
338.115	1211
338.202	3332
338.289	3991
338.376	9746
338.463	3426
338.550	7377
338.637	7710
338.724	2749
338.811	4158
338.898	2119
338.984	1594
339.071	1659
339.158	4612
339.245	4634
339.332	2243
339.419	3529
339.506	2423
339.593	963
339.679	1977
339.766	1292
339.853	1931
339.940	1970
340.027	1343
340.113	1338
340.200	1616
340.287	1600
340.374	985
340.460	2727
340.547	941
340.634	2282
340.720	3840
340.807	1898
340.894	1488
340.980	2756
341.067	1366
341.154	2493
341.240	1281
341.327	2400
341.414	1820
341.500	1603
341.587	1707
341.674	2250
341.760	2073
341.847	2202
341.933	1194
342.020	272
342.106	1427
342.193	1864
342.279	1080
342.366	796
342.452	1720
342.539	832
342.625	1294
342.712	3274
342.798	1825
342.885	1157
342.971	695
343.058	1404
343.144	1378
343.230	2111
343.317	2484
343.403	1003
343.490	1720
343.576	1101
343.662	2033
343.749	1726
343.835	3977
343.921	2566
344.008	11736
344.094	26701
344.180	5287
344.267	1612
344.353	5409
344.439	5743
344.525	2217
344.612	2783
344.698	1880
344.784	1932
344.870	1618
344.957	458
345.043	2312
345.129	1365
345.215	1141
345.301	1224
345.387	590
345.474	1510
345.560	705
345.646	1181
345.732	1835
345.818	2034
345.904	-21
345.990	931
346.076	1818
346.162	1185
346.249	1239
346.335	1185
346.421	1812
346.507	2513
346.593	7838
346.679	1092
346.765	2868
346.851	2913
346.937	1601
347.023	2648
347.108	1962
347.194	1701
347.280	1118
347.366	2718
347.452	7622
347.538	14238
347.624	8244
347.710	4982
347.796	1907
347.882	3055
347.967	2807
348.053	1679
348.139	2385
348.225	1626
348.311	988
348.397	1399
348.482	2222
348.568	2085
348.654	2916
348.740	10138
348.825	7620
348.911	4025
348.997	5476
349.083	10915
349.168	2343
349.254	1957
349.340	816
349.425	1683
349.511	1487
349.597	3507
349.682	2384
349.768	5150
349.854	2410
349.939	1457
350.025	1729
350.110	1700
350.196	948
350.282	1091
350.367	1785
350.453	2104
350.538	1888
350.624	1683
350.709	1752
350.795	168
350.880	1093
350.966	3814
351.051	2137
351.137	1262
351.222	986
351.308	1825
351.393	2743
351.479	1120
351.564	818
351.649	2216
351.735	1376
351.820	1648
351.906	1998
351.991	2585
352.076	2960
352.162	4473
352.247	1716
352.332	1627
352.418	1558
352.503	1309
352.588	4923
352.673	3549
352.759	1123
352.844	1067
352.929	1244
353.014	784
353.100	1469
353.185	2291
353.270	348
353.355	2261
353.441	1792
353.526	1704
353.611	1149
353.696	1167
353.781	1739
353.866	402
353.952	1653
354.037	1252
354.122	1810
354.207	2124
354.292	1192
354.377	1142
354.462	1971
354.547	716
354.632	1593
354.717	3049
354.802	3058
354.887	1712
354.972	1715
355.057	2344
355.142	1519
355.227	2185
355.312	1558
355.397	1605
355.482	3185
355.567	1890
355.652	3050
355.737	2386
355.822	5283
355.907	3670
355.991	1981
356.076	-58
356.161	1991
356.246	1083
356.331	1250
356.416	2215
356.501	11878
356.585	12431
356.670	2311
356.755	3528
356.840	2405
356.924	8251
357.009	26970
357.094	9709
357.179	2015
357.263	3365
357.348	2211
357.433	2325
357.517	1974
357.602	2718
357.687	2922
357.771	2877
357.856	2614
357.941	2504
358.025	6824
358.110	32489
358.195	12795
358.279	2975
358.364	2154
358.448	3764
358.533	8361
358.617	5809
358.702	6433
358.787	3777
358.871	2037
358.956	2515
359.040	1569
359.125	1530
359.209	1273
359.294	2137
359.378	3090
359.462	2924
359.547	1928
359.631	1398
359.716	801
359.800	1933
359.885	2650
359.969	726
360.053	3184
360.138	4136
360.222	1928
360.306	1436
360.391	1123
360.475	1928
360.559	3534
360.644	2883
360.728	2053
360.812	6597
360.896	16337
360.981	6538
361.065	3123
361.149	3113
361.233	2071
361.318	1616
361.402	1898
361.486	3477
361.570	1558
361.654	1918
361.739	3061
361.823	11118
361.907	18114
361.991	3921
362.075	3205
362.159	3529
362.243	8888
362.327	23531
362.411	44145
362.495	15767
362.580	5960
362.664	5744
362.748	4827
362.832	8244
362.916	17641
363.000	66331
363.084	111538
363.168	50032
363.252	11808
363.336	6279
363.420	6097
363.503	15053
363.587	16683
363.671	4915
363.755	3059
363.839	5549
363.923	2704
364.007	5358
364.091	6640
364.175	12201
364.258	42313
364.342	75656
364.426	157874
364.510	79966
364.594	20889
364.677	11321
364.761	17336
364.845	12067
364.929	4281
365.013	3828
365.096	3536
365.180	2846
365.264	7562
365.347	24420
365.431	9631
365.515	2017
365.598	1179
365.682	2569
365.766	1912
365.849	2658
365.933	1530
366.017	4240
366.100	2176
366.184	1231
366.267	3136
366.351	3322
366.435	1760
366.518	1534
366.602	2019
366.685	2119
366.769	2237
366.852	3087
366.936	2884
367.019	2026
367.103	1485
367.186	4937
367.270	2458
367.353	1428
367.436	2990
367.520	2603
367.603	2648
367.687	874
367.770	3024
367.853	3751
367.937	5387
368.020	6734
368.104	1685
368.187	2417
368.270	2366
368.353	2075
368.437	3324
368.520	6460
368.603	4190
368.687	3489
368.770	6100
368.853	2412
368.936	3425
369.020	3492
369.103	1865
369.186	772
369.269	1260
369.352	2302
369.436	1927
369.519	2133
369.602	86
369.685	4038
369.768	1084
369.851	3219
369.934	1667
370.018	1625
370.101	801
370.184	3325
370.267	2714
370.350	2591
370.433	2762
370.516	11718
370.599	27973
370.682	9797
370.765	5639
370.848	6351
370.931	9544
371.014	6388
371.097	1745
371.180	2698
371.263	2408
371.346	1448
371.429	3033
371.511	2528
371.594	2514
371.677	3906
371.760	5098
371.843	3774
371.926	12875
372.009	27801
372.091	13038
372.174	7475
372.257	12586
372.340	6087
372.423	6041
372.505	7438
372.588	3678
372.671	5707
372.754	7546
372.836	6412
372.919	7987
373.002	14187
373.085	4343
373.167	4894
373.250	5120
373.332	10081
373.415	18213
373.498	35466
373.580	15877
373.663	41611
373.746	45784
373.828	7662
373.911	4325
373.993	3519
374.076	12952
374.159	10968
374.241	4291
374.324	8935
374.406	6054
374.489	10339
374.571	27127
374.654	10069
374.736	6855
374.819	16696
374.901	25980
374.983	26742
375.066	6784
375.148	5021
375.231	12500
375.313	20505
375.395	7031
375.478	3533
375.560	3767
375.643	4182
375.725	6171
375.807	19836
375.890	16493
375.972	6034
376.054	4567
376.136	6482
376.219	3005
376.301	6813
376.383	15285
376.465	7306
376.548	2773
376.630	4902
376.712	12808
376.794	5468
376.877	1849
376.959	1280
377.041	2137
377.123	2814
377.205	3099
377.287	1280
377.369	2305
377.452	2036
377.534	2103
377.616	1820
377.698	1766
377.780	1510
377.862	1980
377.944	2816
378.026	1392
378.108	3385
378.190	1720
378.272	2278
378.354	1643
378.436	1590
378.518	2633
378.600	4250
378.682	4250
378.764	4181
378.846	4832
378.928	2754
379.010	1136
379.091	3374
379.173	3440
379.255	1398
379.337	1532
379.419	2584
379.501	7553
379.583	3810
379.664	2263
379.746	1671
379.828	6361
379.910	5598
379.991	5833
380.073	2599
380.155	2193
380.237	2497
380.318	1474
380.400	2148
380.482	2985
380.564	3021
380.645	2449
380.727	2727
380.809	3492
380.890	2109
380.972	1385
381.053	2749
381.135	3439
381.217	2671
381.298	5710
381.380	3283
381.461	3908
381.543	12179
381.624	14480
381.706	4866
381.787	4255
381.869	4691
381.951	8782
382.032	27739
382.113	18676
382.195	3998
382.276	7053
382.358	7240
382.439	13078
382.521	19167
382.602	27654
382.684	16821
382.765	27061
382.846	67734
382.928	166421
383.009	90833
383.090	60472
383.172	200509
383.253	278718
383.334	86702
383.416	38134
383.497	24937
383.578	26011
383.659	50522
383.741	166661
383.822	360133
383.903	188952
383.984	47243
384.066	31869
384.147	18927
384.228	11039
384.309	8823
384.390	8005
384.471	7836
384.553	6039
384.634	6287
384.715	7005
384.796	5775
384.877	6297
384.958	9227
385.039	7836
385.120	5473
385.201	5210
385.282	4876
385.363	6442
385.444	6391
385.525	6647
385.606	12215
385.687	10971
385.768	5987
385.849	4827
385.930	15700
386.011	25151
386.092	7837
386.173	4641
386.254	4298
386.335	5697
386.416	5567
386.496	5492
386.577	6109
386.658	4437
386.739	4035
386.820	4874
386.901	3409
386.981	5660
387.062	5321
387.143	6168
387.224	9146
387.304	10284
387.385	8166
387.466	5507
387.547	8331
387.627	7239
387.708	9094
387.789	13499
387.869	14437
387.950	8100
388.031	4268
388.111	2751
388.192	6127
388.273	8727
388.353	6863
388.434	3347
388.514	5536
388.595	13412
388.676	13863
388.756	6082
388.837	5964
388.917	3784
388.998	1975
389.078	4766
389.159	3417
389.239	1934
389.320	4238
389.400	1290
389.480	4508
389.561	5673
389.641	4821
389.722	2953
389.802	1872
389.883	4139
389.963	8570
390.043	5506
390.124	2133
390.204	3233
390.284	6228
390.365	3234
390.445	7579
390.525	12077
390.605	9377
390.686	2824
390.766	3606
390.846	3969
390.927	2304
391.007	1398
391.087	4107
391.167	3026
391.247	1679
391.328	3848
391.408	5148
391.488	3598
391.568	2062
391.648	3175
391.728	4148
391.808	4349
391.888	4023
391.969	6108
392.049	7645
392.129	7142
392.209	6921
392.289	11050
392.369	8436
392.449	9066
392.529	7570
392.609	9615
392.689	11041
392.769	16153
392.849	17559
392.929	22205
393.009	33934
393.089	42928
393.169	78869
393.248	205556
393.328	467151
393.408	468776
393.488	208663
393.568	77118
393.648	38497
393.728	24543
393.807	16167
393.887	13516
393.967	10626
394.047	9648
394.127	8003
394.206	8894
394.286	19903
394.366	83058
394.446	85554
394.525	16156
394.605	6717
394.685	5651
394.764	10100
394.844	18660
394.924	17687
395.003	6883
395.083	4558
395.163	4206
395.242	3974
395.322	3942
395.402	2456
395.481	4991
395.561	7986
395.640	24764
395.720	38926
395.799	26140
395.879	14786
395.958	8305
396.038	24446
396.117	106184
396.197	111845
396.276	27608
396.356	13068
396.435	14074
396.515	18229
396.594	26484
396.673	59621
396.753	188362
396.832	417277
396.912	307776
396.991	93082
397.070	35849
397.150	18473
397.229	17018
397.308	31839
397.388	52929
397.467	22810
397.546	7981
397.625	3859
397.705	5822
397.784	4973
397.863	3541
397.942	3669
398.022	3437
398.101	6169
398.180	14654
398.259	8106
398.338	4101
398.417	2540
398.497	1936
398.576	3508
398.655	348
398.734	2411
398.813	2529
398.892	5716
398.971	15827
399.050	7175
399.129	1367
399.208	2573
399.287	2327
399.366	1299
399.445	1613
399.524	2191
399.603	351
399.682	2012
399.761	3685
399.840	17067
399.919	12706
399.998	2226
400.077	257
400.156	253
400.235	3121
400.313	944
400.392	-77
400.471	3304
400.550	3564
400.629	1177
400.708	1023
400.786	1347
400.865	1778
400.944	2037
401.023	2977
401.102	813
401.180	477
401.259	337
401.338	941
401.416	1484
401.495	909
401.574	1959
401.652	-133
401.731	1612
401.810	233
401.888	192
401.967	532
402.046	1086
402.124	339
402.203	190
402.281	1345
402.360	1081
402.438	3668
402.517	1336
402.596	748
402.674	703
402.753	869
402.831	1948
402.910	1375
402.988	2979
403.066	9075
403.145	6178
403.223	4441
403.302	7537
403.380	5854
403.459	5602
403.537	2099
403.615	1808
403.694	207
403.772	1652
403.850	916
403.929	415
404.007	422
404.085	2319
404.164	1025
404.242	542
404.320	2976
404.398	7154
404.477	5944
404.555	16139
404.633	13305
404.711	5381
404.789	3206
404.868	1514
404.946	101
405.024	57
405.102	613
405.180	-760
405.258	-1135
405.336	819
405.415	590
405.493	1958
405.571	1913
405.649	1039
405.727	-673
405.805	2132
405.883	1071
405.961	2261
406.039	1292
406.117	-164
406.195	1193
406.273	2600
406.351	9626
406.429	7864
406.507	1248
406.585	86
406.663	353
406.740	430
406.818	-754
406.896	-366
406.974	827
407.052	-399
407.130	5707
407.208	8004
407.285	3153
407.363	840
407.441	410
407.519	516
407.596	991
407.674	3689
407.752	14555
407.830	11804
407.907	2429
407.985	395
408.063	995
408.141	1546
408.218	1945
408.296	-91
408.373	960
408.451	615
408.529	717
408.606	982
408.684	374
408.762	972
408.839	848
408.917	760
408.994	1559
409.072	1360
409.149	2667
409.227	6134
409.304	8854
409.382	9276
409.459	10412
409.537	15022
409.614	11717
409.692	8123
409.769	8528
409.846	15584
409.924	18561
410.001	10269
410.079	7163
410.156	5091
410.233	2247
410.311	1741
410.388	1576
410.465	1552
410.543	823
410.620	2573
410.697	2284
410.775	2333
410.852	470
410.929	3196
411.006	3283
411.083	1996
411.161	1585
411.238	2345
411.315	1694
411.392	1622
411.469	1243
411.547	1822
411.624	-547
411.701	1120
411.778	1420
411.855	1701
411.932	-55
412.009	781
412.086	542
412.163	1484
412.240	-19
412.317	1670
412.394	777
412.471	1265
412.548	708
412.625	307
412.702	825
412.779	949
412.856	834
412.933	629
413.010	455
413.087	610
413.164	1219
413.241	2587
413.318	-680
413.395	1262
413.471	643
413.548	463
413.625	668
413.702	-56
413.779	376
413.855	804
413.932	-319
414.009	-439
414.086	-50
414.162	503
414.239	765
414.316	1527
414.393	3995
414.469	30
414.546	-504
414.623	827
414.699	-889
414.776	147
414.853	157
414.929	667
415.006	331
415.082	1080
415.159	209
415.236	632
415.312	529
415.389	808
415.465	-100
415.542	659
415.618	-1026
415.695	710
415.771	27
415.848	-385
415.924	741
416.000	174
416.077	651
416.153	498
416.230	-864
416.306	325
416.383	-278
416.459	692
416.535	543
416.612	-77
416.688	1353
416.764	808
416.841	-121
416.917	82
416.993	518
417.069	458
417.146	-203
417.222	87
417.298	149
417.374	-65
417.451	-287
417.527	-730
417.603	-568
417.679	952
417.755	453
417.831	-494
417.908	-479
417.984	-195
418.060	-905
418.136	357
418.212	415
418.288	694
418.364	460
418.440	-458
418.516	1255
418.592	238
418.668	835
418.744	524
418.820	786
418.896	-54
418.972	-672
419.048	283
419.124	2233
419.200	-336
419.276	230
419.352	266
419.428	946
419.504	371
419.579	556
419.655	113
419.731	-428
419.807	955
419.883	599
419.959	1626
420.034	1136
420.110	2088
420.186	2028
420.262	2377
420.337	850
420.413	1028
420.489	603
420.565	1530
420.640	627
420.716	2190
420.792	56
420.867	2969
420.943	584
421.019	2648
421.094	1365
421.170	2426
421.245	1781
421.321	3758
421.397	2254
421.472	6846
421.548	10933
421.623	8993
421.699	5000
421.774	5832
421.850	6227
421.925	8416
422.001	9837
422.076	11609
422.152	14123
422.227	20755
422.302	29448
422.378	45590
422.453	78659
422.529	149139
422.604	215617
422.679	198123
422.755	216765
422.830	155259
422.905	84320
422.981	49760
423.056	32937
423.131	24380
423.207	17446
423.282	13862
423.357	11157
423.432	9458
423.508	8295
423.583	6751
423.658	6424
423.733	5707
423.808	4944
423.883	5409
423.959	6608
424.034	8880
424.109	8251
424.184	4594
424.259	3140
424.334	3583
424.409	1975
424.484	1485
424.559	1806
424.634	1808
424.709	1547
424.784	1945
424.859	1843
424.934	752
425.009	2168
425.084	3419
425.159	1520
425.234	1851
425.309	207
425.384	927
425.459	892
425.534	1702
425.609	820
425.683	1293
425.758	761
425.833	1001
425.908	1287
425.983	527
426.058	2448
426.132	2516
426.207	706
426.282	1858
426.357	559
426.431	740
426.506	920
426.581	764
426.655	476
426.730	383
426.805	-67
426.879	1866
426.954	1011
427.029	330
427.103	2652
427.178	7726
427.253	3374
427.327	508
427.402	286
427.476	1362
427.551	-57
427.625	1025
427.700	514
427.774	-790
427.849	454
427.923	221
427.998	816
428.072	855
428.147	4069
428.221	23368
428.296	74271
428.370	39174
428.444	4204
428.519	1615
428.593	2103
428.667	2746
428.742	3671
428.816	7798
428.890	44867
428.965	68499
429.039	15581
429.113	3797
429.188	1470
429.262	832
429.336	713
429.410	1616
429.485	1142
429.559	2852
429.633	1705
429.707	1898
429.781	6939
429.855	43313
429.930	62131
430.004	17350
430.078	15111
430.152	28929
430.226	96600
430.300	92603
430.374	16731
430.448	5170
430.522	4946
430.596	11943
430.670	15868
430.744	57181
430.818	62580
430.892	9686
430.966	739
431.040	471
431.114	157
431.188	220
431.262	232
431.336	-303
431.410	1094
431.484	2323
431.557	842
431.631	602
431.705	2389
431.779	17147
431.853	70015
431.927	45555
432.000	4665
432.074	1141
432.148	-314
432.222	-103
432.295	-89
432.369	270
432.443	-420
432.516	3285
432.590	8217
432.664	2218
432.737	-246
432.811	-616
432.885	232
432.958	-29
433.032	-637
433.106	-676
433.179	-340
433.253	-33
433.326	-243
433.400	-392
433.473	-306
433.547	-23
433.620	-489
433.694	-587
433.767	-196
433.841	-541
433.914	-1119
433.988	-947
434.061	-370
434.134	111
434.208	-1044
434.281	-527
434.355	-130
434.428	-776
434.501	-639
434.575	-146
434.648	-660
434.721	-477
434.795	250
434.868	689
434.941	-760
435.014	-255
435.088	-248
435.161	1579
435.234	1524
435.307	1500
435.381	2564
435.454	3643
435.527	8319
435.600	8264
435.673	5602
435.746	3259
435.819	1228
435.892	1306
435.966	1454
436.039	81
436.112	-123
436.185	39
436.258	43
436.331	-1081
436.404	-325
436.477	-118
436.550	354
436.623	396
436.696	-366
436.769	106
436.842	-370
436.915	83
436.987	-56
437.060	-720
437.133	-528
437.206	-499
437.279	-184
437.352	-503
437.425	-285
437.498	-109
437.570	-430
437.643	-70
437.716	-442
437.789	-678
437.861	-213
437.934	-1
438.007	-239
438.080	-1442
438.152	-406
438.225	-62
438.298	4775
438.370	13881
438.443	4237
438.516	-342
438.588	43
438.661	-953
438.734	-624
438.806	-454
438.879	341
438.951	-408
439.024	-433
439.096	-148
439.169	22
439.241	-444
439.314	-814
439.386	191
439.459	18
439.531	368
439.604	-764
439.676	154
439.749	-724
439.821	-1222
439.893	-500
439.966	-1048
440.038	-1246
440.110	248
440.183	-261
440.255	-1255
440.327	455
440.400	1324
440.472	5605
440.544	3397
440.617	-250
440.689	134
440.761	-61
440.833	426
440.905	-63
440.978	-138
441.050	-239
441.122	675
441.194	-90
441.266	-361
441.338	-513
441.411	753
441.483	1219
441.555	1619
441.627	503
441.699	1333
441.771	-730
441.843	314
441.915	-512
441.987	12
442.059	1031
442.131	157
442.203	1209
442.275	1618
442.347	2785
442.419	8989
442.491	51964
442.563	113914
442.635	39730
442.706	7451
442.778	2997
442.850	1431
442.922	1161
442.994	698
443.066	1415
443.137	2317
443.209	3003
443.281	4921
443.353	13510
443.425	56650
443.496	177940
443.568	177725
443.640	66320
443.711	12076
443.783	3896
443.855	2266
443.926	1267
443.998	1635
444.070	1057
444.141	744
444.213	244
444.285	1250
444.356	782
444.428	668
444.499	5
444.571	784
444.642	1215
444.714	665
444.785	1004
444.857	1835
444.928	1600
445.000	2574
445.071	2720
445.143	3754
445.214	5509
445.285	10237
445.357	28380
445.428	112301
445.500	211632
445.571	156666
445.642	99420
445.714	29446
445.785	10246
445.856	3500
445.928	1977
445.999	2259
446.070	504
446.141	1217
446.213	510
446.284	7
446.355	137
446.426	241
446.497	240
446.569	545
446.640	-846
446.711	-141
446.782	-102
446.853	420
446.924	-159
446.995	-417
447.066	-68
447.138	781
447.209	-238
447.280	-1073
447.351	-523
447.422	-1317
447.493	-608
447.564	-568
447.635	-481
447.706	-707
447.777	-986
447.847	-1228
447.918	-1039
447.989	128
448.060	-426
448.131	165
448.202	-182
448.273	-672
448.344	-338
448.414	-71
448.485	-1273
448.556	274
448.627	-679
448.698	841
448.768	-1540
448.839	-610
448.910	-893
448.981	-130
449.051	-1240
449.122	-806
449.193	-823
449.263	-668
449.334	-1137
449.405	-716
449.475	-391
449.546	461
449.616	315
449.687	9
449.758	-903
449.828	-1017
449.899	-848
449.969	-1038
450.040	-1260
450.110	-3
450.181	-1573
450.251	-1139
450.322	-751
450.392	-212
450.463	-827
450.533	-1167
450.604	-1009
450.674	-316
450.744	712
450.815	-287
450.885	-72
450.955	-126
451.026	-660
451.096	-305
451.166	-828
451.237	451
451.307	2177
451.377	515
451.447	-688
451.518	-2
451.588	-1354
451.658	-500
451.728	-80
451.799	1254
451.869	195
451.939	378
452.009	-899
452.079	-207
452.149	176
452.219	64
452.289	1690
452.360	673
452.430	-779
452.500	283
452.570	1006
452.640	5292
452.710	16347
452.780	17154
452.850	6073
452.920	1630
452.990	678
453.060	944
453.129	-936
453.199	-177
453.269	2887
453.339	4965
453.409	7072
453.479	8165
453.549	11536
453.619	12343
453.688	3189
453.758	-4
453.828	-1212
453.898	-914
453.968	-1062
454.037	-412
454.087	-488
454.107	-535
454.168	-1101
454.177	-1204
454.247	-1731
454.249	-1652
454.316	-223
454.330	-377
454.386	-1035
454.411	-457
454.456	322
454.492	649
454.525	949
454.574	334
454.595	53
454.655	-753
454.665	-892
454.734	-43
454.736	-10
454.804	18
454.817	527
454.873	2275
454.898	1937
454.943	1243
454.979	672
455.013	194
455.060	-185
455.082	-322
455.141	15
455.152	33
455.221	1659
455.222	1720
455.291	3217
455.303	3160
455.360	2720
455.384	3901
455.430	5548
455.465	4164
455.499	2931
455.546	2598
455.569	2273
455.627	1231
455.638	1077
455.707	474
455.708	488
455.777	-129
455.789	-156
455.846	-364
455.869	-312
455.916	-291
455.950	-34
455.985	191
456.031	220
456.054	214
456.112	280
456.124	287
456.193	-625
456.193	-649
456.262	615
456.274	632
456.332	584
456.355	726
456.401	963
456.436	762
456.470	430
456.516	259
456.540	242
456.597	303
456.609	280
456.678	595
456.678	575
456.747	166
456.759	202
456.817	553
456.840	653
456.886	789
456.920	881
456.955	971
457.001	993
457.024	981
457.082	1156
457.093	1154
457.162	1950
457.163	1969
457.232	1247
457.243	1219
457.301	1113
457.324	1246
457.370	1615
457.405	1683
457.439	1795
457.485	2384
457.508	2648
457.566	3275
457.577	3550
457.646	5281
457.647	5329
457.715	12875
457.727	14792
457.784	26768
457.808	34733
457.853	42278
457.889	46851
457.922	44126
457.969	27432
457.991	28054
458.050	38526
458.060	40722
458.129	72553
458.130	73449
458.198	62820
458.211	54768
458.267	26381
458.292	17276
458.336	12718
458.372	12541
458.405	19690
458.453	32990
458.474	42079
458.533	74498
458.543	76306
458.611	109558
458.614	109872
458.680	55669
458.694	41318
458.749	17390
458.775	11834
458.818	7192
458.855	5991
458.887	5404
458.936	4469
458.955	4161
459.016	3556
459.024	3462
459.093	3740
459.097	3719
459.162	3122
459.177	2992
459.230	2711
459.257	3187
459.299	4071
459.338	3953
459.368	3559
459.418	3316
459.437	3180
459.499	2993
459.505	2990
459.574	2663
459.579	2654
459.643	2664
459.659	2727
459.711	3072
459.740	3218
459.780	3227
459.820	3540
459.849	3605
459.900	3451
459.917	3391
459.981	2738
459.986	2690
460.054	2674
460.061	2668
460.123	3093
460.141	3397
460.191	3942
460.222	3941
460.260	3943
460.302	3968
460.328	3786
460.382	3641
460.397	3781
460.462	4479
460.465	4565
460.534	6573
460.543	6822
460.602	16141
460.623	19937
460.671	30469
460.703	39450
460.739	33961
460.783	23995
460.808	19993
460.864	5962
460.876	4931
460.944	3869
460.945	3846
461.013	3533
461.024	3397
461.081	3191
461.104	3322
461.150	3327
461.184	3177
461.218	3155
461.264	3304
461.286	3486
461.345	3821
461.355	3720
461.423	3069
461.425	3050
461.491	3288
461.505	3463
461.559	5065
461.585	5549
461.628	6764
461.665	8294
461.696	8737
461.745	9272
461.764	8205
461.825	3820
461.832	3805
461.901	4092
461.905	4126
461.969	3246
461.985	3117
462.037	4377
462.065	4857
462.105	4412
462.145	4354
462.173	4999
462.225	5734
462.241	5968
462.305	7350
462.310	7201
462.378	4457
462.385	4146
462.446	4004
462.465	3995
462.514	4000
462.545	4033
462.582	4265
462.625	4410
462.650	4375
462.705	4519
462.718	4576
462.785	4359
462.786	4354
462.854	4489
462.865	4464
462.922	5290
462.945	5714
462.990	4787
463.025	3760
463.058	3906
463.104	4272
463.126	4069
463.184	3653
463.194	3740
463.262	4402
463.264	4415
463.330	4610
463.344	4686
463.398	5555
463.424	5769
463.466	4722
463.504	3992
463.533	4376
463.583	4969
463.601	5036
463.663	5213
463.669	5192
463.737	4976
463.743	4948
463.805	6681
463.823	7153
463.873	8927
463.903	10098
463.940	10157
463.982	10116
464.008	8622
464.062	5296
464.076	5208
464.142	4731
464.144	4732
464.211	4820
464.221	4776
464.279	4521
464.301	4512
464.347	4781
464.381	4793
464.414	4866
464.461	5223
464.482	5195
464.540	4959
464.550	4921
464.617	4522
464.620	4504
464.685	5301
464.699	5450
464.753	5448
464.779	5404
464.820	5925
464.859	6583
464.888	6538
464.938	6210
464.956	6228
465.018	6338
465.023	6341
465.091	6039
465.098	6021
465.158	5941
465.177	5913
465.226	5916
465.257	5928
465.293	5918
465.336	5590
465.361	5893
465.416	6862
465.428	7015
465.495	7681
465.496	7711
465.563	10120
465.575	10545
465.631	12085
465.654	12756
465.698	9544
465.734	6657
465.765	6317
465.813	5812
465.833	5784
465.893	5828
465.900	5830
465.968	5556
465.972	5541
466.035	5596
466.052	5565
466.102	5602
466.131	5580
466.170	5691
466.210	5794
466.237	6026
466.290	6450
466.304	6442
466.369	6324
466.372	6354
466.439	6906
466.449	6954
466.506	6953
466.528	6968
466.573	8031
466.607	8753
466.641	11021
466.687	14194
466.708	14865
466.766	16603
466.775	15628
466.842	8061
466.845	7683
466.909	6702
466.925	6469
466.977	7269
467.004	7679
467.044	7584
467.083	7468
467.111	7785
467.163	8314
467.178	8430
467.242	8836
467.245	8816
467.312	8034
467.321	7915
467.379	7285
467.400	7035
467.446	8472
467.480	9485
467.559	8318
467.638	8277
467.717	8475
467.796	9514
467.875	8627
467.955	8916
468.034	12340
468.113	19387
468.192	26887
468.271	15108
468.350	19081
468.429	26687
468.508	28162
468.588	17127
468.667	12905
468.746	11571
468.825	9530
468.904	8336
468.983	8916
469.062	10182
469.141	11243
469.220	6727
469.299	8102
469.378	7846
469.456	9024
469.535	9178
469.614	8270
469.693	7621
469.772	10330
469.851	11614
469.930	9069
470.009	8324
470.088	9818
470.166	12398
470.245	20142
470.324	23562
470.403	14796
470.482	9725
470.560	9787
470.639	8397
470.718	7523
470.797	7742
470.875	8795
470.954	9683
471.033	10114
471.111	7335
471.190	7339
471.269	6300
471.347	7076
471.426	7313
471.505	7966
471.583	8044
471.662	8718
471.740	7770
471.819	7540
471.898	7749
471.976	7706
472.055	7756
472.133	8354
472.212	9887
472.290	7983
472.369	7843
472.447	7106
472.526	8447
472.604	7944
472.683	6786
472.761	6618
472.839	7870
472.918	8476
472.996	7604
473.075	7549
473.153	8116
473.231	7778
473.310	7236
473.388	8337
473.466	7466
473.545	7710
473.623	8221
473.701	7382
473.780	8360
473.858	7971
473.936	10269
474.014	7755
474.093	9001
474.171	9571
474.249	11190
474.327	8953
474.405	7038
474.484	7055
474.562	7382
474.640	7738
474.718	7606
474.796	7535
474.874	7814
474.952	7368
475.030	6875
475.108	8291
475.187	7548
475.265	7768
475.343	9010
475.421	9178
475.499	6694
475.577	7060
475.655	8449
475.733	11439
475.811	16380
475.889	14370
475.966	11325
476.044	7362
476.122	7961
476.200	7927
476.278	7651
476.356	7124
476.434	7859
476.512	8051
476.590	8592
476.667	8288
476.745	6116
476.823	7939
476.901	7606
476.979	7671
477.056	8241
477.134	7738
477.212	8228
477.290	8170
477.367	6875
477.445	7103
477.523	6584
477.601	7077
477.678	8088
477.756	8474
477.834	8535
477.911	7850
477.989	6283
478.066	7075
478.144	6904
478.222	7418
478.299	9324
478.377	9105
478.454	6923
478.532	7207
478.609	7044
478.687	7741
478.764	6662
478.842	7032
478.919	6521
478.997	6961
479.074	6671
479.152	7229
479.229	8324
479.307	6268
479.384	7167
479.461	7396
479.539	7340
479.616	7564
479.694	7537
479.771	8198
479.848	6316
479.926	6275
480.003	8593
480.080	6947
480.157	6849
480.235	7103
480.312	6803
480.389	7140
480.467	8821
480.544	10432
480.621	8952
480.698	8445
480.775	9111
480.853	7800
480.930	8173
481.007	6753
481.084	7522
481.161	9744
481.238	8244
481.315	6503
481.392	7819
481.470	7892
481.547	8096
481.624	7530
481.701	7909
481.778	7569
481.855	7936
481.932	10174
482.009	12080
482.086	10841
482.163	10018
482.240	10763
482.317	13050
482.393	10790
482.470	9133
482.547	8926
482.624	7934
482.701	8568
482.778	7860
482.855	8221
482.932	7305
483.009	7265
483.085	9845
483.162	10442
483.239	11263
483.316	10701
483.393	10879
483.469	9879
483.546	9154
483.623	8233
483.699	7067
483.776	7793
483.853	7406
483.930	8293
484.006	13969
484.083	20810
484.160	12934
484.236	17342
484.313	14124
484.389	11871
484.466	13594
484.543	13473
484.619	16875
484.696	19755
484.772	14538
484.849	12851
484.925	11300
485.002	11218
485.078	11201
485.155	10648
485.231	9505
485.308	10250
485.384	11092
485.461	12705
485.537	14091
485.614	16586
485.690	10156
485.766	9164
485.843	10165
485.919	10105
485.995	9214
486.072	10351
486.148	9302
486.224	9113
486.301	8452
486.377	9921
486.453	9137
486.530	11422
486.606	13135
486.682	12564
486.758	14184
486.835	15098
486.911	12889
486.987	18369
487.063	15622
487.139	14766
487.215	15529
487.292	15606
487.368	16689
487.444	17967
487.520	25357
487.596	36523
487.672	87524
487.748	271724
487.824	387733
487.900	107993
487.976	30899
488.052	19193
488.128	17532
488.204	12312
488.280	13240
488.356	12269
488.432	17124
488.508	21717
488.584	11197
488.660	10179
488.736	9636
488.812	8507
488.888	10568
488.964	9930
489.039	11821
489.115	14392
489.191	11555
489.267	9108
489.343	9893
489.418	8903
489.494	8904
489.570	7463
489.646	9963
489.722	9932
489.797	8863
489.873	11935
489.949	16747
490.024	14277
490.100	7864
490.176	8781
490.251	8484
490.327	9253
490.403	8547
490.478	8684
490.554	8367
490.629	8360
490.705	7554
490.781	8126
490.856	8983
490.932	8851
491.007	8535
491.083	8068
491.158	8488
491.234	8960
491.309	14382
491.385	12836
491.460	8178
491.536	9568
491.611	7553
491.686	8578
491.762	8023
491.837	9856
491.913	12189
491.988	14453
492.063	14024
492.139	11798
492.214	9532
492.289	7495
492.365	8400
492.440	8933
492.515	7473
492.590	8165
492.666	7557
492.741	8143
492.816	9859
492.891	8429
492.967	8054
493.042	7648
493.117	7370
493.192	8704
493.267	10493
493.342	20164
493.418	22795
493.493	8323
493.568	7625
493.643	7802
493.718	8512
493.793	9015
493.868	8489
493.943	7527
494.018	8380
494.093	7713
494.168	7566
494.243	7335
494.318	7674
494.393	7862
494.468	7208
494.543	7738
494.618	7547
494.693	8201
494.768	8017
494.842	8768
494.917	8333
494.992	7526
495.067	8269
495.142	7368
495.217	7443
495.292	7405
495.366	8639
495.441	7540
495.516	11105
495.591	8905
495.665	14291
495.740	21924
495.815	12349
495.890	9081
495.964	7277
496.039	10732
496.114	9845
496.188	12290
496.263	11247
496.338	9335
496.412	9041
496.487	10239
496.561	9328
496.636	8991
496.710	8821
496.785	9193
496.860	9829
496.934	8790
497.009	9613
497.083	9883
497.158	9420
497.232	11062
497.307	11095
497.381	12513
497.455	12810
497.530	11422
497.604	9551
497.679	10317
497.753	12314
497.827	12713
497.902	12237
497.976	14934
498.050	31681
498.125	101870
498.199	89877
498.273	14878
498.348	11740
498.422	12691
498.496	13446
498.570	13977
498.645	9940
498.719	7584
498.793	10476
498.867	13375
498.941	16646
499.016	45071
499.090	102896
499.164	33239
499.238	10724
499.312	10415
499.386	10984
499.460	11328
499.534	13794
499.609	15584
499.683	15068
499.757	11235
499.831	21929
499.905	70499
499.979	57298
500.053	12684
500.127	11678
500.201	9639
500.275	10561
500.349	9448
500.422	11681
500.496	14615
500.570	19788
500.644	46887
500.718	72393
500.792	15765
500.866	8799
500.940	8787
501.013	7299
501.087	7720
501.161	8533
501.235	10684
501.309	25588
501.382	60199
501.456	46171
501.530	13277
501.603	19853
501.677	9297
501.751	4541
501.825	8995
501.898	11455
501.972	24238
502.046	14922
502.119	6320
502.193	12464
502.266	25340
502.340	12742
502.413	13371
502.487	22396
502.561	12036
502.634	7184
502.708	6507
502.781	5584
502.855	6505
502.928	4636
503.002	5888
503.075	5401
503.149	6437
503.222	5800
503.295	6396
503.369	7262
503.442	9430
503.516	20630
503.589	42627
503.662	27751
503.736	15321
503.809	27232
503.882	25570
503.956	42402
504.029	62295
504.102	152080
504.175	213072
504.249	68761
504.322	24069
504.395	13992
504.468	10589
504.542	7453
504.615	7308
504.688	7448
504.761	4213
504.834	7260
504.907	6671
504.980	6195
505.053	4960
505.127	3706
505.200	8633
505.273	6329
505.346	4533
505.419	3425
505.492	5893
505.565	4985
505.638	4899
505.711	3830
505.784	3664
505.857	4132
505.930	6393
506.003	3678
506.076	6318
506.149	4966
506.221	4378
506.294	7131
506.367	10688
506.440	31860
506.513	15719
506.586	5846
506.659	4900
506.731	4905
506.804	4548
506.877	3987
506.950	4993
507.022	5174
507.095	3790
507.168	5618
507.241	5036
507.313	2563
507.386	3423
507.459	5123
507.531	4087
507.604	3468
507.677	4416
507.749	3149
507.822	5712
507.894	5551
507.967	7090
508.040	5304
508.112	5132
508.185	5406
508.257	3748
508.330	6444
508.402	4472
508.475	4671
508.547	5550
508.620	5108
508.692	6475
508.765	5365
508.837	4346
508.909	4971
508.982	4357
509.054	4989
509.127	4154
509.199	5035
509.271	4143
509.344	4362
509.416	4548
509.488	4851
509.560	4975
509.633	3990
509.705	4751
509.777	5520
509.849	5976
509.922	4304
509.994	4148
510.066	5919
510.138	4404
510.210	8870
510.283	5882
510.355	6233
510.427	5990
510.499	5470
510.571	5262
510.643	4865
510.715	6197
510.787	3030
510.859	5564
510.931	5870
511.003	6339
511.076	6070
511.148	5305
511.219	4682
511.291	7006
511.363	7609
511.435	4700
511.507	4009
511.579	6244
511.651	5489
511.723	4684
511.795	4614
511.867	4311
511.939	6121
512.010	6544
512.082	6506
512.154	3973
512.226	4743
512.298	6121
512.369	7268
512.441	6353
512.513	5265
512.585	3951
512.656	6214
512.728	4427
512.800	4779
512.871	5630
512.943	5700
513.015	3350
513.086	5341
513.158	4905
513.230	4465
513.301	4885
513.373	5920
513.444	4554
513.516	4249
513.588	4808
513.659	4853
513.731	5216
513.802	3531
513.874	7161
513.945	6323
514.016	5246
514.088	5142
514.159	3547
514.231	6721
514.302	6826
514.374	6538
514.445	5204
514.516	10925
514.588	6445
514.659	6261
514.730	7717
514.802	6591
514.873	3548
514.944	7637
515.016	5665
515.087	4942
515.158	6620
515.229	9323
515.301	5529
515.372	7049
515.443	4962
515.514	5263
515.585	5339
515.656	6293
515.728	6762
515.799	5231
515.870	5924
515.941	7091
516.012	6139
516.083	8675
516.154	7457
516.225	9895
516.296	11934
516.367	10520
516.438	12619
516.509	15642
516.580	28926
516.651	102800
516.722	315885
516.793	113898
516.864	22337
516.935	21071
517.006	26631
517.077	33860
517.148	84062
517.219	369953
517.289	506853
517.360	95010
517.431	26473
517.502	13503
517.573	13576
517.643	11857
517.714	12544
517.785	14018
517.856	14405
517.926	20011
517.997	21822
518.068	26288
518.138	37608
518.209	65485
518.280	245541
518.350	731078
518.421	279471
518.492	46402
518.562	30977
518.633	32275
518.703	42467
518.774	102466
518.845	273661
518.915	239838
518.986	59542
519.056	25294
519.127	19364
519.197	20976
519.268	36921
519.338	24048
519.408	10934
519.479	9907
519.549	7500
519.620	8939
519.690	8021
519.760	7377
519.831	6253
519.901	5942
519.971	6760
520.042	6319
520.112	6257
520.182	6308
520.253	6543
520.323	6429
520.393	4988
520.463	8445
520.534	4144
520.604	9883
520.674	6484
520.744	6814
520.814	7189
520.885	8524
520.955	14788
521.025	40552
521.095	13786
521.165	7921
521.235	5904
521.305	5421
521.375	4948
521.445	5975
521.515	5139
521.585	5906
521.655	4269
521.725	6072
521.795	6682
521.865	3094
521.935	8496
522.005	5928
522.075	5041
522.145	6361
522.215	5135
522.285	6694
522.355	7480
522.424	12144
522.494	9388
522.564	6345
522.634	6504
522.704	12087
522.774	6020
522.843	5875
522.913	5409
522.983	5553
523.053	5260
523.122	6686
523.192	5566
523.262	7417
523.331	5916
523.401	6873
523.471	5524
523.540	4880
523.610	4309
523.680	5373
523.749	6527
523.819	7393
523.888	5155
523.958	5523
524.027	5794
524.097	6265
524.166	5786
524.236	3907
524.305	7147
524.375	5265
524.444	4478
524.514	8051
524.583	4751
524.653	5369
524.722	6997
524.791	4847
524.861	7486
524.930	5189
524.999	5641
525.069	7714
525.138	6742
525.207	6573
525.277	8111
525.346	7034
525.415	8640
525.484	8154
525.554	9877
525.623	11608
525.692	13729
525.761	16623
525.830	20078
525.900	26365
525.969	42575
526.038	82264
526.107	177490
526.176	489659
526.245	352012
526.314	101798
526.383	245655
526.452	311684
526.522	456142
526.591	383220
526.660	58215
526.729	36792
526.797	39469
526.867	62850
526.935	200519
527.004	663847
527.073	383243
527.142	46796
527.211	21275
527.280	15348
527.349	11984
527.418	8396
527.487	10464
527.555	6200
527.624	7327
527.693	6102
527.762	7800
527.831	5908
527.899	7608
527.968	6298
528.037	4588
528.106	6615
528.174	6375
528.243	7234
528.312	7389
528.380	7041
528.449	5495
528.518	6746
528.586	4161
528.655	6959
528.723	5828
528.792	5241
528.861	4790
528.929	5469
528.998	7382
529.066	9062
529.135	12757
529.203	11364
529.272	15080
529.340	18363
529.409	17882
529.477	14460
529.545	15154
529.614	19243
529.682	18721
529.751	20616
529.819	23616
529.887	24318
529.956	21169
530.024	22283
530.092	19496
530.161	20692
530.229	20734
530.297	22394
530.365	22861
530.434	23613
530.502	22639
530.570	22370
530.638	17862
530.707	18000
530.775	17984
530.843	18050
530.911	20052
530.979	20544
531.047	22507
531.115	20951
531.183	19011
531.252	19472
531.320	16965
531.388	18215
531.456	21601
531.524	20289
531.592	23638
531.660	26569
531.728	23917
531.796	21138
531.864	21931
531.932	21493
532.000	21323
532.067	23165
532.135	25567
532.203	26467
532.271	25836
532.339	27238
532.407	27530
532.475	26436
532.542	24855
532.610	24869
532.678	26481
532.746	33143
532.814	42700
532.881	30438
532.949	26407
533.017	24606
533.084	23395
533.152	22966
533.220	23674
533.287	23900
533.355	23920
533.423	24746
533.490	23983
533.558	24156
533.625	23356
533.693	22376
533.761	22025
533.828	21769
533.896	21475
533.963	25388
534.031	25275
534.098	27549
534.166	26751
534.233	25506
534.300	25623
534.368	25377
534.435	23790
534.503	25032
534.570	26719
534.637	29025
534.705	30432
534.772	34785
534.840	59112
534.907	223410
534.974	251319
535.041	40442
535.109	24458
535.176	20945
535.243	22299
535.310	21351
535.378	20395
535.445	21181
535.512	19180
535.579	19930
535.646	17831
535.714	19887
535.781	19506
535.848	21560
535.915	21598
535.982	20731
536.049	19946
536.116	20913
536.183	16712
536.250	17954
536.317	17355
536.384	18332
536.451	18736
536.518	20020
536.585	17742
536.652	19896
536.719	19647
536.786	16307
536.853	17352
536.920	19122
536.987	16989
537.053	16997
537.120	24952
537.187	23423
537.254	18234
537.321	18431
537.388	19809
537.454	17579
537.521	17630
537.588	16785
537.654	17771
537.721	18182
537.788	19050
537.855	17004
537.921	18526
537.988	16461
538.055	16434
538.121	14394
538.188	15303
538.254	14511
538.321	16364
538.388	16561
538.454	18004
538.521	19307
538.587	18332
538.654	17134
538.720	15543
538.787	16895
538.853	17078
538.920	16797
538.986	15241
539.053	14946
539.119	14970
539.185	15360
539.252	17141
539.318	16789
539.385	19074
539.451	15593
539.517	16966
539.583	16990
539.650	18128
539.716	19861
539.782	15104
539.849	15152
539.915	15971
539.981	15625
540.047	15545
540.114	14858
540.180	17018
540.246	15131
540.312	17306
540.378	16992
540.444	18062
540.510	17682
540.576	20935
540.643	15783
540.709	14683
540.775	16239
540.841	14914
540.907	16766
540.973	15397
541.039	14586
541.105	16133
541.171	15753
541.237	15748
541.303	16688
541.369	18276
541.435	15677
541.500	15529
541.566	13309
541.632	14071
541.698	14598
541.764	16328
541.830	14726
541.896	14093
541.961	14662
542.027	14073
542.093	16833
542.159	17155
542.224	13654
542.290	16445
542.356	15543
542.421	16404
542.487	14936
542.553	13941
542.618	15604
542.684	14484
542.750	14523
542.815	15563
542.881	15955
542.947	20751
543.012	18883
543.078	14312
543.143	14067
543.209	14721
543.274	14257
543.340	14429
543.405	15382
543.471	17413
543.536	15004
543.602	15735
543.667	14341
543.732	16380
543.798	14414
543.863	15640
543.928	15577
543.994	14174
544.059	16098
544.124	16298
544.190	15486
544.255	16901
544.320	16601
544.386	15604
544.451	18156
544.516	16645
544.581	16212
544.646	20530
544.712	20951
544.777	17202
544.842	18731
544.907	17122
544.972	17391
545.037	18043
545.102	18150
545.168	18654
545.233	19663
545.298	19841
545.363	19013
545.428	20804
545.493	22228
545.558	21989
545.623	20352
545.688	20093
545.753	20751
545.818	21294
545.883	23231
545.947	22694
546.012	24154
546.077	24224
546.142	27578
546.207	26842
546.272	29079
546.337	28731
546.401	30157
546.466	30990
546.531	31900
546.596	35059
546.661	36212
546.725	38877
546.790	40497
546.855	43161
546.919	46497
546.984	53038
547.049	57480
547.113	65107
547.178	71388
547.243	80880
547.307	95020
547.372	105159
547.436	104314
547.501	109845
547.565	117578
547.630	106212
547.695	103465
547.759	104921
547.823	105465
547.888	107881
547.952	110965
548.017	115556
548.081	115422
548.146	117593
548.210	120932
548.274	129669
548.339	124228
548.403	113237
548.468	107285
548.532	107508
548.596	108302
548.660	110828
548.725	120999
548.789	132569
548.853	127524
548.917	121539
548.982	115625
549.046	105442
549.110	95698
549.174	100435
549.238	116453
549.303	127266
549.367	128894
549.431	123585
549.495	115361
549.559	117680
549.623	137026
549.687	146863
549.751	144565
549.815	173101
549.879	174272
549.943	167234
550.007	176025
550.071	172185
550.135	155199
550.199	149099
550.263	145080
550.327	138948
550.391	141174
550.455	158260
550.519	164009
550.582	174514
550.646	197839
550.710	198878
550.774	195913
550.838	199032
550.901	203171
550.965	211886
551.029	221487
551.093	235646
551.156	250803
551.220	277423
551.284	300567
551.347	242375
551.411	217212
551.475	210771
551.538	216599
551.602	200326
551.666	189451
551.729	181359
551.793	177747
551.856	175204
551.920	173225
551.983	171408
552.047	169171
552.110	172363
552.174	171783
552.237	177285
552.301	166833
552.364	158583
552.428	155875
552.491	160449
552.554	161781
552.618	163056
552.681	165229
552.745	161862
552.808	176657
552.871	194020
552.934	175206
552.998	163662
553.061	160600
553.124	154334
553.187	152529
553.251	156435
553.314	158258
553.377	159311
553.440	168933
553.503	183396
553.567	187787
553.630	174186
553.693	171856
553.756	174124
553.819	170718
553.882	165518
553.945	168386
554.008	166057
554.071	167848
554.134	170515
554.197	160721
554.260	158397
554.323	161250
554.386	163373
554.449	167720
554.512	165978
554.575	160191
554.638	159587
554.701	159024
554.764	156990
554.827	150830
554.889	147864
554.952	137782
555.015	135443
555.078	137448
555.141	140295
555.203	136236
555.266	137186
555.329	135686
555.391	131279
555.454	127376
555.517	123943
555.580	117274
555.642	113099
555.705	110751
555.768	111836
555.830	109081
555.893	103796
555.955	99372
556.018	99257
556.080	97972
556.143	101187
556.206	101233
556.268	95898
556.330	96122
556.393	92281
556.455	89230
556.518	86975
556.580	86179
556.643	82336
556.705	80301
556.767	78841
556.830	77852
556.892	76053
556.955	74095
557.017	72193
557.079	73074
557.142	70202
557.204	68324
557.266	68291
557.328	65402
557.391	60868
557.453	59396
557.515	58905
557.577	59684
557.639	59396
557.701	58861
557.764	57216
557.826	58778
557.888	59777
557.950	60890
558.012	66738
558.074	81724
558.136	162064
558.198	328192
558.260	121312
558.322	61540
558.384	60351
558.446	62321
558.508	65775
558.570	70499
558.632	80193
558.694	101008
558.756	164302
558.818	423381
558.880	809485
558.942	334586
559.003	343406
559.065	157790
559.127	69426
559.189	68640
559.251	76816
559.312	108574
559.374	240116
559.436	621883
559.498	299010
559.559	77230
559.621	66904
559.683	79194
559.744	127349
559.806	356073
559.868	467001
559.929	106414
559.991	75662
560.052	123363
560.114	315505
560.176	190990
560.237	193049
560.299	274652
560.360	62819
560.422	32711
560.483	28650
560.545	28852
560.606	25976
560.667	25302
560.729	24904
560.790	24423
560.852	23776
560.913	23030
560.974	22485
561.036	22672
561.097	22415
561.158	20781
561.220	21685
561.281	21167
561.342	21003
561.403	20740
561.465	19609
561.526	21210
561.587	22250
561.648	18793
561.709	19151
561.771	18194
561.832	18026
561.893	17713
561.954	18487
562.015	17362
562.076	17564
562.137	16883
562.198	16898
562.259	18826
562.320	16724
562.381	16878
562.442	17083
562.503	17212
562.564	16595
562.625	15606
562.686	16004
562.747	15391
562.808	15372
562.869	15527
562.930	16182
562.991	16282
563.051	15849
563.112	14936
563.173	14957
563.234	13714
563.294	15083
563.355	14676
563.416	14693
563.477	14558
563.537	14332
563.598	15116
563.659	14113
563.720	14030
563.780	13965
563.841	13938
563.901	14315
563.962	14057
564.023	14526
564.083	14314
564.144	14572
564.204	13313
564.265	13445
564.325	13924
564.386	15400
564.446	15144
564.507	12651
564.567	12529
564.628	13101
564.688	13073
564.749	12877
564.809	12789
564.869	13882
564.930	12891
564.990	12945
565.050	12448
565.111	13649
565.171	13653
565.231	12865
565.292	13836
565.352	11874
565.412	12499
565.472	12601
565.532	12399
565.593	12333
565.653	12258
565.713	12067
565.773	12669
565.833	12795
565.893	14245
565.953	11709
566.013	11484
566.074	12196
566.134	12744
566.194	13707
566.254	13630
566.314	12430
566.374	10662
566.434	12246
566.494	12158
566.554	12425
566.614	11775
566.673	12077
566.733	12898
566.793	12533
566.853	12249
566.913	12752
566.973	12613
567.033	13212
567.092	12666
567.152	12175
567.212	13756
567.272	13006
567.331	12871
567.391	12627
567.451	13421
567.511	14631
567.570	13916
567.630	13402
567.690	12497
567.749	12566
567.809	12822
567.868	11873
567.928	12581
567.988	12943
568.047	13775
568.107	12900
568.166	13250
568.226	14590
568.285	16360
568.345	14213
568.404	14878
568.464	13034
568.523	12688
568.582	13504
568.642	13444
568.701	13909
568.761	15839
568.820	17874
568.879	16653
568.939	15905
568.998	14116
569.057	13226
569.116	12258
569.176	12604
569.235	12845
569.294	12129
569.353	10886
569.413	11701
569.472	11191
569.531	11687
569.590	10682
569.649	11489
569.708	10990
569.767	11590
569.827	11895
569.886	11888
569.945	11154
570.004	11309
570.063	10981
570.122	11588
570.181	12574
570.240	13444
570.299	12252
570.358	12315
570.417	12751
570.475	12088
570.534	12891
570.593	12089
570.652	12386
570.711	12116
570.770	11862
570.829	11907
570.887	12043
570.946	12094
571.005	13057
571.064	12344
571.122	13484
571.181	13092
571.240	11862
571.299	11902
571.357	11983
571.416	10922
571.475	12403
571.533	12375
571.592	12922
571.650	12771
571.709	13049
571.768	13848
571.826	13800
571.885	13448
571.943	12234
572.002	11003
572.060	11389
572.119	11549
572.177	11825
572.236	12274
572.294	10780
572.352	12531
572.411	12948
572.469	11661
572.528	11398
572.586	10832
572.644	11843
572.703	12238
572.761	11227
572.819	11074
572.877	10356
572.936	10344
572.994	10288
573.052	10984
573.110	10083
573.169	11343
573.227	10912
573.285	11315
573.343	11173
573.401	11107
573.459	10834
573.517	10949
573.576	11255
573.634	10030
573.692	10792
573.750	11247
573.808	10045
573.866	9866
573.924	10408
573.982	10326
574.040	9935
574.098	9847
574.155	9360
574.213	9897
574.271	10138
574.329	10064
574.387	10307
574.445	8295
574.503	8610
574.560	8518
574.618	8558
574.676	8917
574.734	8749
574.792	9252
574.849	8680
574.907	7338
574.965	7865
575.022	7378
575.080	7159
575.138	7734
575.195	8131
575.253	7355
575.311	8229
575.368	7713
575.426	7162
575.483	8792
575.541	8219
575.598	7584
575.656	8432
575.713	7287
575.771	8720
575.828	7079
575.886	6519
575.943	8619
576.001	7593
576.058	7106
576.115	8195
576.173	7463
576.230	7895
576.287	7900
576.345	8431
576.402	8649
576.459	8721
576.517	7110
576.574	8245
576.631	7856
576.688	7409
576.746	7399
576.803	7800
576.860	6824
576.917	7024
576.974	7652
577.031	7550
577.089	8153
577.146	6350
577.203	6805
577.260	7018
577.317	7521
577.374	6820
577.431	6620
577.488	6139
577.545	7315
577.602	7000
577.659	6874
577.716	7723
577.773	7245
577.830	6414
577.886	7453
577.943	6991
578.000	7082
578.057	7388
578.114	8223
578.171	6985
578.227	8604
578.284	7282
578.341	8269
578.398	7076
578.454	7377
578.511	6919
578.568	7353
578.625	6621
578.681	7358
578.738	7054
578.794	7213
578.851	7174
578.908	6835
578.964	7382
579.021	7559
579.077	6980
579.134	6970
579.190	7708
579.247	7306
579.303	7105
579.360	6904
579.416	7571
579.473	6832
579.529	7213
579.586	7770
579.642	7906
579.698	7775
579.755	8294
579.811	7535
579.867	7704
579.924	7809
579.980	7231
580.036	8558
580.093	9508
580.149	10525
580.205	9919
580.261	8811
580.317	8921
580.374	8756
580.430	9003
580.486	9100
580.542	8169
580.598	8402
580.619	8436
580.654	8508
580.692	8076
580.710	7876
580.765	8215
580.767	8235
580.823	9093
580.838	9093
580.879	9135
580.911	8862
580.935	8679
580.984	8645
580.991	8654
581.047	9621
581.057	9444
581.103	8701
581.130	9222
581.159	9768
581.203	9415
581.215	9353
581.270	9300
581.276	9273
581.326	9004
581.349	9109
581.382	9312
581.422	8809
581.438	8612
581.494	8614
581.494	8609
581.550	8880
581.567	8805
581.606	8584
581.640	8471
581.661	8473
581.713	9475
581.717	9548
581.773	9420
581.786	9218
581.829	8685
581.859	9088
581.885	9410
581.932	8779
581.940	8686
581.996	9807
582.004	9905
582.052	10296
582.077	9636
582.107	8997
582.150	9814
582.163	10051
582.219	9173
582.223	9159
582.274	9053
582.296	8948
582.330	8709
582.368	9360
582.386	9756
582.441	9868
582.441	9871
582.497	9168
582.514	9231
582.552	9513
582.587	9510
582.608	9450
582.659	10131
582.663	10201
582.719	10564
582.732	10503
582.774	10286
582.805	10505
582.830	10721
582.877	11679
582.885	11827
582.941	10976
582.950	11159
582.996	12094
583.023	12955
583.052	13962
583.095	14033
583.107	14035
583.162	12941
583.168	12971
583.218	13219
583.240	12500
583.273	11404
583.313	10840
583.328	10663
583.384	10912
583.385	10883
583.439	9902
583.458	9787
583.494	9552
583.531	8782
583.549	8519
583.603	10145
583.605	10183
583.660	8955
583.676	9223
583.715	10068
583.748	10023
583.770	9913
583.820	9671
583.825	9667
583.881	10187
583.893	10024
583.936	9154
583.965	8902
583.991	8916
584.038	9605
584.046	9674
584.101	9826
584.110	9875
584.156	10070
584.183	9760
584.211	9498
584.255	9914
584.266	10071
584.321	10169
584.328	10265
584.376	10571
584.400	10551
584.431	10690
584.472	10777
584.486	10758
584.541	10538
584.545	10585
584.596	11398
584.617	11354
584.651	11315
584.689	11267
584.706	11234
584.761	12294
584.762	12299
584.816	12078
584.834	12319
584.871	12939
584.906	12806
584.926	12640
584.978	12868
584.980	12888
585.035	14127
585.051	14582
585.090	15393
585.123	15739
585.145	16145
585.195	16771
585.200	16864
585.254	19215
585.267	19795
585.309	21517
585.340	23358
585.364	24980
585.412	28304
585.419	28884
585.473	35770
585.484	37930
585.528	48667
585.556	61178
585.583	82981
585.628	135014
585.637	152448
585.692	311069
585.700	336263
585.747	423388
585.772	349348
585.801	209240
585.845	72752
585.856	55488
585.910	30562
585.917	28212
585.965	22117
585.989	20455
586.019	19362
586.061	17873
586.074	17436
586.128	16327
586.133	16198
586.183	15214
586.205	15276
586.237	15135
586.277	14657
586.292	14579
586.346	14885
586.349	14865
586.401	14318
586.421	14334
586.455	14368
586.493	14546
586.509	14664
586.564	15033
586.565	15077
586.618	17458
586.637	17858
586.672	18256
586.709	19189
586.727	19808
586.781	21779
586.781	21763
586.835	16271
586.853	15079
586.889	14203
586.925	13569
586.944	13275
586.996	12896
586.998	12881
587.052	13345
587.068	13328
587.106	13180
587.140	12799
587.161	12825
587.212	13769
587.215	13768
587.269	13197
587.284	13283
587.323	14004
587.356	14059
587.377	13880
587.427	14195
587.431	14239
587.485	14708
587.499	14824
587.539	14846
587.571	14896
587.593	15068
587.643	15742
587.648	15768
587.702	15897
587.715	16077
587.755	17034
587.786	17233
587.810	17064
587.858	16852
587.864	16868
587.917	17817
587.930	17820
587.971	17345
588.001	17481
588.025	17951
588.073	19083
588.079	19124
588.133	18723
588.145	18928
588.187	19805
588.217	19939
588.241	20257
588.288	21458
588.295	21620
588.348	22777
588.360	23130
588.402	24420
588.431	25447
588.456	26472
588.503	28269
588.510	28543
588.564	32290
588.575	33089
588.617	36759
588.646	39587
588.671	42345
588.718	49766
588.725	51660
588.778	69956
588.789	74906
588.832	114917
588.861	147587
588.886	201269
588.932	312995
588.939	321947
588.993	366581
589.004	365274
589.047	230168
589.075	141536
589.100	105770
589.147	58405
589.154	56069
589.207	45419
589.218	43801
589.261	43923
589.290	44986
589.314	46684
589.361	51784
589.368	53871
589.421	75045
589.433	80865
589.475	138934
589.504	185475
589.528	235211
589.576	329231
589.582	319728
589.635	184063
589.647	155352
589.689	85029
589.718	45440
589.742	38742
589.790	29007
589.795	28479
589.849	25011
589.861	24391
589.902	23427
589.932	22643
589.955	21564
590.004	19089
590.009	18981
590.062	19021
590.075	18964
590.115	18256
590.146	17625
590.168	17350
590.218	17082
590.222	17080
590.275	17409
590.289	17545
590.328	18390
590.360	18920
590.381	18398
590.431	17197
590.435	17208
590.488	17860
590.503	18101
590.541	18087
590.574	17972
590.594	18234
590.645	19248
590.647	19245
590.700	19319
590.716	19393
590.753	19789
590.787	20154
590.806	20090
590.859	20244
590.859	20241
590.912	20982
590.930	21302
590.965	21103
591.001	20900
591.018	20678
591.071	19894
591.072	19906
591.124	20061
591.143	20094
591.177	20500
591.214	21216
591.230	21463
591.283	22078
591.285	22109
591.336	21388
591.356	21185
591.389	21180
591.427	21107
591.442	20891
591.495	20304
591.498	20269
591.547	20217
591.569	20278
591.600	20535
591.640	20839
591.653	20888
591.706	21258
591.711	21312
591.759	21018
591.782	20919
591.811	22049
591.853	23790
591.864	23605
591.917	22603
591.924	22491
591.969	22529
591.995	22558
592.022	22929
592.066	23618
592.075	23690
592.127	24285
592.137	24411
592.180	25180
592.208	25722
592.233	25146
592.279	24107
592.285	24206
592.338	25355
592.350	25629
592.390	25306
592.421	25151
592.443	25595
592.491	26676
592.495	26675
592.548	27005
592.562	27122
592.600	26444
592.633	25932
592.653	25541
592.704	24479
592.705	24648
592.775	26234
592.846	26962
592.916	28053
592.987	27775
593.058	28544
593.128	28289
593.199	29715
593.270	28926
593.341	29497
593.411	29275
593.482	31576
593.553	32333
593.623	32304
593.694	34660
593.764	33495
593.835	32478
593.906	33884
593.976	34918
594.047	36017
594.117	37673
594.188	38461
594.258	37621
594.329	38167
594.399	38677
594.470	40016
594.540	40509
594.611	43350
594.681	41942
594.751	41458
594.822	43616
594.892	46006
594.963	45880
595.033	47712
595.103	50006
595.174	50325
595.244	51368
595.314	53698
595.384	53128
595.455	55762
595.525	57127
595.595	58917
595.665	58921
595.736	58615
595.806	59180
595.876	59934
595.946	61024
596.016	63205
596.087	65126
596.157	64667
596.227	64446
596.297	69053
596.367	73504
596.437	78870
596.507	78350
596.577	78388
596.647	78534
596.717	84033
596.787	84578
596.857	85054
596.927	86131
596.997	87004
597.067	87165
597.137	89371
597.207	88497
597.277	88684
597.347	86755
597.417	83547
597.487	84543
597.557	85835
597.626	87250
597.696	89269
597.766	90169
597.836	84621
597.906	77525
597.975	77676
598.045	79595
598.115	83822
598.185	89660
598.254	100737
598.324	107336
598.394	110842
598.464	106132
598.533	104884
598.603	98277
598.672	94088
598.742	98819
598.812	97231
598.881	100600
598.951	99938
599.020	100899
599.090	105576
599.159	107255
599.229	102638
599.299	99900
599.368	105601
599.437	102192
599.507	94581
599.576	92290
599.646	91123
599.715	90828
599.785	90894
599.854	87046
599.924	86732
599.993	86875
600.062	88044
600.132	90401
600.201	96662
600.270	110041
600.340	117340
600.409	113742
600.478	114005
600.547	116582
600.617	105542
600.686	87561
600.755	80251
600.824	76488
600.894	76114
600.963	75840
601.032	76229
601.101	73341
601.170	70869
601.239	69743
601.308	70304
601.378	69989
601.447	71674
601.516	72039
601.585	73778
601.654	75431
601.723	76389
601.792	77157
601.861	80485
601.930	82768
601.999	85498
602.068	84324
602.137	85120
602.206	85894
602.275	87741
602.343	88776
602.412	89269
602.481	89643
602.550	90737
602.619	93701
602.688	93561
602.756	94680
602.825	94661
602.894	98496
602.963	99755
603.032	100433
603.100	100283
603.169	99311
603.238	101354
603.307	101635
603.375	102586
603.444	105255
603.513	102637
603.581	105451
603.650	108280
603.719	101032
603.787	101955
603.856	104508
603.924	108145
603.993	110902
604.061	115657
604.130	119644
604.198	120840
604.267	123685
604.335	126790
604.404	126291
604.472	131243
604.541	129712
604.609	133041
604.678	133292
604.746	135519
604.815	140378
604.883	140495
604.951	138681
605.020	143470
605.088	141007
605.156	142629
605.225	144265
605.293	144152
605.361	144304
605.429	146853
605.498	148221
605.566	150093
605.634	158073
605.702	164304
605.771	168064
605.839	169186
605.907	163927
605.975	161186
606.043	155156
606.111	155636
606.180	158107
606.248	153349
606.316	150889
606.384	154357
606.452	149052
606.520	147732
606.588	152822
606.656	154366
606.724	150055
606.792	141519
606.860	126683
606.928	116934
606.996	112115
607.064	110199
607.132	112764
607.200	120573
607.267	123999
607.335	127243
607.403	129991
607.471	125364
607.539	120752
607.607	122031
607.674	107003
607.742	107559
607.810	107409
607.878	106744
607.946	108701
608.013	115045
608.081	116305
608.149	116092
608.216	121381
608.284	126175
608.352	124507
608.419	123837
608.487	121724
608.555	117924
608.622	123232
608.690	131066
608.757	145804
608.825	145685
608.893	142448
608.960	133899
609.028	127193
609.095	130358
609.163	128733
609.230	113111
609.298	105000
609.365	110261
609.432	119526
609.500	130868
609.567	149019
609.635	168799
609.702	178322
609.769	169868
609.837	132029
609.904	115216
609.971	117577
610.039	129827
610.106	163703
610.173	289986
610.241	605398
610.308	344057
610.375	146906
610.442	123925
610.509	118326
610.577	119654
610.644	121156
610.711	124220
610.778	127324
610.845	133594
610.912	140781
610.980	145556
611.047	146808
611.114	143259
611.181	138078
611.248	138547
611.315	148654
611.382	151118
611.449	156915
611.516	159068
611.583	156927
611.650	158821
611.717	161009
611.784	163288
611.851	167634
611.918	177353
611.984	202243
612.051	265020
612.118	468753
612.185	964910
612.252	625544
612.319	238040
612.386	205155
612.452	189268
612.519	176626
612.586	176704
612.653	180084
612.719	187027
612.786	178511
612.853	166156
612.919	162034
612.986	165980
613.053	154913
613.120	145664
613.186	138941
613.253	144447
613.319	142895
613.386	143722
613.453	146205
613.519	146650
613.586	143090
613.652	147293
613.719	142782
613.785	146107
613.852	148569
613.918	148280
613.985	149932
614.051	155157
614.118	155934
614.184	149803
614.250	147783
614.317	150968
614.383	147077
614.449	150009
614.516	151041
614.582	149192
614.648	147267
614.715	147482
614.781	140945
614.847	143167
614.914	141536
614.980	139031
615.046	138304
615.112	144632
615.179	142946
615.245	144319
615.311	143554
615.377	148220
615.443	146117
615.509	150498
615.575	154374
615.642	153103
615.708	155654
615.774	161854
615.840	170150
615.906	179466
615.972	210581
616.038	290863
616.104	545732
616.170	1063641
616.236	869387
616.302	318588
616.368	255752
616.434	191108
616.500	181665
616.565	202268
616.631	245901
616.697	202995
616.763	208944
616.829	306552
616.895	520742
616.961	468570
617.026	211640
617.092	159812
617.158	151964
617.224	150528
617.289	139791
617.355	133548
617.421	130097
617.487	131203
617.552	125170
617.618	125560
617.684	124548
617.749	127494
617.815	120835
617.880	118651
617.946	118227
618.012	120910
618.077	124237
618.143	119200
618.208	120664
618.274	126945
618.339	126925
618.405	107198
618.470	107438
618.536	107458
618.601	104570
618.667	98584
618.732	93535
618.798	93404
618.863	92457
618.928	91784
618.994	92878
619.059	92711
619.124	91775
619.190	91442
619.255	90385
619.320	92359
619.386	91865
619.451	90783
619.516	88942
619.581	90607
619.647	93532
619.712	92998
619.777	89131
619.842	90170
619.907	90315
619.972	93585
620.038	90174
620.103	90104
620.168	89533
620.233	91536
620.298	91683
620.363	93719
620.428	95252
620.493	98460
620.558	98127
620.623	99392
620.688	100242
620.753	99320
620.818	100251
620.883	100002
620.948	99731
621.013	99914
621.078	97375
621.143	99338
621.207	100622
621.272	99384
621.337	95247
621.402	95474
621.467	94630
621.532	94341
621.596	94046
621.661	92610
621.726	92089
621.791	92456
621.855	91822
621.920	91181
621.985	92364
622.049	95646
622.114	94746
622.179	96911
622.243	97011
622.308	100546
622.373	105269
622.437	102449
622.502	97079
622.566	98003
622.631	95048
622.695	98759
622.760	98325
622.824	97924
622.889	96896
622.953	97938
623.018	103208
623.082	104276
623.147	102452
623.211	100704
623.276	100272
623.340	95908
623.404	93742
623.469	94032
623.533	95363
623.597	92999
623.662	92335
623.726	85840
623.790	81246
623.854	78970
623.919	80557
623.983	81532
624.047	83181
624.111	83202
624.176	85520
624.240	84602
624.304	88925
624.368	84223
624.432	84788
624.496	87802
624.560	90614
624.625	91480
624.689	90660
624.753	95644
624.817	90006
624.881	89316
624.945	80467
625.009	79233
625.073	80109
625.137	79771
625.201	85189
625.265	85277
625.329	82143
625.393	82520
625.456	82713
625.520	85277
625.584	86980
625.648	89969
625.712	91571
625.776	95823
625.839	91878
625.903	72597
625.967	66733
626.031	73664
626.095	88852
626.158	77850
626.222	61644
626.286	60104
626.349	55745
626.413	51691
626.477	52845
626.540	51852
626.604	50364
626.668	52686
626.731	49762
626.795	50321
626.858	50482
626.922	48616
626.986	49044
627.049	48092
627.113	51790
627.176	49589
627.240	48373
627.303	48742
627.366	47394
627.430	47804
627.493	47731
627.557	46441
627.620	49010
627.684	49542
627.747	49361
627.810	44179
627.874	41301
627.937	39481
628.000	41875
628.064	40449
628.127	35190
628.190	36611
628.253	34968
628.317	33650
628.380	32087
628.443	31034
628.506	29674
628.569	29427
628.632	27349
628.696	29046
628.759	27265
628.822	26521
628.885	25237
628.948	26245
629.011	25296
629.074	24691
629.137	23598
629.200	23069
629.263	23741
629.326	21846
629.389	22080
629.452	22218
629.515	20999
629.578	21414
629.641	22417
629.704	21390
629.767	21226
629.830	21750
629.892	20232
629.955	20156
630.018	22301
630.081	20094
630.144	21048
630.207	19422
630.269	21877
630.332	18946
630.395	19447
630.458	18566
630.520	17315
630.583	20305
630.646	19704
630.708	19626
630.771	18277
630.834	20887
630.896	19629
630.959	19448
631.021	18133
631.084	18843
631.146	19876
631.209	20359
631.272	19710
631.334	20134
631.397	19525
631.459	19698
631.522	21036
631.584	21399
631.646	23243
631.709	24372
631.771	23719
631.834	23257
631.896	22225
631.958	19594
632.021	19924
632.083	18289
632.145	19046
632.208	18099
632.270	19037
632.332	17377
632.395	16980
632.457	18952
632.519	17284
632.581	19568
632.643	16233
632.706	18072
632.768	15672
632.830	18120
632.892	17342
632.954	17666
633.016	19233
633.078	17834
633.141	17366
633.203	17778
633.265	17333
633.327	17701
633.389	16329
633.451	19484
633.513	17916
633.575	18699
633.637	17702
633.698	17373
633.760	19237
633.822	20589
633.884	20169
633.946	20754
634.008	20899
634.070	22550
634.132	23882
634.193	26547
634.255	27958
634.317	29052
634.379	28745
634.441	24776
634.502	22974
634.564	20945
634.626	19167
634.687	18815
634.749	18059
634.811	18543
634.873	17073
634.934	17422
634.996	18226
635.057	17087
635.119	16302
635.181	18609
635.242	17838
635.304	16657
635.365	19366
635.427	16841
635.488	17566
635.550	17846
635.611	17838
635.673	16296
635.734	19726
635.796	20122
635.857	23236
635.918	23234
635.980	27719
636.041	27435
636.102	30938
636.164	30910
636.225	30668
636.286	24037
636.348	22649
636.409	19908
636.470	18632
636.531	17553
636.593	16933
636.654	17339
636.715	15527
636.776	16151
636.838	15483
636.899	16156
636.960	14865
637.021	14976
637.082	14648
637.143	15472
637.204	13204
637.265	14440
637.326	15121
637.387	15869
637.448	13184
637.509	15645
637.570	14369
637.631	15609
637.692	12387
637.753	12636
637.814	13155
637.875	12936
637.936	14493
637.997	14093
638.058	13086
638.119	14622
638.179	13180
638.240	13145
638.301	13442
638.362	13219
638.423	12038
638.483	13265
638.544	11324
638.605	13042
638.666	12215
638.726	13269
638.787	13610
638.848	12948
638.908	12812
638.969	12879
639.030	11454
639.090	10755
639.151	10762
639.211	12531
639.272	12869
639.332	13800
639.393	13018
639.453	13645
639.514	13715
639.574	12427
639.635	10538
639.695	12553
639.756	10655
639.816	12249
639.877	11333
639.937	13058
639.997	11868
640.058	11047
640.118	10156
640.178	12527
640.239	11057
640.299	11849
640.359	11008
640.420	12011
640.480	13961
640.540	16647
640.600	15056
640.661	13738
640.721	11791
640.781	13890
640.841	9821
640.901	12403
640.961	12277
641.021	12746
641.082	12700
641.142	11629
641.202	11674
641.262	10297
641.322	11559
641.382	9604
641.442	11078
641.502	10471
641.562	11424
641.622	10593
641.682	12189
641.742	13630
641.802	11968
641.861	11009
641.921	9633
641.981	11151
642.041	10422
642.101	10620
642.161	8803
642.221	10024
642.280	9871
642.340	9359
642.400	9097
642.460	11208
642.519	10558
642.579	10441
642.639	10790
642.698	7914
642.758	11861
642.818	10468
642.877	9296
642.937	10591
642.997	9778
643.056	10888
643.116	9611
643.175	11814
643.235	10363
643.294	11031
643.354	10981
643.414	13259
643.473	15268
643.532	18294
643.592	24279
643.651	39608
643.711	66507
643.770	128837
643.830	302933
643.889	571790
643.948	150420
644.008	32834
644.067	20142
644.126	16332
644.186	13924
644.245	13246
644.304	10100
644.363	13234
644.423	8734
644.482	10740
644.541	11711
644.600	11410
644.659	15699
644.719	18568
644.778	27713
644.837	51229
644.896	106718
644.955	234364
645.014	72523
645.073	18212
645.132	12597
645.191	12739
645.250	11445
645.309	14457
645.368	13772
645.427	19526
645.486	31588
645.545	56228
645.604	15694
645.663	11488
645.722	10760
645.781	12226
645.840	13391
645.898	16882
645.957	23523
646.016	35739
646.075	64261
646.134	125416
646.192	325374
646.251	438999
646.310	73362
646.369	24982
646.427	19843
646.486	13818
646.545	11461
646.603	11276
646.662	10311
646.721	9975
646.779	10111
646.838	9524
646.896	13896
646.955	18838
647.014	31668
647.072	59600
647.131	161173
647.189	71836
647.248	12119
647.306	9418
647.365	9729
647.423	6897
647.481	9111
647.540	6184
647.598	7828
647.657	7528
647.715	7336
647.773	6594
647.832	7509
647.890	5785
647.948	6105
648.007	7054
648.065	5773
648.123	6595
648.181	6919
648.240	6277
648.298	4732
648.356	5414
648.414	5671
648.472	6050
648.531	5949
648.589	6687
648.647	5179
648.705	5932
648.763	5723
648.821	6175
648.879	5933
648.937	7211
648.995	8762
649.053	11196
649.111	18275
649.169	31581
649.227	54201
649.285	116689
649.343	321836
649.401	142864
649.459	19593
649.516	11980
649.574	8205
649.632	11455
649.690	12774
649.748	15528
649.806	20237
649.863	40880
649.921	115963
649.979	70753
650.037	9812
650.094	5036
650.152	5779
650.210	4250
650.268	5625
650.325	4679
650.383	4160
650.440	3579
650.498	4155
650.556	4184
650.613	3051
650.671	4939
650.728	4088
650.786	5240
650.843	6711
650.901	3774
650.958	3452
651.016	3819
651.073	2456
651.131	3416
651.188	2085
651.246	3350
651.303	2530
651.360	3665
651.418	1910
651.475	3794
651.532	1563
651.590	3844
651.647	1624
651.704	3564
651.762	2756
651.819	3038
651.876	2566
651.933	3012
651.990	3282
652.048	1115
652.105	2570
652.162	2824
652.219	2328
652.276	3364
652.333	1786
652.390	1668
652.448	2002
652.505	2328
652.562	2390
652.619	3184
652.676	3054
652.733	3252
652.790	1512
652.847	1186
652.904	2920
652.961	1225
653.017	558
653.074	2162
653.131	1808
653.188	656
653.245	1698
653.302	2399
653.359	2042
653.415	2670
653.472	2139
653.529	2496
653.586	1554
653.642	1884
653.699	3148
653.756	1590
653.813	2252
653.869	3370
653.926	1618
653.983	1666
654.039	1700
654.096	1928
654.152	2290
654.209	1491
654.266	2652
654.322	1218
654.379	2779
654.435	2366
654.492	802
654.548	2295
654.605	2056
654.661	3284
654.717	1460
654.774	1710
654.830	1840
654.887	1985
654.943	1564
655.000	2448
655.056	1934
655.112	2136
655.168	1496
655.225	1816
655.281	2258
655.337	1884
655.394	1828
655.450	1847
655.506	1828
655.562	2430
655.618	3076
655.675	530
655.731	1500
655.787	1578
655.843	1846
655.899	1514
655.955	1635
656.011	2520
656.067	36
656.123	2353
656.179	1442
656.235	2948
656.291	889
656.347	2686
656.403	792
656.459	1730
656.515	1634
656.571	1962
656.627	1380
656.683	2169
656.739	2886
656.795	1628
656.850	1631
656.906	1600
656.962	2352
657.018	1038
657.074	2420
657.129	4796
657.185	6809
657.241	17478
657.297	8396
657.352	2022
657.408	1160
657.464	2196
657.519	1178
657.575	762
657.630	1788
657.686	1645
657.742	740
657.797	806
657.853	572
657.908	2079
657.964	340
658.019	1762
658.075	1342
658.130	1926
658.186	676
658.241	1835
658.297	524
658.352	1486
658.407	1201
658.463	1114
658.518	1372
658.573	1553
658.629	334
658.684	1700
658.739	1962
658.795	224
658.850	1634
658.905	561
658.960	1242
659.016	448
659.071	443
659.126	1125
659.181	578
659.236	2768
659.291	1989
659.346	1050
659.401	814
659.457	1143
659.512	892
659.567	2292
659.622	1098
659.677	838
659.732	-238
659.787	506
659.842	804
659.897	686
659.952	1173
660.007	1550
660.061	1476
660.116	609
660.171	-192
660.226	1124
660.281	1856
660.336	985
660.391	1482
660.445	979
660.500	946
660.555	1518
660.610	338
660.664	962
660.719	1048
660.774	1046
660.828	991
660.883	878
660.938	648
660.992	336
661.047	1220
661.101	976
661.156	441
661.211	740
661.265	838
661.320	1438
661.374	814
661.429	868
661.483	1125
661.538	933
661.592	340
661.647	741
661.701	487
661.755	1472
661.810	571
661.864	586
661.919	120
661.973	1490
662.027	1291
662.081	884
662.136	480
662.190	1211
662.244	1840
662.299	658
662.353	971
662.407	296
662.461	-214
662.515	845
662.569	998
662.624	1752
662.678	397
662.732	315
662.786	660
662.840	1372
662.894	1126
662.948	1350
663.002	194
663.056	633
663.110	176
663.164	1409
663.218	869
663.272	1608
663.326	1026
663.380	856
663.434	962
663.488	670
663.542	1058
663.595	1860
663.649	538
663.703	952
663.757	760
663.811	466
663.864	384
663.918	1355
663.972	570
664.026	1067
664.079	-39
664.133	1324
664.187	600
664.240	353
664.294	702
664.348	1197
664.401	484
664.455	654
664.508	643
664.562	1409
664.615	344
664.669	996
664.722	500
664.776	248
664.829	572
664.883	1048
664.936	678
664.990	928
665.043	856
665.097	99
665.150	318
665.203	905
665.257	1112
665.310	1134
665.363	599
665.417	468
665.470	982
665.523	1613
665.576	935
665.630	1182
665.683	1182
665.736	995
665.789	598
665.842	685
665.895	639
665.949	1354
666.002	708
666.055	1172
666.108	1652
666.161	1512
666.214	680
666.267	1121
666.320	1350
666.373	1775
666.426	763
666.479	976
666.532	814
666.585	1378
666.638	1610
666.691	1396
666.744	985
666.796	674
666.849	665
666.902	2260
666.955	918
667.008	1039
667.060	236
667.113	1166
667.166	1155
667.219	1989
667.271	1000
667.324	324
667.377	1238
667.430	1255
667.482	1142
667.535	1643
667.587	818
667.640	1144
667.693	1291
667.745	1911
667.798	1408
667.850	944
667.903	1241
667.955	382
668.008	1231
668.060	2115
668.113	44
668.165	1044
668.218	1036
668.270	1280
668.322	1152
668.375	827
668.427	1046
668.479	721
668.532	1131
668.584	1399
668.636	1016
668.689	1029
668.741	-77
668.793	1290
668.845	740
668.898	1339
668.950	524
669.002	1351
669.054	624
669.106	1010
669.158	911
669.211	1824
669.263	832
669.315	2021
669.367	891
669.419	748
669.471	1398
669.523	1227
669.575	1184
669.627	997
669.679	868
669.731	123
669.783	591
669.835	1250
669.886	202
669.938	1856
669.990	411
670.042	696
670.094	774
670.146	2067
670.197	937
670.249	1492
670.301	1772
670.353	2418
670.404	3298
670.456	3976
670.508	7481
670.560	13714
670.611	21397
670.663	38836
670.715	95396
670.766	148209
670.818	41293
670.869	7413
670.921	4210
670.972	3244
671.024	2157
671.075	2261
671.127	1447
671.178	1398
671.230	1708
671.281	2172
671.333	2045
671.384	2516
671.436	3421
671.487	5741
671.538	9062
671.590	13706
671.641	24013
671.692	46046
671.744	90693
671.795	56039
671.846	16104
671.897	7502
671.949	3815
672.000	3277
672.051	1715
672.102	2757
672.153	996
672.204	967
672.256	1447
672.307	1659
672.358	347
672.409	801
672.460	629
672.511	1148
672.562	503
672.613	192
672.664	586
672.715	875
672.766	448
672.817	394
672.868	155
672.919	1126
672.970	576
673.021	111
673.071	362
673.122	1863
673.173	-27
673.224	790
673.275	227
673.326	-318
673.376	730
673.427	37
673.478	-350
673.528	1426
673.579	132
673.630	245
673.680	486
673.731	309
673.782	114
673.832	446
673.883	-260
673.934	1320
673.984	212
674.035	730
674.085	566
674.136	746
674.186	474
674.237	557
674.287	-160
674.338	1082
674.388	758
674.438	1103
674.489	1114
674.539	884
674.589	368
674.640	800
674.690	65
674.740	19
674.791	782
674.841	843
674.891	409
674.942	218
674.992	179
675.042	174
675.092	-366
675.142	58
675.193	-448
675.243	428
675.293	292
675.343	-77
675.393	72
675.443	736
675.493	247
675.543	-459
675.593	-528
675.643	366
675.693	1093
675.743	154
675.793	245
675.843	-35
675.893	-316
675.943	950
675.993	-374
676.043	478
676.093	540
676.142	1
676.192	576
676.242	-81
676.292	16
676.341	16
676.391	-182
676.441	-593
676.491	-62
676.540	1080
676.590	406
676.640	-585
676.689	-612
676.739	105
676.789	-782
676.838	284
676.888	-451
676.937	236
676.987	-186
677.037	691
677.086	-1093
677.136	-10
677.185	-674
677.235	-1129
677.284	-104
677.333	231
677.383	-77
677.432	262
677.482	-295
677.531	-107
677.580	-938
677.630	288
677.679	-651
677.728	379
677.778	-234
677.827	-501
677.876	-1
677.925	282
677.975	442
678.024	-114
678.073	-352
678.122	132
678.171	155
678.220	146
678.269	751
678.319	850
678.368	262
678.417	635
678.466	542
678.515	58
678.564	-702
678.613	76
678.662	-350
678.711	-389
678.760	-110
678.809	-197
678.857	-622
678.906	516
678.955	-66
679.004	-268
679.053	-815
679.102	-489
679.151	-552
679.199	-140
679.248	-11
679.297	420
679.346	-585
679.394	-1309
679.443	-312
679.492	496
679.540	-226
679.589	-14
679.638	-21
679.686	-44
679.735	694
679.784	611
679.832	-228
679.881	-241
679.929	-203
679.978	-658
680.026	-217
680.075	-642
680.123	-833
680.172	-291
680.220	-592
680.268	-427
680.317	-842
680.365	248
680.414	-313
680.462	-772
680.510	66
680.559	-403
680.607	-819
680.655	292
680.703	-473
680.752	460
680.800	-966
680.848	-424
680.896	-400
680.945	-517
680.993	-1056
681.041	-300
681.089	-542
681.137	-129
681.185	-773
681.233	82
681.258	-231
681.281	-539
681.329	-345
681.377	-1064
681.380	-980
681.425	339
681.473	317
681.502	-296
681.521	-746
681.569	-306
681.617	309
681.624	154
681.665	-955
681.713	17
681.745	463
681.761	665
681.809	32
681.857	134
681.867	246
681.904	544
681.952	-259
681.989	-28
682.000	31
682.048	-143
682.096	-171
682.111	-198
682.143	-320
682.191	439
682.233	326
682.239	305
682.286	951
682.334	-231
682.354	-122
682.382	-41
682.430	-352
682.476	472
682.477	479
682.525	-651
682.572	381
682.598	-16
682.620	-381
682.667	339
682.715	-0
682.720	37
682.763	246
682.810	238
682.841	467
682.857	560
682.905	264
682.952	3
682.963	284
683.000	1279
683.047	514
683.085	1354
683.095	1566
683.142	569
683.190	485
683.206	631
683.237	865
683.284	680
683.328	675
683.332	665
683.379	793
683.426	666
683.449	719
683.473	777
683.521	1003
683.568	1254
683.571	1244
683.615	878
683.662	884
683.693	1043
683.709	1119
683.757	-239
683.804	582
683.814	512
683.851	256
683.898	1061
683.936	849
683.945	804
683.992	974
684.039	974
684.057	1081
684.086	1182
684.133	619
684.179	1017
684.180	1023
684.227	673
684.274	1037
684.300	1307
684.321	1475
684.368	394
684.415	1420
684.422	1392
684.462	1296
684.509	1130
684.543	622
684.556	412
684.603	1103
684.649	999
684.665	1081
684.696	1270
684.743	1202
684.786	1510
684.790	1525
684.837	1025
684.883	1531
684.908	1518
684.930	1528
684.977	1304
685.023	1820
685.029	1746
685.070	1058
685.117	1512
685.150	1535
685.164	1557
685.210	2309
685.257	2081
685.272	1987
685.303	1696
685.350	1494
685.393	1754
685.396	1778
685.443	1592
685.490	2205
685.514	1700
685.536	1193
685.583	1377
685.629	787
685.636	854
685.675	1362
685.722	1824
685.757	2034
685.768	2059
685.815	1021
685.861	2347
685.878	1950
685.908	1399
685.954	1804
686.000	1842
686.000	1836
686.047	2063
686.093	2163
686.121	2276
686.139	2387
686.185	2423
686.232	2272
686.242	2279
686.278	2227
686.324	2630
686.363	2282
686.370	2204
686.416	2773
686.463	2262
686.484	2278
686.509	2317
686.555	1719
686.601	2050
686.606	1999
686.647	1631
686.693	2110
686.727	2358
686.739	2430
686.785	2258
686.831	1907
686.848	2290
686.877	2978
686.923	1839
686.969	2144
686.969	2145
687.015	1834
687.061	2098
687.090	2394
687.107	2585
687.153	2551
687.199	2432
687.211	2675
687.245	3219
687.291	2105
687.332	2889
687.336	2979
687.382	2560
687.428	3031
687.453	2722
687.474	2439
687.520	2922
687.565	2460
687.574	2523
687.611	2889
687.657	2729
687.695	2863
687.702	2884
687.748	3170
687.794	3343
687.816	3503
687.839	3559
687.885	3255
687.931	3008
687.937	2981
687.976	2940
688.022	3031
688.058	3394
688.067	3478
688.113	2498
688.158	2934
688.179	2771
688.204	2595
688.249	3462
688.295	3058
688.300	3041
688.340	3067
688.386	3404
688.421	3559
688.431	3571
688.477	2822
688.522	3677
688.542	3627
688.567	3706
688.613	3587
688.658	3702
688.663	3745
688.703	3816
688.749	3358
688.784	3571
688.794	3668
688.839	3459
688.884	3782
688.905	3695
688.930	3548
688.975	3804
689.020	3639
689.026	3674
689.065	4031
689.110	3291
689.146	3429
689.155	3453
689.201	3596
689.246	3234
689.267	3188
689.291	3225
689.336	3927
689.381	3204
689.388	3311
689.426	3771
689.471	3399
689.509	3514
689.516	3566
689.561	3670
689.606	4051
689.630	3822
689.651	3504
689.696	3430
689.741	3226
689.750	3344
689.785	4043
689.830	3398
689.871	3572
689.875	3575
689.920	3689
689.965	3929
689.992	3506
690.010	3317
690.054	3680
690.099	3719
690.112	3803
690.144	3932
690.189	3500
690.233	3848
690.233	3857
690.278	3498
690.323	3837
690.354	3446
690.367	3334
690.412	4107
690.457	3930
690.474	4096
690.501	4273
690.546	3881
690.590	4225
690.595	4198
690.635	3981
690.680	3569
690.716	3452
690.724	3493
690.769	4106
690.813	4350
690.836	4330
690.857	4469
690.902	5199
690.946	5952
690.957	5984
690.991	6996
691.035	9611
691.077	11041
691.080	10985
691.124	9344
691.168	7891
691.198	6817
691.213	6498
691.257	5827
691.301	5168
691.318	4800
691.346	4529
691.390	4370
691.434	3968
691.439	3975
691.478	4455
691.522	4540
691.559	4754
691.567	4772
691.611	4602
691.655	4616
691.680	4425
691.699	4326
691.743	4540
691.787	4073
691.800	4088
691.831	4174
691.875	4410
691.919	4449
691.921	4432
691.964	4227
692.008	4305
692.041	4312
692.052	4339
692.096	4445
692.139	4541
692.162	4666
692.183	4676
692.227	4297
692.271	4239
692.282	4129
692.315	4047
692.359	4526
692.402	4157
692.403	4166
692.447	4818
692.490	4675
692.523	4857
692.534	4822
692.578	4546
692.622	4303
692.643	4225
692.666	4345
692.709	4411
692.753	4494
692.763	4610
692.797	4922
692.840	4448
692.884	4730
692.884	4745
692.928	4648
692.971	4722
693.004	4801
693.015	4818
693.059	4946
693.102	4789
693.124	4823
693.146	4898
693.189	4809
693.233	4707
693.245	4775
693.276	4956
693.320	4973
693.363	4553
693.365	4537
693.407	4745
693.450	5035
693.485	5523
693.493	5692
693.537	5831
693.580	6245
693.605	6569
693.624	7229
693.667	8408
693.710	9789
693.725	10302
693.753	12760
693.797	16836
693.840	20753
693.845	21080
693.883	17994
693.926	15033
693.966	12230
693.970	12042
694.013	9718
694.056	7476
694.086	6057
694.099	5997
694.142	5595
694.185	5242
694.206	5027
694.229	4988
694.272	5122
694.315	4997
694.326	4942
694.358	5017
694.401	5450
694.444	5274
694.446	5280
694.487	5657
694.530	5712
694.566	5731
694.573	5702
694.616	5362
694.659	5051
694.686	5143
694.702	5319
694.745	5222
694.787	5525
694.806	5503
694.830	5402
694.873	5278
694.916	5036
694.926	5020
694.959	5228
695.002	5324
695.044	5650
695.046	5635
695.087	5637
695.130	5794
695.166	5870
695.172	5861
695.215	5702
695.258	5528
695.286	5489
695.301	5726
695.343	6003
695.386	6853
695.406	7029
695.428	7033
695.471	7165
695.514	7340
695.526	7318
695.556	7822
695.599	8713
695.641	9400
695.646	9472
695.684	8976
695.726	8333
695.766	7456
695.769	7454
695.811	7440
695.854	7246
695.886	7233
695.896	7280
695.938	7196
695.981	7250
696.005	7193
696.023	7489
696.065	8240
696.108	9000
696.125	9262
696.150	9177
696.192	8937
696.235	8860
696.245	8809
696.277	8900
696.319	9011
696.361	8950
696.365	8943
696.404	9056
696.446	8754
696.485	8768
696.488	8827
696.530	9121
696.572	9431
696.604	9647
696.614	9558
696.656	9196
696.698	8582
696.724	8333
696.740	8459
696.783	8516
696.825	8866
696.844	8883
696.867	8870
696.909	8881
696.951	8844
696.964	8812
696.992	9002
697.034	9190
697.076	9527
697.083	9543
697.118	9614
697.160	9675
697.202	9640
697.203	9615
697.244	9665
697.286	9605
697.323	9588
697.327	9626
697.369	9613
697.411	9586
697.442	9616
697.453	9684
697.494	9809
697.536	9953
697.562	10013
697.578	10136
697.620	10315
697.661	10571
697.682	10668
697.703	10740
697.744	10795
697.786	10939
697.801	10928
697.828	11065
697.869	11210
697.911	11408
697.921	11417
697.952	11290
697.994	11141
698.035	10905
698.040	10851
698.077	10824
698.118	10767
698.160	10697
698.160	10667
698.201	11103
698.243	11482
698.279	11866
698.284	11917
698.325	12053
698.367	12165
698.399	12237
698.408	12314
698.449	12485
698.491	12695
698.518	12775
698.532	12800
698.573	12791
698.614	12764
698.638	12729
698.656	12690
698.697	12486
698.738	12316
698.757	12196
698.779	12329
698.820	12523
698.862	12701
698.877	12739
698.903	12893
698.944	13074
698.985	13264
698.996	13281
699.026	13160
699.067	12943
699.116	12652
699.235	11674
699.354	12703
699.474	11856
699.593	11501
699.713	11078
699.832	11592
699.951	12433
700.070	12293
700.190	10793
700.309	10470
700.428	10742
700.547	10342
700.667	9861
700.786	10413
700.905	11074
701.024	10346
701.143	10161
701.262	10578
701.381	10607
701.500	11143
701.619	10835
701.738	10265
701.857	11050
701.976	9620
702.095	11022
702.214	10548
702.333	10035
702.452	10559
702.571	10840
702.690	10604
702.809	10279
702.928	9678
703.047	9471
703.165	9034
703.284	9681
703.403	8662
703.522	9700
703.640	8642
703.759	8206
703.878	9221
703.997	9471
704.115	8825
704.234	9071
704.353	9795
704.471	8229
704.590	7728
704.708	8927
704.827	8143
704.946	7675
705.064	8506
705.183	8030
705.301	8646
705.420	8714
705.538	8415
705.656	8247
705.775	7874
705.893	9271
706.012	9372
706.130	8850
706.249	8916
706.367	7870
706.485	7230
706.604	6907
706.722	6944
706.840	8818
706.958	9481
707.077	7942
707.195	7156
707.313	7798
707.431	6995
707.549	6893
707.668	6766
707.786	6871
707.904	7272
708.022	7644
708.140	6848
708.258	7119
708.376	8189
708.494	6342
708.612	7182
708.730	8202
708.848	7644
708.966	7516
709.084	8215
709.202	7433
709.320	6283
709.438	7118
709.556	6625
709.674	6554
709.791	6995
709.909	6399
710.027	5944
710.145	6827
710.263	7275
710.380	6492
710.498	6220
710.616	6534
710.733	5460
710.851	5467
710.969	5732
711.086	6198
711.204	6922
711.322	6439
711.439	5409
711.557	5218
711.674	6188
711.792	5775
711.909	5570
712.027	5559
712.144	5609
712.262	5135
712.379	5192
712.497	6622
712.614	6377
712.732	5960
712.849	5299
712.966	5986
713.084	6110
713.201	5149
713.318	6501
713.436	7009
713.553	5961
713.670	7550
713.787	5906
713.905	5955
714.022	6086
714.139	6446
714.256	9580
714.373	13272
714.490	25087
714.608	72335
714.725	301183
714.842	262279
714.959	21220
715.076	9971
715.193	7773
715.310	7442
715.427	5192
715.544	6063
715.661	5733
715.778	5574
715.895	5650
716.011	4781
716.128	5331
716.245	5317
716.362	5528
716.479	5084
716.596	5439
716.713	5734
716.829	5500
716.946	5254
717.063	5344
717.180	4237
717.296	4470
717.413	4934
717.530	4102
717.646	4854
717.763	3823
717.880	3722
717.996	3380
718.113	4240
718.229	4342
718.346	4466
718.462	4368
718.579	4348
718.695	4554
718.812	4879
718.928	4908
719.045	4275
719.161	3875
719.277	4262
719.394	4311
719.510	4893
719.626	4481
719.743	6839
719.859	10897
719.975	24324
720.092	106338
720.208	215966
720.324	20804
720.440	6136
720.557	5027
720.673	5067
720.789	4895
720.905	7066
721.021	3915
721.137	4262
721.253	3215
721.369	3425
721.486	3489
721.602	3863
721.718	3455
721.834	3716
721.950	3843
722.066	2976
722.181	2440
722.297	4000
722.413	3441
722.529	3779
722.645	3420
722.761	3239
722.877	3259
722.993	4272
723.108	4416
723.224	3851
723.340	2746
723.456	3313
723.571	3223
723.687	3377
723.803	3756
723.918	2524
724.034	2542
724.150	3276
724.265	2831
724.381	3455
724.497	3775
724.612	3027
724.728	2383
724.843	3291
724.959	3806
725.074	4195
725.190	3771
725.305	2962
725.421	2007
725.536	3088
725.651	2668
725.767	3032
725.882	2211
725.997	2999
726.113	3373
726.228	2565
726.343	2622
726.459	2695
726.574	3030
726.689	3142
726.804	2778
726.920	3101
727.035	2802
727.150	3366
727.265	2625
727.380	3270
727.495	2498
727.610	2670
727.725	1971
727.841	1920
727.956	3199
728.071	2891
728.186	2107
728.301	2055
728.416	2666
728.531	2443
728.645	1740
728.760	2158
728.875	2272
728.990	2870
729.105	2386
729.220	2512
729.335	2202
729.449	2735
729.564	1711
729.679	2868
729.794	2123
729.908	2614
730.023	2523
730.138	2613
730.253	2712
730.367	2454
730.482	2636
730.596	3132
730.711	3124
730.826	4650
730.940	3896
731.055	3814
731.169	2438
731.284	3674
731.398	3944
731.513	3834
731.627	3911
731.742	5438
731.856	5957
731.970	5207
732.085	6656
732.199	11218
732.313	19513
732.428	55167
732.542	174922
732.656	89002
732.771	15571
732.885	8661
732.999	7606
733.113	9270
733.227	8055
733.342	7682
733.456	7129
733.570	7460
733.684	6299
733.798	7444
733.912	6403
734.026	6818
734.140	6236
734.254	5908
734.368	7578
734.482	7616
734.596	6307
734.710	6503
734.824	6305
734.938	6531
735.052	5995
735.166	6109
735.280	5835
735.393	5749
735.507	6551
735.621	6671
735.735	6201
735.849	6688
735.962	5194
736.076	6339
736.190	5692
736.303	5321
736.417	5634
736.531	5205
736.644	5065
736.758	5495
736.872	5051
736.985	5684
737.099	4496
737.212	5221
737.326	4976
737.439	6204
737.553	5049
737.666	4962
737.780	4599
737.893	5440
738.007	3803
738.120	5814
738.233	4245
738.347	4991
738.460	4270
738.573	5802
738.687	4221
738.800	5217
738.913	4942
739.026	4639
739.140	2891
739.253	5325
739.366	5045
739.479	4385
739.592	4480
739.705	3754
739.818	4923
739.932	3718
740.045	4473
740.158	3604
740.271	4790
740.384	4415
740.497	3674
740.610	4791
740.723	4210
740.836	3854
740.949	4243
741.062	4213
741.174	4267
741.287	4029
741.400	3995
741.513	4048
741.626	4379
741.739	4355
741.851	3469
741.964	3728
742.077	3672
742.189	2839
742.302	3137
742.415	3514
742.527	3734
742.640	4293
742.753	3093
742.865	3890
742.978	3945
743.090	3355
743.203	3264
743.316	3444
743.428	3445
743.541	3723
743.653	3006
743.766	2996
743.878	3485
743.990	3049
744.103	4121
744.215	3964
744.327	2406
744.440	4011
744.552	3130
744.664	3264
744.777	3554
744.889	2736
745.001	3206
745.113	3194
745.226	3048
745.338	3442
745.450	3613
745.562	3296
745.674	3223
745.786	2935
745.898	2739
746.010	3113
746.122	2589
746.234	3417
746.347	3343
746.459	3583
746.570	2540
746.682	2919
746.794	4262
746.906	2258
747.018	2995
747.130	4548
747.242	2536
747.354	2656
747.466	3509
747.577	1976
747.689	2975
747.801	3336
747.913	2806
748.024	2300
748.136	2546
748.248	2556
748.359	1802
748.471	3454
748.583	1383
748.694	2482
748.806	2899
748.918	2622
749.029	2696
749.141	2658
749.252	2218
749.364	2398
749.475	1073
749.587	2608
749.698	1623
749.809	3037
749.921	2444
750.032	2248
750.144	2020
750.255	2067
750.366	1997
750.478	2259
750.589	1983
750.700	1326
750.811	1919
750.923	2360
751.034	1370
751.145	2410
751.256	1770
751.367	2459
751.479	1451
751.590	2289
751.701	2045
751.812	1270
751.923	2352
752.034	2536
752.145	2258
752.256	2224
752.367	1117
752.478	1059
752.589	1638
752.700	2563
752.811	1224
752.922	1901
753.032	2345
753.143	2481
753.254	2019
753.365	3315
753.476	1851
753.586	2833
753.697	2281
753.808	1941
753.919	1458
754.029	1989
754.140	1643
754.251	1345
754.361	1554
754.472	2537
754.582	1899
754.693	1566
754.804	2042
754.914	2139
755.025	1379
755.135	1870
755.246	1782
755.356	1261
755.466	2051
755.577	2019
755.687	1873
755.798	1114
755.908	2457
756.018	1868
756.129	1137
756.239	2180
756.349	2544
756.460	2584
756.570	2351
756.680	1313
756.790	2614
756.900	2718
757.011	2051
757.121	2212
757.231	1378
757.341	1840
757.451	1646
757.561	1764
757.671	1394
757.781	1128
757.891	2212
758.001	1165
758.111	2171
758.221	2427
758.331	2603
758.441	1523
758.551	1532
758.661	1933
758.771	1117
758.880	2435
758.990	1894
759.100	1343
759.210	2323
759.320	2753
759.429	1461
759.539	3204
759.649	2679
759.758	3075
759.868	2947
759.978	2696
760.087	3453
760.197	3760
760.307	3293
760.416	2739
760.526	1758
760.635	3389
760.745	3735
760.854	3294
760.964	2784
761.073	3722
761.182	3731
761.292	2799
761.401	3018
761.511	1976
761.620	1473
761.729	1983
761.839	2297
761.948	1891
762.057	1633
762.166	2060
762.276	1420
762.385	3405
762.494	2095
762.603	1089
762.712	1698
762.822	2530
762.931	1653
763.040	2024
763.149	1917
763.258	1678
763.367	2578
763.476	2987
763.585	2438
763.694	2583
763.803	2475
763.912	3147
764.021	3227
764.130	2601
764.238	2818
764.347	2358
764.456	2427
764.565	4143
764.674	3254
764.783	3940
764.891	3494
765.000	5265
765.109	5134
765.217	4981
765.326	6463
765.435	8178
765.543	9300
765.652	11553
765.761	14947
765.869	21704
765.978	32581
766.086	56281
766.195	102945
766.303	210943
766.412	296217
766.520	247800
766.629	160078
766.737	77255
766.846	43713
766.954	28695
767.062	22465
767.171	15845
767.279	12424
767.387	9881
767.496	8517
767.604	7163
767.712	6355
767.820	6434
767.928	5826
768.037	4930
768.145	4532
768.253	5658
768.361	3639
768.469	5506
768.577	4920
768.685	6042
768.793	5397
768.901	5405
769.009	6298
769.117	7314
769.225	9248
769.333	14977
769.441	22097
769.549	40428
769.657	87598
769.765	204632
769.873	243171
769.981	154851
770.088	59757
770.196	30055
770.304	18992
770.412	13239
770.519	11191
770.627	8778
770.735	6742
770.842	6736
770.950	4655
771.058	5329
771.165	4808
771.273	5687
771.380	5183
771.488	6777
771.595	5964
771.703	5539
771.810	5684
771.918	4980
772.025	5748
772.133	7125
772.240	5528
772.348	7373
772.455	6856
772.562	6590
772.670	5968
772.777	5946
772.884	5151
772.991	5100
773.099	5608
773.206	5079
773.313	5910
773.420	5389
773.528	4567
773.635	5144
773.742	5425
773.849	4841
773.956	5068
774.063	4562
774.170	4404
774.277	5142
774.384	4156
774.491	4227
774.598	5355
774.705	4255
774.812	3944
774.919	4550
775.026	4662
775.133	4592
775.239	5090
775.346	4186
775.453	3767
775.560	3380
775.667	4275
775.773	3557
775.880	5345
775.987	4330
776.093	4059
776.200	3384
776.307	3457
776.413	3693
776.520	4076
776.627	3368
776.733	3289
776.840	2487
776.946	5284
777.053	3763
777.159	3456
777.266	2907
777.372	4048
777.478	4160
777.585	3365
777.691	2570
777.798	3796
777.904	4368
778.010	3496
778.117	3328
778.223	2538
778.329	3137
778.435	2335
778.542	3679
778.648	3236
778.754	2162
778.860	3103
778.966	3345
779.072	3247
779.178	2567
779.284	2133
779.391	2034
779.497	2630
779.603	5205
779.708	2396
779.815	5498
779.920	12341
780.026	19882
780.132	4341
780.238	2725
780.344	3365
780.450	3526
780.556	1575
780.661	2869
780.767	3356
780.873	1461
780.979	3168
781.085	2891
781.190	2547
781.296	2269
781.402	2844
781.507	2642
781.613	1569
781.719	1911
781.824	2778
781.930	3242
782.035	2299
782.141	2440
782.246	1457
782.352	2194
782.457	2144
782.563	2214
782.668	1914
782.773	1837
782.879	1305
782.984	2920
783.090	1353
783.195	1650
783.300	1904
783.405	2433
783.511	863
783.616	2819
783.721	1616
783.826	559
783.932	1971
784.037	2405
784.142	1337
784.247	1247
784.352	2539
784.457	2752
784.562	1568
784.667	1795
784.772	1683
784.877	525
784.982	2165
785.087	2189
785.192	2582
785.297	1946
785.402	2067
785.507	2173
785.611	1733
785.716	2188
785.821	1358
785.926	1751
786.031	1552
786.135	1762
786.240	985
786.345	-67
786.450	1371
786.554	1178
786.659	953
786.763	1007
786.868	1804
786.973	2684
787.077	1694
787.182	1663
787.286	1817
787.391	2548
787.495	758
787.600	1183
787.704	647
787.809	1621
787.913	1340
788.017	1763
788.122	1406
788.226	1394
788.330	-207
788.435	980
788.539	1053
788.643	983
788.747	506
788.852	841
788.956	647
789.060	1724
789.164	1645
789.268	995
789.372	1062
789.476	1131
789.580	390
789.684	756
789.788	1528
789.892	1092
789.996	1076
790.100	765
790.204	1440
790.308	2318
790.412	866
790.516	676
790.620	699
790.724	1326
790.828	566
790.931	-112
791.035	2469
791.139	1402
791.242	77
791.346	1854
791.450	679
791.554	1388
791.657	-237
791.761	2428
791.864	1272
791.968	1422
792.072	632
792.175	842
792.279	1359
792.382	805
792.486	385
792.589	1394
792.693	1322
792.796	1056
792.899	1310
793.003	1086
793.106	527
793.209	157
793.313	1594
793.416	-242
793.519	1580
793.623	1771
793.726	884
793.829	-103
793.932	152
794.035	299
794.138	2061
794.242	1689
794.345	407
794.448	516
794.551	1266
794.654	6541
794.757	9648
794.860	1955
794.963	1164
795.066	-63
795.169	1341
795.272	1118
795.375	730
795.477	255
795.580	1297
795.683	-29
795.786	524
795.889	-383
795.991	543
796.094	1385
796.197	-570
796.300	2653
796.402	267
796.505	169
796.608	565
796.710	1841
796.813	1210
796.915	1330
797.018	53
797.120	1485
797.223	-778
797.326	2391
797.428	-199
797.530	632
797.633	-12
797.735	1254
797.838	434
797.940	1697
798.042	-116
798.145	-148
798.247	915
798.349	-49
798.452	1384
798.554	110
798.656	-205
798.758	2109
798.860	81
798.962	664
799.065	-260
799.167	-1005
799.269	1347
799.371	1865
799.473	467
799.575	972
799.677	393
799.779	1940
799.881	-950
799.983	1785
800.085	649
800.187	499
800.289	-569
800.390	1148
800.492	619
800.594	1099
800.696	-27
800.798	1183
800.899	-427
801.001	-265
801.103	422
801.205	-537
801.306	210
801.408	-204
801.509	662
801.611	291
801.713	253
801.814	-93
801.916	85
802.017	529
802.119	-563
802.220	536
802.322	-2412
802.423	1885
802.525	-1223
802.626	625
802.727	725
802.829	332
802.930	-1924
803.031	1384
803.133	-115
803.234	206
803.335	746
803.436	-466
803.538	-198
803.639	-636
803.740	1154
803.841	-303
803.942	382
804.043	1059
804.144	-723
804.245	428
804.346	-289
804.447	125
804.548	-578
804.649	1628
804.750	180
804.851	-29
804.952	-181
805.053	51
805.154	-1222
805.255	897
805.355	426
805.456	498
805.557	-527
805.658	-939
805.758	841
805.859	190
805.960	63
806.061	619
806.161	-417
806.262	205
806.362	-465
806.463	-226
806.564	475
806.664	-232
806.765	-305
806.865	521
806.966	-24
807.066	-873
807.166	656
807.267	995
807.367	-170
807.468	564
807.568	-1316
807.668	342
807.769	361
807.869	-647
807.969	-156
808.069	-157
808.170	-325
808.270	-16
808.370	688
808.470	-676
808.570	-353
808.670	279
808.770	-153
808.870	-13
808.970	294
809.070	-290
809.170	-1129
809.271	1188
809.370	228
809.470	409
809.570	-776
809.670	-852
809.770	46
809.870	40
809.970	-330
810.070	-435
810.169	-191
810.269	-986
810.369	655
810.469	70
810.568	-800
810.668	-519
810.768	-1116
810.867	-611
810.967	-962
811.066	-418
811.166	-522
811.265	821
811.365	-157
811.464	-526
811.564	-547
811.663	160
811.763	-697
811.862	278
811.962	1304
812.061	-238
812.160	-1121
812.260	-63
812.359	-10
812.458	-1210
812.557	369
812.657	947
812.756	-41
812.855	-976
812.954	-713
813.053	-233
813.153	-624
813.252	-168
813.351	186
813.450	-25
813.549	-166
813.648	472
813.747	-561
813.846	341
813.945	-556
814.044	-199
814.143	-27
814.242	533
814.341	-704
814.439	-243
814.538	125
814.637	331
814.736	539
814.835	581
814.933	-632
815.032	165
815.131	2073
815.229	2348
815.328	3037
815.427	1931
815.525	1982
815.624	2777
815.722	1661
815.821	2876
815.919	2335
816.018	1173
816.116	2553
816.215	2856
816.313	2497
816.412	2873
816.510	3248
816.609	5058
816.707	3961
816.805	2757
816.904	2347
817.002	3946
817.100	3628
817.198	4366
817.296	2433
817.395	2404
817.493	3879
817.591	1974
817.689	3447
817.787	2282
817.885	3175
817.983	2676
818.081	4333
818.179	6504
818.277	15806
818.375	10581
818.473	3405
818.571	2298
818.669	3335
818.767	3181
818.865	2511
818.963	2033
819.061	3514
819.158	3983
819.256	6968
819.354	11619
819.452	27032
819.549	12324
819.647	4440
819.745	2871
819.842	2490
819.940	2771
820.038	2024
820.135	1931
820.233	3100
820.330	1729
820.428	1351
820.525	2726
820.623	1512
820.720	1594
820.818	2011
820.915	2808
821.012	1652
821.110	1920
821.207	2712
821.304	1522
821.402	1522
821.499	2289
821.596	1648
821.693	2022
821.791	2558
821.888	2379
821.985	2219
822.082	645
822.179	2712
822.276	1889
822.373	1160
822.470	2615
822.567	2195
822.664	1196
822.761	2520
822.858	1083
822.955	1858
823.052	1224
823.149	2045
823.246	1785
823.343	457
823.440	2472
823.536	1287
823.633	2237
823.730	1105
823.827	2708
823.923	1624
824.020	2535
824.117	1590
824.213	1265
824.310	1420
824.407	1188
824.503	1150
824.600	1807
824.696	1471
824.793	1602
824.889	1136
824.986	1228
825.082	579
825.179	1764
825.275	1323
825.371	1249
825.468	1142
825.564	279
825.660	1947
825.757	2634
825.853	1798
825.949	1233
826.045	1008
826.142	950
826.238	1717
826.334	1979
826.430	916
826.526	1564
826.622	260
826.718	1257
826.814	1784
826.910	2004
827.006	384
827.102	147
827.198	1762
827.294	1792
827.390	1184
827.486	1062
827.582	-281
827.678	-194
827.774	2163
827.869	332
827.965	1612
828.061	-10
828.157	999
828.252	1808
828.348	373
828.444	1979
828.539	591
828.635	1003
828.731	1954
828.826	1123
828.922	1387
829.017	1192
829.113	1902
829.208	1139
829.304	161
829.399	2378
829.495	908
829.590	936
829.685	400
829.781	1014
829.876	982
829.971	129
830.066	273
830.162	735
830.257	1068
830.352	408
830.447	1056
830.543	642
830.638	-14
830.733	1804
830.828	36
830.923	2106
831.018	893
831.113	1736
831.208	-636
831.303	394
831.398	-190
831.493	232
831.588	1800
831.683	47
831.778	443
831.873	1160
831.967	437
832.062	735
832.157	-356
832.252	879
832.346	2
832.441	999
832.536	-70
832.631	690
832.725	291
832.820	566
832.914	-55
833.009	-212
833.104	756
833.198	974
833.293	49
833.387	1015
833.482	781
833.576	684
833.670	235
833.765	967
833.859	104
833.954	950
834.048	217
834.142	382
834.237	-1007
834.331	1066
834.425	832
834.519	-19
834.613	1144
834.708	414
834.802	361
834.896	1078
834.990	576
835.084	419
835.178	-683
835.272	-647
835.366	-178
835.460	1385
835.554	288
835.648	-371
835.742	-1497
835.836	1030
835.930	-485
836.024	325
836.117	957
836.211	40
836.305	618
836.399	829
836.493	-491
836.586	1188
836.680	-705
836.774	250
836.867	581
836.961	-720
837.055	-619
837.148	170
837.242	810
837.335	-185
837.429	-194
837.522	172
837.616	-98
837.709	31
837.803	-545
837.896	986
837.989	-471
838.083	230
838.176	-530
838.269	-375
838.363	562
838.456	30
838.549	-518
838.642	-374
838.735	173
838.829	651
838.922	-166
839.015	319
839.108	-848
839.201	-197
839.294	479
839.387	122
839.480	-1205
839.573	-454
839.666	-590
839.759	189
839.852	-1230
839.945	36
840.038	-363
840.131	-107
840.223	-551
840.316	76
840.409	-135
840.502	-368
840.594	962
840.687	-838
840.780	484
840.873	-353
840.965	-693
841.058	806
841.150	336
841.243	-713
841.336	29
841.428	-122
841.521	-1343
841.613	-411
841.706	-87
841.798	-328
841.890	-487
841.983	-392
842.075	-377
842.167	249
842.260	-16
842.352	-325
842.444	31
842.537	111
842.629	511
842.721	-379
842.813	297
842.905	-713
842.997	62
843.090	-706
843.182	698
843.274	-1516
843.366	1494
843.458	1362
843.550	1017
843.642	-122
843.734	530
843.826	-261
843.918	229
844.009	229
844.101	-400
844.193	-574
844.285	-511
844.377	176
844.469	-231
844.560	-673
844.652	-153
844.744	396
844.835	-279
844.927	510
845.019	-490
845.110	515
845.202	48
845.293	-278
845.385	-1199
845.476	104
845.568	1118
845.659	-972
845.751	481
845.842	-564
845.934	-402
846.025	-195
846.116	-538
846.208	-803
846.299	169
846.390	262
846.482	-574
846.573	410
846.664	-686
846.755	-1117
846.846	-89
846.937	-2443
847.029	-575
847.120	-578
847.211	-969
847.302	730
847.393	-1625
847.484	512
847.575	-539
847.666	-805
847.757	-94
847.847	-862
847.938	497
848.029	102
848.120	-433
848.211	-741
848.302	-1087
848.392	-772
848.483	-418
848.574	-1111
848.664	-643
848.755	177
848.846	-198
848.936	-1255
849.027	-515
849.118	-425
849.208	65
849.299	797
849.389	1786
849.480	3833
849.570	8198
849.661	17764
849.751	28961
849.841	7949
849.932	155
850.022	-538
850.112	-16
850.203	-416
850.293	-42
850.383	187
850.474	-1344
850.564	-1294
850.654	308
850.744	-479
850.834	224
850.924	-442
851.014	745
851.104	-117
851.194	-1175
851.284	-326
851.374	6
851.464	-1240
851.554	-472
851.644	-406
851.734	-531
851.824	119
851.914	-666
852.004	33
852.094	-1148
852.183	-63
852.273	-299
852.363	-565
852.452	-761
852.542	-1214
852.632	-882
852.721	-587
852.811	-75
852.901	614
852.990	-621
853.080	-139
853.169	-360
853.259	659
853.348	-396
853.438	787
853.527	1307
853.617	1666
853.706	4712
853.795	8655
853.885	20581
853.974	38990
854.063	72238
854.152	102863
854.242	36149
854.331	7395
854.420	2107
854.509	1615
854.598	1760
854.687	282
854.777	-154
854.866	-440
854.955	107
855.044	-680
855.133	-129
855.222	-226
855.311	-652
855.400	-239
855.488	-925
855.577	-696
855.666	-108
855.755	-20
855.844	-602
855.933	-1106
856.021	-338
856.110	-1076
856.199	-866
856.288	-1501
856.376	-21
856.465	-516
856.554	-896
856.642	-271
856.731	268
856.819	-206
856.908	-282
856.996	-844
857.085	-396
857.173	-533
857.262	-191
857.350	-584
857.438	-556
857.527	-240
857.615	-1044
857.703	-267
857.792	-713
857.880	-334
857.968	-1391
858.056	-418
858.145	-925
858.233	-425
858.321	-790
858.409	330
858.497	-418
858.585	-34
858.673	-113
858.761	-910
858.849	62
858.937	-968
859.025	-853
859.113	273
859.201	-544
859.289	1066
859.377	-552
859.465	-977
859.552	-903
859.640	-623
859.728	-440
859.816	-470
859.903	-481
859.991	-879
860.079	-566
860.166	-540
860.254	-587
860.342	-259
860.429	-1634
860.517	-1816
860.604	-296
860.692	-634
860.779	-1461
860.867	-823
860.954	-672
861.042	223
861.129	-769
861.216	-249
861.304	18
861.391	-337
861.478	-108
861.565	-247
861.653	-6
861.740	-707
861.827	-167
861.914	-339
862.001	-825
862.089	-511
862.176	-307
862.263	-573
862.350	-837
862.437	-711
862.524	-406
862.611	-668
862.698	-536
862.785	-1231
862.871	-491
862.958	70
863.045	401
863.132	-215
863.219	-910
863.306	-470
863.392	-676
863.479	-37
863.566	-976
863.652	119
863.739	-501
863.826	-171
863.912	-435
863.999	-1378
864.086	-833
864.172	146
864.259	-725
864.345	-144
864.432	362
864.518	-279
864.604	-364
864.691	83
864.777	-256
864.863	1602
864.950	467
865.036	1890
865.122	5005
865.209	4981
865.295	3700
865.381	3777
865.467	3679
865.553	4329
865.639	4501
865.726	7491
865.812	12745
865.898	23257
865.984	33285
866.070	60941
866.156	60876
866.242	17261
866.328	5451
866.414	3996
866.499	4451
866.585	3815
866.671	2476
866.757	3660
866.843	2323
866.928	2332
867.014	3106
867.100	2740
867.186	2255
867.271	2256
867.357	2927
867.442	2605
867.528	2613
867.614	3070
867.699	2527
867.785	2748
867.870	1915
867.956	2094
868.041	2534
868.127	2554
868.212	1539
868.297	2304
868.383	2945
868.468	2680
868.553	2339
868.639	2765
868.724	1775
868.809	3224
868.894	1647
868.979	2379
869.065	1428
869.150	1290
869.235	1800
869.320	1714
869.405	1580
869.490	2247
869.575	2425
869.660	1667
869.745	2938
869.830	1743
869.915	1441
870.000	2439
870.085	722
870.169	2406
870.254	3082
870.339	1307
870.424	610
870.509	2274
870.593	1684
870.678	2461
870.763	1551
870.847	1346
870.932	1511
871.016	2503
871.101	598
871.186	1990
871.270	2321
871.355	1063
871.439	1560
871.523	1843
871.608	1420
871.692	1552
871.777	1777
871.861	2087
871.945	932
872.030	1393
872.114	848
872.198	1835
872.282	1253
872.367	652
872.451	882
872.535	1645
872.619	1174
872.703	2056
872.787	1671
872.871	922
872.955	1373
873.039	799
873.123	899
873.207	2095
873.291	41
873.375	590
873.459	1636
873.543	1166
873.627	697
873.711	1271
873.794	981
873.878	1144
873.962	34
874.045	591
874.129	819
874.137	812
874.213	733
874.245	737
874.296	750
874.352	710
874.380	684
874.460	247
874.464	229
874.547	581
874.568	885
874.631	1775
874.676	1534
874.714	1334
874.784	1815
874.798	1910
874.881	1702
874.892	1649
874.965	1324
874.999	1128
875.048	819
875.107	1139
875.131	1280
875.215	236
875.215	236
875.298	217
875.323	364
875.381	756
875.430	1572
875.465	2111
875.538	1207
875.548	1080
875.631	819
875.646	581
875.714	-584
875.753	-22
875.798	717
875.861	1196
875.881	1304
875.964	1216
875.968	1176
876.047	613
876.076	613
876.130	595
876.183	1157
876.213	1483
876.291	1358
876.296	1346
876.379	884
876.398	793
876.462	406
876.506	275
876.545	194
876.613	722
876.628	837
876.711	729
876.721	842
876.794	1840
876.828	1385
876.877	550
876.935	598
876.960	692
877.043	475
877.043	478
877.125	1329
877.150	1538
877.208	1828
877.258	826
877.291	234
877.365	1203
877.374	1307
877.456	903
877.472	801
877.539	362
877.579	587
877.622	918
877.687	1429
877.704	1575
877.787	1060
877.794	1081
877.869	1208
877.901	1185
877.952	974
878.008	873
878.034	822
878.115	387
878.117	393
878.199	1360
878.222	1416
878.282	1317
878.329	1742
878.364	2020
878.437	1880
878.447	1836
878.529	552
878.544	558
878.611	657
878.651	640
878.694	911
878.758	1215
878.776	1268
878.858	1892
878.865	1863
878.941	686
878.972	372
879.023	321
879.078	469
879.105	641
879.185	1274
879.187	1282
879.269	1413
879.292	1409
879.351	1451
879.399	1120
879.433	776
879.506	1344
879.516	1469
879.598	1237
879.613	1223
879.680	928
879.720	1266
879.762	1694
879.827	1084
879.844	964
879.926	1621
879.933	1630
880.007	1443
880.040	1381
880.089	1548
880.147	2017
880.171	2133
880.253	3023
880.254	3018
880.335	2600
880.360	3123
880.417	4746
880.467	6020
880.499	7013
880.574	7945
880.580	7815
880.662	3633
880.680	2941
880.744	1199
880.787	922
880.825	1078
880.893	1191
880.907	1173
880.989	1272
881.000	1268
881.070	1588
881.106	1680
881.152	1533
881.213	690
881.233	437
881.315	1457
881.319	1404
881.396	1047
881.426	1248
881.478	1458
881.532	1975
881.559	2248
881.639	1431
881.641	1402
881.722	799
881.745	849
881.803	1487
881.852	1360
881.885	1194
881.958	929
881.966	903
882.047	1306
882.064	1262
882.129	923
882.171	896
882.210	997
882.277	931
882.291	974
882.372	957
882.383	1103
882.454	2178
882.489	2268
882.535	2028
882.596	1506
882.616	1414
882.697	1596
882.702	1567
882.778	1186
882.808	1156
882.859	1007
882.914	1192
882.940	1399
883.020	1160
883.021	1164
883.102	2332
883.127	2295
883.183	2235
883.233	2348
883.264	2074
883.339	1458
883.345	1443
883.426	871
883.445	833
883.507	1383
883.551	1798
883.587	1841
883.657	1616
883.668	1652
883.749	2498
883.763	2476
883.830	1506
883.869	1139
883.910	1071
883.975	1150
883.991	1148
884.072	1120
884.081	1091
884.152	1986
884.187	2332
884.233	2302
884.292	2372
884.314	2125
884.394	727
884.398	675
884.475	915
884.504	1088
884.555	1100
884.610	796
884.636	869
884.716	1250
884.716	1259
884.797	1931
884.821	1963
884.877	1825
884.927	1849
884.958	1759
885.033	1445
885.038	1397
885.118	692
885.139	425
885.199	640
885.244	910
885.279	1123
885.350	1695
885.359	1825
885.439	2851
885.456	3040
885.520	2354
885.561	1671
885.600	1335
885.667	1030
885.680	1120
885.760	1769
885.773	1817
885.840	1291
885.878	1142
885.920	1182
885.984	1145
886.000	1276
886.080	1699
886.089	1757
886.160	2075
886.195	2160
886.240	2302
886.300	2549
886.320	2346
886.400	1487
886.406	1423
886.480	1294
886.511	1269
886.560	1159
886.616	813
886.640	970
886.720	1691
886.722	1700
886.800	1447
886.827	1385
886.879	1605
886.932	1842
886.959	2019
887.038	2394
887.039	2398
887.119	2010
887.143	1901
887.198	1934
887.248	1903
887.278	1898
887.354	1887
887.358	1911
887.437	2219
887.459	2301
887.517	2447
887.564	2527
887.596	2098
887.669	1161
887.676	1121
887.755	568
887.774	410
887.835	756
887.880	1096
887.914	1374
887.985	1842
887.994	1944
888.073	2868
888.090	2995
888.153	3293
888.195	3642
888.232	2918
888.300	1361
888.311	1391
888.391	1625
888.405	1664
888.470	1154
888.510	826
888.549	1230
888.615	1908
888.628	2003
888.708	2585
888.720	2649
888.787	2037
888.825	1702
888.866	1562
888.930	1305
888.945	1440
889.024	2129
889.035	2214
889.103	2008
889.140	1881
889.182	1857
889.245	1838
889.261	1806
889.340	1591
889.349	1561
889.419	2051
889.454	2289
889.498	2081
889.559	1793
889.577	1810
889.656	1862
889.664	1864
889.735	1938
889.768	1969
889.814	1929
889.873	1861
889.978	2185
890.083	2232
890.187	2100
890.292	2930
890.397	1318
890.501	1702
890.606	1229
890.710	1793
890.815	3408
890.919	2216
891.024	2130
891.128	1149
891.233	1266
891.337	2110
891.442	2482
891.546	2218
891.650	1132
891.755	1235
891.859	2858
891.963	2753
892.068	1631
892.172	2298
892.276	194
892.380	807
892.484	2265
892.589	1949
892.693	1606
892.797	1500
892.901	997
893.005	1079
893.109	2352
893.213	2615
893.317	1681
893.421	813
893.525	956
893.629	1522
893.733	2179
893.837	1880
893.941	1094
894.045	2031
894.148	530
894.252	1435
894.356	1812
894.460	2668
894.564	1651
894.667	614
894.771	755
894.875	603
894.978	981
895.082	2075
895.186	1634
895.289	1639
895.393	948
895.496	2408
895.600	1602
895.703	1099
895.807	835
895.910	1423
896.014	1234
896.117	1454
896.221	1688
896.324	2462
896.427	762
896.531	419
896.634	1153
896.737	710
896.840	1214
896.944	2466
897.047	1635
897.150	1492
897.253	629
897.356	760
897.460	831
897.563	590
897.666	749
897.769	2104
897.872	1035
897.975	1469
898.078	749
898.181	1221
898.284	1379
898.387	1707
898.490	2317
898.593	2112
898.695	1106
898.798	1175
898.901	289
899.004	2086
899.107	1107
899.209	1289
899.312	2267
899.415	1076
899.518	1635
899.620	785
899.723	83
899.826	1115
899.928	423
900.031	1527
900.133	2249
900.236	1520
900.338	867
900.441	1520
900.543	1082
900.646	948
900.748	1274
900.851	2041
900.953	-157
901.055	982
901.158	987
901.260	1180
901.362	380
901.465	1148
901.567	793
901.669	1881
901.771	714
901.873	1010
901.976	375
902.078	1572
902.180	366
902.282	1612
902.384	1228
902.486	1831
902.588	2046
902.690	267
902.792	32
902.894	1269
902.996	1926
903.098	1967
903.200	543
903.302	604
903.404	750
903.505	783
903.607	734
903.709	2483
903.811	1637
903.913	1309
904.014	712
904.116	-351
904.218	774
904.319	664
904.421	2140
904.523	1833
904.624	500
904.726	511
904.827	102
904.929	839
905.030	499
905.132	1591
905.233	795
905.335	35
905.436	578
905.537	400
905.639	589
905.740	1066
905.841	1004
905.943	1077
906.044	296
906.145	365
906.247	371
906.348	910
906.449	987
906.550	1618
906.651	1359
906.752	735
906.854	-652
906.955	279
907.056	349
907.157	1965
907.258	2100
907.359	623
907.460	1318
907.561	296
907.662	549
907.762	155
907.863	1130
907.964	1304
908.065	600
908.166	932
908.267	760
908.367	1063
908.468	776
908.569	692
908.670	988
908.770	1199
908.871	615
908.971	1710
909.072	66
909.173	720
909.273	412
909.374	1033
909.474	1007
909.575	870
909.675	237
909.776	1636
909.876	894
909.977	219
910.077	1024
910.177	1805
910.278	1075
910.378	572
910.478	1264
910.579	1233
910.679	954
910.779	1000
910.879	1931
910.980	979
911.080	1821
911.180	704
911.280	177
911.380	1215
911.480	520
911.580	481
911.680	1009
911.780	960
911.880	894
911.980	1227
912.080	-154
912.180	290
912.280	1092
912.380	957
912.480	888
912.580	818
912.679	1273
912.779	2094
912.879	1892
912.979	712
913.078	724
913.178	643
913.278	281
913.377	805
913.477	122
913.577	628
913.676	1920
913.776	980
913.875	1258
913.975	1296
914.074	389
914.174	1066
914.273	370
914.373	1704
914.472	819
914.572	775
914.671	1432
914.770	830
914.870	396
914.969	312
915.068	1392
915.167	1657
915.267	928
915.366	1313
915.465	1643
915.564	701
915.663	1099
915.763	575
915.862	1943
915.961	1098
916.060	688
916.159	-224
916.258	651
916.357	1502
916.456	1116
916.555	1775
916.654	995
916.752	1959
916.851	1410
916.950	449
917.049	379
917.148	1032
917.247	650
917.345	663
917.444	644
917.543	1021
917.642	1508
917.740	1199
917.839	1568
917.937	1754
918.036	2146
918.135	1013
918.233	359
918.332	775
918.430	709
918.529	1518
918.627	88
918.726	1624
918.824	1743
918.923	1403
919.021	1179
919.119	1036
919.218	448
919.316	436
919.414	1383
919.512	842
919.611	1632
919.709	1405
919.807	2133
919.905	2975
920.003	1565
920.102	2004
920.200	1547
920.298	1977
920.396	1713
920.494	2137
920.592	1396
920.690	2695
920.788	1465
920.886	1743
920.984	2715
921.082	2231
921.180	2955
921.277	2615
921.375	2893
921.473	4765
921.571	3005
921.669	3230
921.766	3416
921.864	3640
921.962	3521
922.060	3635
922.157	3618
922.255	4087
922.352	3706
922.450	4944
922.548	4535
922.645	5502
922.743	7091
922.840	10076
922.938	11822
923.035	11131
923.133	10166
923.230	11518
923.327	14118
923.425	12936
923.522	12794
923.619	12278
923.717	10128
923.814	10937
923.911	10399
924.008	11121
924.106	9975
924.203	10141
924.300	10480
924.397	9480
924.494	9733
924.591	10122
924.688	9222
924.786	10856
924.883	10315
924.979	9323
925.077	9870
925.173	9440
925.270	9732
925.367	10588
925.464	10663
925.561	9934
925.658	10392
925.755	8646
925.852	9882
925.948	8695
926.045	9475
926.142	10141
926.239	9530
926.335	8068
926.432	8805
926.529	9535
926.625	10468
926.722	9010
926.818	8540
926.915	9631
927.011	8601
927.108	9249
927.204	9446
927.301	8143
927.397	8979
927.494	11144
927.590	7051
927.687	6934
927.783	10074
927.879	10111
927.976	8434
928.072	7025
928.168	7961
928.264	9105
928.361	8313
928.457	10179
928.553	7508
928.649	8135
928.745	8948
928.841	8727
928.937	8089
929.033	8903
929.129	8129
929.225	8433
929.321	7879
929.417	7226
929.513	9026
929.609	7268
929.705	7416
929.801	9225
929.897	6586
929.993	7612
930.089	6930
930.184	6789
930.280	7378
930.376	10483
930.471	6610
930.567	6498
930.663	7161
930.758	6454
930.854	6973
930.950	7269
931.045	6348
931.141	6477
931.236	8416
931.332	7288
931.427	5758
931.523	8229
931.618	6545
931.714	5487
931.809	6482
931.905	7889
932.000	5200
932.095	4654
932.191	8205
932.286	9339
932.381	7152
932.476	5673
932.572	6603
932.667	4910
932.762	5574
932.857	7038
932.952	8307
933.047	6962
933.142	5018
933.237	6612
933.332	6719
933.427	8104
933.522	6319
933.617	6271
933.712	5375
933.807	7101
933.902	8263
933.997	7860
934.092	5769
934.187	5722
934.282	6128
934.376	6533
934.471	7696
934.566	6554
934.661	5320
934.755	6774
934.850	7155
934.945	6267
935.039	4039
935.134	5052
935.228	6070
935.323	8629
935.417	5209
935.512	3958
935.606	4461
935.701	6156
935.795	6373
935.890	5760
935.984	4804
936.079	4497
936.173	5932
936.267	5557
936.362	4322
936.456	5358
936.550	7076
936.644	5866
936.738	4569
936.833	4190
936.927	3717
937.021	4797
937.115	5391
937.209	6549
937.303	5355
937.397	3636
937.491	4755
937.585	6304
937.679	5734
937.773	3981
937.867	3895
937.961	4333
938.055	6858
938.149	6916
938.243	3710
938.337	3561
938.430	4309
938.524	6122
938.618	4489
938.712	4070
938.805	4473
938.899	6094
938.993	6517
939.086	3916
939.180	3269
939.274	4022
939.367	5940
939.461	5765
939.554	3210
939.648	3011
939.741	3882
939.835	4828
939.928	5951
940.022	5245
940.115	2849
940.208	5151
940.302	6327
940.395	6907
940.488	3613
940.582	4208
940.675	3732
940.768	3677
940.861	4883
940.954	6263
941.048	2551
941.141	1743
941.234	3063
941.327	4113
941.420	4478
941.513	4738
941.606	3570
941.699	4081
941.792	4997
941.885	4570
941.978	3660
942.071	4641
942.164	2209
942.257	3604
942.349	4172
942.442	4204
942.535	3036
942.628	3881
942.721	3783
942.813	3216
942.906	4553
942.999	4045
943.091	3058
943.184	3548
943.277	3552
943.369	2668
943.462	2035
943.554	3431
943.647	3333
943.739	4451
943.832	4791
943.924	2174
944.017	2151
944.109	2194
944.201	3143
944.294	3302
944.386	3805
944.478	3195
944.571	2742
944.663	3061
944.755	3557
944.847	4202
944.940	3930
945.032	1806
945.124	1538
945.216	3073
945.308	3551
945.400	3392
945.492	2257
945.584	4397
945.676	4051
945.768	3566
945.860	3126
945.952	4421
946.044	2150
946.136	2679
946.228	3503
946.320	3033
946.412	4061
946.503	3864
946.595	4112
946.687	2678
946.779	1932
946.870	3320
946.962	2569
947.054	2855
947.145	3786
947.237	2939
947.329	2601
947.420	3418
947.512	2950
947.603	2048
947.695	2101
947.786	2313
947.878	2861
947.969	3100
948.061	3116
948.152	2751
948.243	1780
948.335	1605
948.426	2608
948.517	2717
948.609	3483
948.700	4115
948.791	2222
948.882	2082
948.973	1545
949.065	3615
949.156	2820
949.247	1742
949.338	2400
949.429	1464
949.520	1461
949.611	2185
949.702	3113
949.793	2815
949.884	2493
949.975	1809
950.066	1169
950.157	1880
950.247	2310
950.338	2133
950.429	1677
950.520	2299
950.611	1734
950.701	2647
950.792	3415
950.883	3487
950.973	2622
951.064	2831
951.155	2772
951.245	3419
951.336	3117
951.427	2984
951.517	4065
951.608	3059
951.698	1965
951.788	1884
951.879	412
951.969	2804
952.060	2546
952.150	1693
952.240	4185
952.331	2016
952.421	3913
952.511	1933
952.602	1711
952.692	1756
952.782	1772
952.872	2255
952.962	2019
953.052	2258
953.143	1691
953.233	2207
953.323	2176
953.413	3558
953.503	2630
953.593	2352
953.683	2541
953.773	1763
953.863	1231
953.953	1437
954.042	2382
954.132	2253
954.222	2491
954.312	1312
954.402	1658
954.492	1540
954.581	1731
954.671	1867
954.761	735
954.850	3090
954.940	1207
955.030	1294
955.119	1090
955.209	2030
955.298	1208
955.388	2309
955.477	3019
955.567	1058
955.656	1737
955.746	2447
955.835	1365
955.925	1248
956.014	1609
956.103	2880
956.193	3062
956.282	3414
956.371	2233
956.461	1909
956.550	2573
956.639	2403
956.728	1517
956.817	1973
956.906	1408
956.995	2673
957.085	1700
957.174	2431
957.263	1998
957.352	1587
957.441	2309
957.530	2042
957.619	1592
957.708	1540
957.796	1457
957.885	2219
957.974	1316
958.063	2397
958.152	1420
958.241	1835
958.329	1127
958.418	1305
958.507	1431
958.596	3356
958.684	1194
958.773	2450
958.861	1655
958.950	1114
959.039	1599
959.127	1627
959.216	1993
959.304	1327
959.393	1752
959.481	2806
959.570	1649
959.658	2233
959.746	1037
959.835	2599
959.923	1678
960.011	1254
960.100	2193
960.188	2373
960.276	1726
960.365	1475
960.453	1290
960.541	843
960.629	823
960.717	1775
960.805	423
960.893	2488
960.981	1789
961.069	3282
961.158	3107
961.245	3944
961.333	2029
961.421	2187
961.509	1944
961.597	2449
961.685	1283
961.773	2472
961.861	1165
961.949	3505
962.036	1186
962.124	1345
962.212	456
962.299	1270
962.387	1141
962.475	2273
962.562	146
962.650	2077
962.738	1208
962.825	1063
962.913	1210
963.000	1509
963.088	1719
963.175	1811
963.263	1651
963.350	1598
963.438	1334
963.525	1456
963.612	1832
963.700	1638
963.787	1734
963.874	1548
963.962	806
964.049	1462
964.136	727
964.223	284
964.310	988
964.398	1163
964.485	598
964.572	1966
964.659	2157
964.746	815
964.833	1155
964.920	1145
965.007	1626
965.094	1527
965.181	1158
965.268	2415
965.355	1063
965.441	751
965.528	956
965.615	1708
965.702	1404
965.789	940
965.875	774
965.962	1728
966.049	509
966.136	2072
966.222	2222
966.309	1808
966.395	1482
966.482	1850
966.569	754
966.655	1963
966.742	1191
966.828	900
966.915	625
967.001	946
967.087	363
967.174	691
967.260	956
967.347	1403
967.433	1007
967.519	2117
967.605	687
967.692	1346
967.778	1256
967.864	1154
967.950	2221
968.036	930
968.123	520
968.209	1439
968.295	-16
968.381	2572
968.467	1074
968.553	-521
968.639	1765
968.725	874
968.811	1318
968.897	1269
968.983	1183
969.069	910
969.154	686
969.240	1404
969.326	1124
969.412	679
969.497	818
969.583	789
969.669	1995
969.755	2387
969.840	689
969.926	2408
970.012	2858
970.097	4118
970.183	2386
970.268	1880
970.354	1669
970.439	941
970.525	2099
970.610	-264
970.696	1825
970.781	1262
970.866	-205
970.952	1230
971.037	645
971.122	1051
971.208	1238
971.293	1609
971.378	734
971.463	1813
971.549	346
971.634	1473
971.719	996
971.804	1223
971.889	1437
971.974	1247
972.059	302
972.144	1694
972.229	1305
972.314	611
972.399	523
972.484	283
972.569	1064
972.654	135
972.739	1775
972.824	461
972.908	805
972.993	772
973.078	48
973.163	1570
973.247	533
973.332	-373
973.417	2103
973.501	441
973.586	1233
973.671	1387
973.755	-162
973.840	985
973.924	1475
974.009	2119
974.093	1798
974.178	2757
974.262	1589
974.346	1026
974.431	1411
974.515	292
974.600	766
974.684	2011
974.768	232
974.852	2793
974.937	557
975.021	1931
975.105	1073
975.189	683
975.273	1691
975.358	624
975.442	550
975.526	2328
975.610	319
975.694	832
975.778	1632
975.862	1329
975.946	-833
976.030	2262
976.114	866
976.198	564
976.281	802
976.365	1771
976.449	724
976.533	1106
976.617	556
976.700	627
976.784	138
976.868	823
976.951	1052
977.035	578
977.119	394
977.202	1075
977.286	1977
977.369	1571
977.453	3091
977.536	2298
977.620	1260
977.703	1638
977.787	-495
977.870	2164
977.953	1587
978.037	513
978.120	1310
978.203	1499
978.287	1418
978.370	1370
978.453	-433
978.536	1227
978.620	1046
978.703	1129
978.786	213
978.869	636
978.952	505
979.035	2241
979.118	1383
979.201	819
979.284	834
979.367	1821
979.450	1333
979.533	669
979.616	1041
979.699	1098
979.782	1011
979.865	1160
979.948	564
980.030	1172
980.113	937
980.196	912
980.279	840
980.361	715
980.444	370
980.526	2602
980.609	2690
980.692	3624
980.774	2546
980.857	1292
980.939	2065
981.022	2020
981.104	457
981.187	1574
981.269	1684
981.352	1165
981.434	550
981.516	1221
981.599	1566
981.681	1713
981.763	524
981.846	591
981.928	1075
982.010	1484
982.092	404
982.174	1214
982.256	572
982.339	908
982.421	621
982.503	1318
982.585	284
982.667	1716
982.749	1063
982.831	1372
982.913	409
982.995	1965
983.077	430
983.158	2446
983.240	1088
983.322	1797
983.404	2971
983.486	3123
983.568	3023
983.649	2547
983.731	2580
983.813	2272
983.894	1039
983.976	1303
984.058	1804
984.139	3060
984.221	59
984.302	2200
984.384	1394
984.465	763
984.547	1599
984.628	1526
984.710	2825
984.791	2150
984.872	2118
984.954	1147
985.035	1973
985.116	1625
985.198	1729
985.279	2465
985.360	1640
985.441	1450
985.522	2171
985.604	2283
985.685	-392
985.766	2349
985.847	2432
985.928	1447
986.009	1490
986.090	1710
986.171	2490
986.252	1286
986.333	1969
986.414	2008
986.495	1868
986.576	2097
986.656	2260
986.737	2614
986.818	2001
986.899	2753
986.980	1624
987.060	2554
987.141	1533
987.222	2707
987.302	2492
987.383	3267
987.464	2368
987.544	3678
987.625	2987
987.705	3343
987.786	3821
987.866	3116
987.947	2919
988.027	3776
988.108	2711
988.188	2380
988.268	2838
988.349	3346
988.429	3084
988.509	3216
988.589	2750
988.670	1639
988.750	3226
988.830	1645
988.910	2052
988.990	2641
989.070	1228
989.151	2066
989.231	2473
989.311	2818
989.391	2022
989.471	2581
989.551	1671
989.631	1391
989.711	2658
989.791	2001
989.870	757
989.950	3235
990.030	1608
990.110	1731
990.190	580
990.269	1770
990.349	1744
990.429	2553
990.509	2386
990.588	1417
990.668	2679
990.747	2047
990.827	1733
990.907	2762
990.986	2012
991.066	2366
991.145	570
991.225	2206
991.304	1581
991.383	2159
991.463	1359
991.542	2130
991.622	778
991.701	825
991.780	1371
991.859	1520
991.939	1317
992.018	2236
992.097	1443
992.176	1833
992.256	1560
992.335	713
992.414	2772
992.493	1507
992.572	670
992.651	2985
992.730	1333
992.809	1569
992.888	228
992.967	2536
993.046	2257
993.125	81
993.203	1819
993.282	1905
993.361	1003
993.440	1296
993.519	415
993.597	2104
993.676	938
993.755	1153
993.834	1439
993.912	420
993.991	2620
994.069	574
994.148	1501
994.226	819
994.305	1115
994.384	981
994.462	1948
994.540	567
994.619	31
994.697	1505
994.776	900
994.854	1603
994.932	1571
995.011	602
995.089	1448
995.167	927
995.245	1110
995.324	85
995.402	820
995.480	1160
995.558	969
995.636	944
995.714	703
995.792	2305
995.870	359
995.948	1037
996.026	1757
996.104	-114
996.182	1939
996.260	378
996.338	948
996.416	1037
996.494	281
996.572	1328
996.649	692
996.727	338
996.805	951
996.883	732
996.960	150
997.038	1521
997.116	1095
997.193	512
997.271	1064
997.348	-196
997.426	935
997.504	460
997.581	1353
997.658	1340
997.736	-696
997.813	103
997.891	918
997.968	809
998.046	360
998.123	802
998.200	995
998.277	1296
998.355	985
998.432	-943
998.509	289
998.586	1378
998.663	650
998.741	414
998.818	339
998.895	346
998.972	481
999.049	1371
999.126	-53
999.203	650
999.280	1309
999.357	441
999.434	-312
999.511	1528
999.587	934
999.664	-489
999.741	381
999.818	1518
999.895	228
999.971	44
1000.048	451
1000.125	1690
1000.202	31
1000.278	437
1000.355	897
1000.431	353
1000.508	-447
1000.584	442
1000.661	933
1000.738	-594
1000.814	697
1000.890	683
1000.967	278
1001.043	70
1001.120	-730
1001.196	-129
1001.272	-233
1001.349	139
1001.425	-29
1001.501	0
1001.577	-229
1001.654	703
1001.730	-795
1001.806	-566
1001.882	-851
1001.958	742
1002.034	1091
1002.110	342
1002.186	-788
1002.262	-225
1002.338	-246
1002.414	1075
1002.490	677
1002.566	-520
1002.642	-1146
1002.718	919
1002.794	-1125
1002.870	91
1002.945	95
1003.021	-735
1003.097	-404
1003.173	85
1003.248	-870
1003.324	472
1003.400	-295
1003.475	-1021
1003.551	-1060
1003.626	669
1003.702	-833
1003.777	213
1003.853	-258
1003.928	-286
1004.004	488
1004.079	-93
1004.155	402
1004.230	-980
1004.305	521
1004.381	-314
1004.456	-721
1004.531	361
1004.607	-1052
1004.682	-554
1004.757	-377
1004.832	192
1004.907	115
1004.982	262
1005.057	278
1005.133	311
1005.208	76
1005.283	-312
1005.358	338
1005.433	-541
1005.508	1005
1005.583	-159
1005.657	-315
1005.732	-7
1005.807	-896
1005.882	-630
1005.957	-1112
1006.032	336
1006.106	-567
1006.181	390
1006.256	-270
1006.331	177
1006.405	-492
1006.480	-536
1006.554	-369
1006.629	-135
1006.704	-986
1006.778	24
1006.853	-78
1006.927	-352
1007.002	-1235
1007.076	-49
1007.150	-383
1007.225	827
1007.299	-124
1007.373	-232
1007.448	-1199
1007.522	221
1007.596	-949
1007.671	-576
1007.745	-321
1007.819	-566
1007.893	76
1007.967	114
1008.041	-636
1008.115	-204
1008.190	-848
1008.264	135
1008.338	-860
1008.412	-659
1008.486	-313
1008.560	-352
1008.633	-669
1008.707	-271
1008.781	-495
1008.855	76
1008.929	-219
1009.003	-887
1009.076	-246
1009.150	-573
1009.224	-647
1009.298	-731
1009.371	-1594
1009.445	19
1009.519	-696
1009.592	-705
1009.666	-598
1009.739	-302
1009.813	-1326
1009.886	103
1009.960	-1558
1010.033	-475
1010.107	396
1010.180	-244
1010.253	-278
1010.327	-732
1010.400	-1269
1010.473	167
1010.547	-348
1010.620	-632
1010.693	-338
1010.766	-466
1010.840	-148
1010.913	-377
1010.986	-1863
1011.059	-1918
1011.132	-993
1011.205	-773
1011.278	-1589
1011.351	554
1011.424	-11
1011.497	-919
1011.570	-1148
1011.643	-813
1011.716	-613
1011.789	-246
1011.862	-1085
1011.934	92
1012.007	-1923
1012.080	-481
1012.153	-706
1012.225	137
1012.298	-827
1012.371	-1628
1012.443	78
1012.516	-1249
1012.588	-1173
1012.661	-952
1012.733	-1004
1012.806	-270
1012.879	-1559
1012.951	-733
1013.023	-758
1013.096	-1096
1013.168	-1394
1013.241	-472
1013.313	-900
1013.385	-1006
1013.458	-1042
1013.530	-693
1013.602	-2173
1013.674	-332
1013.746	-1078
1013.819	-1164
1013.891	-372
1013.963	-1240
1014.035	-629
1014.107	-1288
1014.179	-835
1014.251	-750
1014.323	-451
1014.395	-515
1014.467	-911
1014.539	-985
1014.611	-1450
1014.683	-695
1014.754	-503
1014.826	-1104
1014.898	-966
1014.970	-1280
1015.042	232
1015.113	-811
1015.185	-523
1015.257	-1482
1015.328	-731
1015.400	-775
1015.471	-748
1015.543	-1010
1015.615	-973
1015.686	-1306
1015.757	-1135
1015.829	-837
1015.901	-1335
1015.972	-950
1016.043	-1557
1016.115	-524
1016.186	-705
1016.257	-1166
1016.328	-1178
1016.400	-792
1016.471	-1555
1016.542	-529
1016.613	-374
1016.685	-827
1016.756	-1393
1016.827	-998
1016.898	-958
1016.969	-978
1017.040	-1082
1017.111	-2213
1017.182	-322
1017.253	-1092
1017.324	-2601
1017.395	-1424
1017.466	-1213
1017.537	-1387
1017.608	-1114
1017.678	-485
1017.749	-567
1017.820	-303
1017.891	-1078
1017.961	-1365
1018.032	-1871
1018.103	-391
1018.173	-1466
1018.244	-1836
1018.315	-1286
1018.385	-830
1018.456	-1743
1018.526	-2005
1018.597	-1426
1018.667	-515
1018.738	-1938
1018.808	-1226
1018.878	-1308
1018.949	-2
1019.019	-1019
1019.089	-1412
1019.160	-1160
1019.230	-2012
1019.300	-376
1019.371	-1469
1019.441	-975
1019.511	-1744
1019.581	-1178
1019.651	-917
1019.721	-1189
1019.791	-1363
1019.861	-1243
1019.931	-1450
1020.001	-1733
1020.071	-1031
1020.141	-1636
1020.211	-922
1020.281	-2667
1020.351	-670
1020.421	-1051
1020.491	-492
1020.560	-1153
1020.630	-1500
1020.700	-1908
1020.770	-1919
1020.839	-1600
1020.909	-1285
1020.979	-719
1021.048	-2036
1021.118	-1959
1021.187	-1972
1021.257	-1541
1021.326	-723
1021.396	-1668
1021.465	-835
1021.535	-1706
1021.604	-1622
1021.674	-1366
1021.743	-1319
1021.812	-1450
1021.882	-1774
1021.951	-1347
1022.020	-1539
1022.089	-801
1022.159	-1285
1022.228	-1238
1022.297	-1608
1022.366	-2194
1022.435	-1745
1022.504	-1586
1022.573	-1730
1022.642	-1054
1022.711	-1977
1022.781	-1547
1022.849	-706
1022.918	-2220
1022.987	-1102
1023.056	-2151
1023.125	-1464
1023.194	-1031
1023.263	-1983
1023.331	-1564
1023.400	-1584
1023.469	-1390
1023.538	-715
1023.606	-2053
1023.675	-1344
1023.744	-1759
1023.812	-1595
1023.881	-1995
1023.949	-1675
1024.018	-2196
1024.086	-1952
1024.155	-1539
1024.223	-1505
1024.292	-1707
1024.360	-1690
1024.429	-1395
1024.497	-1411
1024.565	-1531
1024.634	-1918
1024.702	-995
1024.770	-1146
1024.838	-2042
1024.907	-1137
1024.975	-2385
1025.043	-1659
1025.111	-2051
1025.179	-1658
1025.247	-1658
1025.315	-1884
1025.383	-1951
1025.451	-1706
1025.519	-1943
1025.587	-1809
1025.655	-1892
1025.723	-1855
1025.791	-1855
1025.859	-1489
1025.927	-1590
1025.995	-1690
1026.062	-1637
1026.130	-1473
1026.198	-2102
1026.266	-1531
1026.333	-1990
1026.401	-1084
1026.469	-1243
1026.536	-2335
1026.604	-1524
1026.671	-2371
1026.739	-1973
1026.806	-1773
1026.874	-2353
1026.941	-506
1027.009	-2003
1027.076	-1256
1027.144	-1684
1027.211	-2442
1027.278	-2126
1027.345	-1553
1027.413	-2301
1027.480	-1413
1027.547	-2212
1027.614	-1953
1027.682	-1782
1027.749	-1594
1027.816	-1925
1027.883	-1388
1027.950	-1212
1028.017	-1443
1028.084	-1898
1028.151	-2070
1028.218	-1648
1028.285	-1761
1028.352	-2048
1028.419	-2395
1028.486	-2006
1028.553	-1831
1028.619	-1636
1028.686	-1527
1028.753	-2356
1028.820	-1229
1028.886	-1519
1028.953	-1801
1029.020	-1867
1029.086	-2530
1029.153	-2109
1029.220	-2280
1029.286	-1092
1029.353	-1068
1029.419	-1944
1029.486	-1362
1029.552	-1302
1029.619	-1744
1029.685	-2209
1029.751	-2443
1029.818	-1342
1029.884	-1617
1029.951	-895
1030.017	-2239
1030.083	-2053
1030.149	-2515
1030.216	-1901
1030.282	-1561
1030.348	-2424
1030.414	-1715
1030.480	-2480
1030.546	-1057
1030.612	-2106
1030.678	-1825
1030.744	-2030
1030.810	-1465
1030.876	-1314
1030.942	-2832
1031.008	-2192
1031.074	-1546
1031.140	-2661
1031.206	-1735
1031.272	-1500
1031.337	-2180
1031.403	-1660
1031.469	-1983
1031.534	-2160
1031.600	-1614
1031.666	-1814
1031.731	-2608
1031.797	-2025
1031.863	-1540
1031.928	-2293
1031.994	-1983
1032.059	-2239
1032.125	-1553
1032.190	-2167
1032.256	-2453
1032.321	-2501
1032.386	-1400
1032.452	-1611
1032.517	-1774
1032.582	-2577
1032.647	-2103
1032.713	-2676
1032.778	-939
1032.843	-2001
1032.908	-1899
1032.974	-1710
1033.039	-2400
1033.104	-1395
1033.169	-2404
1033.234	-1577
1033.299	-1486
1033.364	-1801
1033.429	-2454
1033.494	-2367
1033.559	-2546
1033.624	-998
1033.688	-1946
1033.753	-2484
1033.818	-1039
1033.883	-1026
1033.948	-1233
1034.013	-1793
1034.077	-500
1034.142	-1288
1034.207	-572
1034.271	178
1034.336	-267
1034.400	-885
1034.465	-1539
1034.530	-2194
1034.594	-2128
1034.658	-1767
1034.723	-1575
1034.787	-1759
1034.852	-1697
1034.916	-1637
1034.981	-1747
1035.045	-1814
1035.109	-2203
1035.173	-1368
1035.238	-1963
1035.302	-1442
1035.366	-1777
1035.430	-2032
1035.495	-2356
1035.559	-1351
1035.623	-1557
1035.687	-2178
1035.751	-1815
1035.815	-2123
1035.879	-1977
1035.943	-2289
1036.007	-2029
1036.071	-2424
1036.135	-1751
1036.198	-1665
1036.262	-1526
1036.326	-2224
1036.390	-2202
1036.454	-2863
1036.517	-1704
1036.581	-1911
1036.645	-2389
1036.709	-1455
1036.772	-1693
1036.836	-1099
1036.900	-2192
1036.963	-2282
1037.026	-1815
1037.090	-2782
1037.154	-1764
1037.217	-2200
1037.280	-1823
1037.344	-1946
1037.407	-2238
1037.471	-1751
1037.534	-1934
1037.597	-1552
1037.661	-2332
1037.724	-1447
1037.787	-2083
1037.850	-1785
1037.913	-2138
1037.977	-1957
1038.040	-2762
1038.103	-2749
1038.166	-2224
1038.229	-2958
1038.292	-1465
1038.355	-2469
1038.418	-696
1038.481	-2084
1038.544	-1556
1038.607	-2275
1038.670	-2181
1038.732	-1554
1038.795	-1830
1038.858	-1768
1038.921	-1758
1038.984	-1436
1039.046	-1901
1039.109	-2483
1039.172	-1905
1039.234	-2057
1039.297	-1969
1039.360	-1876
1039.422	-2427
1039.485	-1241
1039.547	-2163
1039.610	-1662
1039.672	-2018
1039.734	-2005
1039.797	-2266
1039.859	-1419
1039.922	-1699
1039.984	-2169
1040.046	-1351
1040.109	-2488
1040.171	-2257
1040.233	-1907
1040.295	-1948
1040.358	-2438
1040.420	-1505
1040.482	-2115
1040.544	-2305
1040.606	-2136
1040.668	-2086
1040.730	-1805
1040.792	-1864
1040.854	-2328
1040.916	-2669
1040.978	-2307
1041.040	-1889
1041.102	-2266
1041.164	-2838
1041.225	-1941
1041.287	-2444
1041.349	-2491
1041.411	-2092
1041.472	-1689
1041.534	-2702
1041.596	-2054
1041.657	-2044
1041.719	-1929
1041.781	-1900
1041.842	-2725
1041.904	-1589
1041.965	-2251
1042.027	-1915
1042.088	-2550
1042.150	-1918
1042.211	-1580
1042.272	-786
1042.334	-2455
1042.395	-1483
1042.456	-2157
1042.518	-1903
1042.579	-1910
1042.640	-1688
1042.701	-2109
1042.763	-2247
1042.824	-2669
1042.885	-2195
1042.946	-1786
1043.007	-2513
1043.068	-2167
1043.129	-1770
1043.190	-2267
1043.251	-2018
1043.312	-2079
1043.373	-1908
1043.434	-2391
1043.495	-2639
1043.556	-2279
1043.616	-2064
1043.677	-2713
1043.738	-1789
1043.799	-2333
1043.859	-1572
1043.920	-2577
1043.981	-1569
1044.041	-2790
1044.102	-2075
1044.162	-2333
1044.223	-2110
1044.284	-2843
1044.344	-1894
1044.405	-1148
1044.465	-1794
1044.525	-2560
1044.586	-1803
1044.646	-1609
1044.707	-1211
1044.767	-1515
1044.827	-2458
1044.887	-1293
1044.948	-1959
1045.008	-1936
1045.068	-1526
1045.128	-2271
1045.188	-2035
1045.249	-1246
1045.309	-2204
1045.369	-2252
1045.429	-1464
1045.489	-1718
1045.549	-1540
1045.609	-2518
1045.669	-2177
1045.729	-1854
1045.789	-1601
1045.848	-2396
1045.908	-1037
1045.968	-1851
1046.028	-2091
1046.088	-2022
1046.147	-945
1046.207	-1366
1046.267	-1910
1046.326	-1008
1046.386	-1869
1046.446	-910
1046.505	-765
1046.565	-1430
1046.624	-1207
1046.684	-1393
1046.743	-738
1046.803	-224
1046.862	282
1046.922	0
