'Start Wavelength	183.907
'End Wavelength	1046.922
'Gate Delay	5.000
'Gate Width (ms)	1.050
'Laser Output Level	0.000
'X Position	0.000
'Y Position	0.000
'Z Position	0.000
'Grid Point Number	1.000
'Shot Number	100.000
183.907	-184.000
183.977	-177.000
184.047	210
184.116	240
184.186	577
184.256	-610
184.325	165
184.395	-1091
184.465	922
184.534	370
184.604	-272
184.674	-804
184.743	122
184.813	562
184.883	-415
184.952	-12
185.022	-592
185.092	-252
185.161	412
185.231	-33
185.301	-91
185.370	524
185.440	-764
185.509	-652
185.579	-35
185.649	342
185.718	788
185.788	176
185.857	-675
185.927	218
185.996	-92
186.066	327
186.136	-225
186.205	112
186.275	-40
186.344	248
186.414	-157
186.483	116
186.553	1104
186.622	485
186.692	-160
186.761	131
186.831	157
186.900	-322
186.970	139
187.039	229
187.109	479
187.178	-38
187.248	-182
187.317	241
187.387	527
187.456	78
187.526	-118
187.595	-90
187.664	-361
187.734	238
187.803	1073
187.873	-21
187.942	-71
188.012	250
188.081	-128
188.150	-400
188.220	284
188.289	755
188.358	560
188.428	108
188.497	-368
188.567	212
188.636	451
188.705	-235
188.775	17
188.844	-962
188.913	375
188.983	-52
189.052	247
189.121	-321
189.191	-477
189.260	328
189.329	379
189.399	-438
189.468	85
189.537	-255
189.606	647
189.676	285
189.745	278
189.814	-151
189.883	150
189.953	6
190.022	133
190.091	-74
190.161	-205
190.230	-37
190.299	-101
190.368	1
190.437	-118
190.507	781
190.576	603
190.645	168
190.714	205
190.783	-167
190.853	80
190.922	581
190.991	-443
191.060	520
191.129	-615
191.198	246
191.268	-501
191.337	212
191.406	489
191.475	-590
191.544	-682
191.613	220
191.682	583
191.752	66
191.821	229
191.890	-466
191.959	181
192.028	-474
192.097	-438
192.166	-16
192.235	128
192.304	436
192.373	110
192.442	-424
192.511	192
192.580	-194
192.650	54
192.719	29
192.788	-143
192.857	173
192.926	-99
192.995	237
193.064	582
193.133	27
193.202	-339
193.271	-208
193.340	-457
193.409	-613
193.478	351
193.547	-181
193.615	64
193.684	-229
193.753	-946
193.822	292
193.891	-830
193.960	-414
194.029	520
194.098	234
194.167	-250
194.236	119
194.305	71
194.374	183
194.443	14
194.512	-300
194.580	-29
194.649	566
194.718	-582
194.787	-138
194.856	-188
194.925	1346
194.994	-369
195.062	74
195.131	-155
195.200	-92
195.269	-213
195.338	800
195.407	-255
195.475	-740
195.544	766
195.613	232
195.682	-160
195.751	-101
195.819	405
195.888	425
195.957	667
196.026	-93
196.094	932
196.163	-330
196.232	-466
196.301	-665
196.369	-294
196.438	68
196.507	53
196.576	-374
196.644	-113
196.713	241
196.782	-245
196.850	-231
196.919	195
196.988	-377
197.056	-276
197.125	-583
197.194	390
197.262	-215
197.331	-313
197.400	-473
197.468	-14
197.537	200
197.606	-495
197.674	167
197.743	-109
197.812	49
197.880	-118
197.949	-146
198.017	-236
198.086	-26
198.155	-307
198.223	248
198.292	197
198.360	-218
198.429	204
198.497	-394
198.566	-69
198.635	-468
198.703	11
198.772	47
198.840	-352
198.909	111
198.977	195
199.046	763
199.114	340
199.183	-301
199.251	-349
199.320	390
199.388	-205
199.457	-1177
199.525	621
199.594	-368
199.662	-483
199.731	466
199.799	393
199.867	-365
199.936	-814
200.004	499
200.073	165
200.141	-358
200.210	-247
200.278	-210
200.346	-228
200.415	554
200.483	32
200.552	677
200.620	-65
200.688	-480
200.757	-144
200.825	-132
200.893	150
200.962	-170
201.030	261
201.098	-229
201.167	-62
201.235	583
201.303	-825
201.372	-182
201.440	-24
201.508	56
201.577	280
201.645	-88
201.713	-26
201.781	-711
201.850	116
201.918	133
201.986	420
202.055	513
202.123	903
202.191	-280
202.259	-477
202.327	-233
202.396	88
202.464	-804
202.532	-471
202.600	341
202.669	420
202.737	-370
202.805	-504
202.873	124
202.941	389
203.009	239
203.078	-28
203.146	310
203.214	-816
203.282	-1073
203.350	268
203.418	-441
203.487	-151
203.555	-481
203.623	-600
203.691	266
203.759	-300
203.827	118
203.895	452
203.963	-211
204.031	208
204.099	-41
204.168	-82
204.236	-127
204.304	761
204.372	76
204.440	-543
204.508	-495
204.576	-330
204.644	83
204.712	-583
204.780	-551
204.848	-380
204.916	-147
204.984	140
205.052	179
205.120	139
205.188	-93
205.256	-407
205.324	-902
205.392	-302
205.460	133
205.528	-92
205.596	493
205.664	-423
205.732	-881
205.799	-202
205.867	-230
205.935	-478
206.003	690
206.071	-474
206.139	-188
206.207	106
206.275	-61
206.343	-349
206.411	-470
206.478	-195
206.546	69
206.614	-214
206.682	223
206.750	0
206.818	-47
206.885	35
206.953	-1194
207.021	896
207.089	-9
207.157	-648
207.225	-17
207.292	-1033
207.360	-1045
207.428	-623
207.496	-418
207.563	-678
207.631	-400
207.699	94
207.767	-471
207.834	5
207.902	106
207.970	-362
208.038	220
208.105	30
208.173	478
208.241	223
208.309	551
208.376	624
208.444	-388
208.512	-905
208.579	-568
208.647	-188
208.715	-115
208.782	-936
208.850	-311
208.918	-214
208.985	-779
209.053	-161
209.120	-417
209.188	-332
209.256	-243
209.323	-809
209.391	-202
209.459	905
209.526	-405
209.594	22
209.661	-546
209.729	-451
209.796	849
209.864	-784
209.932	-735
209.999	1306
210.067	238
210.134	-682
210.202	-810
210.269	946
210.337	981
210.404	281
210.472	-107
210.539	-120
210.607	77
210.674	-523
210.742	112
210.809	-322
210.877	-56
210.944	526
211.012	-1100
211.079	784
211.146	-517
211.214	-560
211.281	211
211.349	726
211.416	-96
211.484	33
211.551	-458
211.618	197
211.686	164
211.753	-1112
211.821	-39
211.888	-23
211.955	-265
212.023	-255
212.090	-488
212.157	-234
212.225	-590
212.292	599
212.359	193
212.427	556
212.494	-420
212.561	-476
212.629	-233
212.696	-244
212.763	119
212.831	-1361
212.898	-144
212.965	-384
213.032	-230
213.100	-913
213.167	-241
213.234	-142
213.301	304
213.369	-93
213.436	-339
213.503	132
213.570	397
213.638	-533
213.705	-729
213.772	-841
213.839	-411
213.906	322
213.973	-301
214.041	-993
214.108	271
214.175	284
214.242	307
214.309	-270
214.376	562
214.444	-65
214.511	-413
214.578	-845
214.645	251
214.712	260
214.779	47
214.846	-328
214.913	571
214.980	-264
215.048	1044
215.115	1212
215.182	521
215.249	562
215.316	186
215.383	39
215.450	752
215.517	-188
215.584	-529
215.651	-489
215.718	-260
215.785	401
215.852	-356
215.919	146
215.986	-397
216.053	223
216.120	-344
216.187	-465
216.254	634
216.321	-229
216.388	-309
216.455	-501
216.522	-524
216.589	285
216.656	-379
216.722	-140
216.789	202
216.856	-718
216.923	30
216.990	156
217.057	-348
217.124	501
217.191	-196
217.258	216
217.324	-797
217.391	-700
217.458	-596
217.525	49
217.592	-320
217.659	-1426
217.725	-87
217.792	-539
217.859	410
217.926	-481
217.993	-375
218.059	-204
218.126	-576
218.193	340
218.260	-803
218.327	73
218.393	-704
218.460	-556
218.527	310
218.594	-889
218.660	-372
218.727	574
218.794	-376
218.860	376
218.927	-526
218.994	-784
219.061	-860
219.127	180
219.194	-1026
219.261	31
219.327	-518
219.394	1050
219.461	-164
219.527	322
219.594	-723
219.661	57
219.727	-535
219.794	721
219.860	-438
219.927	531
219.994	1011
220.060	1505
220.127	1776
220.193	910
220.260	15
220.326	1028
220.393	-52
220.460	424
220.526	-258
220.593	-326
220.659	1162
220.726	-181
220.792	846
220.859	-76
220.925	-347
220.992	312
221.058	787
221.125	1443
221.191	327
221.258	-388
221.324	291
221.391	-172
221.457	-890
221.524	-169
221.590	401
221.657	1031
221.723	-232
221.789	-204
221.856	182
221.922	-403
221.989	516
222.055	-32
222.121	-776
222.188	1277
222.254	-90
222.321	-50
222.387	-136
222.453	922
222.520	-31
222.586	-570
222.652	283
222.719	-797
222.785	606
222.851	233
222.918	-786
222.984	-278
223.050	-311
223.116	-1515
223.183	409
223.249	-873
223.315	-871
223.382	177
223.448	-84
223.514	-10
223.580	105
223.647	-1135
223.713	-588
223.779	-558
223.845	-213
223.911	120
223.978	-835
224.044	164
224.110	-977
224.176	36
224.242	-1012
224.309	-1070
224.375	-255
224.441	-98
224.507	-876
224.573	-1263
224.639	387
224.705	-512
224.772	268
224.838	-332
224.904	149
224.970	-403
225.036	-920
225.102	-925
225.168	256
225.234	1345
225.300	-212
225.366	-114
225.432	55
225.499	-93
225.565	-111
225.631	-637
225.697	-946
225.763	43
225.829	147
225.895	-204
225.961	184
226.027	-4
226.093	-75
226.159	432
226.225	299
226.291	763
226.357	1755
226.423	423
226.489	-220
226.554	-150
226.620	325
226.686	-659
226.752	-29
226.818	610
226.884	2590
226.950	2155
227.016	75
227.082	238
227.148	-203
227.214	-34
227.279	296
227.345	594
227.411	1483
227.477	2389
227.543	2823
227.609	3436
227.674	3669
227.740	1308
227.806	605
227.872	256
227.938	579
228.003	-21
228.069	-658
228.135	-241
228.201	-177
228.267	-329
228.332	-433
228.398	-984
228.464	573
228.530	-308
228.595	224
228.661	-913
228.727	-676
228.792	919
228.858	-555
228.924	-1255
228.990	1741
229.055	-813
229.121	398
229.187	427
229.252	-555
229.318	-1301
229.384	121
229.449	-6
229.515	-1486
229.581	-1094
229.646	1646
229.712	-357
229.777	-762
229.843	-567
229.909	-562
229.974	287
230.040	300
230.105	-110
230.171	-848
230.236	-601
230.302	-16
230.368	-689
230.433	-1558
230.499	98
230.564	369
230.630	-1128
230.695	-320
230.761	759
230.826	-2104
230.892	1221
230.957	-1623
231.023	-981
231.088	-606
231.154	471
231.219	36
231.284	-967
231.350	195
231.415	-1437
231.481	-235
231.546	-82
231.612	93
231.677	665
231.742	-1902
231.808	1049
231.873	-731
231.939	-1704
232.004	230
232.069	296
232.135	-342
232.200	-1336
232.265	-174
232.331	-191
232.396	-990
232.461	-625
232.527	-431
232.592	-648
232.657	-343
232.723	-265
232.788	-516
232.853	-23
232.918	-368
232.984	-1095
233.049	-446
233.114	-1050
233.179	362
233.245	326
233.310	238
233.375	-1574
233.440	-567
233.506	-449
233.571	-594
233.636	236
233.701	128
233.766	-513
233.832	-708
233.897	-607
233.962	-1062
234.027	1260
234.092	-362
234.157	-466
234.222	-334
234.288	374
234.353	-823
234.418	279
234.483	1015
234.548	448
234.613	-997
234.678	-18
234.743	-696
234.808	1074
234.873	-2349
234.938	479
235.004	-356
235.069	-651
235.134	-689
235.199	143
235.264	-296
235.329	-1593
235.394	991
235.459	1430
235.524	-1369
235.589	16
235.654	-226
235.719	-1110
235.784	-11
235.849	-13
235.913	-751
235.978	-641
236.043	-338
236.108	-407
236.173	-1538
236.238	45
236.303	11
236.368	-625
236.433	480
236.498	-1232
236.563	8
236.627	639
236.692	2657
236.757	3148
236.822	1010
236.887	-200
236.952	494
237.017	-603
237.081	-114
237.146	-235
237.211	1135
237.276	2683
237.341	6997
237.405	1694
237.470	59
237.535	422
237.600	203
237.664	437
237.729	-1476
237.794	-953
237.859	-143
237.923	-403
237.988	-553
238.053	575
238.118	193
238.182	-1024
238.247	1093
238.312	-383
238.376	-580
238.441	-1691
238.506	804
238.570	-809
238.635	748
238.700	-179
238.764	-756
238.829	19
238.893	-774
238.958	-345
239.023	-217
239.087	-834
239.152	186
239.216	-306
239.281	-300
239.346	209
239.410	-94
239.475	32
239.539	974
239.604	-385
239.668	1002
239.733	1160
239.797	3986
239.862	5806
239.926	6255
239.991	3305
240.055	1207
240.120	543
240.184	561
240.249	-43
240.313	-463
240.378	-323
240.442	-390
240.507	176
240.571	-843
240.635	-961
240.700	64
240.764	-213
240.829	-8
240.893	-568
240.957	225
241.022	41
241.086	192
241.151	-710
241.215	-981
241.279	308
241.344	-695
241.408	7
241.472	-1201
241.537	50
241.601	-212
241.665	-408
241.730	-374
241.794	296
241.858	-237
241.922	-475
241.987	16
242.051	-497
242.115	-1200
242.179	312
242.244	-1219
242.308	410
242.372	-990
242.436	-613
242.501	-222
242.565	-1271
242.629	-1070
242.693	80
242.757	-705
242.822	-472
242.886	565
242.950	351
243.014	-1477
243.078	-319
243.142	-16
243.206	-634
243.271	-557
243.335	-585
243.399	648
243.463	406
243.527	3081
243.591	202
243.655	-476
243.719	-522
243.783	774
243.847	-798
243.911	690
243.975	-1195
244.040	-1621
244.104	1408
244.168	-698
244.232	-666
244.296	-465
244.360	-60
244.424	-1519
244.488	208
244.552	-489
244.615	-993
244.679	370
244.743	-365
244.807	-1320
244.871	-145
244.935	354
244.999	-890
245.063	-1002
245.127	419
245.191	-612
245.255	-208
245.319	74
245.383	-1009
245.446	837
245.510	-1606
245.574	-57
245.638	663
245.702	-1669
245.766	1090
245.829	1085
245.893	-1809
245.957	-1105
246.021	384
246.085	-538
246.149	-228
246.212	803
246.276	233
246.340	-705
246.404	868
246.467	-89
246.531	-2009
246.595	10
246.659	102
246.722	-1597
246.786	-109
246.850	-471
246.913	-516
246.977	-1304
247.041	-82
247.104	-221
247.168	111
247.232	-294
247.295	1088
247.359	-313
247.423	-1285
247.486	-427
247.550	105
247.614	-1145
247.677	243
247.741	-205
247.804	-159
247.868	618
247.932	-1092
247.995	904
248.059	-185
248.122	-274
248.186	689
248.249	197
248.313	1483
248.376	1603
248.440	595
248.503	-1145
248.567	879
248.630	-1038
248.694	-381
248.757	502
248.821	2569
248.884	1627
248.948	278
249.011	1092
249.075	2332
249.138	2856
249.202	62
249.265	-1325
249.328	845
249.392	-897
249.455	-97
249.519	260
249.582	-375
249.645	116
249.709	-145
249.772	-944
249.835	-414
249.899	100
249.962	416
250.025	-559
250.089	60
250.152	1319
250.215	155
250.279	-730
250.342	698
250.405	-625
250.468	-553
250.532	-480
250.595	794
250.658	1701
250.721	6199
250.785	899
250.848	1748
250.911	-15
250.974	844
251.038	-571
251.101	1223
251.164	-443
251.227	620
251.290	-567
251.354	722
251.417	4657
251.480	5772
251.543	2041
251.606	8752
251.669	7046
251.732	1465
251.795	1260
251.859	1757
251.922	5180
251.985	3129
252.048	906
252.111	733
252.174	-613
252.237	503
252.300	2398
252.363	2141
252.426	8587
252.489	2034
252.552	521
252.615	-273
252.678	1168
252.741	2139
252.804	1497
252.867	8191
252.930	3871
252.993	999
253.056	1020
253.119	132
253.182	-94
253.245	-187
253.308	913
253.371	-709
253.434	-179
253.497	183
253.559	942
253.622	35
253.685	-191
253.748	-308
253.811	-1060
253.874	740
253.937	-1214
254.000	26
254.062	-212
254.125	116
254.188	1326
254.251	-149
254.314	-108
254.376	-566
254.439	1129
254.502	-21
254.565	241
254.628	721
254.690	663
254.753	-921
254.816	-792
254.878	-444
254.941	823
255.004	1326
255.067	88
255.129	-1024
255.192	193
255.255	-1403
255.317	-6
255.380	-326
255.443	-364
255.505	-88
255.568	-332
255.631	-563
255.693	294
255.756	-108
255.819	1032
255.881	-205
255.944	555
256.006	-370
256.069	-1126
256.132	-410
256.194	-753
256.257	-175
256.319	-128
256.382	-684
256.444	1402
256.507	1113
256.569	-603
256.632	-423
256.694	-582
256.757	885
256.819	6025
256.882	494
256.944	314
257.007	1269
257.069	-188
257.132	190
257.194	1255
257.257	-93
257.319	-595
257.381	140
257.444	1067
257.506	6313
257.569	8169
257.631	2043
257.693	26
257.756	-57
257.818	-609
257.880	117
257.943	621
258.005	-547
258.067	-403
258.130	-294
258.192	26
258.254	-254
258.317	-1011
258.379	-168
258.441	-524
258.503	442
258.566	-744
258.628	683
258.690	-353
258.753	475
258.815	-524
258.877	-1114
258.939	-505
259.001	-62
259.064	-933
259.126	-280
259.188	-882
259.250	-23
259.312	-388
259.375	-56
259.437	-250
259.499	-409
259.561	-489
259.623	223
259.685	-895
259.747	-92
259.809	664
259.872	629
259.934	408
259.996	935
260.058	13
260.120	-309
260.182	-115
260.244	-773
260.306	-814
260.368	862
260.430	-569
260.492	699
260.554	896
260.616	-828
260.678	236
260.740	460
260.802	-361
260.864	213
260.926	-713
260.988	633
261.050	-1234
261.112	-273
261.174	1179
261.236	8
261.298	-236
261.359	519
261.421	1210
261.483	-677
261.545	498
261.607	-1018
261.669	491
261.731	-65
261.793	512
261.854	-719
261.916	530
261.978	1
262.040	429
262.102	-138
262.164	-171
262.225	-349
262.287	-81
262.349	-522
262.411	245
262.472	624
262.534	-436
262.596	-92
262.658	-255
262.719	-912
262.781	858
262.843	-131
262.904	625
262.966	346
263.028	84
263.090	685
263.151	2124
263.213	904
263.275	139
263.336	447
263.398	296
263.459	-540
263.521	864
263.583	800
263.644	183
263.706	227
263.767	-1302
263.829	1
263.891	-120
263.952	375
264.014	-19
264.075	190
264.137	426
264.198	698
264.260	-1315
264.321	228
264.383	-301
264.444	786
264.506	406
264.567	174
264.629	1028
264.690	-411
264.752	364
264.813	-125
264.875	-111
264.936	452
264.998	-87
265.059	175
265.120	1140
265.182	-316
265.243	2273
265.305	3129
265.366	432
265.427	710
265.489	459
265.550	-601
265.611	-499
265.673	74
265.734	-107
265.795	-39
265.857	-820
265.918	-633
265.979	542
266.040	4371
266.102	4418
266.163	1285
266.224	242
266.286	320
266.347	-48
266.408	-852
266.469	260
266.530	-457
266.592	-282
266.653	725
266.714	-520
266.775	-129
266.836	-168
266.898	-247
266.959	-375
267.020	321
267.081	1562
267.142	522
267.203	-328
267.264	-1278
267.326	85
267.387	-179
267.448	127
267.509	165
267.570	383
267.631	-590
267.692	-1539
267.753	-348
267.814	-84
267.875	-235
267.936	-78
267.997	-193
268.058	33
268.119	-31
268.180	-281
268.241	401
268.302	-364
268.363	-165
268.424	-513
268.485	-347
268.546	-401
268.607	-228
268.668	-705
268.729	247
268.790	-535
268.851	376
268.912	-218
268.972	347
269.033	-644
269.094	-677
269.155	-28
269.216	-104
269.277	688
269.338	219
269.398	-166
269.459	-443
269.520	-410
269.581	-280
269.642	-93
269.702	-316
269.763	-312
269.824	-219
269.885	116
269.945	409
270.006	446
270.067	-624
270.128	-585
270.188	-279
270.249	-737
270.310	-140
270.370	472
270.431	-289
270.492	-515
270.553	-640
270.613	65
270.674	977
270.734	-226
270.795	-285
270.856	-281
270.916	-1112
270.977	546
271.038	370
271.098	452
271.159	-84
271.219	-266
271.280	-91
271.340	-201
271.401	372
271.462	32
271.522	-281
271.583	-729
271.643	241
271.704	-29
271.764	42
271.825	499
271.885	2290
271.946	3332
272.006	1570
272.066	1482
272.127	3468
272.187	5104
272.248	2492
272.308	213
272.369	2117
272.429	304
272.489	1020
272.550	-310
272.610	1115
272.671	-25
272.731	756
272.791	-771
272.852	222
272.912	69
272.972	623
273.033	766
273.093	101
273.153	98
273.214	-377
273.274	304
273.334	801
273.394	2256
273.455	66
273.515	1174
273.575	972
273.635	823
273.696	1179
273.756	1422
273.816	761
273.876	915
273.936	225
273.997	321
274.057	382
274.117	-120
274.177	447
274.237	1877
274.297	1694
274.358	1050
274.418	1192
274.478	1139
274.538	163
274.598	-239
274.658	819
274.718	127
274.778	776
274.838	-123
274.898	226
274.958	587
275.018	2395
275.078	882
275.138	1052
275.198	-332
275.258	-83
275.318	1430
275.378	229
275.438	89
275.498	118
275.558	301
275.618	666
275.678	1257
275.738	1129
275.798	327
275.858	-547
275.918	-21
275.978	286
276.038	52
276.098	533
276.157	664
276.217	1475
276.277	335
276.337	310
276.397	226
276.457	533
276.517	819
276.576	1197
276.636	-576
276.696	929
276.756	614
276.815	678
276.875	218
276.935	393
276.995	675
277.055	362
277.114	1009
277.174	628
277.234	392
277.293	-99
277.353	-165
277.413	62
277.472	88
277.532	1081
277.592	790
277.651	2142
277.711	5649
277.771	1962
277.830	5097
277.890	5663
277.950	2859
278.009	10316
278.069	4231
278.128	3458
278.188	6229
278.248	2391
278.307	5609
278.367	4794
278.426	916
278.486	435
278.545	-108
278.605	252
278.664	135
278.724	-130
278.783	915
278.843	2884
278.902	776
278.962	98
279.021	418
279.081	1118
279.140	1025
279.199	306
279.259	663
279.318	1703
279.378	1552
279.437	1611
279.496	5787
279.556	18586
279.615	15763
279.675	4219
279.734	2377
279.793	2418
279.853	3710
279.912	2402
279.971	1262
280.031	1180
280.090	2113
280.149	3953
280.208	2388
280.268	12375
280.327	14288
280.386	3358
280.445	1993
280.505	1000
280.564	969
280.623	368
280.682	-10
280.742	1834
280.801	742
280.860	266
280.919	452
280.978	248
281.037	435
281.097	-269
281.156	447
281.215	107
281.274	-372
281.333	1608
281.392	939
281.451	635
281.510	64
281.569	518
281.628	967
281.688	-16
281.747	352
281.806	-42
281.865	-631
281.924	371
281.983	352
282.042	-185
282.101	-212
282.160	846
282.219	218
282.278	204
282.337	317
282.396	593
282.454	1221
282.513	50
282.572	907
282.631	1031
282.690	906
282.749	295
282.808	458
282.867	637
282.926	710
282.985	490
283.043	108
283.102	535
283.161	701
283.220	419
283.279	842
283.338	594
283.396	293
283.455	1090
283.514	769
283.573	1274
283.631	33
283.690	-341
283.749	859
283.808	677
283.866	1218
283.925	576
283.984	780
284.043	708
284.101	1261
284.160	491
284.219	1161
284.277	1668
284.336	745
284.395	2589
284.453	2063
284.512	915
284.570	1137
284.629	1895
284.688	1672
284.746	2250
284.805	1979
284.863	2931
284.922	4287
284.981	5502
285.039	7923
285.098	13744
285.156	25357
285.215	31949
285.273	30795
285.332	29748
285.390	17455
285.449	10431
285.507	8375
285.566	5443
285.624	4818
285.683	4196
285.741	2877
285.799	1916
285.858	1906
285.916	1978
285.975	917
286.033	1309
286.091	1032
286.150	667
286.208	465
286.267	1427
286.325	1262
286.383	413
286.442	1241
286.500	182
286.558	1029
286.616	1057
286.675	988
286.733	296
286.791	739
286.850	844
286.908	1085
286.966	1027
287.024	760
287.083	1126
287.141	760
287.199	1283
287.257	615
287.315	1647
287.374	630
287.432	1160
287.490	578
287.548	201
287.606	1265
287.664	486
287.723	1084
287.781	1526
287.839	1380
287.897	-234
287.955	1436
288.013	1185
288.071	1698
288.129	5862
288.187	23271
288.245	10108
288.303	3272
288.361	2267
288.419	803
288.477	661
288.535	633
288.593	405
288.651	1099
288.709	577
288.767	959
288.825	293
288.883	647
288.941	592
288.999	125
289.057	125
289.115	702
289.173	760
289.231	876
289.289	255
289.346	164
289.404	704
289.462	562
289.520	764
289.578	740
289.636	1012
289.694	-241
289.751	65
289.809	490
289.867	1126
289.925	1506
289.983	742
290.040	300
290.098	454
290.156	340
290.214	1453
290.271	794
290.329	862
290.387	1520
290.444	709
290.502	681
290.560	1125
290.617	446
290.675	736
290.733	975
290.790	1230
290.848	1730
290.906	556
290.963	329
291.021	817
291.078	434
291.136	299
291.194	501
291.251	1660
291.309	658
291.366	332
291.424	564
291.481	449
291.539	372
291.596	838
291.654	345
291.711	909
291.769	571
291.826	883
291.884	1505
291.941	1083
291.999	516
292.056	562
292.114	246
292.171	383
292.228	817
292.286	1533
292.343	930
292.401	368
292.458	894
292.515	706
292.573	1531
292.630	1373
292.687	1036
292.745	811
292.802	566
292.859	1334
292.917	1422
292.974	1189
293.031	1031
293.089	508
293.146	848
293.203	748
293.260	1145
293.318	963
293.375	963
293.432	-353
293.489	577
293.546	1157
293.604	1247
293.661	1197
293.718	3309
293.775	2276
293.832	1381
293.889	1287
293.947	1152
294.004	876
294.061	169
294.118	1256
294.175	2217
294.232	3081
294.289	1027
294.346	1176
294.403	1247
294.460	463
294.517	1711
294.574	355
294.631	589
294.688	574
294.745	1138
294.802	2780
294.859	3602
294.916	1344
294.973	572
295.030	397
295.087	772
295.144	336
295.201	638
295.258	941
295.315	810
295.372	1782
295.429	2157
295.486	1146
295.542	937
295.599	2115
295.656	2486
295.713	1294
295.770	1919
295.827	1154
295.883	1054
295.940	367
295.997	493
296.054	365
296.111	1250
296.167	2188
296.224	470
296.281	341
296.338	186
296.394	578
296.451	19
296.508	1145
296.564	1664
296.621	1726
296.678	3140
296.734	3806
296.791	1217
296.848	1708
296.904	874
296.961	1673
297.018	3084
297.074	2348
297.131	864
297.187	464
297.244	903
297.301	3195
297.357	5217
297.414	2533
297.470	1097
297.527	1649
297.583	1204
297.640	1048
297.696	850
297.753	791
297.809	600
297.866	-61
297.922	459
297.979	806
298.035	369
298.092	902
298.148	2176
298.204	2524
298.261	1180
298.317	1840
298.374	3557
298.430	1896
298.486	873
298.543	1197
298.599	1275
298.656	1070
298.712	194
298.768	2220
298.824	1881
298.881	1623
298.937	759
298.993	579
299.050	500
299.106	55
299.162	882
299.218	1090
299.275	14
299.331	735
299.387	1466
299.443	4505
299.500	12308
299.556	9664
299.612	3581
299.668	3588
299.724	9087
299.780	12228
299.837	5011
299.893	3945
299.949	7649
300.005	12171
300.061	9217
300.117	14235
300.173	6965
300.229	2722
300.285	2829
300.341	2182
300.397	1577
300.453	1302
300.510	1449
300.566	3155
300.622	3198
300.678	14653
300.734	20087
300.790	8894
300.845	6686
300.901	7638
300.957	12693
301.013	6583
301.069	2379
301.125	1870
301.181	1187
301.237	1750
301.293	406
301.349	1312
301.405	416
301.461	959
301.516	1040
301.572	609
301.628	525
301.684	1041
301.740	1425
301.796	1928
301.851	1032
301.907	1948
301.963	1916
302.019	2998
302.074	8799
302.130	8305
302.186	4283
302.242	997
302.297	1425
302.353	1013
302.409	1858
302.464	1327
302.520	1620
302.576	2029
302.631	3396
302.687	1569
302.743	766
302.798	1225
302.854	260
302.910	837
302.965	302
303.021	701
303.076	1081
303.132	1015
303.187	918
303.243	1148
303.299	699
303.354	565
303.410	1653
303.465	858
303.521	426
303.576	548
303.632	783
303.687	1140
303.743	2139
303.798	3567
303.853	1145
303.909	637
303.964	1333
304.020	509
304.075	323
304.130	359
304.186	687
304.241	2587
304.297	1796
304.352	67
304.358	107
304.407	434
304.449	613
304.463	673
304.518	711
304.539	776
304.573	876
304.629	1028
304.630	1026
304.684	970
304.720	1546
304.739	1829
304.794	3669
304.811	3180
304.850	1951
304.902	361
304.905	263
304.960	1267
304.992	1276
305.015	1261
305.071	1515
305.083	1328
305.126	647
305.173	871
305.181	916
305.236	788
305.264	700
305.292	594
305.347	580
305.354	580
305.402	608
305.445	310
305.457	202
305.512	558
305.535	599
305.567	744
305.622	468
305.626	503
305.678	1230
305.716	2071
305.733	2323
305.788	3027
305.807	2765
305.843	2503
305.897	3582
305.898	3591
305.953	3113
305.988	2065
306.008	1534
306.063	811
306.078	941
306.118	1415
306.168	749
306.173	682
306.228	798
306.259	1047
306.283	1173
306.338	385
306.349	518
306.393	1346
306.440	1527
306.448	1534
306.503	1087
306.530	1174
306.558	1354
306.613	1170
306.620	1277
306.668	1976
306.711	2112
306.723	2049
306.778	2496
306.801	1968
306.833	1363
306.888	1089
306.892	1125
306.943	1692
306.982	1038
306.997	737
307.052	549
307.072	442
307.107	477
307.162	566
307.163	566
307.217	929
307.253	1144
307.272	1099
307.327	1520
307.343	1367
307.381	1181
307.434	1374
307.436	1403
307.491	2006
307.524	2302
307.546	2340
307.600	2698
307.614	2520
307.655	1726
307.704	1880
307.710	1948
307.765	1502
307.795	1620
307.819	1766
307.874	2105
307.885	2136
307.929	2097
307.975	2261
307.984	2415
308.038	3834
308.065	4441
308.093	8160
308.148	16833
308.156	18926
308.202	30465
308.246	39536
308.257	38125
308.312	17838
308.336	10457
308.366	7692
308.421	5016
308.426	4746
308.475	2948
308.517	2554
308.530	2589
308.585	1959
308.607	1936
308.639	1986
308.694	1899
308.697	1938
308.748	3305
308.787	3613
308.803	3342
308.857	2721
308.877	2529
308.912	2762
308.967	2767
308.967	2767
309.021	4356
309.058	5487
309.076	6597
309.130	10853
309.148	12285
309.185	26592
309.238	50670
309.239	50846
309.293	56024
309.328	51639
309.348	43837
309.402	19484
309.418	13524
309.457	10166
309.508	6294
309.511	6204
309.566	6324
309.598	6109
309.620	6913
309.674	9907
309.688	10622
309.729	10326
309.778	9340
309.783	9167
309.837	6882
309.868	5285
309.892	4847
309.946	4824
309.959	4768
310.001	5455
310.049	6199
310.055	5992
310.109	4034
310.139	2843
310.163	2517
310.218	1908
310.229	1822
310.272	2035
310.319	2194
310.326	2157
310.381	1843
310.409	1674
310.435	1737
310.489	1933
310.499	1952
310.543	2049
310.589	2203
310.598	2216
310.652	2311
310.679	2328
310.706	2172
310.760	1716
310.769	1646
310.814	1858
310.859	2108
310.868	2111
310.923	2117
310.948	2100
310.977	2338
311.031	2710
311.038	2771
311.085	2206
311.128	1596
311.139	1664
311.193	2038
311.218	2156
311.247	2459
311.301	3058
311.308	3141
311.356	2772
311.398	2273
311.410	2289
311.464	2384
311.488	2397
311.518	2189
311.572	1882
311.578	1837
311.626	1901
311.668	2002
311.680	2151
311.734	2697
311.758	2975
311.788	2773
311.842	2360
311.847	2312
311.896	2691
311.937	3012
311.950	3049
312.004	3169
312.027	3222
312.058	3004
312.112	2598
312.117	2553
312.165	2844
312.207	3085
312.297	2065
312.386	2089
312.476	2646
312.566	3055
312.656	3692
312.745	2092
312.835	2778
312.925	2642
313.015	2662
313.104	3690
313.194	2911
313.284	3689
313.374	3189
313.463	3951
313.553	3875
313.643	3476
313.732	3519
313.822	3905
313.912	4772
314.001	5164
314.091	4902
314.180	4857
314.270	5253
314.360	5349
314.449	4270
314.539	4326
314.628	4774
314.718	5128
314.808	5096
314.897	5718
314.987	6025
315.076	6126
315.166	5980
315.255	5301
315.345	5526
315.434	5044
315.524	5679
315.613	6079
315.703	6545
315.792	13638
315.881	42991
315.971	13927
316.060	7700
316.150	6313
316.239	6052
316.328	5151
316.418	5068
316.507	5651
316.597	6716
316.686	7224
316.775	6573
316.865	6178
316.954	4832
317.043	4370
317.133	3763
317.222	4494
317.311	3119
317.400	2890
317.490	4563
317.579	4635
317.668	4788
317.757	7529
317.847	20865
317.936	65630
318.025	20765
318.114	17604
318.203	8612
318.293	6239
318.382	9378
318.471	9123
318.560	9840
318.649	14004
318.738	5241
318.828	4268
318.917	3073
319.006	4503
319.095	4744
319.184	13078
319.273	7184
319.362	3467
319.451	2772
319.540	2182
319.629	3329
319.718	4556
319.807	3599
319.896	5792
319.985	17939
320.074	8049
320.163	3677
320.252	4404
320.341	5005
320.430	5167
320.519	5302
320.608	5064
320.697	6105
320.786	6556
320.875	6902
320.964	8840
321.053	8777
321.142	9639
321.230	11338
321.319	11857
321.408	14607
321.497	12506
321.586	11787
321.675	10030
321.764	9912
321.852	10179
321.941	10052
322.030	9988
322.119	10678
322.207	13799
322.296	14555
322.385	15458
322.474	16623
322.562	17919
322.651	14153
322.740	10982
322.829	10243
322.917	8803
323.006	8132
323.095	7105
323.183	6079
323.272	6762
323.361	6621
323.449	12136
323.538	5471
323.626	8441
323.715	7289
323.804	4972
323.892	6947
323.981	5100
324.069	4668
324.158	5955
324.246	6596
324.335	5348
324.424	4685
324.512	4616
324.601	5180
324.689	4463
324.778	5245
324.866	4662
324.954	3881
325.043	4180
325.131	3353
325.220	6076
325.308	4967
325.397	4377
325.485	4352
325.574	2978
325.662	3406
325.750	3411
325.839	4327
325.927	3023
326.015	3249
326.104	3268
326.192	3727
326.280	3842
326.369	3277
326.457	3410
326.545	3451
326.634	3678
326.722	3200
326.810	4358
326.898	4531
326.987	4973
327.075	4168
327.163	4511
327.251	3676
327.340	4734
327.428	7031
327.516	6493
327.604	5662
327.692	5541
327.781	3256
327.869	3779
327.957	2849
328.045	2939
328.133	2531
328.221	2867
328.309	3630
328.397	2959
328.485	4632
328.574	6481
328.662	9869
328.750	6031
328.838	4190
328.926	4721
329.014	3559
329.102	2900
329.190	4306
329.278	3058
329.366	3037
329.454	2723
329.542	3199
329.630	2516
329.718	3172
329.806	2569
329.893	3277
329.981	2391
330.069	3303
330.157	3092
330.245	4142
330.333	3510
330.421	4022
330.509	3301
330.597	4225
330.684	3083
330.772	4030
330.860	3652
330.948	4419
331.036	3524
331.123	2538
331.211	2957
331.299	2844
331.387	4905
331.475	5030
331.562	3811
331.650	2846
331.738	2738
331.825	3328
331.913	2941
332.001	2485
332.089	3251
332.176	4032
332.264	4817
332.352	4469
332.439	3733
332.527	3722
332.614	3155
332.702	3332
332.790	3451
332.877	4193
332.965	5500
333.052	4651
333.140	4892
333.228	6683
333.315	4183
333.403	4432
333.490	5135
333.578	5214
333.665	9202
333.753	6342
333.840	5227
333.928	6354
334.015	7791
334.103	11376
334.190	21426
334.278	15891
334.365	20267
334.452	19572
334.540	13960
334.627	14032
334.715	17373
334.802	24635
334.889	40974
334.977	50451
335.064	31603
335.151	15890
335.239	12996
335.326	10373
335.413	16942
335.501	19250
335.588	11708
335.675	12582
335.762	15137
335.850	20357
335.937	28835
336.024	45326
336.111	70936
336.199	58729
336.286	29849
336.373	17483
336.460	11753
336.547	9534
336.635	8385
336.722	6872
336.809	6370
336.896	6225
336.983	8082
337.070	13671
337.157	19893
337.245	10235
337.332	8562
337.419	5467
337.506	5965
337.593	5033
337.680	7353
337.767	13094
337.854	5723
337.941	5752
338.028	5359
338.115	4047
338.202	6001
338.289	5196
338.376	8114
338.463	5964
338.550	7828
338.637	8428
338.724	4528
338.811	4673
338.898	3654
338.984	3524
339.071	3554
339.158	4244
339.245	3695
339.332	3977
339.419	3760
339.506	3308
339.593	2506
339.679	3968
339.766	3684
339.853	2866
339.940	3829
340.027	3651
340.113	3401
340.200	3788
340.287	3193
340.374	2690
340.460	4018
340.547	2663
340.634	3818
340.720	4786
340.807	3494
340.894	3601
340.980	3929
341.067	3175
341.154	4309
341.240	3002
341.327	4184
341.414	4064
341.500	3523
341.587	3835
341.674	4024
341.760	3543
341.847	4121
341.933	2768
342.020	2815
342.106	3050
342.193	3552
342.279	3330
342.366	3410
342.452	3755
342.539	3314
342.625	3787
342.712	4525
342.798	3740
342.885	2845
342.971	2856
343.058	3044
343.144	2280
343.230	3509
343.317	3540
343.403	2863
343.490	3392
343.576	2892
343.662	3723
343.749	2394
343.835	3337
343.921	4026
344.008	12174
344.094	23612
344.180	6918
344.267	3832
344.353	6186
344.439	6146
344.525	3554
344.612	3976
344.698	3863
344.784	3336
344.870	3114
344.957	3016
345.043	4018
345.129	3129
345.215	4121
345.301	2719
345.387	3150
345.474	2688
345.560	2979
345.646	3070
345.732	3664
345.818	2721
345.904	3253
345.990	3475
346.076	3677
346.162	2480
346.249	3409
346.335	3650
346.421	4231
346.507	4442
346.593	9158
346.679	3566
346.765	4269
346.851	7285
346.937	5221
347.023	4917
347.108	3070
347.194	3573
347.280	3542
347.366	4451
347.452	14299
347.538	20488
347.624	12607
347.710	7850
347.796	4338
347.882	4403
347.967	4167
348.053	2465
348.139	3267
348.225	2813
348.311	2800
348.397	3825
348.482	4953
348.568	4325
348.654	6836
348.740	18261
348.825	20834
348.911	9620
348.997	7916
349.083	11842
349.168	4242
349.254	3455
349.340	3761
349.425	3568
349.511	3087
349.597	3519
349.682	3535
349.768	7052
349.854	4340
349.939	4283
350.025	3429
350.110	4896
350.196	3324
350.282	3694
350.367	3605
350.453	4043
350.538	3032
350.624	2888
350.709	4128
350.795	2912
350.880	2908
350.966	3584
351.051	3925
351.137	4053
351.222	3298
351.308	4192
351.393	4609
351.479	3670
351.564	2206
351.649	3247
351.735	3580
351.820	2824
351.906	2742
351.991	2686
352.076	3812
352.162	5437
352.247	3500
352.332	3093
352.418	3601
352.503	4281
352.588	7136
352.673	4994
352.759	3079
352.844	2890
352.929	3256
353.014	2479
353.100	3529
353.185	3585
353.270	3053
353.355	3150
353.441	2991
353.526	3654
353.611	3283
353.696	3424
353.781	3850
353.866	2162
353.952	3667
354.037	2777
354.122	3897
354.207	2835
354.292	3627
354.377	3289
354.462	2876
354.547	2215
354.632	3335
354.717	3620
354.802	1969
354.887	2326
354.972	3426
355.057	3367
355.142	2373
355.227	3405
355.312	3011
355.397	3343
355.482	4114
355.567	3581
355.652	4105
355.737	3767
355.822	5756
355.907	5367
355.991	4108
356.076	2312
356.161	3659
356.246	2816
356.331	3128
356.416	3370
356.501	13373
356.585	10974
356.670	3235
356.755	5617
356.840	3897
356.924	8510
357.009	23390
357.094	9877
357.179	2829
357.263	3348
357.348	4988
357.433	4266
357.517	3719
357.602	3973
357.687	3404
357.771	4214
357.856	4374
357.941	4708
358.025	7967
358.110	28366
358.195	13541
358.279	4721
358.364	4018
358.448	5912
358.533	9472
358.617	6688
358.702	7610
358.787	4465
358.871	4178
358.956	4202
359.040	3764
359.125	3210
359.209	3594
359.294	5317
359.378	7248
359.462	6153
359.547	4511
359.631	3539
359.716	3264
359.800	4008
359.885	4612
359.969	3018
360.053	4886
360.138	4048
360.222	3743
360.306	3647
360.391	4268
360.475	4192
360.559	5519
360.644	5705
360.728	3929
360.812	8690
360.896	17176
360.981	7538
361.065	4779
361.149	5275
361.233	4393
361.318	3601
361.402	4699
361.486	4593
361.570	4036
361.654	4881
361.739	5072
361.823	12974
361.907	19499
361.991	8710
362.075	8632
362.159	12357
362.243	23167
362.327	54199
362.411	74191
362.495	30519
362.580	15658
362.664	15149
362.748	17134
362.832	27161
362.916	52206
363.000	129607
363.084	166080
363.168	76734
363.252	26909
363.336	15656
363.420	13694
363.503	19068
363.587	19902
363.671	10344
363.755	9015
363.839	12426
363.923	11543
364.007	15554
364.091	20752
364.175	33053
364.258	78489
364.342	150716
364.426	228530
364.510	127792
364.594	46588
364.677	24683
364.761	23550
364.845	17227
364.929	8910
365.013	7220
365.096	7855
365.180	6318
365.264	9339
365.347	23471
365.431	11515
365.515	5910
365.598	4122
365.682	6416
365.766	4904
365.849	6581
365.933	5335
366.017	6544
366.100	4324
366.184	4636
366.267	5378
366.351	5405
366.435	4665
366.518	4411
366.602	4915
366.685	4991
366.769	5282
366.852	5728
366.936	5727
367.019	5538
367.103	3708
367.186	6774
367.270	5390
367.353	5219
367.436	5994
367.520	5359
367.603	6273
367.687	4549
367.770	5686
367.853	6058
367.937	7652
368.020	9629
368.104	4429
368.187	5581
368.270	5102
368.353	3921
368.437	4861
368.520	6560
368.603	5396
368.687	5017
368.770	8405
368.853	3912
368.936	4883
369.020	5531
369.103	3787
369.186	3903
369.269	3887
369.352	4587
369.436	4127
369.519	3605
369.602	2760
369.685	5673
369.768	3242
369.851	4025
369.934	3192
370.018	3999
370.101	2672
370.184	5370
370.267	3745
370.350	4192
370.433	4364
370.516	12772
370.599	26648
370.682	11386
370.765	7051
370.848	7840
370.931	8230
371.014	5960
371.097	2807
371.180	4614
371.263	3613
371.346	2874
371.429	4302
371.511	3232
371.594	3788
371.677	4819
371.760	5738
371.843	4465
371.926	12102
372.009	23468
372.091	10521
372.174	6272
372.257	11767
372.340	6129
372.423	5825
372.505	7402
372.588	3856
372.671	5770
372.754	8167
372.836	6463
372.919	7546
373.002	11720
373.085	4354
373.167	5757
373.250	6449
373.332	10983
373.415	16637
373.498	30645
373.580	16765
373.663	40381
373.746	43628
373.828	10084
373.911	7059
373.993	5208
374.076	12856
374.159	12128
374.241	6306
374.324	9255
374.406	9234
374.489	12411
374.571	25300
374.654	11511
374.736	8337
374.819	16167
374.901	24862
374.983	23853
375.066	7884
375.148	7427
375.231	12633
375.313	19430
375.395	9371
375.478	6844
375.560	6452
375.643	7491
375.725	9079
375.807	19348
375.890	17261
375.972	6087
376.054	6785
376.136	6159
376.219	5619
376.301	8111
376.383	14700
376.465	7989
376.548	4869
376.630	6447
376.712	12882
376.794	7344
376.877	4550
376.959	3343
377.041	3871
377.123	4410
377.205	5691
377.287	3391
377.369	4765
377.452	3918
377.534	3998
377.616	4132
377.698	3637
377.780	3880
377.862	4136
377.944	4864
378.026	3653
378.108	4626
378.190	3670
378.272	4426
378.354	3229
378.436	3229
378.518	3806
378.600	5731
378.682	5292
378.764	5355
378.846	6340
378.928	4178
379.010	2991
379.091	4082
379.173	4306
379.255	3053
379.337	3498
379.419	4737
379.501	9496
379.583	5182
379.664	3041
379.746	2743
379.828	7010
379.910	5918
379.991	7731
380.073	3883
380.155	4580
380.237	3497
380.318	3773
380.400	3384
380.482	4772
380.564	4073
380.645	3746
380.727	3556
380.809	4853
380.890	3142
380.972	2113
381.053	4050
381.135	5483
381.217	3757
381.298	7084
381.380	4778
381.461	5283
381.543	12491
381.624	14703
381.706	5319
381.787	4179
381.869	5597
381.951	8739
382.032	23720
382.113	16653
382.195	4488
382.276	6336
382.358	6288
382.439	12259
382.521	15382
382.602	23921
382.684	11710
382.765	17058
382.846	27559
382.928	51412
383.009	29996
383.090	23409
383.172	76035
383.253	107061
383.334	35899
383.416	22768
383.497	15538
383.578	12681
383.659	22122
383.741	71271
383.822	158415
383.903	79821
383.984	22063
384.066	22477
384.147	14025
384.228	10096
384.309	8724
384.390	8432
384.471	8351
384.553	7849
384.634	6888
384.715	7433
384.796	5238
384.877	5547
384.958	9041
385.039	8334
385.120	6414
385.201	6898
385.282	6577
385.363	7983
385.444	6882
385.525	8566
385.606	14000
385.687	12984
385.768	8244
385.849	7639
385.930	15618
386.011	24122
386.092	10249
386.173	7652
386.254	7573
386.335	8052
386.416	7674
386.496	8235
386.577	10271
386.658	8126
386.739	6822
386.820	8677
386.901	6865
386.981	10374
387.062	9491
387.143	9966
387.224	13254
387.304	15824
387.385	14299
387.466	11777
387.547	13652
387.627	13328
387.708	15468
387.789	18971
387.869	19348
387.950	13727
388.031	10811
388.111	7806
388.192	10862
388.273	11619
388.353	8735
388.434	7781
388.514	7873
388.595	15457
388.676	16093
388.756	9915
388.837	9126
388.917	7548
388.998	4776
389.078	6270
389.159	6515
389.239	4830
389.320	7900
389.400	3662
389.480	7271
389.561	9286
389.641	7896
389.722	6128
389.802	5608
389.883	7659
389.963	11193
390.043	8977
390.124	5331
390.204	6774
390.284	8830
390.365	6289
390.445	8802
390.525	12577
390.605	10395
390.686	6114
390.766	6559
390.846	7361
390.927	5827
391.007	6229
391.087	6502
391.167	5658
391.247	5813
391.328	7963
391.408	8490
391.488	7986
391.568	5366
391.648	6846
391.728	8705
391.808	9354
391.888	8174
391.969	9924
392.049	11347
392.129	11141
392.209	12044
392.289	16756
392.369	14736
392.449	15949
392.529	15692
392.609	16691
392.689	19453
392.769	25801
392.849	30299
392.929	37160
393.009	51090
393.089	71606
393.169	123054
393.248	253812
393.328	439129
393.408	430367
393.488	256443
393.568	120637
393.648	66116
393.728	42506
393.807	29947
393.887	26188
393.967	20848
394.047	17280
394.127	14401
394.206	15376
394.286	25522
394.366	87590
394.446	93432
394.525	23648
394.605	11894
394.685	11676
394.764	13687
394.844	25464
394.924	31468
395.003	14581
395.083	8747
395.163	8112
395.242	8019
395.322	8139
395.402	6603
395.481	9948
395.561	12626
395.640	37133
395.720	67198
395.799	41458
395.879	21215
395.958	14643
396.038	30890
396.117	112734
396.197	123166
396.276	38871
396.356	22416
396.435	25431
396.515	32495
396.594	47395
396.673	91660
396.753	225207
396.832	396697
396.912	320157
396.991	132716
397.070	60911
397.150	34543
397.229	30816
397.308	51951
397.388	95399
397.467	49726
397.546	17889
397.625	11072
397.705	11884
397.784	9512
397.863	8720
397.942	8101
398.022	7176
398.101	9052
398.180	15070
398.259	10646
398.338	7022
398.417	6331
398.497	5395
398.576	6570
398.655	4430
398.734	5225
398.813	5153
398.892	7304
398.971	15325
399.050	8728
399.129	4121
399.208	5056
399.287	4549
399.366	3757
399.445	3515
399.524	3935
399.603	2653
399.682	4503
399.761	5127
399.840	14864
399.919	12798
399.998	4320
400.077	2617
400.156	3593
400.235	6144
400.313	2348
400.392	2620
400.471	5202
400.550	6152
400.629	3056
400.708	3771
400.786	2771
400.865	4444
400.944	4261
401.023	5054
401.102	2252
401.180	3466
401.259	2640
401.338	2501
401.416	3900
401.495	2055
401.574	3509
401.652	2182
401.731	4115
401.810	2558
401.888	2661
401.967	2687
402.046	2739
402.124	3044
402.203	2514
402.281	3463
402.360	2856
402.438	4912
402.517	2965
402.596	3757
402.674	2242
402.753	3096
402.831	3174
402.910	3410
402.988	3658
403.066	4722
403.145	5260
403.223	4814
403.302	5026
403.380	5469
403.459	4902
403.537	4334
403.615	3647
403.694	2419
403.772	4073
403.850	2882
403.929	3455
404.007	3205
404.085	5282
404.164	2637
404.242	3642
404.320	5952
404.398	11994
404.477	10690
404.555	16471
404.633	14513
404.711	9062
404.789	7271
404.868	3298
404.946	1649
405.024	2804
405.102	2764
405.180	2940
405.258	1603
405.336	3614
405.415	2530
405.493	3941
405.571	3756
405.649	2044
405.727	1283
405.805	5006
405.883	4091
405.961	4095
406.039	2313
406.117	2449
406.195	3229
406.273	3327
406.351	10856
406.429	7616
406.507	2535
406.585	2609
406.663	2720
406.740	3127
406.818	2037
406.896	2119
406.974	3450
407.052	1854
407.130	6629
407.208	8758
407.285	4549
407.363	2004
407.441	2975
407.519	2580
407.596	3368
407.674	9762
407.752	39898
407.830	30636
407.907	6427
407.985	2598
408.063	3642
408.141	2421
408.218	3591
408.296	2273
408.373	2909
408.451	3354
408.529	2843
408.606	4133
408.684	4274
408.762	4497
408.839	4555
408.917	4196
408.994	4364
409.072	5219
409.149	7002
409.227	11803
409.304	17157
409.382	19947
409.459	21613
409.537	27622
409.614	26346
409.692	21664
409.769	20267
409.846	27940
409.924	33774
410.001	24883
410.079	19549
410.156	15313
410.233	10841
410.311	8822
410.388	8337
410.465	7548
410.543	6535
410.620	6922
410.697	6236
410.775	5300
410.852	4993
410.929	6709
411.006	7609
411.083	5431
411.161	4803
411.238	6271
411.315	5052
411.392	5313
411.469	5616
411.547	4394
411.624	2369
411.701	3990
411.778	3580
411.855	4221
411.932	2835
412.009	3047
412.086	3933
412.163	3533
412.240	3062
412.317	4233
412.394	3325
412.471	3849
412.548	2860
412.625	2857
412.702	2422
412.779	3426
412.856	2899
412.933	1956
413.010	3804
413.087	2898
413.164	3338
413.241	4176
413.318	2675
413.395	3802
413.471	1843
413.548	2316
413.625	2858
413.702	1703
413.779	2273
413.855	2414
413.932	2262
414.009	1188
414.086	2283
414.162	2219
414.239	2304
414.316	3392
414.393	5700
414.469	1788
414.546	2043
414.623	2080
414.699	1901
414.776	1393
414.853	1567
414.929	2454
415.006	1724
415.082	2438
415.159	1760
415.236	2605
415.312	2951
415.389	2194
415.465	1716
415.542	2458
415.618	638
415.695	2475
415.771	2114
415.848	1303
415.924	2577
416.000	1931
416.077	3466
416.153	1146
416.230	1248
416.306	1138
416.383	1436
416.459	2836
416.535	1900
416.612	1781
416.688	1466
416.764	1783
416.841	1513
416.917	1723
416.993	2030
417.069	1872
417.146	1250
417.222	1137
417.298	2377
417.374	1719
417.451	2799
417.527	2543
417.603	1363
417.679	2355
417.755	2088
417.831	1331
417.908	2296
417.984	2562
418.060	837
418.136	3024
418.212	2691
418.288	3431
418.364	2919
418.440	1485
418.516	2687
418.592	1795
418.668	3232
418.744	2341
418.820	3426
418.896	3187
418.972	1896
419.048	2187
419.124	3373
419.200	1506
419.276	2877
419.352	2618
419.428	2278
419.504	2912
419.579	2176
419.655	2438
419.731	2945
419.807	3816
419.883	3996
419.959	4346
420.034	3810
420.110	4136
420.186	5581
420.262	6648
420.337	4926
420.413	4734
420.489	5592
420.565	6403
420.640	6144
420.716	6677
420.792	5531
420.867	6694
420.943	7099
421.019	7527
421.094	8103
421.170	9623
421.245	8261
421.321	10054
421.397	11396
421.472	18412
421.548	35407
421.623	26231
421.699	18829
421.774	20684
421.850	22338
421.925	26742
422.001	31251
422.076	38453
422.152	47847
422.227	60137
422.302	81775
422.378	114129
422.453	158823
422.529	208454
422.604	200363
422.679	140554
422.755	185652
422.830	209526
422.905	164205
422.981	119893
423.056	89450
423.131	69023
423.207	52974
423.282	42303
423.357	34838
423.432	29311
423.508	24644
423.583	21159
423.658	19094
423.733	17907
423.808	15802
423.883	15052
423.959	16097
424.034	17408
424.109	16623
424.184	12561
424.259	10177
424.334	8741
424.409	8341
424.484	7703
424.559	6772
424.634	6273
424.709	5537
424.784	6634
424.859	5210
424.934	4991
425.009	5372
425.084	6435
425.159	5054
425.234	4677
425.309	3918
425.384	5413
425.459	4012
425.534	4064
425.609	2613
425.683	3304
425.758	3866
425.833	3842
425.908	4236
425.983	3522
426.058	4515
426.132	3896
426.207	3192
426.282	5008
426.357	2301
426.431	2618
426.506	3262
426.581	3242
426.655	3699
426.730	2967
426.805	2416
426.879	2525
426.954	2508
427.029	2763
427.103	4630
427.178	8576
427.253	4845
427.327	2556
427.402	2465
427.476	3455
427.551	2319
427.625	2792
427.700	3002
427.774	1996
427.849	2779
427.923	2733
427.998	2958
428.072	4220
428.147	9279
428.221	35803
428.296	103604
428.370	58585
428.444	10659
428.519	4900
428.593	5130
428.667	5303
428.742	6614
428.816	14392
428.890	64929
428.965	94388
429.039	26664
429.113	7366
429.188	3576
429.262	3483
429.336	3178
429.410	4025
429.485	3426
429.559	4219
429.633	3799
429.707	5523
429.781	13651
429.855	62655
429.930	85687
430.004	27726
430.078	21693
430.152	49484
430.226	136220
430.300	127968
430.374	34687
430.448	11900
430.522	9759
430.596	15152
430.670	24593
430.744	81533
430.818	83903
430.892	17921
430.966	4619
431.040	3155
431.114	2394
431.188	2229
431.262	2303
431.336	2075
431.410	2913
431.484	3536
431.557	3501
431.631	2925
431.705	6987
431.779	29895
431.853	97829
431.927	66221
432.000	11908
432.074	4424
432.148	2438
432.222	1743
432.295	2698
432.369	1304
432.443	1292
432.516	3884
432.590	7135
432.664	3512
432.737	482
432.811	1004
432.885	527
432.958	1171
433.032	373
433.106	1111
433.179	595
433.253	296
433.326	572
433.400	906
433.473	1351
433.547	312
433.620	1376
433.694	-317
433.767	1928
433.841	589
433.914	819
433.988	1528
434.061	1440
434.134	1056
434.208	892
434.281	966
434.355	89
434.428	837
434.501	1312
434.575	1163
434.648	1344
434.721	1006
434.795	1153
434.868	1347
434.941	826
435.014	1025
435.088	1596
435.161	2666
435.234	2291
435.307	3014
435.381	4821
435.454	7059
435.527	11965
435.600	13150
435.673	12254
435.746	9507
435.819	7355
435.892	5446
435.966	4192
436.039	3029
436.112	3743
436.185	2566
436.258	1814
436.331	1106
436.404	1753
436.477	2125
436.550	931
436.623	1512
436.696	1726
436.769	1168
436.842	935
436.915	690
436.987	1906
437.060	1660
437.133	1422
437.206	269
437.279	1576
437.352	764
437.425	244
437.498	720
437.570	1012
437.643	266
437.716	888
437.789	478
437.861	1602
437.934	1815
438.007	750
438.080	1111
438.152	324
438.225	1825
438.298	5156
438.370	11877
438.443	5536
438.516	442
438.588	885
438.661	1013
438.734	1359
438.806	1007
438.879	1053
438.951	818
439.024	1460
439.096	1028
439.169	685
439.241	754
439.314	501
439.386	1214
439.459	737
439.531	943
439.604	493
439.676	1017
439.749	716
439.821	767
439.893	886
439.966	811
440.038	870
440.110	1166
440.183	457
440.255	159
440.327	2036
440.400	2286
440.472	5867
440.544	4335
440.617	1542
440.689	2273
440.761	1176
440.833	1400
440.905	1700
440.978	807
441.050	964
441.122	1962
441.194	644
441.266	1184
441.338	1392
441.411	1464
441.483	2098
441.555	2823
441.627	2160
441.699	1350
441.771	1219
441.843	775
441.915	769
441.987	1677
442.059	1991
442.131	3311
442.203	4665
442.275	4780
442.347	8872
442.419	21860
442.491	83760
442.563	152217
442.635	64937
442.706	16982
442.778	8264
442.850	5516
442.922	5055
442.994	5330
443.066	5757
443.137	7563
443.209	8489
443.281	15112
443.353	32625
443.425	96377
443.496	218506
443.568	222476
443.640	100485
443.711	29162
443.783	12767
443.855	8871
443.926	6002
443.998	4611
444.070	3617
444.141	3677
444.213	3536
444.285	3848
444.356	3070
444.428	3017
444.499	2352
444.571	3508
444.642	3408
444.714	3078
444.785	3700
444.857	4257
444.928	5807
445.000	6534
445.071	7621
445.143	9747
445.214	14661
445.285	26878
445.357	62272
445.428	163484
445.500	245299
445.571	211906
445.642	147991
445.714	57011
445.785	21474
445.856	10279
445.928	7048
445.999	4961
446.070	3363
446.141	4556
446.213	2452
446.284	2632
446.355	2789
446.426	1271
446.497	1960
446.569	1548
446.640	1407
446.711	2220
446.782	1236
446.853	1157
446.924	1134
446.995	1107
447.066	70
447.138	1320
447.209	1212
447.280	30
447.351	715
447.422	-368
447.493	560
447.564	551
447.635	337
447.706	626
447.777	650
447.847	661
447.918	38
447.989	563
448.060	475
448.131	1079
448.202	465
448.273	504
448.344	857
448.414	620
448.485	37
448.556	-411
448.627	620
448.698	1446
448.768	82
448.839	634
448.910	818
448.981	580
449.051	1045
449.122	664
449.193	318
449.263	668
449.334	694
449.405	524
449.475	325
449.546	1189
449.616	1261
449.687	1953
449.758	325
449.828	25
449.899	745
449.969	283
450.040	-248
450.110	-118
450.181	767
450.251	441
450.322	1058
450.392	694
450.463	361
450.533	-158
450.604	712
450.674	804
450.744	1195
450.815	1221
450.885	2275
450.955	2182
451.026	908
451.096	1413
451.166	1412
451.237	1990
451.307	3413
451.377	2780
451.447	353
451.518	1018
451.588	868
451.658	1175
451.728	347
451.799	1877
451.869	2233
451.939	51
452.009	25
452.079	452
452.149	1443
452.219	787
452.289	2344
452.360	1117
452.430	1152
452.500	2229
452.570	4460
452.640	11482
452.710	25535
452.780	29408
452.850	16349
452.920	7202
452.990	3934
453.060	2911
453.129	1905
453.199	1666
453.269	3280
453.339	4569
453.409	5881
453.479	6928
453.549	8935
453.619	9395
453.688	2555
453.758	1022
453.828	731
453.898	372
453.968	664
454.037	811
454.087	438
454.107	281
454.168	408
454.177	418
454.247	-61
454.249	-49
454.316	-73
454.330	-26
454.386	162
454.411	353
454.456	600
454.492	701
454.525	806
454.574	1261
454.595	1461
454.655	562
454.665	402
454.734	1023
454.736	1021
454.804	558
454.817	907
454.873	2320
454.898	1903
454.943	1126
454.979	590
455.013	90
455.060	689
455.082	936
455.141	203
455.152	63
455.221	1992
455.222	1993
455.291	1582
455.303	1627
455.360	1636
455.384	2309
455.430	3335
455.465	2381
455.499	1558
455.546	1700
455.569	1726
455.627	1464
455.638	1431
455.707	306
455.708	321
455.777	925
455.789	890
455.846	782
455.869	941
455.916	1170
455.950	901
455.985	559
456.031	354
456.054	287
456.112	587
456.124	659
456.193	940
456.193	929
456.262	875
456.274	949
456.332	1441
456.355	1362
456.401	1015
456.436	920
456.470	856
456.516	1351
456.540	1580
456.597	862
456.609	731
456.678	1107
456.678	1096
456.747	1071
456.759	1024
456.817	912
456.840	935
456.886	971
456.920	1167
456.955	1340
457.001	1573
457.024	1655
457.082	1190
457.093	1124
457.162	1467
457.163	1479
457.232	1747
457.243	1753
457.301	1946
457.324	1822
457.370	1554
457.405	2005
457.439	2428
457.485	2956
457.508	3202
457.566	3474
457.577	3699
457.646	5784
457.647	5823
457.715	12763
457.727	14629
457.784	25978
457.808	35292
457.853	46908
457.889	55078
457.922	56591
457.969	37747
457.991	36099
458.050	41081
458.060	42149
458.129	74812
458.130	75735
458.198	80990
458.211	72882
458.267	40577
458.292	28489
458.336	17510
458.372	16396
458.405	21310
458.453	31889
458.474	39659
458.533	71405
458.543	73870
458.611	119929
458.614	120338
458.680	78992
458.694	63402
458.749	28102
458.775	20108
458.818	11171
458.855	8246
458.887	6578
458.936	5722
458.955	5360
459.016	4278
459.024	4186
459.093	4085
459.097	4058
459.162	3032
459.177	2963
459.230	2971
459.257	3083
459.299	3197
459.338	2991
459.368	3026
459.418	3043
459.437	2851
459.499	2772
459.505	2794
459.574	2770
459.579	2782
459.643	2852
459.659	2815
459.711	2748
459.740	2721
459.780	2637
459.820	2804
459.849	2891
459.900	2848
459.917	2827
459.981	2657
459.986	2630
460.054	2537
460.061	2572
460.123	2833
460.141	2710
460.191	2762
460.222	3125
460.260	3309
460.302	2814
460.328	2564
460.382	2965
460.397	3218
460.462	3975
460.465	4118
460.534	7670
460.543	8139
460.602	21005
460.623	26486
460.671	40539
460.703	54070
460.739	50219
460.783	38141
460.808	32264
460.864	8775
460.876	6537
460.944	3417
460.945	3378
461.013	2765
461.024	2699
461.081	2817
461.104	2879
461.150	2947
461.184	2912
461.218	2822
461.264	2926
461.286	3020
461.345	2771
461.355	2722
461.423	3161
461.425	3154
461.491	2908
461.505	2969
461.559	2740
461.585	2551
461.628	2936
461.665	3330
461.696	3557
461.745	4203
461.764	4069
461.825	2851
461.832	2865
461.901	3164
461.905	3215
461.969	2886
461.985	2756
462.037	3338
462.065	3533
462.105	2819
462.145	2488
462.173	2885
462.225	3339
462.241	3269
462.305	3050
462.310	3064
462.378	3279
462.385	3262
462.446	3160
462.465	3167
462.514	2825
462.545	2690
462.582	2611
462.625	2706
462.650	2983
462.705	3250
462.718	3161
462.785	2744
462.786	2737
462.854	2391
462.865	2290
462.922	2320
462.945	2437
462.990	2879
463.025	2957
463.058	2836
463.104	2931
463.126	2758
463.184	2394
463.194	2509
463.262	3230
463.264	3241
463.330	3299
463.344	3423
463.398	3998
463.424	4010
463.466	3192
463.504	2703
463.533	2807
463.583	2885
463.601	2748
463.663	2343
463.669	2388
463.737	2756
463.743	2781
463.805	2981
463.823	3118
463.873	3573
463.903	3837
463.940	4078
463.982	4152
464.008	3800
464.062	3076
464.076	2999
464.142	2585
464.144	2606
464.211	3583
464.221	3668
464.279	3396
464.301	3332
464.347	3487
464.381	3557
464.414	3365
464.461	3203
464.482	3268
464.540	3537
464.550	3512
464.617	2777
464.620	2767
464.685	3112
464.699	3118
464.753	3427
464.779	3583
464.820	3433
464.859	3283
464.888	2880
464.938	2223
464.956	2585
465.018	3843
465.023	3816
465.091	3350
465.098	3299
465.158	3362
465.177	3390
465.226	3431
465.257	3428
465.293	3596
465.336	3807
465.361	3819
465.416	3664
465.428	3629
465.495	3664
465.496	3670
465.563	3542
465.575	3507
465.631	4161
465.654	4512
465.698	4341
465.734	4039
465.765	3837
465.813	3544
465.833	3602
465.893	3830
465.900	3778
465.968	3150
465.972	3108
466.035	2810
466.052	2722
466.102	2962
466.131	3111
466.170	3210
466.210	3254
466.237	3400
466.290	3702
466.304	3727
466.369	3784
466.372	3796
466.439	4004
466.449	4020
466.506	3983
466.528	3954
466.573	4081
466.607	4175
466.641	4472
466.687	4909
466.708	5090
466.766	5562
466.775	5397
466.842	4032
466.845	3963
466.909	4111
466.925	4139
466.977	4278
467.004	4347
467.044	4405
467.083	4470
467.111	4713
467.163	5117
467.178	5100
467.242	5009
467.245	5017
467.312	5057
467.321	5057
467.379	5108
467.400	5110
467.446	4902
467.480	4738
467.559	5340
467.638	4998
467.717	4055
467.796	5099
467.875	5531
467.955	4761
468.034	5901
468.113	7950
468.192	10287
468.271	10531
468.350	15073
468.429	20297
468.508	21797
468.588	12312
468.667	7476
468.746	7008
468.825	5888
468.904	5471
468.983	5106
469.062	5271
469.141	4909
469.220	4404
469.299	4587
469.378	4466
469.456	5131
469.535	4839
469.614	4441
469.693	3788
469.772	5886
469.851	4857
469.930	5010
470.009	4726
470.088	4195
470.166	4920
470.245	6126
470.324	5603
470.403	5535
470.482	4827
470.560	5004
470.639	5025
470.718	5266
470.797	4059
470.875	4158
470.954	4168
471.033	5862
471.111	4383
471.190	3755
471.269	4436
471.347	4699
471.426	3539
471.505	4233
471.583	4364
471.662	4368
471.740	4018
471.819	4406
471.898	4620
471.976	4844
472.055	4072
472.133	4887
472.212	6867
472.290	3983
472.369	4124
472.447	5249
472.526	4019
472.604	4981
472.683	4188
472.761	4803
472.839	3415
472.918	4573
472.996	4094
473.075	5210
473.153	4546
473.231	4361
473.310	5157
473.388	4505
473.466	4871
473.545	4982
473.623	6002
473.701	4652
473.780	4876
473.858	3477
473.936	6305
474.014	5149
474.093	5893
474.171	6720
474.249	5860
474.327	4761
474.405	4033
474.484	4960
474.562	4856
474.640	4567
474.718	4935
474.796	4315
474.874	4637
474.952	4793
475.030	4835
475.108	4901
475.187	4390
475.265	5155
475.343	4639
475.421	4951
475.499	3526
475.577	4401
475.655	5279
475.733	5131
475.811	4744
475.889	5007
475.966	4761
476.044	4014
476.122	3579
476.200	4688
476.278	4175
476.356	3498
476.434	4219
476.512	3735
476.590	3772
476.667	5308
476.745	3924
476.823	4062
476.901	4059
476.979	4110
477.056	4358
477.134	3233
477.212	4213
477.290	4438
477.367	3402
477.445	3985
477.523	4331
477.601	3990
477.678	4088
477.756	4476
477.834	4108
477.911	4087
477.989	4809
478.066	4563
478.144	3921
478.222	3606
478.299	4230
478.377	5535
478.454	5359
478.532	3558
478.609	3943
478.687	4008
478.764	3910
478.842	3762
478.919	3753
478.997	4536
479.074	3737
479.152	4590
479.229	4597
479.307	3672
479.384	3929
479.461	4629
479.539	3754
479.616	4609
479.694	3765
479.771	4603
479.848	3252
479.926	2883
480.003	5201
480.080	3498
480.157	4461
480.235	4082
480.312	4440
480.389	4547
480.467	4014
480.544	4777
480.621	5595
480.698	5376
480.775	4543
480.853	5147
480.930	3829
481.007	4429
481.084	7491
481.161	9200
481.238	6414
481.315	5308
481.392	4280
481.470	4173
481.547	4739
481.624	4164
481.701	4578
481.778	4794
481.855	4184
481.932	5019
482.009	5938
482.086	6362
482.163	6912
482.240	8095
482.317	6712
482.393	6172
482.470	5740
482.547	6432
482.624	4847
482.701	5500
482.778	5048
482.855	5467
482.932	5157
483.009	6483
483.085	7530
483.162	9855
483.239	9779
483.316	7182
483.393	7383
483.469	7477
483.546	6272
483.623	5821
483.699	5910
483.776	4636
483.853	4395
483.930	5109
484.006	5216
484.083	7952
484.160	6983
484.236	8584
484.313	8239
484.389	6552
484.466	8922
484.543	9334
484.619	11655
484.696	14201
484.772	9393
484.849	7302
484.925	6066
485.002	6382
485.078	6154
485.155	5190
485.231	4540
485.308	5048
485.384	5605
485.461	6266
485.537	6092
485.614	6607
485.690	4026
485.766	5855
485.843	4332
485.919	5248
485.995	4427
486.072	5711
486.148	5200
486.224	5357
486.301	4943
486.377	5495
486.453	4681
486.530	6099
486.606	7327
486.682	5699
486.758	5848
486.835	7358
486.911	6690
486.987	8250
487.063	8989
487.139	9456
487.215	11854
487.292	12444
487.368	12406
487.444	14805
487.520	21275
487.596	32524
487.672	80100
487.748	242157
487.824	360664
487.900	123018
487.976	32712
488.052	16515
488.128	12364
488.204	9808
488.280	8620
488.356	7890
488.432	7819
488.508	7695
488.584	5819
488.660	5072
488.736	5437
488.812	5602
488.888	5616
488.964	4759
489.039	5480
489.115	6575
489.191	6753
489.267	5392
489.343	5219
489.418	4832
489.494	4178
489.570	3370
489.646	5935
489.722	4667
489.797	4970
489.873	5480
489.949	6755
490.024	6188
490.100	3855
490.176	5217
490.251	5075
490.327	5057
490.403	4854
490.478	4845
490.554	4738
490.629	4880
490.705	4764
490.781	4979
490.856	4178
490.932	5216
491.007	5036
491.083	3893
491.158	4406
491.234	4473
491.309	5521
491.385	4383
491.460	3116
491.536	5173
491.611	4828
491.686	4182
491.762	3585
491.837	4426
491.913	4565
491.988	5658
492.063	4843
492.139	3808
492.214	4095
492.289	4218
492.365	3857
492.440	4099
492.515	3544
492.590	4370
492.666	3309
492.741	3717
492.816	4390
492.891	3055
492.967	3784
493.042	4097
493.117	3183
493.192	3890
493.267	4675
493.342	8738
493.418	9892
493.493	3930
493.568	2889
493.643	3415
493.718	3917
493.793	3599
493.868	3137
493.943	4115
494.018	3393
494.093	3936
494.168	3852
494.243	2999
494.318	4282
494.393	4455
494.468	3014
494.543	3546
494.618	2753
494.693	3497
494.768	3182
494.842	3542
494.917	3858
494.992	2793
495.067	3606
495.142	2665
495.217	4385
495.292	4431
495.366	3221
495.441	3852
495.516	4090
495.591	3868
495.665	5340
495.740	7409
495.815	4785
495.890	3720
495.964	1982
496.039	5485
496.114	5111
496.188	9460
496.263	6786
496.338	3659
496.412	3578
496.487	3829
496.561	2871
496.636	3415
496.710	3196
496.785	4173
496.860	4258
496.934	3617
497.009	3844
497.083	4483
497.158	3557
497.232	3645
497.307	3694
497.381	3481
497.455	4021
497.530	4518
497.604	2499
497.679	3584
497.753	3555
497.827	3028
497.902	3189
497.976	4652
498.050	7132
498.125	20823
498.199	19836
498.273	5097
498.348	3485
498.422	4318
498.496	4129
498.570	4163
498.645	3405
498.719	2407
498.793	4288
498.867	4205
498.941	4323
499.016	8960
499.090	20266
499.164	9256
499.238	3874
499.312	3839
499.386	3915
499.460	4441
499.534	3465
499.609	4613
499.683	3464
499.757	4280
499.831	5856
499.905	14367
499.979	13812
500.053	3618
500.127	4578
500.201	3210
500.275	4035
500.349	3454
500.422	3979
500.496	4676
500.570	4676
500.644	9978
500.718	13351
500.792	5957
500.866	2968
500.940	3555
501.013	3091
501.087	3027
501.161	4558
501.235	2348
501.309	6693
501.382	12419
501.456	11775
501.530	4487
501.603	5468
501.677	3286
501.751	1235
501.825	5770
501.898	4259
501.972	5616
502.046	4547
502.119	2621
502.193	4572
502.266	5839
502.340	5005
502.413	4307
502.487	5792
502.561	3108
502.634	4220
502.708	3803
502.781	2393
502.855	3753
502.928	2338
503.002	3723
503.075	3187
503.149	3516
503.222	3967
503.295	3939
503.369	3848
503.442	4788
503.516	7265
503.589	11185
503.662	9665
503.736	8840
503.809	12932
503.882	15940
503.956	23308
504.029	49743
504.102	138295
504.175	204925
504.249	79551
504.322	28181
504.395	14793
504.468	9491
504.542	6403
504.615	5466
504.688	4344
504.761	3390
504.834	5492
504.907	4108
504.980	3128
505.053	3165
505.127	748
505.200	5801
505.273	1859
505.346	2467
505.419	2417
505.492	4115
505.565	2122
505.638	3487
505.711	2761
505.784	2191
505.857	2102
505.930	5082
506.003	1356
506.076	4280
506.149	2216
506.221	643
506.294	4511
506.367	1845
506.440	6800
506.513	5216
506.586	2650
506.659	2255
506.731	1892
506.804	2241
506.877	1456
506.950	2415
507.022	2632
507.095	740
507.168	2605
507.241	3336
507.313	2296
507.386	1167
507.459	3443
507.531	1591
507.604	1561
507.677	2844
507.749	310
507.822	3761
507.894	2605
507.967	4545
508.040	2363
508.112	3565
508.185	2799
508.257	853
508.330	3970
508.402	2805
508.475	2103
508.547	2911
508.620	2113
508.692	2414
508.765	2906
508.837	2034
508.909	2498
508.982	3104
509.054	3143
509.127	2425
509.199	2276
509.271	2191
509.344	1977
509.416	2346
509.488	2149
509.560	2789
509.633	1928
509.705	3306
509.777	2874
509.849	3462
509.922	2245
509.994	2136
510.066	4166
510.138	1109
510.210	4474
510.283	2351
510.355	3329
510.427	2775
510.499	3124
510.571	2420
510.643	1311
510.715	3917
510.787	988
510.859	4212
510.931	2046
511.003	2616
511.076	3080
511.148	1754
511.219	1618
511.291	3367
511.363	3637
511.435	3106
511.507	1203
511.579	3812
511.651	3604
511.723	2316
511.795	2188
511.867	2351
511.939	2278
512.010	2077
512.082	3409
512.154	1753
512.226	2018
512.298	3885
512.369	2886
512.441	3235
512.513	3909
512.585	1410
512.656	3350
512.728	2940
512.800	2648
512.871	3523
512.943	2595
513.015	2356
513.086	2792
513.158	3161
513.230	1886
513.301	2497
513.373	3562
513.444	3153
513.516	3150
513.588	2295
513.659	3394
513.731	2895
513.802	1041
513.874	4732
513.945	3063
514.016	1587
514.088	2904
514.159	1264
514.231	2647
514.302	2855
514.374	2626
514.445	1479
514.516	4731
514.588	2578
514.659	2593
514.730	2274
514.802	4020
514.873	931
514.944	5239
515.016	2637
515.087	2159
515.158	3793
515.229	3865
515.301	2497
515.372	2958
515.443	2180
515.514	2576
515.585	2482
515.656	3436
515.728	3253
515.799	2934
515.870	3471
515.941	3282
516.012	2618
516.083	4570
516.154	2600
516.225	4010
516.296	5167
516.367	2556
516.438	3430
516.509	3593
516.580	5953
516.651	18422
516.722	49360
516.793	21836
516.864	6490
516.935	6401
517.006	7755
517.077	8011
517.148	17454
517.219	74728
517.289	111509
517.360	19942
517.431	8069
517.502	4577
517.573	5042
517.643	4577
517.714	4710
517.785	4950
517.856	4917
517.926	8100
517.997	8048
518.068	7816
518.138	12663
518.209	15886
518.280	56371
518.350	188629
518.421	76774
518.492	19135
518.562	19635
518.633	26327
518.703	41625
518.774	101553
518.845	259016
518.915	239856
518.986	67865
519.056	26988
519.127	16418
519.197	12348
519.268	12969
519.338	11970
519.408	6384
519.479	5628
519.549	4486
519.620	6107
519.690	4547
519.760	3916
519.831	3979
519.901	4326
519.971	4914
520.042	3410
520.112	3070
520.182	4625
520.253	4038
520.323	1934
520.393	2245
520.463	5431
520.534	520
520.604	5174
520.674	4762
520.744	2923
520.814	2671
520.885	4964
520.955	4626
521.025	8867
521.095	4736
521.165	3313
521.235	2703
521.305	2058
521.375	3798
521.445	4273
521.515	2280
521.585	4439
521.655	1724
521.725	3657
521.795	4838
521.865	274
521.935	4836
522.005	2803
522.075	2798
522.145	4017
522.215	2869
522.285	3811
522.355	3485
522.424	4884
522.494	3049
522.564	3996
522.634	3794
522.704	5423
522.774	3154
522.843	4344
522.913	3929
522.983	3198
523.053	2542
523.122	4075
523.192	3005
523.262	3393
523.331	3177
523.401	4390
523.471	3587
523.540	3901
523.610	2410
523.680	4085
523.749	3946
523.819	4799
523.888	4448
523.958	3963
524.027	4448
524.097	4335
524.166	4294
524.236	2400
524.305	5708
524.375	3402
524.444	2848
524.514	6126
524.583	3656
524.653	3276
524.722	5127
524.791	2497
524.861	5784
524.930	3117
524.999	3682
525.069	5882
525.138	5194
525.207	4662
525.277	6349
525.346	6093
525.415	7093
525.484	6935
525.554	7777
525.623	11249
525.692	14353
525.761	15622
525.830	19207
525.900	24848
525.969	41112
526.038	81422
526.107	171558
526.176	473476
526.245	365019
526.314	110851
526.383	235866
526.452	318806
526.522	441135
526.591	390206
526.660	68811
526.729	37268
526.797	40301
526.867	60357
526.935	182021
527.004	622612
527.073	393644
527.142	59306
527.211	23682
527.280	16319
527.349	11262
527.418	7757
527.487	8736
527.555	6287
527.624	5784
527.693	4314
527.762	6633
527.831	4749
527.899	5884
527.968	4509
528.037	2146
528.106	4988
528.174	4995
528.243	5775
528.312	4905
528.380	4984
528.449	3637
528.518	5201
528.586	2921
528.655	5069
528.723	4638
528.792	4119
528.861	4316
528.929	2903
528.998	5509
529.066	5271
529.135	8295
529.203	6826
529.272	8734
529.340	11577
529.409	12260
529.477	9656
529.545	8971
529.614	13364
529.682	10584
529.751	12181
529.819	15823
529.887	16237
529.956	14576
530.024	15116
530.092	12149
530.161	12876
530.229	13601
530.297	14228
530.365	16413
530.434	14789
530.502	15232
530.570	15105
530.638	12176
530.707	11529
530.775	12579
530.843	11886
530.911	13198
530.979	13712
531.047	14274
531.115	14990
531.183	13584
531.252	12962
531.320	11725
531.388	11691
531.456	13317
531.524	13635
531.592	15576
531.660	19044
531.728	14965
531.796	15365
531.864	14501
531.932	14500
532.000	13932
532.067	15830
532.135	16953
532.203	18219
532.271	17760
532.339	18754
532.407	17573
532.475	17637
532.542	17554
532.610	17360
532.678	16622
532.746	20122
532.814	23445
532.881	20001
532.949	17723
533.017	16516
533.084	16401
533.152	15295
533.220	15968
533.287	14819
533.355	16311
533.423	16845
533.490	16193
533.558	15319
533.625	15513
533.693	14839
533.761	15956
533.828	15081
533.896	13356
533.963	16475
534.031	17370
534.098	19425
534.166	18739
534.233	18108
534.300	20527
534.368	19721
534.435	17815
534.503	19637
534.570	20786
534.637	22804
534.705	25916
534.772	29500
534.840	53144
534.907	210157
534.974	253138
535.041	38852
535.109	20726
535.176	16402
535.243	16947
535.310	17404
535.378	15695
535.445	15597
535.512	15735
535.579	14949
535.646	13420
535.714	14132
535.781	16152
535.848	15232
535.915	16421
535.982	14964
536.049	14903
536.116	15535
536.183	13351
536.250	12982
536.317	12672
536.384	14743
536.451	14634
536.518	13638
536.585	12721
536.652	15962
536.719	15369
536.786	12530
536.853	12663
536.920	14806
536.987	13895
537.053	12086
537.120	16659
537.187	16953
537.254	15045
537.321	13830
537.388	15889
537.454	13758
537.521	12535
537.588	12586
537.654	14625
537.721	14935
537.788	15419
537.855	12518
537.921	13600
537.988	13254
538.055	14114
538.121	12066
538.188	12869
538.254	11113
538.321	12339
538.388	14097
538.454	14921
538.521	14691
538.587	14683
538.654	13160
538.720	12981
538.787	13367
538.853	14154
538.920	12727
538.986	11885
539.053	11297
539.119	12823
539.185	11626
539.252	13389
539.318	13147
539.385	15475
539.451	12797
539.517	12984
539.583	14326
539.650	12293
539.716	13289
539.782	12843
539.849	11376
539.915	13238
539.981	12692
540.047	12536
540.114	11887
540.180	13100
540.246	11748
540.312	14150
540.378	12396
540.444	14420
540.510	13689
540.576	14062
540.643	12675
540.709	12026
540.775	12314
540.841	12535
540.907	11346
540.973	12799
541.039	11903
541.105	13200
541.171	13025
541.237	12621
541.303	13581
541.369	14679
541.435	13303
541.500	12840
541.566	10781
541.632	12272
541.698	11574
541.764	12091
541.830	11592
541.896	12238
541.961	13339
542.027	12556
542.093	13021
542.159	14131
542.224	11394
542.290	13074
542.356	11834
542.421	12367
542.487	12762
542.553	10684
542.618	10972
542.684	11852
542.750	12255
542.815	14454
542.881	12376
542.947	14713
543.012	14000
543.078	11707
543.143	10984
543.209	11720
543.274	10200
543.340	11914
543.405	12704
543.471	11624
543.536	12737
543.602	12830
543.667	10758
543.732	13813
543.798	12121
543.863	13455
543.928	12544
543.994	12130
544.059	13207
544.124	13484
544.190	12563
544.255	14058
544.320	13200
544.386	13262
544.451	14756
544.516	14073
544.581	13307
544.646	14252
544.712	15553
544.777	15124
544.842	14534
544.907	14492
544.972	14051
545.037	15184
545.102	15524
545.168	15280
545.233	15217
545.298	17575
545.363	16443
545.428	16023
545.493	18630
545.558	16676
545.623	17405
545.688	17845
545.753	17366
545.818	18023
545.883	20230
545.947	19895
546.012	20819
546.077	21284
546.142	22394
546.207	22025
546.272	24508
546.337	25817
546.401	25497
546.466	27812
546.531	27504
546.596	30271
546.661	31077
546.725	32979
546.790	34053
546.855	38052
546.919	40883
546.984	46335
547.049	49918
547.113	56893
547.178	62732
547.243	72172
547.307	82481
547.372	91515
547.436	91066
547.501	96298
547.565	103263
547.630	95602
547.695	92128
547.759	92583
547.823	93020
547.888	94558
547.952	98531
548.017	102076
548.081	106485
548.146	102427
548.210	105376
548.274	113591
548.339	112108
548.403	101064
548.468	94974
548.532	94368
548.596	98039
548.660	97430
548.725	108766
548.789	112943
548.853	112196
548.917	106191
548.982	104506
549.046	93420
549.110	85846
549.174	87812
549.238	101454
549.303	112328
549.367	116090
549.431	108842
549.495	102743
549.559	103154
549.623	119570
549.687	130068
549.751	125707
549.815	150060
549.879	152939
549.943	146610
550.007	153739
550.071	152762
550.135	136160
550.199	130934
550.263	128804
550.327	121667
550.391	125273
550.455	139664
550.519	145755
550.582	155240
550.646	173268
550.710	175136
550.774	173482
550.838	173968
550.901	179255
550.965	190828
551.029	198690
551.093	212281
551.156	228723
551.220	252630
551.284	270341
551.347	218445
551.411	191347
551.475	182585
551.538	186516
551.602	177815
551.666	168406
551.729	158337
551.793	156865
551.856	151626
551.920	150058
551.983	150897
552.047	146992
552.110	149129
552.174	150406
552.237	155022
552.301	144601
552.364	139516
552.428	134444
552.491	139146
552.554	143249
552.618	140788
552.681	143178
552.745	136782
552.808	143225
552.871	150260
552.934	144403
552.998	141228
553.061	140369
553.124	134735
553.187	133214
553.251	138464
553.314	139645
553.377	138502
553.440	147892
553.503	154133
553.567	155477
553.630	151526
553.693	148644
553.756	150710
553.819	146870
553.882	142195
553.945	142589
554.008	144188
554.071	144306
554.134	146697
554.197	136125
554.260	136884
554.323	136867
554.386	139913
554.449	144683
554.512	145518
554.575	137768
554.638	137421
554.701	137750
554.764	136392
554.827	132344
554.889	125588
554.952	119245
555.015	116938
555.078	119925
555.141	121915
555.203	118140
555.266	116881
555.329	118083
555.391	113612
555.454	111329
555.517	107814
555.580	101833
555.642	100424
555.705	98296
555.768	98720
555.830	96661
555.893	91645
555.955	88665
556.018	86836
556.080	87800
556.143	88914
556.206	87873
556.268	86766
556.330	83061
556.393	82588
556.455	79787
556.518	78880
556.580	76144
556.643	73462
556.705	70448
556.767	70148
556.830	69424
556.892	68033
556.955	67039
557.017	65427
557.079	65494
557.142	64037
557.204	62239
557.266	62417
557.328	58469
557.391	54479
557.453	53201
557.515	54167
557.577	54491
557.639	53826
557.701	54469
557.764	53917
557.826	52723
557.888	55847
557.950	57682
558.012	62275
558.074	77476
558.136	155994
558.198	330860
558.260	132207
558.322	57451
558.384	58219
558.446	59719
558.508	61606
558.570	67418
558.632	78057
558.694	99486
558.756	163120
558.818	414040
558.880	786442
558.942	361288
559.003	354779
559.065	178306
559.127	73552
559.189	67915
559.251	76000
559.312	106685
559.374	235858
559.436	613047
559.498	320294
559.559	85427
559.621	68787
559.683	79329
559.744	124093
559.806	348808
559.868	478001
559.929	123003
559.991	77422
560.052	121854
560.114	320612
560.176	209471
560.237	192066
560.299	291442
560.360	72121
560.422	32864
560.483	27994
560.545	27204
560.606	24908
560.667	24617
560.729	22791
560.790	21563
560.852	21191
560.913	21269
560.974	21150
561.036	20359
561.097	20402
561.158	19767
561.220	20220
561.281	18714
561.342	18040
561.403	19037
561.465	17091
561.526	18315
561.587	18978
561.648	16422
561.709	16366
561.771	17414
561.832	16470
561.893	16261
561.954	15174
562.015	15329
562.076	14525
562.137	14879
562.198	14838
562.259	15808
562.320	15855
562.381	15382
562.442	16377
562.503	15403
562.564	14675
562.625	14052
562.686	13951
562.747	13667
562.808	14185
562.869	13841
562.930	13581
562.991	13419
563.051	13511
563.112	12900
563.173	12808
563.234	12243
563.294	13128
563.355	13407
563.416	13046
563.477	12593
563.537	12347
563.598	12375
563.659	12804
563.720	11712
563.780	12699
563.841	12320
563.901	12581
563.962	11529
564.023	12116
564.083	12094
564.144	12203
564.204	11248
564.265	10584
564.325	11908
564.386	13322
564.446	11859
564.507	11793
564.567	10852
564.628	11224
564.688	10511
564.749	10683
564.809	11563
564.869	10882
564.930	11377
564.990	11983
565.050	10205
565.111	11752
565.171	10234
565.231	10685
565.292	11530
565.352	10308
565.412	11559
565.472	10638
565.532	10596
565.593	10476
565.653	10253
565.713	10288
565.773	10357
565.833	11063
565.893	11700
565.953	10487
566.013	10260
566.074	9605
566.134	9875
566.194	9889
566.254	10128
566.314	10160
566.374	9719
566.434	9901
566.494	9841
566.554	10428
566.614	10244
566.673	10980
566.733	11332
566.793	11002
566.853	11074
566.913	10575
566.973	10529
567.033	11200
567.092	10281
567.152	10004
567.212	11004
567.272	10930
567.331	10981
567.391	11687
567.451	12700
567.511	11733
567.570	11839
567.630	11107
567.690	10222
567.749	10729
567.809	10771
567.868	10253
567.928	11033
567.988	10513
568.047	10794
568.107	10476
568.166	11884
568.226	11133
568.285	11071
568.345	10920
568.404	12792
568.464	11975
568.523	10538
568.582	11421
568.642	11265
568.701	10431
568.761	10364
568.820	10276
568.879	10556
568.939	11311
568.998	10745
569.057	10684
569.116	10262
569.176	11307
569.235	10276
569.294	10600
569.353	11491
569.413	10131
569.472	9755
569.531	9969
569.590	9557
569.649	10720
569.708	9317
569.767	10474
569.827	10478
569.886	9537
569.945	9776
570.004	10305
570.063	10599
570.122	10475
570.181	10895
570.240	10741
570.299	9905
570.358	11344
570.417	10761
570.475	10462
570.534	11232
570.593	10698
570.652	11252
570.711	10227
570.770	10521
570.829	10528
570.887	10802
570.946	10975
571.005	11248
571.064	11127
571.122	11030
571.181	10584
571.240	11054
571.299	10087
571.357	10754
571.416	10469
571.475	10006
571.533	11504
571.592	11728
571.650	12061
571.709	12224
571.768	12659
571.826	13548
571.885	12807
571.943	10690
572.002	11407
572.060	10727
572.119	10238
572.177	11197
572.236	10010
572.294	11186
572.352	11861
572.411	11533
572.469	11656
572.528	10879
572.586	10835
572.644	10876
572.703	11125
572.761	10411
572.819	10212
572.877	10611
572.936	9165
572.994	9044
573.052	9379
573.110	9269
573.169	11025
573.227	10755
573.285	10473
573.343	10464
573.401	10104
573.459	10630
573.517	10411
573.576	10718
573.634	10188
573.692	9099
573.750	9832
573.808	9216
573.866	9816
573.924	10050
573.982	9598
574.040	9520
574.098	9498
574.155	9024
574.213	8558
574.271	10018
574.329	10662
574.387	8850
574.445	9179
574.503	9054
574.560	8882
574.618	8385
574.676	8795
574.734	8239
574.792	8673
574.849	8054
574.907	7014
574.965	7784
575.022	7438
575.080	6614
575.138	7909
575.195	7300
575.253	6816
575.311	7294
575.368	7802
575.426	5938
575.483	8340
575.541	7390
575.598	7202
575.656	7700
575.713	7271
575.771	7804
575.828	7008
575.886	6954
575.943	7045
576.001	6991
576.058	6726
576.115	6667
576.173	6821
576.230	7299
576.287	7646
576.345	7318
576.402	6719
576.459	7374
576.517	6662
576.574	6847
576.631	6384
576.688	6516
576.746	7240
576.803	6586
576.860	6412
576.917	6848
576.974	7339
577.031	6928
577.089	7032
577.146	6199
577.203	6695
577.260	6575
577.317	6372
577.374	6320
577.431	7244
577.488	6031
577.545	5545
577.602	5287
577.659	7284
577.716	6642
577.773	6250
577.830	6128
577.886	6840
577.943	6698
578.000	6797
578.057	5946
578.114	6370
578.171	7100
578.227	7249
578.284	6666
578.341	7698
578.398	6588
578.454	7671
578.511	6367
578.568	7131
578.625	5743
578.681	6401
578.738	6427
578.794	6737
578.851	6571
578.908	6053
578.964	6717
579.021	7661
579.077	6222
579.134	6116
579.190	6636
579.247	6991
579.303	6948
579.360	5592
579.416	6625
579.473	5857
579.529	7030
579.586	6888
579.642	6769
579.698	7151
579.755	6191
579.811	6891
579.867	7154
579.924	7118
579.980	6490
580.036	7832
580.093	8022
580.149	9440
580.205	9938
580.261	7844
580.317	9107
580.374	8233
580.430	8639
580.486	8289
580.542	7328
580.598	7350
580.619	7532
580.654	7856
580.692	8026
580.710	8120
580.765	7857
580.767	7854
580.823	8866
580.838	8912
580.879	9047
580.911	8487
580.935	8096
580.984	8145
580.991	8157
581.047	8974
581.057	8790
581.103	8031
581.130	8357
581.159	8666
581.203	8048
581.215	7912
581.270	8346
581.276	8336
581.326	8268
581.349	8166
581.382	8005
581.422	8331
581.438	8473
581.494	7501
581.494	7502
581.550	7882
581.567	8124
581.606	8643
581.640	8453
581.661	8335
581.713	9621
581.717	9731
581.773	9682
581.786	9532
581.829	8973
581.859	9015
581.885	9141
581.932	9641
581.940	9723
581.996	9572
582.004	9428
582.052	8628
582.077	8752
582.107	8891
582.150	9883
582.163	10169
582.219	9237
582.223	9222
582.274	9206
582.296	9163
582.330	9036
582.368	9595
582.386	9902
582.441	9615
582.441	9614
582.497	9855
582.514	10024
582.552	10605
582.587	10588
582.608	10526
582.659	9369
582.663	9283
582.719	10461
582.732	10308
582.774	9853
582.805	10375
582.830	10884
582.877	12426
582.885	12654
582.941	11376
582.950	11585
582.996	12673
583.023	13523
583.052	14563
583.095	14626
583.107	14593
583.162	13552
583.168	13571
583.218	13474
583.240	12834
583.273	11929
583.313	11500
583.328	11411
583.384	11690
583.385	11669
583.439	10915
583.458	10834
583.494	10660
583.531	10483
583.549	10498
583.603	10829
583.605	10830
583.660	10133
583.676	10048
583.715	10011
583.748	10548
583.770	10878
583.820	11146
583.825	11179
583.881	11097
583.893	10942
583.936	10187
583.965	10423
583.991	10774
584.038	10787
584.046	10781
584.101	10808
584.110	10934
584.156	11450
584.183	11553
584.211	11616
584.255	10847
584.266	10789
584.321	12080
584.328	12189
584.376	12551
584.400	12417
584.431	12335
584.472	12407
584.486	12429
584.541	13478
584.545	13500
584.596	14024
584.617	14052
584.651	14160
584.689	14461
584.706	14469
584.761	14878
584.762	14873
584.816	14870
584.834	14968
584.871	15228
584.906	15277
584.926	15283
584.978	15990
584.980	16032
585.035	17641
585.051	18021
585.090	19170
585.123	20121
585.145	20789
585.195	22436
585.200	22652
585.254	25324
585.267	25947
585.309	28353
585.340	31096
585.364	33459
585.412	38302
585.419	39288
585.473	50120
585.484	52741
585.528	67545
585.556	83251
585.583	113776
585.628	181471
585.637	205514
585.692	404736
585.700	436168
585.747	539180
585.772	479240
585.801	321892
585.845	134148
585.856	109711
585.910	55521
585.917	50315
585.965	38206
585.989	33480
586.019	30297
586.061	27377
586.074	26792
586.128	24541
586.133	24366
586.183	23581
586.205	23034
586.237	21924
586.277	21103
586.292	21070
586.346	20717
586.349	20667
586.401	19977
586.421	20050
586.455	20055
586.493	19654
586.509	19797
586.564	20034
586.565	20058
586.618	22733
586.637	23474
586.672	25039
586.709	26680
586.727	27693
586.781	31775
586.781	31795
586.835	25174
586.853	23467
586.889	21444
586.925	19852
586.944	19292
586.996	18448
586.998	18466
587.052	18341
587.068	18435
587.106	18770
587.140	18455
587.161	18352
587.212	19113
587.215	19138
587.269	18292
587.284	18154
587.323	18779
587.356	19691
587.377	20064
587.427	20406
587.431	20454
587.485	20863
587.499	20915
587.539	20941
587.571	21008
587.593	21622
587.643	23169
587.648	23205
587.702	22392
587.715	22414
587.755	23479
587.786	23948
587.810	23994
587.858	24340
587.864	24388
587.917	24003
587.930	23898
587.971	23868
588.001	23837
588.025	24033
588.073	24700
588.079	24772
588.133	24900
588.145	24860
588.187	24722
588.217	24619
588.241	24918
588.288	25493
588.295	25592
588.348	26690
588.360	26764
588.402	26986
588.431	27166
588.456	27724
588.503	28888
588.510	29112
588.564	30902
588.575	31193
588.617	32505
588.646	33782
588.671	35214
588.718	37314
588.725	38004
588.778	45231
588.789	46972
588.832	67378
588.861	83845
588.886	117195
588.932	189868
588.939	196588
588.993	240053
589.004	238822
589.047	135781
589.075	76413
589.100	60254
589.147	39326
589.154	38725
589.207	34737
589.218	34055
589.261	34810
589.290	35577
589.314	36727
589.361	39243
589.368	40362
589.421	50429
589.433	53009
589.475	87178
589.504	114198
589.528	146801
589.576	214786
589.582	208741
589.635	115285
589.647	96807
589.689	58009
589.718	35512
589.742	33560
589.790	30191
589.795	30091
589.849	29092
589.861	28870
589.902	29183
589.932	29095
589.955	28727
590.004	28153
590.009	28208
590.062	28199
590.075	28102
590.115	27545
590.146	27014
590.168	27217
590.218	27833
590.222	27864
590.275	27544
590.289	27428
590.328	28283
590.360	28831
590.381	29188
590.431	29874
590.435	29913
590.488	29566
590.503	29431
590.541	29842
590.574	30045
590.594	30280
590.645	31197
590.647	31320
590.700	32781
590.716	33163
590.753	33677
590.787	34193
590.806	34695
590.859	35882
590.859	35951
590.912	35941
590.930	35989
590.965	35979
591.001	35805
591.018	36124
591.071	36756
591.072	36688
591.124	36232
591.143	35895
591.177	36222
591.214	36591
591.230	36773
591.283	37093
591.285	37031
591.336	37004
591.356	36930
591.389	36904
591.427	36479
591.442	36567
591.495	36822
591.498	36762
591.547	36432
591.569	36238
591.600	37145
591.640	38208
591.653	38439
591.706	38883
591.711	38867
591.759	39975
591.782	40412
591.811	41354
591.853	42468
591.864	42518
591.917	42355
591.924	42232
591.969	42921
591.995	43207
592.022	43232
592.066	43002
592.075	43411
592.127	45418
592.137	45691
592.180	46263
592.208	46468
592.233	46874
592.279	47371
592.285	47626
592.338	48957
592.350	49158
592.390	48585
592.421	47975
592.443	48508
592.491	49371
592.495	49561
592.548	50758
592.562	50978
592.600	50481
592.633	49869
592.653	50135
592.704	50288
592.705	50605
592.775	52057
592.846	52978
592.916	55938
592.987	54438
593.058	55058
593.128	55831
593.199	56867
593.270	57133
593.341	58066
593.411	58895
593.482	61989
593.553	64344
593.623	64651
593.694	66128
593.764	68029
593.835	66067
593.906	67883
593.976	67986
594.047	70845
594.117	73740
594.188	77141
594.258	75342
594.329	74956
594.399	77615
594.470	79045
594.540	82934
594.611	84960
594.681	83792
594.751	83489
594.822	87006
594.892	90195
594.963	92271
595.033	95046
595.103	98153
595.174	98282
595.244	102080
595.314	105059
595.384	106229
595.455	109713
595.525	113234
595.595	116518
595.665	117062
595.736	113859
595.806	117008
595.876	118014
595.946	120053
596.016	126447
596.087	128795
596.157	128933
596.227	130838
596.297	136235
596.367	145573
596.437	152849
596.507	153913
596.577	153902
596.647	158115
596.717	164031
596.787	167563
596.857	167876
596.927	167834
596.997	169561
597.067	171332
597.137	175113
597.207	175152
597.277	175249
597.347	171015
597.417	165276
597.487	165735
597.557	169483
597.626	172650
597.696	177340
597.766	175036
597.836	166402
597.906	158037
597.975	155507
598.045	157981
598.115	164143
598.185	175539
598.254	196264
598.324	211052
598.394	213255
598.464	208280
598.533	204682
598.603	193071
598.672	188713
598.742	191934
598.812	193891
598.881	198255
598.951	197618
599.020	201207
599.090	209454
599.159	210329
599.229	205583
599.299	201060
599.368	205850
599.437	204118
599.507	192153
599.576	186568
599.646	183356
599.715	181083
599.785	180999
599.854	177986
599.924	176042
599.993	176255
600.062	178972
600.132	181991
600.201	193747
600.270	219587
600.340	233558
600.409	226365
600.478	225996
600.547	230053
600.617	210739
600.686	178394
600.755	165598
600.824	159641
600.894	158821
600.963	157712
601.032	160103
601.101	156931
601.170	152370
601.239	149483
601.308	150731
601.378	152645
601.447	154627
601.516	155855
601.585	158666
601.654	161464
601.723	162890
601.792	167270
601.861	172837
601.930	180277
601.999	183303
602.068	181358
602.137	183420
602.206	186287
602.275	188151
602.343	189813
602.412	190689
602.481	194689
602.550	195562
602.619	200715
602.688	199714
602.756	201939
602.825	202418
602.894	208718
602.963	210174
603.032	211843
603.100	212189
603.169	210614
603.238	216421
603.307	211645
603.375	214513
603.444	221058
603.513	217603
603.581	220010
603.650	227057
603.719	208569
603.787	211363
603.856	214988
603.924	220494
603.993	226141
604.061	235267
604.130	243775
604.198	249275
604.267	251862
604.335	256325
604.404	258213
604.472	263815
604.541	264152
604.609	269089
604.678	273321
604.746	274694
604.815	285549
604.883	284617
604.951	279622
605.020	284846
605.088	281064
605.156	281517
605.225	285607
605.293	285147
605.361	285618
605.429	287695
605.498	294057
605.566	295401
605.634	309780
605.702	318680
605.771	324444
605.839	326272
605.907	316955
605.975	312285
606.043	306160
606.111	303502
606.180	311125
606.248	298996
606.316	294757
606.384	299462
606.452	287543
606.520	284385
606.588	292766
606.656	296379
606.724	288328
606.792	273235
606.860	249942
606.928	230366
606.996	219959
607.064	217101
607.132	220886
607.200	235293
607.267	242162
607.335	246968
607.403	250782
607.471	244499
607.539	237453
607.607	238373
607.674	211119
607.742	212094
607.810	210614
607.878	210145
607.946	216900
608.013	224750
608.081	228965
608.149	229140
608.216	238140
608.284	244769
608.352	243528
608.419	241036
608.487	236265
608.555	233415
608.622	239933
608.690	254266
608.757	278000
608.825	283194
608.893	274056
608.960	258775
609.028	251080
609.095	250003
609.163	246793
609.230	222593
609.298	203174
609.365	215662
609.432	233479
609.500	250530
609.567	286573
609.635	320776
609.702	334013
609.769	318878
609.837	251945
609.904	222794
609.971	228329
610.039	249555
610.106	302388
610.173	489039
610.241	904484
610.308	591479
610.375	292981
610.442	246707
610.509	232365
610.577	234801
610.644	234345
610.711	242939
610.778	247432
610.845	258727
610.912	273391
610.980	282758
611.047	280856
611.114	278737
611.181	268622
611.248	267855
611.315	283110
611.382	289359
611.449	299800
611.516	302900
611.583	298181
611.650	301956
611.717	305222
611.784	309779
611.851	319965
611.918	333675
611.984	374377
612.051	468960
612.118	730881
612.185	1256888
612.252	944038
612.319	473402
612.386	394147
612.452	360464
612.519	341670
612.586	334692
612.653	339113
612.719	348739
612.786	336384
612.853	315399
612.919	308820
612.986	311648
613.053	295629
613.120	279552
613.186	269793
613.253	274934
613.319	274304
613.386	275399
613.453	277053
613.519	280283
613.586	274401
613.652	279173
613.719	275313
613.785	279579
613.852	284068
613.918	281912
613.985	282135
614.051	294799
614.118	290712
614.184	282293
614.250	281023
614.317	285480
614.383	283554
614.449	289548
614.516	284097
614.582	286794
614.648	281186
614.715	282271
614.781	273307
614.847	274568
614.914	271810
614.980	264757
615.046	266031
615.112	276496
615.179	273749
615.245	279738
615.311	274838
615.377	277115
615.443	281575
615.509	284501
615.575	294265
615.642	291504
615.708	296397
615.774	308752
615.840	323304
615.906	337217
615.972	386122
616.038	511752
616.104	838295
616.170	1357302
616.236	1191902
616.302	622694
616.368	499916
616.434	385462
616.500	351706
616.565	380022
616.631	462405
616.697	394343
616.763	394427
616.829	546384
616.895	866038
616.961	819901
617.026	435127
617.092	321665
617.158	298427
617.224	289011
617.289	268569
617.355	257708
617.421	254781
617.487	255906
617.552	241627
617.618	241022
617.684	241449
617.749	241463
617.815	231281
617.880	228394
617.946	227457
618.012	232496
618.077	234474
618.143	226509
618.208	228138
618.274	244629
618.339	243960
618.405	206832
618.470	207520
618.536	205487
618.601	203129
618.667	189830
618.732	180601
618.798	180025
618.863	179527
618.928	178481
618.994	179836
619.059	180331
619.124	179180
619.190	177200
619.255	176822
619.320	178057
619.386	177667
619.451	176215
619.516	171923
619.581	175222
619.647	178711
619.712	181411
619.777	174506
619.842	174406
619.907	178340
619.972	179033
620.038	178348
620.103	174246
620.168	173951
620.233	177816
620.298	177674
620.363	179052
620.428	184050
620.493	187418
620.558	190462
620.623	194700
620.688	193842
620.753	189509
620.818	194734
620.883	196161
620.948	194349
621.013	190831
621.078	190547
621.143	191596
621.207	193165
621.272	190091
621.337	186134
621.402	184737
621.467	182619
621.532	184066
621.596	182333
621.661	177344
621.726	176947
621.791	177571
621.855	178251
621.920	178248
621.985	179173
622.049	184170
622.114	183889
622.179	186427
622.243	186927
622.308	193585
622.373	201255
622.437	197745
622.502	187167
622.566	184827
622.631	183693
622.695	189776
622.760	186167
622.824	185870
622.889	185863
622.953	186462
623.018	200027
623.082	199285
623.147	198242
623.211	191342
623.276	192890
623.340	186447
623.404	183033
623.469	180937
623.533	185464
623.597	180264
623.662	178588
623.726	167526
623.790	158113
623.854	153608
623.919	158051
623.983	159832
624.047	161993
624.111	164227
624.176	166021
624.240	167673
624.304	171926
624.368	165617
624.432	167034
624.496	169756
624.560	176849
624.625	177903
624.689	177252
624.753	185101
624.817	176778
624.881	172217
624.945	156684
625.009	153173
625.073	155316
625.137	158786
625.201	166144
625.265	166344
625.329	158756
625.393	162143
625.456	162806
625.520	165682
625.584	168212
625.648	172266
625.712	177704
625.776	180274
625.839	169906
625.903	142980
625.967	132843
626.031	146239
626.095	169287
626.158	154106
626.222	124992
626.286	117229
626.349	112024
626.413	105067
626.477	105198
626.540	107520
626.604	104840
626.668	103652
626.731	101567
626.795	101097
626.858	102119
626.922	100366
626.986	99836
627.049	99442
627.113	102735
627.176	100932
627.240	97943
627.303	97334
627.366	95838
627.430	99089
627.493	95866
627.557	94471
627.620	97862
627.684	101248
627.747	100583
627.810	90923
627.874	84374
627.937	79800
628.000	84108
628.064	80856
628.127	72636
628.190	72933
628.253	70780
628.317	66601
628.380	64964
628.443	63259
628.506	61678
628.569	60660
628.632	57260
628.696	58553
628.759	57009
628.822	54490
628.885	53761
628.948	51725
629.011	51338
629.074	50236
629.137	48259
629.200	47121
629.263	48623
629.326	46411
629.389	46672
629.452	47292
629.515	45423
629.578	43837
629.641	45393
629.704	45819
629.767	44454
629.830	43415
629.892	43050
629.955	42142
630.018	44810
630.081	41685
630.144	43848
630.207	40662
630.269	43057
630.332	41284
630.395	40903
630.458	39811
630.520	36841
630.583	39937
630.646	40134
630.708	40540
630.771	39280
630.834	43075
630.896	41733
630.959	42457
631.021	39714
631.084	39618
631.146	40090
631.209	41592
631.272	40072
631.334	42962
631.397	42572
631.459	41849
631.522	43817
631.584	44886
631.646	47995
631.709	48816
631.771	48674
631.834	47718
631.896	45022
631.958	42442
632.021	41864
632.083	38727
632.145	40676
632.208	37513
632.270	38720
632.332	37941
632.395	36892
632.457	39409
632.519	36920
632.581	39442
632.643	36163
632.706	37072
632.768	35119
632.830	37173
632.892	37972
632.954	38814
633.016	38385
633.078	38639
633.141	38385
633.203	37491
633.265	37267
633.327	37480
633.389	37193
633.451	38771
633.513	38157
633.575	39751
633.637	37840
633.698	38663
633.760	40720
633.822	42563
633.884	43158
633.946	45204
634.008	45433
634.070	47414
634.132	49990
634.193	53166
634.255	57931
634.317	60109
634.379	57659
634.441	51841
634.502	47450
634.564	44502
634.626	41057
634.687	39209
634.749	37715
634.811	38008
634.873	36820
634.934	37956
634.996	38358
635.057	36556
635.119	37542
635.181	39461
635.242	38476
635.304	36592
635.365	40119
635.427	37278
635.488	37163
635.550	37409
635.611	38188
635.673	38159
635.734	42552
635.796	43110
635.857	48244
635.918	49725
635.980	55629
636.041	57461
636.102	62872
636.164	63201
636.225	59480
636.286	50121
636.348	47255
636.409	42480
636.470	39103
636.531	39013
636.593	36519
636.654	36264
636.715	35271
636.776	34408
636.838	33202
636.899	33312
636.960	32485
637.021	32462
637.082	31226
637.143	31520
637.204	29196
637.265	30709
637.326	30930
637.387	32515
637.448	30630
637.509	31434
637.570	31234
637.631	31781
637.692	28319
637.753	28420
637.814	28579
637.875	28392
637.936	29172
637.997	28665
638.058	28251
638.119	29617
638.179	28791
638.240	27407
638.301	28602
638.362	27158
638.423	26811
638.483	28183
638.544	25101
638.605	27791
638.666	25995
638.726	26827
638.787	27190
638.848	26592
638.908	25858
638.969	26213
639.030	25568
639.090	24044
639.151	25233
639.211	27161
639.272	26623
639.332	26998
639.393	28166
639.453	28299
639.514	29203
639.574	27306
639.635	24056
639.695	24089
639.756	23273
639.816	23687
639.877	23372
639.937	24872
639.997	24999
640.058	22840
640.118	23900
640.178	24569
640.239	23428
640.299	23961
640.359	23619
640.420	25872
640.480	28987
640.540	33023
640.600	32734
640.661	30601
640.721	29738
640.781	31504
640.841	28706
640.901	25512
640.961	25108
641.021	26464
641.082	26484
641.142	24547
641.202	23516
641.262	21731
641.322	23319
641.382	21426
641.442	22765
641.502	22916
641.562	23795
641.622	23665
641.682	26155
641.742	27822
641.802	26393
641.861	23514
641.921	21939
641.981	21690
642.041	20660
642.101	20754
642.161	19100
642.221	20952
642.280	19829
642.340	20836
642.400	20639
642.460	22999
642.519	22645
642.579	22115
642.639	22323
642.698	20136
642.758	24051
642.818	22757
642.877	21336
642.937	22174
642.997	23174
643.056	22463
643.116	20615
643.175	24503
643.235	22622
643.294	23149
643.354	24173
643.414	26105
643.473	29541
643.532	35886
643.592	45922
643.651	67758
643.711	109514
643.770	204664
643.830	442806
643.889	726334
643.948	252559
644.008	71983
644.067	44399
644.126	33004
644.186	29581
644.245	27151
644.304	23294
644.363	25513
644.423	21584
644.482	23777
644.541	23714
644.600	23510
644.659	31517
644.719	37515
644.778	51773
644.837	89225
644.896	176138
644.955	358883
645.014	123237
645.073	38642
645.132	28007
645.191	27268
645.250	24448
645.309	26759
645.368	28724
645.427	39791
645.486	68607
645.545	109544
645.604	34387
645.663	23246
645.722	22664
645.781	25283
645.840	27774
645.898	31788
645.957	43685
646.016	61761
646.075	104312
646.134	192972
646.192	454620
646.251	571082
646.310	137577
646.369	51750
646.427	43215
646.486	31217
646.545	25941
646.603	21888
646.662	21071
646.721	21011
646.779	20769
646.838	21816
646.896	27159
646.955	35523
647.014	55423
647.072	104090
647.131	260473
647.189	120744
647.248	25777
647.306	19907
647.365	19083
647.423	16287
647.481	18220
647.540	14352
647.598	16176
647.657	15786
647.715	15916
647.773	15232
647.832	15448
647.890	12875
647.948	13359
648.007	14446
648.065	12030
648.123	13543
648.181	14391
648.240	12646
648.298	11718
648.356	12149
648.414	12709
648.472	12189
648.531	12224
648.589	11698
648.647	11920
648.705	11840
648.763	12068
648.821	12487
648.879	12754
648.937	14758
648.995	17329
649.053	21028
649.111	31459
649.169	49741
649.227	88142
649.285	179914
649.343	437082
649.401	211012
649.459	38764
649.516	24000
649.574	17534
649.632	20182
649.690	21314
649.748	27217
649.806	39142
649.863	73819
649.921	197410
649.979	121250
650.037	21061
650.094	12427
650.152	12943
650.210	10748
650.268	10729
650.325	11552
650.383	11788
650.440	8900
650.498	9677
650.556	9233
650.613	9040
650.671	9370
650.728	9613
650.786	10384
650.843	15021
650.901	10442
650.958	7359
651.016	7565
651.073	7465
651.131	7671
651.188	6600
651.246	8134
651.303	6361
651.360	7803
651.418	6486
651.475	7553
651.532	6253
651.590	7351
651.647	6033
651.704	7551
651.762	6302
651.819	6033
651.876	5849
651.933	6409
651.990	7055
652.048	4544
652.105	5492
652.162	5533
652.219	4598
652.276	7076
652.333	6776
652.390	5414
652.448	5922
652.505	6245
652.562	6057
652.619	5901
652.676	5337
652.733	7522
652.790	5863
652.847	5793
652.904	5801
652.961	4562
653.017	5640
653.074	5630
653.131	5013
653.188	4311
653.245	5471
653.302	4941
653.359	5758
653.415	5898
653.472	4367
653.529	5626
653.586	4054
653.642	4832
653.699	6343
653.756	4831
653.813	5076
653.869	5931
653.926	4549
653.983	4877
654.039	5449
654.096	4676
654.152	5598
654.209	3579
654.266	5498
654.322	4463
654.379	5750
654.435	4931
654.492	4752
654.548	4862
654.605	5142
654.661	6403
654.717	5195
654.774	5094
654.830	4923
654.887	4791
654.943	4676
655.000	6785
655.056	4617
655.112	5240
655.168	4353
655.225	4899
655.281	4857
655.337	5725
655.394	5010
655.450	4968
655.506	4543
655.562	4977
655.618	5664
655.675	4629
655.731	4388
655.787	3602
655.843	5008
655.899	3811
655.955	5288
656.011	5554
656.067	3965
656.123	5834
656.179	4197
656.235	5816
656.291	3253
656.347	5438
656.403	4005
656.459	4690
656.515	3800
656.571	4234
656.627	4230
656.683	4795
656.739	5115
656.795	4069
656.850	4681
656.906	4466
656.962	5702
657.018	4292
657.074	6728
657.129	10043
657.185	16625
657.241	35364
657.297	18335
657.352	4966
657.408	3990
657.464	5381
657.519	3758
657.575	3489
657.630	3522
657.686	4041
657.742	4025
657.797	3817
657.853	4133
657.908	4117
657.964	2958
658.019	4181
658.075	3519
658.130	4225
658.186	3132
658.241	4327
658.297	2947
658.352	3563
658.407	3974
658.463	3084
658.518	3809
658.573	4437
658.629	2731
658.684	3094
658.739	3677
658.795	2765
658.850	3878
658.905	3329
658.960	3173
659.016	3585
659.071	3757
659.126	3718
659.181	2026
659.236	4306
659.291	3881
659.346	3287
659.401	2774
659.457	4090
659.512	2501
659.567	4271
659.622	3456
659.677	2655
659.732	2771
659.787	2959
659.842	3216
659.897	3705
659.952	3837
660.007	3100
660.061	3703
660.116	2378
660.171	2237
660.226	3857
660.281	4351
660.336	2467
660.391	3012
660.445	3395
660.500	3530
660.555	3813
660.610	2845
660.664	3357
660.719	3221
660.774	4193
660.828	3533
660.883	3174
660.938	2603
660.992	2109
661.047	3810
661.101	2440
661.156	3541
661.211	2586
661.265	2827
661.320	2767
661.374	2636
661.429	3266
661.483	3246
661.538	2236
661.592	2952
661.647	3434
661.701	5064
661.755	3241
661.810	2941
661.864	2799
661.919	2915
661.973	3676
662.027	2141
662.081	2113
662.136	2399
662.190	2332
662.244	2959
662.299	2593
662.353	2427
662.407	2954
662.461	2546
662.515	2298
662.569	2003
662.624	3417
662.678	1894
662.732	2298
662.786	2813
662.840	2786
662.894	2733
662.948	2719
663.002	2446
663.056	2653
663.110	2195
663.164	2095
663.218	3711
663.272	2388
663.326	2546
663.380	3061
663.434	3173
663.488	2174
663.542	3022
663.595	3351
663.649	2944
663.703	3523
663.757	2820
663.811	2513
663.864	2297
663.918	2743
663.972	2085
664.026	3676
664.079	2456
664.133	3264
664.187	2985
664.240	2726
664.294	2885
664.348	3207
664.401	2639
664.455	2505
664.508	2314
664.562	2916
664.615	2790
664.669	2464
664.722	1736
664.776	2620
664.829	2171
664.883	3069
664.936	1914
664.990	2239
665.043	3269
665.097	2345
665.150	2979
665.203	3235
665.257	2318
665.310	3477
665.363	2848
665.417	2936
665.470	2490
665.523	2606
665.576	2818
665.630	2890
665.683	2566
665.736	3213
665.789	3432
665.842	2624
665.895	2501
665.949	3164
666.002	2156
666.055	2451
666.108	3753
666.161	3786
666.214	3361
666.267	2399
666.320	3973
666.373	3014
666.426	3430
666.479	2850
666.532	3412
666.585	3906
666.638	3946
666.691	3006
666.744	3359
666.796	2840
666.849	2343
666.902	2709
666.955	2951
667.008	2974
667.060	2779
667.113	3194
667.166	3025
667.219	3548
667.271	3216
667.324	3796
667.377	2905
667.430	3544
667.482	3214
667.535	3671
667.587	3690
667.640	2979
667.693	2745
667.745	3106
667.798	2835
667.850	3052
667.903	3088
667.955	3530
668.008	2922
668.060	3630
668.113	2544
668.165	3705
668.218	2575
668.270	2667
668.322	3160
668.375	2281
668.427	3763
668.479	2887
668.532	3466
668.584	2830
668.636	2197
668.689	3954
668.741	2959
668.793	3349
668.845	2787
668.898	2464
668.950	2507
669.002	3465
669.054	2079
669.106	2671
669.158	3119
669.211	2694
669.263	2073
669.315	2459
669.367	2510
669.419	1867
669.471	2752
669.523	3318
669.575	3255
669.627	2475
669.679	2404
669.731	2961
669.783	2487
669.835	2612
669.886	2432
669.938	2702
669.990	2450
670.042	2029
670.094	2979
670.146	2892
670.197	2978
670.249	3246
670.301	3185
670.353	4879
670.404	5505
670.456	6616
670.508	10227
670.560	17028
670.611	25796
670.663	47160
670.715	113125
670.766	159167
670.818	40963
670.869	9042
670.921	5985
670.972	5304
671.024	4290
671.075	3755
671.127	3927
671.178	4023
671.230	3810
671.281	4742
671.333	4986
671.384	5593
671.436	8540
671.487	11623
671.538	18728
671.590	28891
671.641	47483
671.692	87251
671.744	155447
671.795	107469
671.846	39686
671.897	19147
671.949	11202
672.000	9643
672.051	5693
672.102	5159
672.153	4191
672.204	3574
672.256	3834
672.307	3061
672.358	2834
672.409	2757
672.460	1958
672.511	2263
672.562	2071
672.613	2251
672.664	1806
672.715	2893
672.766	1569
672.817	2049
672.868	839
672.919	2410
672.970	1828
673.021	1614
673.071	1396
673.122	1999
673.173	1429
673.224	1195
673.275	817
673.326	2095
673.376	1114
673.427	1684
673.478	1457
673.528	2093
673.579	1778
673.630	995
673.680	2091
673.731	1867
673.782	2150
673.832	1438
673.883	1965
673.934	1359
673.984	1975
674.035	2133
674.085	1142
674.136	1715
674.186	2081
674.237	1185
674.287	1698
674.338	1639
674.388	1817
674.438	2254
674.489	2054
674.539	2355
674.589	2691
674.640	2265
674.690	1659
674.740	2474
674.791	1771
674.841	1867
674.891	860
674.942	961
674.992	637
675.042	755
675.092	1106
675.142	848
675.193	868
675.243	1062
675.293	949
675.343	1095
675.393	1410
675.443	1328
675.493	511
675.543	1484
675.593	1698
675.643	1656
675.693	646
675.743	787
675.793	809
675.843	669
675.893	821
675.943	798
675.993	583
676.043	1560
676.093	1667
676.142	435
676.192	1134
676.242	315
676.292	798
676.341	540
676.391	686
676.441	1109
676.491	403
676.540	391
676.590	949
676.640	394
676.689	617
676.739	219
676.789	1055
676.838	307
676.888	666
676.937	643
676.987	783
677.037	1003
677.086	529
677.136	1201
677.185	-256
677.235	364
677.284	951
677.333	364
677.383	-284
677.432	46
677.482	702
677.531	267
677.580	-228
677.630	751
677.679	363
677.728	1391
677.778	155
677.827	946
677.876	546
677.925	234
677.975	572
678.024	994
678.073	451
678.122	1063
678.171	901
678.220	1236
678.269	1788
678.319	1945
678.368	2953
678.417	1394
678.466	523
678.515	657
678.564	137
678.613	309
678.662	413
678.711	287
678.760	267
678.809	1123
678.857	431
678.906	875
678.955	454
679.004	1425
679.053	723
679.102	1052
679.151	456
679.199	939
679.248	110
679.297	841
679.346	758
679.394	-800
679.443	98
679.492	220
679.540	-91
679.589	1366
679.638	750
679.686	1140
679.735	1535
679.784	988
679.832	1519
679.881	764
679.929	981
679.978	826
680.026	460
680.075	1004
680.123	-163
680.172	-34
680.220	-1168
680.268	-420
680.317	-261
680.365	-371
680.414	-96
680.462	94
680.510	430
680.559	-230
680.607	534
680.655	90
680.703	219
680.752	-219
680.800	644
680.848	182
680.896	602
680.945	-495
680.993	-998
681.041	-399
681.089	49
681.137	565
681.185	-74
681.233	202
681.258	8
681.281	-209
681.329	267
681.377	117
681.380	115
681.425	-543
681.473	941
681.502	830
681.521	691
681.569	751
681.617	1285
681.624	1190
681.665	323
681.713	758
681.745	1020
681.761	1098
681.809	383
681.857	1466
681.867	1405
681.904	1042
681.952	1372
681.989	1364
682.000	1321
682.048	-159
682.096	853
682.111	899
682.143	891
682.191	1342
682.233	2081
682.239	2162
682.286	1409
682.334	1149
682.354	1457
682.382	1790
682.430	1533
682.476	1288
682.477	1252
682.525	1909
682.572	1716
682.598	1733
682.620	1692
682.667	2696
682.715	1929
682.720	1985
682.763	2252
682.810	1836
682.841	1939
682.857	1945
682.905	2264
682.952	2808
682.963	2749
683.000	2416
683.047	2727
683.085	3112
683.095	3177
683.142	2640
683.190	2860
683.206	2617
683.237	2129
683.284	3257
683.328	2969
683.332	2916
683.379	2828
683.426	2953
683.449	2666
683.473	2371
683.521	3283
683.568	3145
683.571	3205
683.615	3637
683.662	3485
683.693	3706
683.709	3751
683.757	2801
683.804	3716
683.814	3559
683.851	3007
683.898	3950
683.936	3852
683.945	3794
683.992	3842
684.039	3515
684.057	3833
684.086	4262
684.133	4081
684.179	3632
684.180	3598
684.227	4179
684.274	4715
684.300	4332
684.321	4014
684.368	4260
684.415	4802
684.422	4827
684.462	4816
684.509	4352
684.543	4816
684.556	4970
684.603	4872
684.649	4167
684.665	4495
684.696	5160
684.743	5009
684.786	5519
684.790	5524
684.837	5540
684.883	5364
684.908	5063
684.930	4865
684.977	5369
685.023	5611
685.029	5554
685.070	5010
685.117	5091
685.150	5292
685.164	5295
685.210	5611
685.257	5610
685.272	5806
685.303	6325
685.350	6098
685.393	6237
685.396	6220
685.443	5674
685.490	6402
685.514	6004
685.536	5688
685.583	5628
685.629	5791
685.636	5740
685.675	5492
685.722	5517
685.757	6211
685.768	6388
685.815	6709
685.861	6232
685.878	6204
685.908	6148
685.954	5984
686.000	6572
686.000	6574
686.047	6815
686.093	6702
686.121	6771
686.139	6803
686.185	7028
686.232	7079
686.242	7160
686.278	7365
686.324	7465
686.363	7259
686.370	7212
686.416	7072
686.463	7132
686.484	7221
686.509	7298
686.555	7117
686.601	7107
686.606	7130
686.647	7248
686.693	7318
686.727	7239
686.739	7276
686.785	7178
686.831	7474
686.848	7436
686.877	7238
686.923	7575
686.969	7436
686.969	7436
687.015	7787
687.061	8229
687.090	8403
687.107	8307
687.153	8724
687.199	8604
687.211	8433
687.245	8029
687.291	7824
687.332	8214
687.336	8279
687.382	8417
687.428	8384
687.453	8693
687.474	8832
687.520	9102
687.565	8450
687.574	8457
687.611	8936
687.657	9333
687.695	10111
687.702	10316
687.748	11356
687.794	13631
687.816	13316
687.839	12023
687.885	11709
687.931	10110
687.937	10006
687.976	10165
688.022	9377
688.058	9786
688.067	9909
688.113	9516
688.158	9060
688.179	9073
688.204	9197
688.249	9742
688.295	9275
688.300	9306
688.340	9363
688.386	9660
688.421	9002
688.431	8919
688.477	9494
688.522	9613
688.542	9909
688.567	10330
688.613	10287
688.658	10403
688.663	10449
688.703	10595
688.749	10284
688.784	10650
688.794	10767
688.839	10158
688.884	10769
688.905	10726
688.930	10706
688.975	10609
689.020	10729
689.026	10712
689.065	10713
689.110	10421
689.146	10530
689.155	10630
689.201	11186
689.246	11700
689.267	11593
689.291	11142
689.336	11180
689.381	10558
689.388	10510
689.426	10851
689.471	11471
689.509	11334
689.516	11258
689.561	11275
689.606	10794
689.630	10508
689.651	10385
689.696	10370
689.741	11433
689.750	11348
689.785	11217
689.830	11471
689.871	11348
689.875	11336
689.920	11274
689.965	11898
689.992	11768
690.010	11647
690.054	11094
690.099	10779
690.112	10813
690.144	11193
690.189	10926
690.233	11124
690.233	11142
690.278	11613
690.323	12009
690.354	12020
690.367	11949
690.412	12017
690.457	11538
690.474	11651
690.501	11895
690.546	11909
690.590	11804
690.595	11776
690.635	11833
690.680	11709
690.716	11963
690.724	12103
690.769	12263
690.813	12965
690.836	12928
690.857	13528
690.902	15076
690.946	17041
690.957	17466
690.991	20623
691.035	24776
691.077	28485
691.080	28413
691.124	25941
691.168	22974
691.198	21094
691.213	20104
691.257	17665
691.301	14919
691.318	13665
691.346	13348
691.390	13669
691.434	13349
691.439	13307
691.478	13285
691.522	13368
691.559	13082
691.567	13037
691.611	13246
691.655	12876
691.680	12825
691.699	12940
691.743	12915
691.787	12994
691.800	12991
691.831	13124
691.875	13310
691.919	13535
691.921	13508
691.964	13137
692.008	12928
692.041	12498
692.052	12484
692.096	12826
692.139	12979
692.162	13159
692.183	13417
692.227	13734
692.271	13533
692.282	13598
692.315	13525
692.359	13299
692.402	13008
692.403	13038
692.447	13383
692.490	13521
692.523	13780
692.534	13817
692.578	13630
692.622	13416
692.643	13360
692.666	13386
692.709	13612
692.753	13385
692.763	13335
692.797	13579
692.840	13720
692.884	14460
692.884	14493
692.928	14229
692.971	14049
693.004	13851
693.015	13898
693.059	13972
693.102	13918
693.124	13965
693.146	14030
693.189	14172
693.233	14391
693.245	14338
693.276	14413
693.320	14557
693.363	14686
693.365	14660
693.407	15061
693.450	15370
693.485	15531
693.493	15771
693.537	16945
693.580	18287
693.605	18894
693.624	20167
693.667	23327
693.710	26102
693.725	27265
693.753	33554
693.797	42918
693.840	52512
693.845	53492
693.883	47788
693.926	41188
693.966	35538
693.970	35046
694.013	28948
694.056	22873
694.086	18599
694.099	18301
694.142	17227
694.185	16349
694.206	15811
694.229	16011
694.272	16264
694.315	16816
694.326	16843
694.358	16459
694.401	15855
694.444	15362
694.446	15299
694.487	15438
694.530	15797
694.566	15644
694.573	15648
694.616	15733
694.659	15767
694.686	15877
694.702	16041
694.745	16027
694.787	16220
694.806	16282
694.830	16152
694.873	15611
694.916	15309
694.926	15188
694.959	15594
695.002	15906
695.044	16517
695.046	16488
695.087	16733
695.130	17278
695.166	17415
695.172	17434
695.215	17451
695.258	17477
695.286	17514
695.301	17747
695.343	18121
695.386	18582
695.406	18634
695.428	19225
695.471	20576
695.514	21880
695.526	22198
695.556	22783
695.599	23866
695.641	24540
695.646	24528
695.684	23529
695.726	22820
695.766	21758
695.769	21754
695.811	21085
695.854	20511
695.886	20051
695.896	20266
695.938	20604
695.981	21179
696.005	21418
696.023	21870
696.065	22957
696.108	23984
696.125	24328
696.150	24737
696.192	25400
696.235	26142
696.245	26204
696.277	26132
696.319	26176
696.361	26039
696.365	25966
696.404	25892
696.446	25744
696.485	25541
696.488	25617
696.530	25711
696.572	25843
696.604	25949
696.614	25981
696.656	25706
696.698	25405
696.724	25257
696.740	25415
696.783	25509
696.825	25762
696.844	25703
696.867	25849
696.909	26190
696.951	26420
696.964	26438
696.992	26319
697.034	26063
697.076	25770
697.083	25662
697.118	26664
697.160	27763
697.202	28851
697.203	28805
697.244	28330
697.286	27915
697.323	27339
697.327	27445
697.369	27780
697.411	28204
697.442	28363
697.453	28402
697.494	28284
697.536	28255
697.562	28153
697.578	28187
697.620	27979
697.661	27757
697.682	27657
697.703	28365
697.744	29528
697.786	30674
697.801	31001
697.828	30992
697.869	30944
697.911	30751
697.921	30649
697.952	30466
697.994	30103
698.035	29757
698.040	29634
698.077	29874
698.118	30049
698.160	30228
698.160	30150
698.201	31083
698.243	31941
698.279	32610
698.284	32764
698.325	33437
698.367	34043
698.399	34473
698.408	34641
698.449	34949
698.491	35269
698.518	35384
698.532	35395
698.573	35162
698.614	34911
698.638	34664
698.656	34743
698.697	34725
698.738	34719
698.757	34617
698.779	34794
698.820	34958
698.862	35123
698.877	35091
698.903	35397
698.944	35730
698.985	36075
698.996	36072
699.026	36073
699.067	35945
699.116	35696
699.235	34896
699.354	33995
699.474	32431
699.593	32329
699.713	32928
699.832	32927
699.951	34070
700.070	32968
700.190	31123
700.309	30679
700.428	30644
700.547	29866
700.667	29493
700.786	29687
700.905	29351
701.024	29301
701.143	27542
701.262	30792
701.381	30371
701.500	31220
701.619	29613
701.738	31116
701.857	29567
701.976	28486
702.095	29394
702.214	29414
702.333	28088
702.452	30697
702.571	29850
702.690	29253
702.809	30585
702.928	28504
703.047	26017
703.165	27888
703.284	26385
703.403	27486
703.522	27032
703.640	26181
703.759	25348
703.878	25054
703.997	25267
704.115	25997
704.234	25344
704.353	26374
704.471	24218
704.590	23534
704.708	24317
704.827	24048
704.946	23535
705.064	24132
705.183	23923
705.301	24180
705.420	22575
705.538	23413
705.656	22255
705.775	21282
705.893	23258
706.012	22890
706.130	20647
706.249	22649
706.367	21271
706.485	21491
706.604	21691
706.722	22174
706.840	24573
706.958	31602
707.077	23768
707.195	20407
707.313	20828
707.431	19861
707.549	19290
707.668	19136
707.786	21464
707.904	19054
708.022	20982
708.140	19801
708.258	18576
708.376	21292
708.494	18234
708.612	19990
708.730	19472
708.848	19938
708.966	20224
709.084	19327
709.202	20435
709.320	18428
709.438	17485
709.556	18942
709.674	16771
709.791	17269
709.909	17379
710.027	17292
710.145	17258
710.263	17437
710.380	16626
710.498	17331
710.616	16689
710.733	16374
710.851	16347
710.969	16971
711.086	15794
711.204	16935
711.322	16741
711.439	16307
711.557	15465
711.674	16748
711.792	15464
711.909	14607
712.027	15733
712.144	14656
712.262	14632
712.379	16121
712.497	14986
712.614	15616
712.732	15708
712.849	14935
712.966	16239
713.084	16900
713.201	13457
713.318	15907
713.436	18055
713.553	14811
713.670	16555
713.787	16659
713.905	14525
714.022	16624
714.139	16821
714.256	20012
714.373	27292
714.490	47287
714.608	118666
714.725	438185
714.842	353926
714.959	47503
715.076	23221
715.193	19585
715.310	17740
715.427	15252
715.544	15818
715.661	14675
715.778	14597
715.895	14065
716.011	14020
716.128	14185
716.245	13719
716.362	15191
716.479	11893
716.596	12696
716.713	13635
716.829	12382
716.946	12573
717.063	12807
717.180	10593
717.296	12372
717.413	12216
717.530	12626
717.646	11697
717.763	11710
717.880	10708
717.996	11864
718.113	11886
718.229	11918
718.346	10368
718.462	11300
718.579	11612
718.695	11621
718.812	11719
718.928	11974
719.045	10645
719.161	10910
719.277	11093
719.394	11828
719.510	12404
719.626	12843
719.743	14640
719.859	23060
719.975	44248
720.092	169740
720.208	303946
720.324	41801
720.440	15339
720.557	12136
720.673	12641
720.789	12145
720.905	12745
721.021	11311
721.137	10531
721.253	10628
721.369	10594
721.486	10295
721.602	9371
721.718	9542
721.834	9694
721.950	9656
722.066	9657
722.181	9037
722.297	9929
722.413	9891
722.529	9818
722.645	8975
722.761	9109
722.877	9984
722.993	10082
723.108	12889
723.224	10961
723.340	9393
723.456	10016
723.571	9253
723.687	8345
723.803	9500
723.918	8766
724.034	8549
724.150	8802
724.265	8557
724.381	8908
724.497	9412
724.612	8226
724.728	9738
724.843	7506
724.959	8649
725.074	8918
725.190	8709
725.305	8633
725.421	8773
725.536	9512
725.651	8703
725.767	8856
725.882	9308
725.997	8754
726.113	8463
726.228	7941
726.343	8053
726.459	7636
726.574	8021
726.689	8245
726.804	7400
726.920	7310
727.035	7729
727.150	7576
727.265	7815
727.380	8667
727.495	8422
727.610	8817
727.725	7224
727.841	8067
727.956	8408
728.071	8812
728.186	7879
728.301	7420
728.416	8351
728.531	7886
728.645	7958
728.760	8232
728.875	7416
728.990	8004
729.105	7313
729.220	8217
729.335	8079
729.449	7740
729.564	8343
729.679	7293
729.794	8526
729.908	7265
730.023	7445
730.138	8239
730.253	7160
730.367	7768
730.482	8172
730.596	7435
730.711	9159
730.826	12895
730.940	12692
731.055	10130
731.169	10431
731.284	10442
731.398	9805
731.513	10087
731.627	11990
731.742	14522
731.856	17500
731.970	17904
732.085	20523
732.199	29705
732.313	50697
732.428	124771
732.542	329961
732.656	171176
732.771	40876
732.885	24582
732.999	23540
733.113	25026
733.227	24004
733.342	23262
733.456	22748
733.570	20798
733.684	20217
733.798	19419
733.912	20170
734.026	19769
734.140	19209
734.254	18504
734.368	19108
734.482	19087
734.596	19350
734.710	18288
734.824	18050
734.938	18241
735.052	17143
735.166	17948
735.280	17942
735.393	16620
735.507	17849
735.621	17275
735.735	16423
735.849	17437
735.962	16133
736.076	17757
736.190	15682
736.303	17230
736.417	16537
736.531	15045
736.644	16025
736.758	14721
736.872	15892
736.985	16397
737.099	14905
737.212	14541
737.326	14738
737.439	15868
737.553	13968
737.666	15011
737.780	13446
737.893	15668
738.007	14314
738.120	14560
738.233	13720
738.347	14519
738.460	13825
738.573	15783
738.687	13636
738.800	13454
738.913	15163
739.026	14168
739.140	14296
739.253	14085
739.366	13708
739.479	13633
739.592	14117
739.705	12944
739.818	14546
739.932	12292
740.045	13524
740.158	14294
740.271	13043
740.384	13291
740.497	11350
740.610	13735
740.723	12371
740.836	12328
740.949	13346
741.062	13832
741.174	11978
741.287	12778
741.400	12901
741.513	10735
741.626	12491
741.739	12151
741.851	11039
741.964	12220
742.077	11455
742.189	10575
742.302	11808
742.415	11192
742.527	10595
742.640	11961
742.753	10460
742.865	12334
742.978	10757
743.090	10679
743.203	11525
743.316	9529
743.428	10222
743.541	11040
743.653	9969
743.766	10399
743.878	10142
743.990	8198
744.103	11610
744.215	10761
744.327	9791
744.440	12068
744.552	9877
744.664	9219
744.777	11005
744.889	10342
745.001	10029
745.113	10088
745.226	10301
745.338	9968
745.450	11157
745.562	10010
745.674	8720
745.786	10833
745.898	9772
746.010	8590
746.122	9869
746.234	9588
746.347	9141
746.459	10138
746.570	7226
746.682	9882
746.794	10984
746.906	7761
747.018	8911
747.130	10003
747.242	7904
747.354	8396
747.466	9525
747.577	8152
747.689	9486
747.801	9564
747.913	8364
748.024	8364
748.136	8123
748.248	7783
748.359	8845
748.471	9487
748.583	7177
748.694	7305
748.806	9176
748.918	8148
749.029	7225
749.141	8544
749.252	9543
749.364	6890
749.475	7060
749.587	7278
749.698	8122
749.809	7644
749.921	8345
750.032	7709
750.144	6917
750.255	6738
750.366	8039
750.478	7197
750.589	7586
750.700	7010
750.811	7684
750.923	7487
751.034	6855
751.145	8949
751.256	7594
751.367	6666
751.479	7321
751.590	6543
751.701	7360
751.812	6894
751.923	7219
752.034	8254
752.145	8267
752.256	7095
752.367	6508
752.478	7054
752.589	7808
752.700	7122
752.811	6545
752.922	7043
753.032	7877
753.143	8160
753.254	6786
753.365	8862
753.476	8192
753.586	7406
753.697	6926
753.808	6922
753.919	6539
754.029	6908
754.140	7349
754.251	7524
754.361	7397
754.472	7425
754.582	6082
754.693	5857
754.804	7775
754.914	6736
755.025	5728
755.135	6453
755.246	7562
755.356	6912
755.466	6636
755.577	6162
755.687	7138
755.798	6540
755.908	5913
756.018	7229
756.129	7231
756.239	6315
756.349	6920
756.460	7639
756.570	7478
756.680	6572
756.790	6548
756.900	6909
757.011	6517
757.121	6423
757.231	6781
757.341	6633
757.451	5838
757.561	5857
757.671	6041
757.781	6743
757.891	6362
758.001	5837
758.111	7367
758.221	7533
758.331	6530
758.441	7270
758.551	5988
758.661	7095
758.771	7368
758.880	7449
758.990	6334
759.100	7319
759.210	6282
759.320	6712
759.429	6596
759.539	7618
759.649	7395
759.758	8609
759.868	9210
759.978	8807
760.087	9623
760.197	9650
760.307	9316
760.416	7753
760.526	7715
760.635	8842
760.745	9440
760.854	9116
760.964	10640
761.073	10380
761.182	9959
761.292	9062
761.401	8558
761.511	8158
761.620	7984
761.729	8097
761.839	7396
761.948	7255
762.057	7480
762.166	7448
762.276	7053
762.385	8375
762.494	7447
762.603	7879
762.712	7510
762.822	8695
762.931	7690
763.040	7111
763.149	7390
763.258	7932
763.367	8257
763.476	7821
763.585	8602
763.694	8243
763.803	9081
763.912	9120
764.021	9373
764.130	9728
764.238	10643
764.347	10630
764.456	12062
764.565	11709
764.674	12417
764.783	12040
764.891	14034
765.000	16053
765.109	16678
765.217	18017
765.326	21072
765.435	24694
765.543	29114
765.652	35841
765.761	46309
765.869	62274
765.978	90337
766.086	135689
766.195	212465
766.303	318243
766.412	314809
766.520	266614
766.629	271608
766.737	187316
766.846	121277
766.954	83977
767.062	61832
767.171	48019
767.279	38582
767.387	31213
767.496	26153
767.604	23480
767.712	21054
767.820	18659
767.928	17834
768.037	15458
768.145	15834
768.253	14799
768.361	14723
768.469	15073
768.577	14578
768.685	15865
768.793	16271
768.901	16996
769.009	20996
769.117	22096
769.225	28766
769.333	39126
769.441	59041
769.549	95675
769.657	173880
769.765	293524
769.873	260635
769.981	235735
770.088	150128
770.196	87903
770.304	56565
770.412	42827
770.519	33198
770.627	26924
770.735	21856
770.842	20922
770.950	17472
771.058	16219
771.165	17633
771.273	16317
771.380	16158
771.488	18376
771.595	18833
771.703	17027
771.810	15934
771.918	16188
772.025	17603
772.133	20170
772.240	17661
772.348	20514
772.455	19175
772.562	17887
772.670	16775
772.777	17978
772.884	16208
772.991	15978
773.099	16986
773.206	15361
773.313	15971
773.420	16042
773.528	15148
773.635	15374
773.742	15942
773.849	14436
773.956	15467
774.063	14572
774.170	14385
774.277	16104
774.384	13499
774.491	14005
774.598	14278
774.705	13812
774.812	14430
774.919	13709
775.026	14298
775.133	12344
775.239	13458
775.346	11808
775.453	13355
775.560	12086
775.667	13692
775.773	11503
775.880	13354
775.987	12654
776.093	11927
776.200	12729
776.307	10202
776.413	11125
776.520	13936
776.627	11774
776.733	10246
776.840	9925
776.946	14015
777.053	12214
777.159	11512
777.266	9226
777.372	10497
777.478	11721
777.585	11442
777.691	9761
777.798	11178
777.904	10955
778.010	10637
778.117	11617
778.223	11041
778.329	11149
778.435	10189
778.542	11216
778.648	9633
778.754	9633
778.860	10782
778.966	10551
779.072	9296
779.178	9908
779.284	8058
779.391	9949
779.497	9538
779.603	11694
779.708	9530
779.815	11340
779.920	24307
780.026	39527
780.132	12482
780.238	8352
780.344	8731
780.450	11338
780.556	7917
780.661	7895
780.767	9693
780.873	6894
780.979	8557
781.085	9397
781.190	8145
781.296	7967
781.402	8970
781.507	8141
781.613	6688
781.719	8106
781.824	9175
781.930	8097
782.035	7668
782.141	9341
782.246	6152
782.352	7384
782.457	8327
782.563	8288
782.668	8517
782.773	6437
782.879	7086
782.984	7157
783.090	7352
783.195	7588
783.300	8769
783.405	7079
783.511	6148
783.616	7231
783.721	7532
783.826	6681
783.932	5982
784.037	6659
784.142	7321
784.247	5790
784.352	7857
784.457	6155
784.562	6608
784.667	7169
784.772	6303
784.877	5163
784.982	7614
785.087	6971
785.192	6205
785.297	6621
785.402	7096
785.507	6895
785.611	5979
785.716	5520
785.821	6037
785.926	6285
786.031	6246
786.135	6378
786.240	6844
786.345	5748
786.450	6105
786.554	6329
786.659	5705
786.763	5097
786.868	6437
786.973	6585
787.077	5345
787.182	4950
787.286	6288
787.391	7151
787.495	4615
787.600	4748
787.704	5282
787.809	5519
787.913	5271
788.017	6359
788.122	7139
788.226	5325
788.330	4213
788.435	5708
788.539	6926
788.643	4627
788.747	4514
788.852	5194
788.956	5226
789.060	5481
789.164	4815
789.268	4811
789.372	5611
789.476	5226
789.580	4048
789.684	4857
789.788	6106
789.892	5203
789.996	3756
790.100	3455
790.204	5556
790.308	6178
790.412	4067
790.516	5003
790.620	4803
790.724	6040
790.828	4774
790.931	3055
791.035	5115
791.139	4375
791.242	4166
791.346	4786
791.450	4560
791.554	3396
791.657	3001
791.761	5350
791.864	5236
791.968	5585
792.072	4815
792.175	3484
792.279	4150
792.382	3424
792.486	4350
792.589	4451
792.693	5049
792.796	3380
792.899	4564
793.003	5120
793.106	3194
793.209	3569
793.313	4288
793.416	2214
793.519	3870
793.623	5532
793.726	5064
793.829	3541
793.932	3400
794.035	3115
794.138	5287
794.242	5735
794.345	3208
794.448	3735
794.551	4702
794.654	12358
794.757	21247
794.860	5458
794.963	4644
795.066	4241
795.169	4462
795.272	3314
795.375	5507
795.477	3008
795.580	2693
795.683	2141
795.786	4512
795.889	2789
795.991	3777
796.094	4264
796.197	2391
796.300	5064
796.402	3687
796.505	2894
796.608	2574
796.710	3211
796.813	4054
796.915	3337
797.018	4131
797.120	4175
797.223	2511
797.326	5769
797.428	2753
797.530	2199
797.633	3235
797.735	4689
797.838	3108
797.940	4931
798.042	3333
798.145	3523
798.247	3401
798.349	2091
798.452	3863
798.554	3478
798.656	3414
798.758	5082
798.860	3189
798.962	2827
799.065	2437
799.167	2254
799.269	3805
799.371	3950
799.473	4787
799.575	4035
799.677	2757
799.779	4409
799.881	1663
799.983	3663
800.085	3810
800.187	3375
800.289	2357
800.390	2062
800.492	4377
800.594	4911
800.696	2503
800.798	2728
800.899	2444
801.001	2912
801.103	3330
801.205	3080
801.306	2772
801.408	1926
801.509	3679
801.611	3878
801.713	2870
801.814	2561
801.916	1952
802.017	2083
802.119	1713
802.220	3003
802.322	1562
802.423	3865
802.525	1469
802.626	2297
802.727	3261
802.829	4403
802.930	172
803.031	3612
803.133	2542
803.234	3260
803.335	3093
803.436	2315
803.538	3083
803.639	1767
803.740	2980
803.841	2373
803.942	3393
804.043	3247
804.144	1577
804.245	1696
804.346	2073
804.447	1250
804.548	2918
804.649	3377
804.750	1913
804.851	2980
804.952	2369
805.053	1933
805.154	1508
805.255	3378
805.355	3152
805.456	2669
805.557	2436
805.658	1594
805.758	2700
805.859	2641
805.960	3254
806.061	2223
806.161	2329
806.262	2260
806.362	1717
806.463	1886
806.564	3401
806.664	2396
806.765	2191
806.865	1913
806.966	1848
807.066	1941
807.166	3859
807.267	2981
807.367	1493
807.468	2946
807.568	1398
807.668	2998
807.769	2665
807.869	1753
807.969	2602
808.069	1928
808.170	1901
808.270	1938
808.370	3293
808.470	2457
808.570	1553
808.670	2296
808.770	1942
808.870	1762
808.970	2270
809.070	1623
809.170	1719
809.271	3265
809.370	2231
809.470	2496
809.570	2091
809.670	1562
809.770	2148
809.870	3346
809.970	2552
810.070	2644
810.169	1767
810.269	740
810.369	3067
810.469	2403
810.568	2400
810.668	1319
810.768	3168
810.867	2344
810.967	1298
811.066	1556
811.166	2013
811.265	2454
811.365	1992
811.464	1956
811.564	2265
811.663	2680
811.763	1617
811.862	2118
811.962	2925
812.061	1858
812.160	1071
812.260	2405
812.359	2806
812.458	1911
812.557	3718
812.657	3031
812.756	2549
812.855	1733
812.954	1130
813.053	2139
813.153	2682
813.252	1535
813.351	2560
813.450	2437
813.549	2209
813.648	2768
813.747	2114
813.846	3123
813.945	1992
814.044	3102
814.143	2882
814.242	3638
814.341	1908
814.439	3707
814.538	3101
814.637	2663
814.736	2264
814.835	2910
814.933	2835
815.032	3876
815.131	5090
815.229	9303
815.328	13708
815.427	9652
815.525	8866
815.624	8264
815.722	8109
815.821	8619
815.919	8902
816.018	7865
816.116	8615
816.215	8715
816.313	9294
816.412	11105
816.510	10597
816.609	12302
816.707	13330
816.805	12342
816.904	10184
817.002	10710
817.100	11935
817.198	12235
817.296	10823
817.395	9905
817.493	11417
817.591	9735
817.689	10296
817.787	10393
817.885	9780
817.983	9520
818.081	11303
818.179	10003
818.277	16167
818.375	12998
818.473	10706
818.571	9151
818.669	9897
818.767	9799
818.865	8380
818.963	7446
819.061	9989
819.158	9329
819.256	11424
819.354	10988
819.452	19194
819.549	13623
819.647	10945
819.745	8289
819.842	8712
819.940	8893
820.038	8558
820.135	7705
820.233	9289
820.330	8566
820.428	7096
820.525	8884
820.623	7514
820.720	7515
820.818	9006
820.915	8868
821.012	7806
821.110	7248
821.207	8815
821.304	6628
821.402	8289
821.499	8626
821.596	6476
821.693	8242
821.791	8522
821.888	7752
821.985	8796
822.082	5851
822.179	8118
822.276	8224
822.373	7449
822.470	7059
822.567	8220
822.664	6120
822.761	7125
822.858	7316
822.955	7445
823.052	5399
823.149	8106
823.246	7623
823.343	5682
823.440	6333
823.536	7558
823.633	7260
823.730	5917
823.827	7040
823.923	6901
824.020	5461
824.117	7349
824.213	6608
824.310	6043
824.407	5523
824.503	7109
824.600	6330
824.696	5225
824.793	7836
824.889	7107
824.986	6151
825.082	3442
825.179	6001
825.275	7849
825.371	7739
825.468	5372
825.564	3110
825.660	7220
825.757	7461
825.853	6003
825.949	5045
826.045	5210
826.142	4787
826.238	6372
826.334	6210
826.430	5711
826.526	4429
826.622	4174
826.718	7200
826.814	6581
826.910	6324
827.006	3186
827.102	3143
827.198	6073
827.294	5625
827.390	6391
827.486	4660
827.582	3452
827.678	4438
827.774	6594
827.869	3422
827.965	4642
828.061	4276
828.157	7394
828.252	5045
828.348	4006
828.444	5479
828.539	4077
828.635	5014
828.731	5299
828.826	4132
828.922	5695
829.017	5295
829.113	5941
829.208	3079
829.304	4262
829.399	6152
829.495	4815
829.590	4968
829.685	4110
829.781	5296
829.876	5685
829.971	2725
830.066	2899
830.162	3679
830.257	5955
830.352	4398
830.447	3685
830.543	3342
830.638	4193
830.733	5487
830.828	3839
830.923	4866
831.018	4998
831.113	5479
831.208	3398
831.303	2659
831.398	2714
831.493	4242
831.588	6425
831.683	3073
831.778	2851
831.873	3710
831.967	5272
832.062	3778
832.157	2886
832.252	4181
832.346	3425
832.441	5168
832.536	4333
832.631	4166
832.725	3300
832.820	3183
832.914	3950
833.009	2608
833.104	2520
833.198	2721
833.293	3909
833.387	5148
833.482	3918
833.576	3621
833.670	3765
833.765	3174
833.859	3606
833.954	4318
834.048	4092
834.142	3712
834.237	2425
834.331	2868
834.425	3262
834.519	2907
834.613	3465
834.708	2288
834.802	3281
834.896	2869
834.990	3899
835.084	3531
835.178	1812
835.272	3276
835.366	4104
835.460	5111
835.554	4026
835.648	2909
835.742	2200
835.836	2861
835.930	2626
836.024	3520
836.117	3419
836.211	3099
836.305	3054
836.399	2693
836.493	1819
836.586	3831
836.680	2716
836.774	2301
836.867	3749
836.961	1241
837.055	1786
837.148	1603
837.242	3622
837.335	2864
837.429	3596
837.522	1386
837.616	2163
837.709	2568
837.803	2468
837.896	4216
837.989	3280
838.083	2467
838.176	2097
838.269	1660
838.363	2993
838.456	2273
838.549	3515
838.642	3078
838.735	2688
838.829	3055
838.922	2277
839.015	1916
839.108	1690
839.201	2425
839.294	3166
839.387	2451
839.480	1346
839.573	2305
839.666	1742
839.759	2047
839.852	1747
839.945	3072
840.038	1903
840.131	1390
840.223	1930
840.316	3061
840.409	3339
840.502	2833
840.594	4042
840.687	1212
840.780	1418
840.873	1461
840.965	1662
841.058	2579
841.150	4050
841.243	827
841.336	2387
841.428	2120
841.521	2294
841.613	2400
841.706	2466
841.798	1470
841.890	3035
841.983	1309
842.075	1427
842.167	2012
842.260	2457
842.352	3073
842.444	2444
842.537	814
842.629	1670
842.721	782
842.813	2064
842.905	1406
842.997	3353
843.090	1882
843.182	1914
843.274	882
843.366	2783
843.458	2855
843.550	4126
843.642	2608
843.734	2871
843.826	1329
843.918	1594
844.009	2014
844.101	1488
844.193	1520
844.285	2477
844.377	2099
844.469	1743
844.560	954
844.652	1836
844.744	1293
844.835	2787
844.927	2009
845.019	3196
845.110	2753
845.202	2369
845.293	1608
845.385	914
845.476	1736
845.568	3283
845.659	1690
845.751	1697
845.842	2036
845.934	1229
846.025	988
846.116	2492
846.208	1593
846.299	782
846.390	1974
846.482	1058
846.573	2094
846.664	2006
846.755	895
846.846	2634
846.937	836
847.029	2196
847.120	1585
847.211	1147
847.302	2523
847.393	1358
847.484	1580
847.575	946
847.666	669
847.757	1186
847.847	1624
847.938	3248
848.029	2358
848.120	1779
848.211	1307
848.302	1287
848.392	1247
848.483	2216
848.574	667
848.664	1653
848.755	1462
848.846	1319
848.936	1581
849.027	1980
849.118	2172
849.208	1792
849.299	2778
849.389	3292
849.480	6220
849.570	11164
849.661	21968
849.751	33145
849.841	11599
849.932	2796
850.022	2791
850.112	2352
850.203	1976
850.293	1682
850.383	1183
850.474	636
850.564	1473
850.654	487
850.744	1313
850.834	1067
850.924	2117
851.014	2811
851.104	1276
851.194	872
851.284	1777
851.374	851
851.464	1399
851.554	1651
851.644	425
851.734	1610
851.824	1564
851.914	1697
852.004	2013
852.094	898
852.183	1725
852.273	1458
852.363	1004
852.452	1069
852.542	1670
852.632	743
852.721	1294
852.811	533
852.901	2265
852.990	1889
853.080	2338
853.169	2136
853.259	2433
853.348	1658
853.438	2260
853.527	3901
853.617	3245
853.706	7546
853.795	12170
853.885	26049
853.974	43380
854.063	78325
854.152	101467
854.242	39962
854.331	11347
854.420	5741
854.509	4277
854.598	3484
854.687	2592
854.777	2388
854.866	1807
854.955	1558
855.044	986
855.133	2338
855.222	1883
855.311	1503
855.400	1485
855.488	1419
855.577	1116
855.666	1367
855.755	918
855.844	1631
855.933	1493
856.021	2384
856.110	1641
856.199	1197
856.288	467
856.376	1165
856.465	1052
856.554	1486
856.642	1454
856.731	1480
856.819	1530
856.908	1847
856.996	621
857.085	430
857.173	598
857.262	132
857.350	1610
857.438	1087
857.527	734
857.615	1175
857.703	1810
857.792	1266
857.880	1255
857.968	835
858.056	1285
858.145	1049
858.233	912
858.321	1305
858.409	2186
858.497	1450
858.585	568
858.673	1209
858.761	1031
858.849	962
858.937	1570
859.025	1349
859.113	1762
859.201	1124
859.289	1821
859.377	1266
859.465	1065
859.552	828
859.640	380
859.728	575
859.816	1559
859.903	1038
859.991	-2
860.079	937
860.166	1012
860.254	1201
860.342	2320
860.429	1205
860.517	1212
860.604	1360
860.692	1596
860.779	1041
860.867	938
860.954	921
861.042	1769
861.129	2415
861.216	1965
861.304	1679
861.391	2096
861.478	458
861.565	1309
861.653	2005
861.740	1232
861.827	1655
861.914	1058
862.001	313
862.089	1065
862.176	1446
862.263	852
862.350	2058
862.437	1408
862.524	695
862.611	970
862.698	1430
862.785	1533
862.871	2484
862.958	2357
863.045	1440
863.132	2173
863.219	2053
863.306	844
863.392	2470
863.479	965
863.566	2390
863.652	1879
863.739	2101
863.826	2394
863.912	1978
863.999	2339
864.086	2481
864.172	2068
864.259	2446
864.345	2159
864.432	1976
864.518	1549
864.604	2999
864.691	2331
864.777	2281
864.863	3816
864.950	5080
865.036	6856
865.122	11505
865.209	12657
865.295	11622
865.381	9467
865.467	9965
865.553	10500
865.639	10563
865.726	13833
865.812	20246
865.898	30441
865.984	41832
866.070	69659
866.156	66408
866.242	24891
866.328	12957
866.414	10170
866.499	9597
866.585	9478
866.671	9073
866.757	9264
866.843	9368
866.928	8218
867.014	8350
867.100	8758
867.186	8625
867.271	7845
867.357	8697
867.442	8309
867.528	7737
867.614	7937
867.699	7903
867.785	8093
867.870	7458
867.956	7434
868.041	8334
868.127	8004
868.212	7619
868.297	8137
868.383	8067
868.468	7508
868.553	8600
868.639	8026
868.724	7591
868.809	8308
868.894	7355
868.979	7241
869.065	6602
869.150	6114
869.235	7158
869.320	7775
869.405	6465
869.490	8067
869.575	7179
869.660	5277
869.745	8062
869.830	7418
869.915	6742
870.000	6629
870.085	5832
870.169	7898
870.254	8518
870.339	5340
870.424	5518
870.509	6862
870.593	8216
870.678	7445
870.763	5904
870.847	5541
870.932	6713
871.016	6954
871.101	5392
871.186	6078
871.270	7870
871.355	4532
871.439	5641
871.523	7273
871.608	6046
871.692	5134
871.777	7632
871.861	6950
871.945	5667
872.030	6605
872.114	5932
872.198	5117
872.282	5935
872.367	5479
872.451	4749
872.535	6034
872.619	6279
872.703	4986
872.787	6155
872.871	5797
872.955	4670
873.039	4540
873.123	5239
873.207	6055
873.291	3478
873.375	3772
873.459	5755
873.543	4616
873.627	5038
873.711	4541
873.794	6482
873.878	5010
873.962	4441
874.045	4815
874.129	5705
874.137	5652
874.213	5124
874.245	4897
874.296	4531
874.352	4477
874.380	4451
874.460	4888
874.464	4908
874.547	4953
874.568	4948
874.631	4908
874.676	4723
874.714	4563
874.784	5237
874.798	5382
874.881	4837
874.892	4727
874.965	3961
874.999	4271
875.048	4654
875.107	4976
875.131	5144
875.215	3581
875.215	3580
875.298	2874
875.323	3296
875.381	4431
875.430	5352
875.465	5941
875.538	4522
875.548	4335
875.631	3459
875.646	3382
875.714	3009
875.753	3116
875.798	3243
875.861	4363
875.881	4708
875.964	3962
875.968	3943
876.047	3662
876.076	3847
876.130	4175
876.183	4434
876.213	4570
876.291	4760
876.296	4769
876.379	3279
876.398	3249
876.462	3225
876.506	3253
876.545	3242
876.613	3243
876.628	3262
876.711	3814
876.721	3911
876.794	4814
876.828	4761
876.877	4400
876.935	3468
876.960	3142
877.043	2989
877.043	2991
877.125	3444
877.150	3796
877.208	4420
877.258	3729
877.291	3338
877.365	2656
877.374	2570
877.456	3030
877.472	2946
877.539	2692
877.579	3435
877.622	4158
877.687	3847
877.704	3792
877.787	3717
877.794	3742
877.869	3708
877.901	3410
877.952	3042
878.008	2564
878.034	2340
878.115	2807
878.117	2817
878.199	3012
878.222	3154
878.282	3475
878.329	3773
878.364	3991
878.437	3795
878.447	3732
878.529	2731
878.544	2682
878.611	2687
878.651	2657
878.694	2756
878.758	3197
878.776	3257
878.858	3663
878.865	3594
878.941	2635
878.972	2544
879.023	2387
879.078	2415
879.105	2587
879.185	3290
879.187	3299
879.269	3957
879.292	3937
879.351	3758
879.399	3229
879.433	2841
879.506	2977
879.516	3021
879.598	3182
879.613	3155
879.680	2811
879.720	3022
879.762	3418
879.827	3284
879.844	3183
879.926	2346
879.933	2403
880.007	2990
880.040	2651
880.089	2161
880.147	2620
880.171	2887
880.253	3423
880.254	3420
880.335	2375
880.360	2733
880.417	3795
880.467	3751
880.499	3595
880.574	3482
880.580	3494
880.662	3456
880.680	3349
880.744	2485
880.787	2243
880.825	2220
880.893	2684
880.907	2743
880.989	1526
881.000	1589
881.070	2373
881.106	2563
881.152	2645
881.213	2135
881.233	1979
881.315	2579
881.319	2583
881.396	2823
881.426	2725
881.478	2296
881.532	2500
881.559	2741
881.639	2919
881.641	2906
881.722	2056
881.745	2042
881.803	2772
881.852	3235
881.885	3142
881.958	2228
881.966	2162
882.047	2372
882.064	2338
882.129	2323
882.171	2218
882.210	1900
882.277	1709
882.291	1762
882.372	2246
882.383	2318
882.454	2954
882.489	3018
882.535	2810
882.596	2806
882.616	2839
882.697	2704
882.702	2658
882.778	1601
882.808	1642
882.859	1839
882.914	1785
882.940	1802
883.020	1947
883.021	1952
883.102	2516
883.127	2830
883.183	3242
883.233	3191
883.264	2844
883.339	2063
883.345	2018
883.426	1388
883.445	1379
883.507	1921
883.551	2081
883.587	2250
883.657	3299
883.668	3413
883.749	3235
883.763	3170
883.830	2196
883.869	1756
883.910	1536
883.975	1492
883.991	1591
884.072	1847
884.081	1917
884.152	2715
884.187	3079
884.233	3460
884.292	3503
884.314	3058
884.394	1045
884.398	985
884.475	1417
884.504	1498
884.555	1328
884.610	1159
884.636	1197
884.716	1813
884.716	1817
884.797	2804
884.821	2843
884.877	2639
884.927	2490
884.958	2128
885.033	1479
885.038	1458
885.118	1286
885.139	1211
885.199	1339
885.244	1544
885.279	1801
885.350	2435
885.359	2583
885.439	3500
885.456	3678
885.520	2862
885.561	2442
885.600	2237
885.667	1857
885.680	1915
885.760	2153
885.773	2210
885.840	1679
885.878	1397
885.920	1396
885.984	1275
886.000	1322
886.080	1812
886.089	1864
886.160	2487
886.195	2750
886.240	2485
886.300	1945
886.320	1887
886.400	1900
886.406	1901
886.480	1687
886.511	1589
886.560	1323
886.616	1135
886.640	1351
886.720	1715
886.722	1730
886.800	1677
886.827	1682
886.879	1789
886.932	1806
886.959	2112
887.038	3163
887.039	3154
887.119	2038
887.143	1801
887.198	2041
887.248	2093
887.278	1875
887.354	1377
887.358	1388
887.437	1672
887.459	1771
887.517	2212
887.564	2473
887.596	2120
887.669	1320
887.676	1324
887.755	1472
887.774	1516
887.835	1082
887.880	769
887.914	1123
887.985	1843
887.994	1844
888.073	1930
888.090	1907
888.153	2609
888.195	3053
888.232	2516
888.300	1742
888.311	1724
888.391	1445
888.405	1405
888.470	1382
888.510	1349
888.549	1563
888.615	2093
888.628	2070
888.708	1759
888.720	1714
888.787	2144
888.825	2349
888.866	1680
888.930	776
888.945	1003
889.024	2179
889.035	2339
889.103	2033
889.140	1822
889.182	1544
889.245	1218
889.261	1261
889.340	1479
889.349	1504
889.419	1397
889.454	1356
889.498	1079
889.559	735
889.577	981
889.656	2072
889.664	2186
889.735	1976
889.768	1877
889.814	1912
889.873	1958
889.978	1025
890.083	1239
890.187	1662
890.292	1709
890.397	1202
890.501	1757
890.606	800
890.710	1994
890.815	2519
890.919	1269
891.024	1047
891.128	846
891.233	379
891.337	2195
891.442	2424
891.546	2243
891.650	698
891.755	1673
891.859	2532
891.963	2804
892.068	2167
892.172	809
892.276	160
892.380	1382
892.484	1236
892.589	2798
892.693	1211
892.797	671
892.901	757
893.005	1076
893.109	2080
893.213	2485
893.317	1603
893.421	471
893.525	828
893.629	1326
893.733	1516
893.837	1674
893.941	1271
894.045	1477
894.148	429
894.252	814
894.356	1766
894.460	2771
894.564	678
894.667	1515
894.771	831
894.875	954
894.978	1103
895.082	1661
895.186	1459
895.289	1889
895.393	1039
895.496	2634
895.600	459
895.703	1039
895.807	1427
895.910	1851
896.014	1205
896.117	1194
896.221	1491
896.324	2051
896.427	255
896.531	1107
896.634	505
896.737	1574
896.840	1644
896.944	1921
897.047	1522
897.150	836
897.253	200
897.356	730
897.460	271
897.563	1346
897.666	1084
897.769	1767
897.872	1094
897.975	1156
898.078	1639
898.181	640
898.284	1466
898.387	1753
898.490	1622
898.593	1282
898.695	369
898.798	1466
898.901	954
899.004	1553
899.107	1169
899.209	1214
899.312	1462
899.415	516
899.518	547
899.620	598
899.723	1097
899.826	1192
899.928	1028
900.031	1076
900.133	1338
900.236	1506
900.338	698
900.441	1298
900.543	116
900.646	1134
900.748	576
900.851	1934
900.953	1374
901.055	998
901.158	1202
901.260	1248
901.362	-231
901.465	238
901.567	1571
901.669	2307
901.771	929
901.873	986
901.976	1601
902.078	1357
902.180	674
902.282	405
902.384	910
902.486	2050
902.588	1446
902.690	692
902.792	436
902.894	1642
902.996	2008
903.098	1722
903.200	200
903.302	688
903.404	376
903.505	670
903.607	281
903.709	2094
903.811	1571
903.913	1402
904.014	833
904.116	-25
904.218	680
904.319	1940
904.421	1504
904.523	1448
904.624	969
904.726	256
904.827	279
904.929	214
905.030	424
905.132	1042
905.233	1300
905.335	266
905.436	506
905.537	710
905.639	1762
905.740	974
905.841	1975
905.943	1294
906.044	1685
906.145	1033
906.247	-85
906.348	778
906.449	1764
906.550	1867
906.651	375
906.752	486
906.854	507
906.955	942
907.056	703
907.157	1539
907.258	1516
907.359	805
907.460	-84
907.561	712
907.662	-172
907.762	1020
907.863	1178
907.964	978
908.065	1131
908.166	10
908.267	425
908.367	-16
908.468	183
908.569	987
908.670	1397
908.770	1440
908.871	1233
908.971	1932
909.072	552
909.173	911
909.273	287
909.374	1022
909.474	390
909.575	1402
909.675	1151
909.776	1000
909.876	519
909.977	1064
910.077	630
910.177	886
910.278	1147
910.378	82
910.478	91
910.579	1629
910.679	1261
910.779	806
910.879	1103
910.980	483
911.080	1116
911.180	737
911.280	-194
911.380	1022
911.480	379
911.580	920
911.680	-29
911.780	827
911.880	599
911.980	486
912.080	427
912.180	1387
912.280	566
912.380	791
912.480	-1
912.580	510
912.679	43
912.779	1654
912.879	559
912.979	761
913.078	124
913.178	-70
913.278	-206
913.377	286
913.477	-53
913.577	464
913.676	1588
913.776	1740
913.875	703
913.975	1798
914.074	409
914.174	325
914.273	-556
914.373	1262
914.472	1138
914.572	200
914.671	-310
914.770	868
914.870	52
914.969	553
915.068	935
915.167	1734
915.267	356
915.366	505
915.465	437
915.564	568
915.663	471
915.763	886
915.862	416
915.961	1563
916.060	-137
916.159	986
916.258	319
916.357	746
916.456	1018
916.555	661
916.654	691
916.752	1340
916.851	852
916.950	1408
917.049	-292
917.148	783
917.247	879
917.345	354
917.444	-185
917.543	210
917.642	623
917.740	998
917.839	1306
917.937	2469
918.036	500
918.135	1082
918.233	261
918.332	1168
918.430	320
918.529	1115
918.627	632
918.726	240
918.824	635
918.923	716
919.021	1199
919.119	807
919.218	-802
919.316	327
919.414	983
919.512	412
919.611	516
919.709	1357
919.807	767
919.905	1839
920.003	962
920.102	2352
920.200	1624
920.298	1550
920.396	1220
920.494	1208
920.592	640
920.690	1728
920.788	1302
920.886	716
920.984	2200
921.082	1854
921.180	2287
921.277	1330
921.375	1852
921.473	3188
921.571	3130
921.669	2642
921.766	2197
921.864	2470
921.962	3437
922.060	2853
922.157	2897
922.255	3413
922.352	2789
922.450	4404
922.548	3028
922.645	4192
922.743	4082
922.840	7708
922.938	9626
923.035	8756
923.133	7826
923.230	10088
923.327	11945
923.425	10504
923.522	10564
923.619	10265
923.717	8516
923.814	9078
923.911	8821
924.008	9524
924.106	8241
924.203	7536
924.300	8271
924.397	7726
924.494	8322
924.591	8313
924.688	7683
924.786	8709
924.883	8338
924.979	7668
925.077	8068
925.173	7372
925.270	8498
925.367	7470
925.464	9095
925.561	8330
925.658	9218
925.755	7312
925.852	8368
925.948	7808
926.045	8188
926.142	8436
926.239	7817
926.335	6027
926.432	7447
926.529	7445
926.625	8830
926.722	7044
926.818	6671
926.915	8533
927.011	7119
927.108	7027
927.204	7181
927.301	7238
927.397	7220
927.494	8724
927.590	6061
927.687	5870
927.783	8920
927.879	8155
927.976	7276
928.072	5766
928.168	7044
928.264	7712
928.361	5703
928.457	8581
928.553	6295
928.649	7016
928.745	8011
928.841	5611
928.937	6626
929.033	6939
929.129	6991
929.225	7518
929.321	7126
929.417	6123
929.513	6825
929.609	6319
929.705	5339
929.801	7458
929.897	6044
929.993	5582
930.089	6248
930.184	5946
930.280	5799
930.376	8542
930.471	4897
930.567	4693
930.663	6037
930.758	5019
930.854	5402
930.950	5744
931.045	4884
931.141	5598
931.236	7400
931.332	5670
931.427	4597
931.523	6406
931.618	6131
931.714	4051
931.809	5324
931.905	6361
932.000	4551
932.095	3849
932.191	6778
932.286	8606
932.381	5801
932.476	4278
932.572	5127
932.667	4488
932.762	4725
932.857	5724
932.952	5893
933.047	5285
933.142	3099
933.237	5886
933.332	5614
933.427	6308
933.522	5303
933.617	4760
933.712	4093
933.807	5572
933.902	6168
933.997	6322
934.092	4028
934.187	4843
934.282	5729
934.376	5975
934.471	6018
934.566	5028
934.661	4517
934.755	4153
934.850	6479
934.945	4961
935.039	3511
935.134	3666
935.228	3925
935.323	7305
935.417	4361
935.512	2997
935.606	2863
935.701	5106
935.795	4753
935.890	4947
935.984	3556
936.079	2787
936.173	3988
936.267	5109
936.362	3341
936.456	4695
936.550	5545
936.644	5077
936.738	2938
936.833	2951
936.927	3189
937.021	3940
937.115	4142
937.209	4985
937.303	4626
937.397	3598
937.491	3749
937.585	5388
937.679	4194
937.773	3535
937.867	1964
937.961	2228
938.055	5594
938.149	5456
938.243	3143
938.337	2783
938.430	3460
938.524	4889
938.618	3000
938.712	2802
938.805	4127
938.899	5486
938.993	5024
939.086	2790
939.180	1467
939.274	2290
939.367	3916
939.461	5618
939.554	3404
939.648	2914
939.741	2498
939.835	3762
939.928	4854
940.022	5222
940.115	3081
940.208	3928
940.302	4729
940.395	6229
940.488	2890
940.582	3504
940.675	1923
940.768	2442
940.861	3832
940.954	5414
941.048	1754
941.141	1987
941.234	2217
941.327	2816
941.420	3458
941.513	3337
941.606	2524
941.699	2940
941.792	3668
941.885	3402
941.978	3124
942.071	3254
942.164	1221
942.257	2192
942.349	3203
942.442	4156
942.535	1872
942.628	2475
942.721	2832
942.813	2362
942.906	3646
942.999	2219
943.091	2750
943.184	3445
943.277	2727
943.369	2270
943.462	831
943.554	2632
943.647	3422
943.739	3432
943.832	3649
943.924	1152
944.017	2102
944.109	1258
944.201	2093
944.294	2158
944.386	1925
944.478	2943
944.571	2232
944.663	3134
944.755	3246
944.847	3532
944.940	2911
945.032	1115
945.124	1230
945.216	3845
945.308	2438
945.400	2930
945.492	1918
945.584	3607
945.676	3710
945.768	2857
945.860	2757
945.952	3444
946.044	2656
946.136	2443
946.228	2103
946.320	2178
946.412	1971
946.503	3254
946.595	4008
946.687	2557
946.779	1271
946.870	2126
946.962	1943
947.054	2045
947.145	2454
947.237	2488
947.329	1319
947.420	2238
947.512	2599
947.603	1313
947.695	1696
947.786	1073
947.878	884
947.969	2042
948.061	2901
948.152	2508
948.243	1213
948.335	1758
948.426	1026
948.517	2315
948.609	2056
948.700	2540
948.791	1971
948.882	1200
948.973	724
949.065	2462
949.156	2578
949.247	791
949.338	896
949.429	1136
949.520	943
949.611	1322
949.702	3026
949.793	1856
949.884	2405
949.975	1610
950.066	526
950.157	830
950.247	1497
950.338	1525
950.429	1328
950.520	1884
950.611	1116
950.701	722
950.792	2430
950.883	3188
950.973	1920
951.064	1837
951.155	1964
951.245	2859
951.336	2620
951.427	2372
951.517	2724
951.608	1936
951.698	2038
951.788	1007
951.879	185
951.969	1366
952.060	1924
952.150	1407
952.240	1955
952.331	1791
952.421	2622
952.511	1629
952.602	995
952.692	610
952.782	796
952.872	1418
952.962	2756
953.052	2091
953.143	330
953.233	1729
953.323	1197
953.413	1116
953.503	2017
953.593	1424
953.683	958
953.773	-265
953.863	669
953.953	1066
954.042	1339
954.132	2232
954.222	1833
954.312	1715
954.402	1217
954.492	2056
954.581	1322
954.671	1030
954.761	551
954.850	2677
954.940	482
955.030	647
955.119	970
955.209	933
955.298	486
955.388	1696
955.477	2166
955.567	481
955.656	440
955.746	1854
955.835	709
955.925	778
956.014	1236
956.103	1559
956.193	2815
956.282	2202
956.371	1721
956.461	1303
956.550	995
956.639	1243
956.728	1019
956.817	1973
956.906	654
956.995	2164
957.085	1097
957.174	1123
957.263	1535
957.352	994
957.441	581
957.530	1573
957.619	1394
957.708	1440
957.796	1220
957.885	1556
957.974	1302
958.063	2458
958.152	89
958.241	600
958.329	498
958.418	1018
958.507	141
958.596	3096
958.684	-48
958.773	1864
958.861	909
958.950	959
959.039	1366
959.127	1851
959.216	1761
959.304	527
959.393	-12
959.481	1578
959.570	404
959.658	657
959.746	379
959.835	792
959.923	550
960.011	754
960.100	1747
960.188	1832
960.276	228
960.365	403
960.453	879
960.541	264
960.629	140
960.717	263
960.805	-173
960.893	341
960.981	558
961.069	2084
961.158	1426
961.245	3231
961.333	1917
961.421	1183
961.509	1425
961.597	1487
961.685	635
961.773	1100
961.861	1031
961.949	2403
962.036	381
962.124	1242
962.212	454
962.299	842
962.387	403
962.475	726
962.562	441
962.650	1604
962.738	951
962.825	377
962.913	-209
963.000	759
963.088	1335
963.175	1649
963.263	419
963.350	921
963.438	850
963.525	264
963.612	906
963.700	555
963.787	1164
963.874	926
963.962	1355
964.049	151
964.136	273
964.223	351
964.310	-63
964.398	530
964.485	17
964.572	1161
964.659	189
964.746	544
964.833	1417
964.920	-390
965.007	-356
965.094	1298
965.181	314
965.268	1122
965.355	329
965.441	1339
965.528	-277
965.615	2479
965.702	1272
965.789	48
965.875	798
965.962	1115
966.049	-521
966.136	2442
966.222	872
966.309	1505
966.395	334
966.482	2228
966.569	1047
966.655	1503
966.742	788
966.828	229
966.915	256
967.001	77
967.087	-118
967.174	274
967.260	701
967.347	7
967.433	491
967.519	1166
967.605	-313
967.692	763
967.778	717
967.864	765
967.950	529
968.036	588
968.123	-49
968.209	710
968.295	-862
968.381	1238
968.467	-82
968.553	-267
968.639	602
968.725	-750
968.811	1419
968.897	1883
968.983	269
969.069	-188
969.154	764
969.240	791
969.326	-485
969.412	503
969.497	706
969.583	-384
969.669	2079
969.755	972
969.840	342
969.926	2193
970.012	3016
970.097	3855
970.183	1292
970.268	751
970.354	1042
970.439	-541
970.525	462
970.610	-682
970.696	1442
970.781	869
970.866	-261
970.952	1069
971.037	183
971.122	938
971.208	-175
971.293	683
971.378	-573
971.463	183
971.549	562
971.634	-892
971.719	636
971.804	898
971.889	884
971.974	643
972.059	223
972.144	271
972.229	55
972.314	-21
972.399	-541
972.484	164
972.569	423
972.654	-223
972.739	921
972.824	-7
972.908	126
972.993	-83
973.078	138
973.163	338
973.247	633
973.332	-1402
973.417	1683
973.501	-225
973.586	263
973.671	-144
973.755	-166
973.840	965
973.924	1579
974.009	1737
974.093	694
974.178	1382
974.262	966
974.346	865
974.431	1190
974.515	84
974.600	369
974.684	996
974.768	-291
974.852	1420
974.937	-1211
975.021	1082
975.105	202
975.189	1102
975.273	143
975.358	626
975.442	-699
975.526	1601
975.610	197
975.694	468
975.778	859
975.862	767
975.946	-1029
976.030	2071
976.114	769
976.198	291
976.281	-80
976.365	1512
976.449	-842
976.533	1028
976.617	71
976.700	623
976.784	157
976.868	-1045
976.951	724
977.035	219
977.119	227
977.202	1024
977.286	437
977.369	998
977.453	1719
977.536	1341
977.620	498
977.703	532
977.787	449
977.870	2330
977.953	1648
978.037	-1048
978.120	571
978.203	1013
978.287	1211
978.370	36
978.453	-307
978.536	673
978.620	195
978.703	1302
978.786	-281
978.869	384
978.952	-52
979.035	2116
979.118	800
979.201	209
979.284	339
979.367	-1068
979.450	400
979.533	275
979.616	44
979.699	902
979.782	696
979.865	-333
979.948	389
980.030	425
980.113	-155
980.196	149
980.279	1288
980.361	386
980.444	391
980.526	2025
980.609	1090
980.692	2241
980.774	2396
980.857	143
980.939	1114
981.022	321
981.104	905
981.187	-114
981.269	1305
981.352	1258
981.434	-124
981.516	684
981.599	1411
981.681	549
981.763	273
981.846	599
981.928	1012
982.010	1018
982.092	-25
982.174	961
982.256	538
982.339	969
982.421	-84
982.503	824
982.585	-427
982.667	129
982.749	1151
982.831	671
982.913	300
982.995	1538
983.077	232
983.158	2271
983.240	-380
983.322	1795
983.404	2127
983.486	1081
983.568	1295
983.649	1524
983.731	2003
983.813	1385
983.894	1482
983.976	201
984.058	-26
984.139	1812
984.221	573
984.302	2800
984.384	818
984.465	-245
984.547	757
984.628	1204
984.710	999
984.791	941
984.872	1103
984.954	807
985.035	2030
985.116	1113
985.198	694
985.279	2311
985.360	1142
985.441	783
985.522	2156
985.604	1306
985.685	-574
985.766	1644
985.847	2029
985.928	982
986.009	508
986.090	278
986.171	1208
986.252	130
986.333	1483
986.414	1358
986.495	1368
986.576	1146
986.656	1191
986.737	1726
986.818	1419
986.899	2034
986.980	961
987.060	1791
987.141	981
987.222	2895
987.302	3013
987.383	3220
987.464	1039
987.544	2466
987.625	1629
987.705	3108
987.786	2496
987.866	2015
987.947	1962
988.027	2432
988.108	1413
988.188	2742
988.268	2106
988.349	2245
988.429	1797
988.509	2390
988.589	1279
988.670	579
988.750	2987
988.830	952
988.910	1835
988.990	1428
989.070	1610
989.151	1883
989.231	1166
989.311	2281
989.391	1511
989.471	1447
989.551	962
989.631	1190
989.711	1980
989.791	1174
989.870	1452
989.950	2092
990.030	1478
990.110	1836
990.190	739
990.269	1406
990.349	794
990.429	1980
990.509	1409
990.588	831
990.668	1646
990.747	1037
990.827	1400
990.907	1288
990.986	1102
991.066	967
991.145	804
991.225	2263
991.304	581
991.383	2215
991.463	947
991.542	1654
991.622	1064
991.701	1344
991.780	700
991.859	958
991.939	1567
992.018	1148
992.097	778
992.176	883
992.256	405
992.335	1093
992.414	610
992.493	438
992.572	607
992.651	1810
992.730	1057
992.809	1379
992.888	118
992.967	915
993.046	772
993.125	327
993.203	308
993.282	1457
993.361	1071
993.440	545
993.519	-190
993.597	418
993.676	-331
993.755	1038
993.834	1042
993.912	136
993.991	1191
994.069	-147
994.148	387
994.226	1083
994.305	746
994.384	508
994.462	1739
994.540	134
994.619	-220
994.697	650
994.776	-619
994.854	893
994.932	527
995.011	577
995.089	-598
995.167	649
995.245	341
995.324	-299
995.402	930
995.480	544
995.558	-116
995.636	-697
995.714	-337
995.792	1673
995.870	51
995.948	488
996.026	81
996.104	-679
996.182	46
996.260	-570
996.338	424
996.416	-749
996.494	185
996.572	1323
996.649	-51
996.727	-822
996.805	745
996.883	450
996.960	-906
997.038	823
997.116	399
997.193	-191
997.271	135
997.348	-1169
997.426	-309
997.504	-707
997.581	1122
997.658	763
997.736	-1274
997.813	-1104
997.891	878
997.968	59
998.046	-21
998.123	-329
998.200	179
998.277	-575
998.355	238
998.432	-237
998.509	-1148
998.586	415
998.663	718
998.741	-452
998.818	-429
998.895	-873
998.972	46
999.049	-166
999.126	-556
999.203	662
999.280	19
999.357	-690
999.434	-677
999.511	-358
999.587	-521
999.664	-947
999.741	-819
999.818	743
999.895	-74
999.971	-398
1000.048	-1117
1000.125	936
1000.202	-789
1000.278	-641
1000.355	-819
1000.431	-792
1000.508	-1268
1000.584	-861
1000.661	-116
1000.738	-191
1000.814	143
1000.890	-14
1000.967	-977
1001.043	-778
1001.120	-971
1001.196	-237
1001.272	-761
1001.349	-444
1001.425	27
1001.501	106
1001.577	-1103
1001.654	191
1001.730	-1294
1001.806	-738
1001.882	-979
1001.958	-196
1002.034	-255
1002.110	-247
1002.186	-619
1002.262	-228
1002.338	-1620
1002.414	209
1002.490	-682
1002.566	-566
1002.642	-1304
1002.718	-371
1002.794	-549
1002.870	-782
1002.945	-979
1003.021	-405
1003.097	-850
1003.173	-229
1003.248	-1371
1003.324	-162
1003.400	-636
1003.475	-1573
1003.551	-282
1003.626	-692
1003.702	-1119
1003.777	132
1003.853	-1743
1003.928	-1225
1004.004	-1241
1004.079	-306
1004.155	-1260
1004.230	-1164
1004.305	1189
1004.381	-1487
1004.456	-927
1004.531	-1136
1004.607	-1166
1004.682	-774
1004.757	-1282
1004.832	-770
1004.907	-1430
1004.982	-142
1005.057	-953
1005.133	-190
1005.208	-1620
1005.283	-634
1005.358	-1096
1005.433	-1618
1005.508	-875
1005.583	-1882
1005.657	-1059
1005.732	-747
1005.807	-1847
1005.882	-441
1005.957	-775
1006.032	-1461
1006.106	-1495
1006.181	-1531
1006.256	-469
1006.331	-1321
1006.405	-1450
1006.480	-616
1006.554	-1680
1006.629	-1708
1006.704	-1879
1006.778	-700
1006.853	-58
1006.927	-1611
1007.002	-1330
1007.076	-568
1007.150	-883
1007.225	-1340
1007.299	-469
1007.373	-1952
1007.448	-753
1007.522	112
1007.596	-1150
1007.671	-1256
1007.745	-630
1007.819	-1652
1007.893	-1386
1007.967	-1202
1008.041	-2457
1008.115	-229
1008.190	-1117
1008.264	-430
1008.338	-2007
1008.412	-1306
1008.486	-1166
1008.560	-1004
1008.633	-1862
1008.707	-860
1008.781	-784
1008.855	-1058
1008.929	-1687
1009.003	-2085
1009.076	-2001
1009.150	-891
1009.224	-1824
1009.298	-1333
1009.371	-2162
1009.445	-784
1009.519	-1938
1009.592	-2368
1009.666	-1411
1009.739	-851
1009.813	-2721
1009.886	-911
1009.960	-2168
1010.033	-1255
1010.107	-1254
1010.180	-1803
1010.253	-2132
1010.327	-1812
1010.400	-2580
1010.473	-2106
1010.547	-681
1010.620	-1355
1010.693	-1265
1010.766	-1708
1010.840	-833
1010.913	-864
1010.986	-2431
1011.059	-1598
1011.132	-1751
1011.205	-850
1011.278	-1995
1011.351	-1937
1011.424	-1221
1011.497	-1318
1011.570	-1717
1011.643	-1266
1011.716	-1823
1011.789	-1555
1011.862	-1151
1011.934	-778
1012.007	-2265
1012.080	-1484
1012.153	-1755
1012.225	-359
1012.298	-2297
1012.371	-1007
1012.443	-1534
1012.516	-1869
1012.588	-1153
1012.661	-1607
1012.733	-1787
1012.806	-1305
1012.879	-2195
1012.951	-884
1013.023	-2231
1013.096	-1083
1013.168	-1662
1013.241	-719
1013.313	-841
1013.385	-2094
1013.458	-1381
1013.530	-975
1013.602	-2400
1013.674	-565
1013.746	-2237
1013.819	-1130
1013.891	-1823
1013.963	-2140
1014.035	-1637
1014.107	-876
1014.179	-1706
1014.251	-1533
1014.323	-1516
1014.395	-922
1014.467	-2090
1014.539	-1383
1014.611	-2894
1014.683	-900
1014.754	-1204
1014.826	-2254
1014.898	-1014
1014.970	-2112
1015.042	-1392
1015.113	-1052
1015.185	-1514
1015.257	-1878
1015.328	-1468
1015.400	-938
1015.471	-2090
1015.543	-1667
1015.615	-1589
1015.686	-2027
1015.757	-2376
1015.829	-1948
1015.901	-2716
1015.972	-1836
1016.043	-1533
1016.115	-963
1016.186	-1726
1016.257	-2132
1016.328	-1561
1016.400	-1018
1016.471	-2236
1016.542	-1444
1016.613	-1756
1016.685	-1986
1016.756	-1144
1016.827	-1446
1016.898	-2426
1016.969	-1036
1017.040	-1184
1017.111	-2131
1017.182	-1973
1017.253	-1687
1017.324	-2019
1017.395	-1833
1017.466	-1871
1017.537	-1836
1017.608	-1711
1017.678	-1211
1017.749	-1712
1017.820	-1421
1017.891	-2758
1017.961	-1280
1018.032	-1874
1018.103	-1573
1018.173	-2130
1018.244	-1704
1018.315	-2404
1018.385	-1712
1018.456	-2364
1018.526	-2864
1018.597	-2090
1018.667	-1285
1018.738	-2159
1018.808	-1477
1018.878	-2566
1018.949	-1284
1019.019	-1856
1019.089	-1485
1019.160	-2286
1019.230	-1856
1019.300	-1818
1019.371	-2028
1019.441	-1963
1019.511	-2252
1019.581	-2111
1019.651	-1493
1019.721	-1816
1019.791	-1738
1019.861	-2019
1019.931	-1282
1020.001	-2240
1020.071	-1712
1020.141	-2310
1020.211	-1789
1020.281	-2179
1020.351	-1435
1020.421	-2207
1020.491	-1245
1020.560	-2523
1020.630	-1815
1020.700	-2494
1020.770	-2050
1020.839	-2417
1020.909	-1728
1020.979	-2157
1021.048	-2424
1021.118	-2205
1021.187	-1518
1021.257	-2576
1021.326	-2067
1021.396	-2494
1021.465	-1724
1021.535	-2368
1021.604	-2325
1021.674	-1898
1021.743	-1839
1021.812	-1989
1021.882	-1547
1021.951	-2118
1022.020	-1568
1022.089	-1968
1022.159	-2344
1022.228	-2177
1022.297	-1565
1022.366	-1736
1022.435	-1418
1022.504	-1737
1022.573	-1709
1022.642	-1315
1022.711	-1805
1022.781	-2032
1022.849	-1520
1022.918	-1728
1022.987	-2272
1023.056	-1713
1023.125	-955
1023.194	-1448
1023.263	-1463
1023.331	-1856
1023.400	-2189
1023.469	-2703
1023.538	-1545
1023.606	-2289
1023.675	-1596
1023.744	-2555
1023.812	-1605
1023.881	-2634
1023.949	-1333
1024.018	-1962
1024.086	-2351
1024.155	-2279
1024.223	-2100
1024.292	-2225
1024.360	-1379
1024.429	-2507
1024.497	-2186
1024.565	-1857
1024.634	-1469
1024.702	-2528
1024.770	-1936
1024.838	-1373
1024.907	-999
1024.975	-2010
1025.043	-1319
1025.111	-2276
1025.179	-1555
1025.247	-2374
1025.315	-2042
1025.383	-1536
1025.451	-1306
1025.519	-1643
1025.587	-2137
1025.655	-1234
1025.723	-1866
1025.791	-2092
1025.859	-1440
1025.927	-1503
1025.995	-2465
1026.062	-1874
1026.130	-1976
1026.198	-1556
1026.266	-2085
1026.333	-1704
1026.401	-1547
1026.469	-1978
1026.536	-2394
1026.604	-2111
1026.671	-1451
1026.739	-2773
1026.806	-1918
1026.874	-1677
1026.941	-2528
1027.009	-2803
1027.076	-2059
1027.144	-2072
1027.211	-1871
1027.278	-2593
1027.345	-1476
1027.413	-1905
1027.480	-2459
1027.547	-2248
1027.614	-1823
1027.682	-2273
1027.749	-1489
1027.816	-1984
1027.883	-1593
1027.950	-1499
1028.017	-1526
1028.084	-1700
1028.151	-1499
1028.218	-2413
1028.285	-1481
1028.352	-2250
1028.419	-2703
1028.486	-2275
1028.553	-1812
1028.619	-1432
1028.686	-1040
1028.753	-2086
1028.820	-2642
1028.886	-2112
1028.953	-1514
1029.020	-1452
1029.086	-2096
1029.153	-2458
1029.220	-2367
1029.286	-2015
1029.353	-2148
1029.419	-2252
1029.486	-2204
1029.552	-2025
1029.619	-1746
1029.685	-1917
1029.751	-1821
1029.818	-1213
1029.884	-2004
1029.951	-276
1030.017	-2380
1030.083	-2171
1030.149	-2305
1030.216	-1742
1030.282	-2550
1030.348	-1430
1030.414	-1448
1030.480	-1934
1030.546	-1814
1030.612	-2262
1030.678	-2489
1030.744	-2601
1030.810	-1850
1030.876	-1761
1030.942	-2547
1031.008	-1835
1031.074	-1946
1031.140	-2279
1031.206	-1782
1031.272	-2705
1031.337	-1667
1031.403	-1681
1031.469	-2023
1031.534	-2021
1031.600	-1355
1031.666	-2006
1031.731	-1891
1031.797	-2107
1031.863	-1500
1031.928	-1762
1031.994	-1564
1032.059	-1694
1032.125	-1393
1032.190	-2669
1032.256	-1962
1032.321	-2204
1032.386	-1560
1032.452	-1773
1032.517	-2273
1032.582	-1556
1032.647	-1825
1032.713	-2229
1032.778	-1950
1032.843	-2101
1032.908	-1794
1032.974	-1468
1033.039	-1768
1033.104	-2081
1033.169	-2116
1033.234	-1824
1033.299	-1146
1033.364	-1795
1033.429	-2043
1033.494	-1758
1033.559	-1567
1033.624	-2499
1033.688	-1898
1033.753	-2479
1033.818	-2139
1033.883	-1921
1033.948	-1643
1034.013	-1528
1034.077	-876
1034.142	-628
1034.207	232
1034.271	1092
1034.336	977
1034.400	276
1034.465	-669
1034.530	-1373
1034.594	-2396
1034.658	-2196
1034.723	-1097
1034.787	-2299
1034.852	-2085
1034.916	-2080
1034.981	-2308
1035.045	-2260
1035.109	-1512
1035.173	-2056
1035.238	-2316
1035.302	-2217
1035.366	-2548
1035.430	-1745
1035.495	-1955
1035.559	-2439
1035.623	-2046
1035.687	-2410
1035.751	-2435
1035.815	-2386
1035.879	-1201
1035.943	-2576
1036.007	-2590
1036.071	-2227
1036.135	-2266
1036.198	-2855
1036.262	-2215
1036.326	-2743
1036.390	-2501
1036.454	-2483
1036.517	-1726
1036.581	-1564
1036.645	-2224
1036.709	-1515
1036.772	-2154
1036.836	-2673
1036.900	-2002
1036.963	-2489
1037.026	-2247
1037.090	-1659
1037.154	-1066
1037.217	-1996
1037.280	-2537
1037.344	-2559
1037.407	-1650
1037.471	-1988
1037.534	-1588
1037.597	-2477
1037.661	-1506
1037.724	-2219
1037.787	-2310
1037.850	-1626
1037.913	-2133
1037.977	-1565
1038.040	-2579
1038.103	-2087
1038.166	-2084
1038.229	-2941
1038.292	-2625
1038.355	-2317
1038.418	-3136
1038.481	-1541
1038.544	-2547
1038.607	-2615
1038.670	-1636
1038.732	-2097
1038.795	-2406
1038.858	-2951
1038.921	-2423
1038.984	-2529
1039.046	-2706
1039.109	-1905
1039.172	-2865
1039.234	-3046
1039.297	-1972
1039.360	-2125
1039.422	-2679
1039.485	-2042
1039.547	-2335
1039.610	-1850
1039.672	-2076
1039.734	-2929
1039.797	-1835
1039.859	-2178
1039.922	-1888
1039.984	-2019
1040.046	-1825
1040.109	-2394
1040.171	-2187
1040.233	-2285
1040.295	-2400
1040.358	-2365
1040.420	-2205
1040.482	-2994
1040.544	-2920
1040.606	-2010
1040.668	-2085
1040.730	-2946
1040.792	-2535
1040.854	-2424
1040.916	-2212
1040.978	-2463
1041.040	-1402
1041.102	-2616
1041.164	-2347
1041.225	-2972
1041.287	-3281
1041.349	-3214
1041.411	-2539
1041.472	-1938
1041.534	-2784
1041.596	-2644
1041.657	-3036
1041.719	-2766
1041.781	-2960
1041.842	-3036
1041.904	-2721
1041.965	-2235
1042.027	-2211
1042.088	-2380
1042.150	-1989
1042.211	-2697
1042.272	-2664
1042.334	-2946
1042.395	-1886
1042.456	-2514
1042.518	-2564
1042.579	-2520
1042.640	-2781
1042.701	-2247
1042.763	-2351
1042.824	-2419
1042.885	-1838
1042.946	-2977
1043.007	-2402
1043.068	-2658
1043.129	-2050
1043.190	-2706
1043.251	-2447
1043.312	-2187
1043.373	-2361
1043.434	-2765
1043.495	-2268
1043.556	-1292
1043.616	-2572
1043.677	-3129
1043.738	-2807
1043.799	-2278
1043.859	-2450
1043.920	-2318
1043.981	-2929
1044.041	-3185
1044.102	-2597
1044.162	-2078
1044.223	-2161
1044.284	-2928
1044.344	-2345
1044.405	-2010
1044.465	-1859
1044.525	-2372
1044.586	-1187
1044.646	-2373
1044.707	-2347
1044.767	-1976
1044.827	-2317
1044.887	-2203
1044.948	-2209
1045.008	-2359
1045.068	-1811
1045.128	-2668
1045.188	-2237
1045.249	-2369
1045.309	-2613
1045.369	-2361
1045.429	-1909
1045.489	-2433
1045.549	-1506
1045.609	-2333
1045.669	-2071
1045.729	-2751
1045.789	-2443
1045.848	-2137
1045.908	-2249
1045.968	-2228
1046.028	-2793
1046.088	-1703
1046.147	-1828
1046.207	-2128
1046.267	-1739
1046.326	-1944
1046.386	-1296
1046.446	-1835
1046.505	-1862
1046.565	-634
1046.624	-1491
1046.684	-1446
1046.743	-850
1046.803	-956
1046.862	-481
1046.922	0
