'Start Wavelength	183.907
'End Wavelength	1046.922
'Gate Delay	5.000
'Gate Width (ms)	1.050
'Laser Output Level	0.000
'X Position	0.000
'Y Position	0.000
'Z Position	0.000
'Grid Point Number	1.000
'Shot Number	100.000
183.907	1025.000
183.977	-530.000
184.047	280
184.116	371
184.186	-65
184.256	552
184.325	82
184.395	-829
184.465	550
184.534	150
184.604	129
184.674	-296
184.743	95
184.813	155
184.883	349
184.952	788
185.022	277
185.092	-141
185.161	173
185.231	-398
185.301	-496
185.370	255
185.440	-688
185.509	-81
185.579	-118
185.649	-495
185.718	-190
185.788	-43
185.857	364
185.927	-21
185.996	99
186.066	-663
186.136	661
186.205	-39
186.275	-590
186.344	1115
186.414	-184
186.483	112
186.553	1079
186.622	1071
186.692	750
186.761	-746
186.831	-32
186.900	-3
186.970	37
187.039	538
187.109	384
187.178	350
187.248	578
187.317	-148
187.387	444
187.456	90
187.526	-165
187.595	268
187.664	-317
187.734	695
187.803	-336
187.873	-127
187.942	522
188.012	529
188.081	-767
188.150	370
188.220	341
188.289	514
188.358	520
188.428	662
188.497	136
188.567	155
188.636	-104
188.705	544
188.775	3
188.844	-249
188.913	1131
188.983	-255
189.052	264
189.121	-445
189.191	372
189.260	261
189.329	-153
189.399	493
189.468	76
189.537	168
189.606	305
189.676	463
189.745	221
189.814	446
189.883	459
189.953	-218
190.022	439
190.091	332
190.161	529
190.230	437
190.299	145
190.368	266
190.437	160
190.507	61
190.576	-28
190.645	55
190.714	126
190.783	44
190.853	733
190.922	826
190.991	200
191.060	1026
191.129	9
191.198	302
191.268	-160
191.337	824
191.406	891
191.475	-44
191.544	-392
191.613	6
191.682	-90
191.752	409
191.821	-228
191.890	-230
191.959	582
192.028	789
192.097	365
192.166	304
192.235	-612
192.304	727
192.373	505
192.442	293
192.511	211
192.580	-146
192.650	22
192.719	451
192.788	41
192.857	296
192.926	-688
192.995	199
193.064	189
193.133	384
193.202	-113
193.271	238
193.340	115
193.409	137
193.478	430
193.547	-128
193.615	-340
193.684	-439
193.753	-548
193.822	787
193.891	-152
193.960	380
194.029	-71
194.098	22
194.167	-944
194.236	1389
194.305	-234
194.374	391
194.443	226
194.512	429
194.580	312
194.649	413
194.718	-187
194.787	230
194.856	-274
194.925	891
194.994	235
195.062	-566
195.131	14
195.200	-384
195.269	-185
195.338	-42
195.407	252
195.475	-687
195.544	487
195.613	459
195.682	303
195.751	41
195.819	473
195.888	388
195.957	1070
196.026	62
196.094	958
196.163	-510
196.232	-139
196.301	87
196.369	220
196.438	685
196.507	202
196.576	-99
196.644	280
196.713	16
196.782	-426
196.850	-255
196.919	301
196.988	399
197.056	330
197.125	838
197.194	-573
197.262	311
197.331	-349
197.400	-192
197.468	146
197.537	-180
197.606	-125
197.674	215
197.743	-156
197.812	-280
197.880	635
197.949	-461
198.017	-494
198.086	-702
198.155	10
198.223	995
198.292	162
198.360	424
198.429	-370
198.497	484
198.566	80
198.635	400
198.703	1101
198.772	276
198.840	-74
198.909	354
198.977	-326
199.046	250
199.114	-242
199.183	48
199.251	365
199.320	-966
199.388	551
199.457	34
199.525	173
199.594	392
199.662	364
199.731	36
199.799	351
199.867	103
199.936	-86
200.004	731
200.073	423
200.141	113
200.210	188
200.278	351
200.346	13
200.415	752
200.483	249
200.552	307
200.620	-5
200.688	-385
200.757	92
200.825	381
200.893	-504
200.962	418
201.030	-416
201.098	118
201.167	505
201.235	768
201.303	-608
201.372	282
201.440	49
201.508	73
201.577	765
201.645	10
201.713	-472
201.781	-193
201.850	847
201.918	1131
201.986	517
202.055	963
202.123	852
202.191	-241
202.259	734
202.327	465
202.396	302
202.464	781
202.532	70
202.600	2241
202.669	1810
202.737	557
202.805	877
202.873	644
202.941	-186
203.009	636
203.078	500
203.146	136
203.214	324
203.282	-537
203.350	718
203.418	-228
203.487	787
203.555	131
203.623	-82
203.691	285
203.759	-540
203.827	444
203.895	992
203.963	282
204.031	142
204.099	-62
204.168	686
204.236	628
204.304	575
204.372	-659
204.440	186
204.508	102
204.576	-237
204.644	-19
204.712	-289
204.780	538
204.848	-11
204.916	425
204.984	531
205.052	694
205.120	-105
205.188	41
205.256	408
205.324	221
205.392	-322
205.460	-23
205.528	-149
205.596	147
205.664	-259
205.732	-273
205.799	-16
205.867	442
205.935	-419
206.003	268
206.071	-199
206.139	280
206.207	-290
206.275	-274
206.343	-99
206.411	-231
206.478	600
206.546	692
206.614	545
206.682	-543
206.750	279
206.818	683
206.885	694
206.953	-164
207.021	809
207.089	440
207.157	525
207.225	483
207.292	-408
207.360	260
207.428	303
207.496	-33
207.563	668
207.631	334
207.699	71
207.767	-272
207.834	72
207.902	-82
207.970	-5
208.038	268
208.105	-227
208.173	-106
208.241	562
208.309	279
208.376	-218
208.444	168
208.512	295
208.579	-1059
208.647	216
208.715	1011
208.782	237
208.850	-120
208.918	331
208.985	-214
209.053	-139
209.120	648
209.188	259
209.256	291
209.323	-337
209.391	-532
209.459	1080
209.526	253
209.594	-164
209.661	-604
209.729	-485
209.796	743
209.864	-67
209.932	-769
209.999	1789
210.067	214
210.134	-645
210.202	-191
210.269	587
210.337	1565
210.404	601
210.472	-342
210.539	366
210.607	-922
210.674	0
210.742	273
210.809	-444
210.877	476
210.944	1078
211.012	-1133
211.079	1035
211.146	223
211.214	437
211.281	892
211.349	1166
211.416	797
211.484	371
211.551	-512
211.618	695
211.686	-323
211.753	-104
211.821	777
211.888	-419
211.955	-224
212.023	610
212.090	344
212.157	-573
212.225	-168
212.292	465
212.359	409
212.427	226
212.494	-134
212.561	184
212.629	634
212.696	-345
212.763	396
212.831	-718
212.898	913
212.965	-10
213.032	627
213.100	79
213.167	-467
213.234	1383
213.301	381
213.369	-209
213.436	91
213.503	-528
213.570	626
213.638	-160
213.705	-279
213.772	-612
213.839	-523
213.906	1033
213.973	556
214.041	-932
214.108	-237
214.175	152
214.242	-433
214.309	35
214.376	179
214.444	-281
214.511	234
214.578	-53
214.645	946
214.712	263
214.779	-53
214.846	-937
214.913	-13
214.980	388
215.048	164
215.115	752
215.182	810
215.249	483
215.316	638
215.383	697
215.450	715
215.517	338
215.584	99
215.651	67
215.718	482
215.785	-213
215.852	100
215.919	665
215.986	74
216.053	-1
216.120	-524
216.187	-76
216.254	143
216.321	80
216.388	429
216.455	686
216.522	1294
216.589	508
216.656	253
216.722	224
216.789	235
216.856	-20
216.923	391
216.990	753
217.057	497
217.124	167
217.191	-1235
217.258	381
217.324	98
217.391	362
217.458	58
217.525	130
217.592	272
217.659	-383
217.725	841
217.792	-343
217.859	898
217.926	-258
217.993	-107
218.059	1302
218.126	372
218.193	-265
218.260	-384
218.327	350
218.393	134
218.460	-383
218.527	-218
218.594	115
218.660	179
218.727	799
218.794	-508
218.860	994
218.927	-436
218.994	-71
219.061	349
219.127	-344
219.194	684
219.261	760
219.327	34
219.394	554
219.461	-175
219.527	681
219.594	1257
219.661	-265
219.727	-727
219.794	1775
219.860	-720
219.927	602
219.994	1311
220.060	3264
220.127	2529
220.193	974
220.260	1112
220.326	1044
220.393	294
220.460	-78
220.526	90
220.593	-363
220.659	1546
220.726	-334
220.792	597
220.859	103
220.925	212
220.992	-496
221.058	-716
221.125	619
221.191	317
221.258	-455
221.324	-390
221.391	-376
221.457	245
221.524	73
221.590	352
221.657	490
221.723	103
221.789	-50
221.856	245
221.922	229
221.989	527
222.055	72
222.121	21
222.188	1563
222.254	77
222.321	470
222.387	131
222.453	698
222.520	294
222.586	114
222.652	416
222.719	-6
222.785	1044
222.851	744
222.918	443
222.984	38
223.050	99
223.116	-846
223.183	939
223.249	-685
223.315	330
223.382	-347
223.448	-12
223.514	-816
223.580	977
223.647	-15
223.713	-670
223.779	306
223.845	-23
223.911	616
223.978	-699
224.044	166
224.110	-389
224.176	753
224.242	517
224.309	-233
224.375	902
224.441	193
224.507	-348
224.573	-718
224.639	1096
224.705	-583
224.772	319
224.838	119
224.904	784
224.970	-141
225.036	-141
225.102	-1360
225.168	373
225.234	278
225.300	197
225.366	467
225.432	1122
225.499	206
225.565	-758
225.631	-771
225.697	128
225.763	773
225.829	332
225.895	-89
225.961	170
226.027	277
226.093	-692
226.159	622
226.225	278
226.291	-138
226.357	-842
226.423	469
226.489	461
226.554	-387
226.620	159
226.686	-430
226.752	-120
226.818	-583
226.884	559
226.950	326
227.016	998
227.082	584
227.148	119
227.214	734
227.279	78
227.345	-364
227.411	910
227.477	1492
227.543	6510
227.609	5667
227.674	2610
227.740	1483
227.806	1021
227.872	-58
227.938	642
228.003	480
228.069	487
228.135	-368
228.201	706
228.267	-107
228.332	-16
228.398	-1267
228.464	1096
228.530	8
228.595	488
228.661	-187
228.727	529
228.792	1296
228.858	343
228.924	-1935
228.990	881
229.055	-792
229.121	205
229.187	790
229.252	-253
229.318	-205
229.384	396
229.449	-156
229.515	-876
229.581	-877
229.646	1617
229.712	-109
229.777	-387
229.843	892
229.909	280
229.974	405
230.040	930
230.105	-442
230.171	-524
230.236	1211
230.302	-407
230.368	-639
230.433	162
230.499	336
230.564	161
230.630	-256
230.695	6
230.761	1067
230.826	-1169
230.892	1138
230.957	-226
231.023	476
231.088	586
231.154	-72
231.219	261
231.284	-726
231.350	998
231.415	-449
231.481	1315
231.546	-155
231.612	406
231.677	-600
231.742	-250
231.808	1330
231.873	-238
231.939	-1464
232.004	1393
232.069	963
232.135	-389
232.200	-143
232.265	804
232.331	-167
232.396	322
232.461	-506
232.527	-145
232.592	-579
232.657	60
232.723	883
232.788	-9
232.853	1363
232.918	294
232.984	-44
233.049	-332
233.114	-34
233.179	1074
233.245	807
233.310	859
233.375	-547
233.440	306
233.506	-986
233.571	-172
233.636	411
233.701	-112
233.766	311
233.832	586
233.897	-353
233.962	-591
234.027	1260
234.092	715
234.157	25
234.222	627
234.288	646
234.353	16
234.418	944
234.483	518
234.548	-169
234.613	-107
234.678	-70
234.743	-656
234.808	1394
234.873	-902
234.938	1090
235.004	298
235.069	-182
235.134	-875
235.199	1372
235.264	-132
235.329	-612
235.394	603
235.459	1131
235.524	-765
235.589	393
235.654	354
235.719	-1394
235.784	1086
235.849	378
235.913	811
235.978	268
236.043	390
236.108	229
236.173	-342
236.238	640
236.303	-799
236.368	-709
236.433	575
236.498	-25
236.563	-324
236.627	-105
236.692	893
236.757	408
236.822	830
236.887	-274
236.952	888
237.017	-671
237.081	714
237.146	-532
237.211	746
237.276	421
237.341	1188
237.405	-495
237.470	-649
237.535	367
237.600	225
237.664	795
237.729	-705
237.794	306
237.859	1144
237.923	-137
237.988	128
238.053	425
238.118	261
238.182	499
238.247	2158
238.312	174
238.376	1349
238.441	-1416
238.506	1155
238.570	-589
238.635	640
238.700	-12
238.764	119
238.829	-860
238.893	-477
238.958	692
239.023	505
239.087	-189
239.152	659
239.216	382
239.281	1162
239.346	729
239.410	1087
239.475	54
239.539	1467
239.604	-338
239.668	994
239.733	2026
239.797	4573
239.862	13159
239.926	8266
239.991	3401
240.055	1763
240.120	544
240.184	1131
240.249	115
240.313	118
240.378	-112
240.442	652
240.507	867
240.571	376
240.635	-198
240.700	1122
240.764	-29
240.829	308
240.893	-689
240.957	355
241.022	748
241.086	1769
241.151	-604
241.215	-724
241.279	1526
241.344	-605
241.408	1301
241.472	-531
241.537	851
241.601	505
241.665	-333
241.730	389
241.794	588
241.858	-480
241.922	290
241.987	753
242.051	93
242.115	-1496
242.179	228
242.244	-31
242.308	1510
242.372	221
242.436	-477
242.501	579
242.565	-66
242.629	-323
242.693	1220
242.757	-266
242.822	-186
242.886	900
242.950	479
243.014	-477
243.078	229
243.142	119
243.206	202
243.271	670
243.335	-172
243.399	1634
243.463	-246
243.527	1057
243.591	-484
243.655	221
243.719	-1029
243.783	850
243.847	-37
243.911	886
243.975	-34
244.040	-785
244.104	2354
244.168	1059
244.232	462
244.296	-537
244.360	194
244.424	-1158
244.488	290
244.552	733
244.615	-664
244.679	796
244.743	464
244.807	-815
244.871	625
244.935	866
244.999	-1087
245.063	414
245.127	1405
245.191	1095
245.255	225
245.319	976
245.383	-1103
245.446	1573
245.510	-229
245.574	328
245.638	612
245.702	-718
245.766	640
245.829	1869
245.893	-452
245.957	-174
246.021	1373
246.085	677
246.149	736
246.212	1888
246.276	1366
246.340	539
246.404	515
246.467	1366
246.531	-1148
246.595	951
246.659	1420
246.722	-536
246.786	999
246.850	893
246.913	-238
246.977	-292
247.041	658
247.104	520
247.168	1533
247.232	926
247.295	2747
247.359	977
247.423	305
247.486	304
247.550	955
247.614	-58
247.677	732
247.741	374
247.804	252
247.868	1767
247.932	434
247.995	3085
248.059	529
248.122	167
248.186	1917
248.249	432
248.313	3431
248.376	4408
248.440	1932
248.503	-147
248.567	1864
248.630	-315
248.694	464
248.757	1737
248.821	4178
248.884	3162
248.948	1259
249.011	2350
249.075	4773
249.138	4746
249.202	673
249.265	596
249.328	791
249.392	-240
249.455	1119
249.519	-50
249.582	-561
249.645	938
249.709	59
249.772	148
249.835	395
249.899	367
249.962	951
250.025	176
250.089	1302
250.152	2406
250.215	950
250.279	243
250.342	933
250.405	433
250.468	342
250.532	466
250.595	1968
250.658	-128
250.721	2312
250.785	492
250.848	1268
250.911	238
250.974	786
251.038	-24
251.101	3014
251.164	424
251.227	884
251.290	429
251.354	1364
251.417	670
251.480	1610
251.543	956
251.606	4631
251.669	2996
251.732	1064
251.795	890
251.859	1332
251.922	1166
251.985	1230
252.048	719
252.111	639
252.174	65
252.237	1143
252.300	5033
252.363	1357
252.426	3631
252.489	595
252.552	765
252.615	221
252.678	1558
252.741	3709
252.804	2179
252.867	3704
252.930	2457
252.993	1498
253.056	1337
253.119	345
253.182	368
253.245	753
253.308	1187
253.371	-427
253.434	798
253.497	474
253.559	1766
253.622	1297
253.685	749
253.748	581
253.811	599
253.874	913
253.937	15
254.000	1083
254.062	1070
254.125	1699
254.188	1885
254.251	807
254.314	773
254.376	268
254.439	820
254.502	1041
254.565	901
254.628	2807
254.690	341
254.753	512
254.816	446
254.878	1014
254.941	1358
255.004	834
255.067	500
255.129	70
255.192	81
255.255	-87
255.317	843
255.380	437
255.443	154
255.505	771
255.568	-573
255.631	6
255.693	957
255.756	354
255.819	1764
255.881	905
255.944	1086
256.006	-38
256.069	785
256.132	-100
256.194	142
256.257	1182
256.319	125
256.382	53
256.444	2379
256.507	1075
256.569	596
256.632	-156
256.694	318
256.757	1151
256.819	814
256.882	-201
256.944	-33
257.007	1457
257.069	47
257.132	44
257.194	1773
257.257	-579
257.319	1
257.381	-717
257.444	1641
257.506	595
257.569	1361
257.631	1032
257.693	870
257.756	434
257.818	422
257.880	-151
257.943	636
258.005	-462
258.067	332
258.130	422
258.192	1089
258.254	-982
258.317	307
258.379	1064
258.441	711
258.503	1392
258.566	267
258.628	1747
258.690	536
258.753	467
258.815	703
258.877	109
258.939	429
259.001	1132
259.064	62
259.126	-8
259.188	317
259.250	990
259.312	781
259.375	951
259.437	430
259.499	803
259.561	548
259.623	583
259.685	96
259.747	880
259.809	1176
259.872	1604
259.934	2144
259.996	1351
260.058	1009
260.120	1
260.182	1367
260.244	34
260.306	-129
260.368	1330
260.430	758
260.492	896
260.554	1930
260.616	533
260.678	1080
260.740	1149
260.802	353
260.864	985
260.926	518
260.988	988
261.050	714
261.112	55
261.174	1690
261.236	571
261.298	559
261.359	1590
261.421	1496
261.483	508
261.545	2003
261.607	-462
261.669	639
261.731	738
261.793	1217
261.854	-514
261.916	957
261.978	698
262.040	849
262.102	818
262.164	909
262.225	774
262.287	1310
262.349	-230
262.411	464
262.472	1418
262.534	175
262.596	-158
262.658	1507
262.719	165
262.781	1584
262.843	-32
262.904	1238
262.966	1081
263.028	908
263.090	1096
263.151	1720
263.213	1700
263.275	598
263.336	1004
263.398	1886
263.459	890
263.521	472
263.583	1368
263.644	615
263.706	1142
263.767	267
263.829	1283
263.891	1118
263.952	-247
264.014	-164
264.075	17
264.137	-277
264.198	-350
264.260	668
264.321	490
264.383	199
264.444	589
264.506	370
264.567	25
264.629	1527
264.690	-1405
264.752	1057
264.813	793
264.875	763
264.936	893
264.998	822
265.059	309
265.120	636
265.182	539
265.243	373
265.305	577
265.366	300
265.427	642
265.489	959
265.550	-343
265.611	-190
265.673	240
265.734	820
265.795	778
265.857	-713
265.918	113
265.979	987
266.040	-420
266.102	-13
266.163	1129
266.224	731
266.286	169
266.347	316
266.408	997
266.469	1570
266.530	956
266.592	583
266.653	944
266.714	250
266.775	766
266.836	883
266.898	898
266.959	1281
267.020	1272
267.081	2084
267.142	1541
267.203	672
267.264	522
267.326	2276
267.387	1296
267.448	1303
267.509	1291
267.570	640
267.631	337
267.692	676
267.753	1095
267.814	498
267.875	861
267.936	837
267.997	-227
268.058	311
268.119	184
268.180	238
268.241	-377
268.302	34
268.363	368
268.424	183
268.485	181
268.546	-281
268.607	27
268.668	1076
268.729	289
268.790	350
268.851	430
268.912	29
268.972	797
269.033	-272
269.094	-12
269.155	920
269.216	550
269.277	137
269.338	1192
269.398	287
269.459	172
269.520	6
269.581	-393
269.642	1089
269.702	97
269.763	675
269.824	126
269.885	10
269.945	1625
270.006	396
270.067	113
270.128	-28
270.188	-99
270.249	-429
270.310	-936
270.370	725
270.431	-14
270.492	-430
270.553	307
270.613	-390
270.674	1075
270.734	-186
270.795	476
270.856	567
270.916	-541
270.977	462
271.038	246
271.098	157
271.159	622
271.219	-176
271.280	229
271.340	593
271.401	514
271.462	276
271.522	-144
271.583	503
271.643	-69
271.704	381
271.764	844
271.825	607
271.885	3691
271.946	6213
272.006	2898
272.066	1922
272.127	5673
272.187	5811
272.248	3100
272.308	1791
272.369	2138
272.429	2011
272.489	517
272.550	1545
272.610	1359
272.671	1586
272.731	1181
272.791	1344
272.852	566
272.912	1800
272.972	1404
273.033	1436
273.093	852
273.153	2039
273.214	1685
273.274	2512
273.334	3478
273.394	5254
273.455	3977
273.515	4256
273.575	5549
273.635	4231
273.696	5802
273.756	6890
273.816	4607
273.876	4130
273.936	2881
273.997	3692
274.057	1797
274.117	1894
274.177	2011
274.237	3518
274.297	3151
274.358	2291
274.418	2433
274.478	2270
274.538	428
274.598	243
274.658	1520
274.718	1162
274.778	892
274.838	713
274.898	724
274.958	1423
275.018	2693
275.078	2096
275.138	983
275.198	837
275.258	572
275.318	280
275.378	1230
275.438	1548
275.498	1138
275.558	1060
275.618	880
275.678	1905
275.738	1792
275.798	1368
275.858	-92
275.918	777
275.978	27
276.038	1067
276.098	1518
276.157	982
276.217	965
276.277	704
276.337	861
276.397	109
276.457	1111
276.517	1481
276.576	1595
276.636	490
276.696	1756
276.756	1583
276.815	885
276.875	981
276.935	1105
276.995	1350
277.055	2139
277.114	1913
277.174	1888
277.234	1526
277.293	1960
277.353	1176
277.413	1120
277.472	2210
277.532	1999
277.592	3819
277.651	14216
277.711	28703
277.771	11126
277.830	27861
277.890	25727
277.950	17840
278.009	50860
278.069	21749
278.128	21358
278.188	33300
278.248	14377
278.307	33622
278.367	22291
278.426	6201
278.486	4579
278.545	3844
278.605	2902
278.664	3417
278.724	2467
278.783	3973
278.843	5784
278.902	3516
278.962	4115
279.021	4569
279.081	9774
279.140	10004
279.199	6349
279.259	7005
279.318	9152
279.378	12983
279.437	19765
279.496	44555
279.556	132653
279.615	119607
279.675	43862
279.734	23367
279.793	22804
279.853	26436
279.912	13108
279.971	9843
280.031	9250
280.090	11130
280.149	17900
280.208	25002
280.268	94045
280.327	103532
280.386	33493
280.445	15620
280.505	10069
280.564	7098
280.623	5213
280.682	5611
280.742	6289
280.801	3754
280.860	3661
280.919	3273
280.978	3478
281.037	3181
281.097	2408
281.156	4839
281.215	3106
281.274	2054
281.333	2525
281.392	3299
281.451	1960
281.510	2957
281.569	2736
281.628	2205
281.688	2344
281.747	4156
281.806	1674
281.865	2396
281.924	1956
281.983	2627
282.042	1918
282.101	1100
282.160	2031
282.219	2271
282.278	2061
282.337	2135
282.396	1738
282.454	2208
282.513	2010
282.572	2365
282.631	1943
282.690	2042
282.749	1093
282.808	2237
282.867	2550
282.926	2760
282.985	2484
283.043	3163
283.102	2428
283.161	2305
283.220	3265
283.279	3110
283.338	2829
283.396	2877
283.455	3065
283.514	3376
283.573	3832
283.631	3041
283.690	3070
283.749	3410
283.808	3846
283.866	4136
283.925	4400
283.984	4093
284.043	5165
284.101	4769
284.160	5073
284.219	5954
284.277	7030
284.336	6578
284.395	8663
284.453	9184
284.512	10013
284.570	12045
284.629	13639
284.688	16899
284.746	20634
284.805	25418
284.863	32748
284.922	40163
284.981	50063
285.039	67247
285.098	97972
285.156	130839
285.215	91759
285.273	84384
285.332	131596
285.390	110854
285.449	77777
285.507	55670
285.566	41420
285.624	33206
285.683	26102
285.741	21199
285.799	17636
285.858	15035
285.916	12496
285.975	11105
286.033	10082
286.091	9686
286.150	6924
286.208	7562
286.267	6450
286.325	5696
286.383	5940
286.442	4795
286.500	5155
286.558	4557
286.616	3798
286.675	4028
286.733	3884
286.791	3391
286.850	4243
286.908	2856
286.966	3429
287.024	3828
287.083	1637
287.141	2246
287.199	2938
287.257	3346
287.315	3182
287.374	1847
287.432	1982
287.490	2019
287.548	2147
287.606	1509
287.664	1859
287.723	1578
287.781	2288
287.839	2342
287.897	2126
287.955	1992
288.013	1410
288.071	1870
288.129	2028
288.187	5843
288.245	3921
288.303	1508
288.361	1824
288.419	1086
288.477	953
288.535	1278
288.593	849
288.651	1622
288.709	957
288.767	986
288.825	1397
288.883	1002
288.941	1275
288.999	728
289.057	748
289.115	720
289.173	1659
289.231	1713
289.289	695
289.346	777
289.404	911
289.462	1584
289.520	910
289.578	877
289.636	450
289.694	1324
289.751	1246
289.809	1611
289.867	1262
289.925	2070
289.983	1370
290.040	888
290.098	850
290.156	744
290.214	1216
290.271	606
290.329	1249
290.387	1522
290.444	568
290.502	842
290.560	1212
290.617	1275
290.675	883
290.733	1292
290.790	922
290.848	1571
290.906	-5
290.963	1637
291.021	1060
291.078	372
291.136	1279
291.194	1171
291.251	794
291.309	169
291.366	1149
291.424	1681
291.481	1187
291.539	2509
291.596	2892
291.654	1051
291.711	933
291.769	1820
291.826	673
291.884	1330
291.941	374
291.999	1609
292.056	978
292.114	799
292.171	1006
292.228	1838
292.286	1280
292.343	520
292.401	1207
292.458	1046
292.515	1071
292.573	1581
292.630	1055
292.687	448
292.745	1077
292.802	-27
292.859	2002
292.917	3669
292.974	1945
293.031	1347
293.089	1049
293.146	468
293.203	1201
293.260	1081
293.318	829
293.375	714
293.432	392
293.489	1653
293.546	1168
293.604	1289
293.661	4324
293.718	8047
293.775	4368
293.832	3429
293.889	5484
293.947	3654
294.004	1925
294.061	1709
294.118	2217
294.175	3467
294.232	6815
294.289	5356
294.346	2909
294.403	1808
294.460	1007
294.517	637
294.574	712
294.631	1526
294.688	1300
294.745	743
294.802	2987
294.859	2200
294.916	1378
294.973	760
295.030	676
295.087	346
295.144	1096
295.201	727
295.258	501
295.315	704
295.372	1652
295.429	1667
295.486	1063
295.542	1038
295.599	845
295.656	764
295.713	1098
295.770	1869
295.827	707
295.883	1470
295.940	508
295.997	720
296.054	314
296.111	439
296.167	1924
296.224	-96
296.281	603
296.338	-95
296.394	959
296.451	-22
296.508	780
296.564	1427
296.621	1396
296.678	3407
296.734	5730
296.791	2283
296.848	859
296.904	470
296.961	1285
297.018	2013
297.074	2094
297.131	821
297.187	1354
297.244	868
297.301	3165
297.357	6624
297.414	1677
297.470	1503
297.527	509
297.583	1102
297.640	316
297.696	216
297.753	278
297.809	629
297.866	491
297.922	1032
297.979	998
298.035	-122
298.092	985
298.148	1617
298.204	1295
298.261	595
298.317	1817
298.374	4509
298.430	3314
298.486	849
298.543	407
298.599	597
298.656	-236
298.712	1225
298.768	840
298.824	236
298.881	876
298.937	992
298.993	1469
299.050	734
299.106	1142
299.162	325
299.218	600
299.275	396
299.331	848
299.387	1836
299.443	6050
299.500	16325
299.556	12753
299.612	5101
299.668	4768
299.724	11861
299.780	17277
299.837	6452
299.893	3538
299.949	8841
300.005	15818
300.061	12351
300.117	19630
300.173	9517
300.229	4468
300.285	2037
300.341	1575
300.397	2067
300.453	1569
300.510	1983
300.566	2400
300.622	4879
300.678	19095
300.734	27358
300.790	12436
300.845	8312
300.901	9960
300.957	17773
301.013	8629
301.069	3453
301.125	2212
301.181	2063
301.237	2177
301.293	706
301.349	1370
301.405	764
301.461	1242
301.516	1220
301.572	637
301.628	440
301.684	-55
301.740	1105
301.796	1244
301.851	875
301.907	1057
301.963	1387
302.019	3310
302.074	12730
302.130	14411
302.186	6830
302.242	2712
302.297	1572
302.353	898
302.409	1121
302.464	907
302.520	1585
302.576	2816
302.631	2878
302.687	431
302.743	875
302.798	386
302.854	119
302.910	704
302.965	965
303.021	349
303.076	1357
303.132	727
303.187	898
303.243	216
303.299	874
303.354	-469
303.410	1161
303.465	-59
303.521	274
303.576	907
303.632	814
303.687	2054
303.743	2852
303.798	3182
303.853	1670
303.909	319
303.964	276
304.020	113
304.075	233
304.130	706
304.186	1958
304.241	1285
304.297	1072
304.352	31
304.358	91
304.407	571
304.449	818
304.463	904
304.518	286
304.539	417
304.573	599
304.629	1555
304.630	1528
304.684	469
304.720	1810
304.739	2465
304.794	5114
304.811	4382
304.850	2592
304.902	1406
304.905	1330
304.960	1261
304.992	1267
305.015	1286
305.071	919
305.083	962
305.126	1100
305.173	889
305.181	854
305.236	699
305.264	531
305.292	372
305.347	551
305.354	531
305.402	431
305.445	371
305.457	351
305.512	514
305.535	646
305.567	825
305.622	1309
305.626	1259
305.678	694
305.716	2179
305.733	2709
305.788	2814
305.807	2607
305.843	2509
305.897	3649
305.898	3657
305.953	4238
305.988	3013
306.008	2345
306.063	1098
306.078	970
306.118	954
306.168	679
306.173	638
306.228	431
306.259	828
306.283	1154
306.338	1103
306.349	1041
306.393	831
306.440	1227
306.448	1297
306.503	1463
306.530	1412
306.558	1352
306.613	1502
306.620	1486
306.668	1807
306.711	2243
306.723	2169
306.778	1741
306.801	1615
306.833	1713
306.888	1344
306.892	1331
306.943	1187
306.982	967
306.997	952
307.052	1527
307.072	1609
307.107	1556
307.162	1081
307.163	1083
307.217	1708
307.253	1794
307.272	1887
307.327	1751
307.343	1773
307.381	1809
307.434	1963
307.436	1970
307.491	2306
307.524	2170
307.546	2084
307.600	2815
307.614	2730
307.655	2268
307.704	1611
307.710	1619
307.765	2136
307.795	2008
307.819	1594
307.874	2020
307.885	1975
307.929	2304
307.975	3141
307.984	3252
308.038	3036
308.065	3142
308.093	3768
308.148	4922
308.156	5181
308.202	6351
308.246	7552
308.257	7516
308.312	5203
308.336	4786
308.366	4999
308.421	4966
308.426	4946
308.475	4969
308.517	5374
308.530	5549
308.585	6301
308.607	6552
308.639	6977
308.694	7295
308.697	7330
308.748	7909
308.787	7749
308.803	7898
308.857	8960
308.877	9474
308.912	11437
308.967	14681
308.967	14709
309.021	24857
309.058	32903
309.076	37000
309.130	51409
309.148	54768
309.185	63227
309.238	76144
309.239	76776
309.293	103025
309.328	118002
309.348	109393
309.402	75077
309.418	64521
309.457	52981
309.508	40800
309.511	41425
309.566	54488
309.598	64429
309.620	85628
309.674	144718
309.688	160007
309.729	148997
309.778	122343
309.783	119051
309.837	72780
309.868	48100
309.892	41348
309.946	27760
309.959	25141
310.001	20662
310.049	15492
310.055	15069
310.109	12233
310.139	10748
310.163	9594
310.218	7223
310.229	6713
310.272	6455
310.319	6651
310.326	6456
310.381	4739
310.409	4022
310.435	4311
310.489	4526
310.499	4622
310.543	4130
310.589	3564
310.598	3609
310.652	3861
310.679	3843
310.706	3481
310.760	3103
310.769	3020
310.814	3310
310.859	3679
310.868	3690
310.923	3616
310.948	3500
310.977	3533
311.031	3720
311.038	3737
311.085	3674
311.128	3513
311.139	3542
311.193	3860
311.218	3931
311.247	3693
311.301	3143
311.308	3068
311.356	2950
311.398	2923
311.410	2978
311.464	3069
311.488	3163
311.518	3176
311.572	3039
311.578	3028
311.626	3187
311.668	3283
311.680	3371
311.734	3645
311.758	3804
311.788	3585
311.842	3089
311.847	3034
311.896	3160
311.937	3249
311.950	3125
312.004	2563
312.027	2315
312.058	2704
312.112	3400
312.117	3462
312.165	3036
312.207	2663
312.297	3220
312.386	2712
312.476	4016
312.566	3711
312.656	3177
312.745	3237
312.835	3899
312.925	3445
313.015	3657
313.104	2144
313.194	3993
313.284	3886
313.374	4576
313.463	3888
313.553	4203
313.643	4153
313.732	4894
313.822	4022
313.912	5932
314.001	4969
314.091	6655
314.180	5844
314.270	6229
314.360	4762
314.449	5215
314.539	5294
314.628	6457
314.718	5172
314.808	6418
314.897	6923
314.987	7824
315.076	8248
315.166	7818
315.255	6884
315.345	7178
315.434	6430
315.524	8035
315.613	9744
315.703	17294
315.792	57586
315.881	230637
315.971	64094
316.060	14347
316.150	8019
316.239	7608
316.328	6072
316.418	6707
316.507	6478
316.597	7923
316.686	7946
316.775	7266
316.865	6713
316.954	6470
317.043	6699
317.133	6343
317.222	5593
317.311	5346
317.400	4421
317.490	8921
317.579	9573
317.668	13416
317.757	26884
317.847	100545
317.936	324629
318.025	91925
318.114	89037
318.203	34514
318.293	10374
318.382	11802
318.471	11781
318.560	8579
318.649	6406
318.738	6284
318.828	4455
318.917	4252
319.006	3778
319.095	4150
319.184	4384
319.273	4851
319.362	3579
319.451	4538
319.540	3624
319.629	4953
319.718	4282
319.807	4166
319.896	3746
319.985	5195
320.074	4437
320.163	4471
320.252	3696
320.341	5085
320.430	5016
320.519	5141
320.608	5017
320.697	7185
320.786	6577
320.875	8878
320.964	9481
321.053	9329
321.142	10191
321.230	11047
321.319	12426
321.408	15252
321.497	14842
321.586	12058
321.675	8955
321.764	9140
321.852	8442
321.941	9419
322.030	9584
322.119	10033
322.207	12562
322.296	14204
322.385	15392
322.474	19651
322.562	21259
322.651	16339
322.740	11275
322.829	9803
322.917	8449
323.006	8228
323.095	7096
323.183	6598
323.272	5748
323.361	6479
323.449	6140
323.538	4582
323.626	5028
323.715	5570
323.804	4451
323.892	5060
323.981	4455
324.069	4939
324.158	4568
324.246	4876
324.335	3938
324.424	5015
324.512	4586
324.601	5371
324.689	4097
324.778	4706
324.866	3545
324.954	4239
325.043	3842
325.131	3397
325.220	4653
325.308	3887
325.397	3429
325.485	3444
325.574	3270
325.662	3160
325.750	2736
325.839	4138
325.927	3066
326.015	3422
326.104	3275
326.192	3667
326.280	3090
326.369	3777
326.457	2701
326.545	4355
326.634	3473
326.722	3794
326.810	4077
326.898	6074
326.987	4537
327.075	3292
327.163	4263
327.251	3907
327.340	3717
327.428	7085
327.516	6650
327.604	5521
327.692	4271
327.781	4104
327.869	3269
327.957	2698
328.045	3218
328.133	3015
328.221	2583
328.309	2896
328.397	2743
328.485	4467
328.574	7315
328.662	10791
328.750	6267
328.838	4643
328.926	4324
329.014	3795
329.102	3168
329.190	3790
329.278	3160
329.366	3326
329.454	2902
329.542	3052
329.630	3067
329.718	3690
329.806	3469
329.893	3903
329.981	2639
330.069	3808
330.157	3620
330.245	5752
330.333	3327
330.421	3884
330.509	2972
330.597	5086
330.684	3061
330.772	3638
330.860	2292
330.948	3454
331.036	3076
331.123	3554
331.211	3484
331.299	3040
331.387	3433
331.475	3548
331.562	3178
331.650	3556
331.738	3108
331.825	3058
331.913	2528
332.001	3141
332.089	3944
332.176	3663
332.264	3550
332.352	3842
332.439	3683
332.527	4075
332.614	3300
332.702	4084
332.790	3817
332.877	7251
332.965	20725
333.052	17286
333.140	21835
333.228	59636
333.315	14648
333.403	7108
333.490	7993
333.578	24489
333.665	90455
333.753	31236
333.840	7017
333.928	7207
334.015	6623
334.103	8703
334.190	9976
334.278	13460
334.365	22379
334.452	22559
334.540	12813
334.627	12523
334.715	15455
334.802	22935
334.889	38786
334.977	56555
335.064	35755
335.151	16153
335.239	11013
335.326	9795
335.413	8330
335.501	9499
335.588	8880
335.675	10831
335.762	12743
335.850	18674
335.937	27180
336.024	45816
336.111	78632
336.199	72233
336.286	31277
336.373	16977
336.460	10822
336.547	8372
336.635	8005
336.722	6894
336.809	5708
336.896	6758
336.983	5589
337.070	6191
337.157	5213
337.245	6230
337.332	5998
337.419	5812
337.506	5026
337.593	5321
337.680	4475
337.767	5278
337.854	4132
337.941	4767
338.028	3567
338.115	4157
338.202	4980
338.289	4455
338.376	4712
338.463	4801
338.550	3295
338.637	4998
338.724	4007
338.811	4533
338.898	3416
338.984	3781
339.071	3310
339.158	3971
339.245	3754
339.332	4117
339.419	3597
339.506	3953
339.593	2576
339.679	4820
339.766	2628
339.853	3834
339.940	3160
340.027	4109
340.113	4034
340.200	4112
340.287	3372
340.374	3753
340.460	3761
340.547	2354
340.634	4043
340.720	4836
340.807	3169
340.894	4484
340.980	3226
341.067	3859
341.154	5096
341.240	4513
341.327	4235
341.414	4619
341.500	3416
341.587	3813
341.674	3974
341.760	5484
341.847	3113
341.933	3201
342.020	2995
342.106	3644
342.193	3972
342.279	4715
342.366	2570
342.452	4080
342.539	3565
342.625	4613
342.712	4696
342.798	4201
342.885	3511
342.971	3572
343.058	3541
343.144	3715
343.230	3925
343.317	4921
343.403	3692
343.490	4184
343.576	3356
343.662	4016
343.749	3365
343.835	3943
343.921	4830
344.008	14915
344.094	24390
344.180	7362
344.267	3321
344.353	6344
344.439	4893
344.525	4295
344.612	3479
344.698	3272
344.784	2363
344.870	3876
344.957	3459
345.043	4298
345.129	3176
345.215	4250
345.301	3356
345.387	3061
345.474	2998
345.560	3504
345.646	2692
345.732	3747
345.818	3369
345.904	3598
345.990	3434
346.076	4238
346.162	3161
346.249	4480
346.335	4122
346.421	4262
346.507	4936
346.593	8677
346.679	2173
346.765	6487
346.851	7848
346.937	5635
347.023	5077
347.108	5163
347.194	3707
347.280	4983
347.366	5303
347.452	16868
347.538	19922
347.624	11155
347.710	6376
347.796	4220
347.882	3956
347.967	4647
348.053	3130
348.139	4700
348.225	2371
348.311	3451
348.397	3853
348.482	4767
348.568	4582
348.654	7357
348.740	22996
348.825	19982
348.911	8813
348.997	8487
349.083	9787
349.168	4064
349.254	4643
349.340	4355
349.425	3382
349.511	4908
349.597	4035
349.682	5090
349.768	6480
349.854	4899
349.939	4235
350.025	4240
350.110	3345
350.196	4705
350.282	3914
350.367	4762
350.453	3740
350.538	4484
350.624	2714
350.709	4742
350.795	3557
350.880	3701
350.966	4534
351.051	4105
351.137	3519
351.222	4890
351.308	4403
351.393	5777
351.479	3937
351.564	3318
351.649	3975
351.735	4410
351.820	3864
351.906	3816
351.991	3189
352.076	4500
352.162	5715
352.247	3317
352.332	4020
352.418	3394
352.503	3955
352.588	6928
352.673	4512
352.759	4429
352.844	3505
352.929	4228
353.014	3043
353.100	4476
353.185	4275
353.270	3882
353.355	4020
353.441	4821
353.526	3515
353.611	4615
353.696	3601
353.781	4983
353.866	3176
353.952	5080
354.037	3660
354.122	5572
354.207	4901
354.292	4539
354.377	4125
354.462	4692
354.547	3129
354.632	5482
354.717	4500
354.802	4712
354.887	3555
354.972	4417
355.057	3870
355.142	4437
355.227	4157
355.312	4808
355.397	4116
355.482	5223
355.567	4169
355.652	5956
355.737	4296
355.822	6543
355.907	5578
355.991	5602
356.076	3764
356.161	5559
356.246	3844
356.331	5293
356.416	5203
356.501	14199
356.585	11055
356.670	4811
356.755	6058
356.840	5863
356.924	12135
357.009	27292
357.094	10799
357.179	5376
357.263	4334
357.348	5686
357.433	5110
357.517	4882
357.602	4844
357.687	4346
357.771	5269
357.856	5690
357.941	6434
358.025	12563
358.110	41827
358.195	18709
358.279	7191
358.364	7331
358.448	8649
358.533	12478
358.617	8860
358.702	9158
358.787	6007
358.871	5918
358.956	5863
359.040	6089
359.125	4749
359.209	5363
359.294	5485
359.378	8682
359.462	7343
359.547	5080
359.631	4166
359.716	4356
359.800	4211
359.885	5442
359.969	3180
360.053	5683
360.138	4183
360.222	5200
360.306	4395
360.391	5567
360.475	4554
360.559	5567
360.644	5602
360.728	4916
360.812	9426
360.896	16626
360.981	7540
361.065	5550
361.149	6351
361.233	5367
361.318	5073
361.402	5465
361.486	6217
361.570	5761
361.654	5932
361.739	7264
361.823	14121
361.907	20236
361.991	9090
362.075	9154
362.159	11417
362.243	22622
362.327	56813
362.411	86498
362.495	31180
362.580	14486
362.664	13928
362.748	15250
362.832	23693
362.916	49654
363.000	149566
363.084	214265
363.168	81848
363.252	24280
363.336	15199
363.420	11876
363.503	9780
363.587	9393
363.671	9421
363.755	8514
363.839	11325
363.923	10531
364.007	13648
364.091	18322
364.175	26328
364.258	62101
364.342	167279
364.426	319991
364.510	160197
364.594	44726
364.677	22004
364.761	21772
364.845	15525
364.929	9256
365.013	7263
365.096	8114
365.180	6109
365.264	7268
365.347	6609
365.431	6624
365.515	4616
365.598	4620
365.682	6931
365.766	5422
365.849	5571
365.933	5427
366.017	6352
366.100	5491
366.184	5150
366.267	6837
366.351	5909
366.435	5871
366.518	4692
366.602	6623
366.685	5572
366.769	6094
366.852	5258
366.936	6325
367.019	5734
367.103	4477
367.186	6208
367.270	5835
367.353	6373
367.436	7931
367.520	6194
367.603	7396
367.687	5242
367.770	7228
367.853	7495
367.937	9740
368.020	8974
368.104	5735
368.187	6909
368.270	6841
368.353	4658
368.437	5742
368.520	5942
368.603	5670
368.687	5892
368.770	8239
368.853	5311
368.936	7479
369.020	5218
369.103	6127
369.186	5569
369.269	5733
369.352	5440
369.436	5551
369.519	5250
369.602	4384
369.685	6998
369.768	4452
369.851	5459
369.934	5670
370.018	5430
370.101	4937
370.184	8090
370.267	7549
370.350	7352
370.433	9690
370.516	33441
370.599	115713
370.682	50604
370.765	13501
370.848	11514
370.931	11380
371.014	9795
371.097	6325
371.180	7142
371.263	8894
371.346	6458
371.429	9300
371.511	6852
371.594	8642
371.677	9872
371.760	11134
371.843	11779
371.926	26784
372.009	45737
372.091	25689
372.174	15758
372.257	19618
372.340	14719
372.423	15605
372.505	14855
372.588	10572
372.671	11620
372.754	12978
372.836	10815
372.919	11585
373.002	11105
373.085	11127
373.167	12572
373.250	12230
373.332	14357
373.415	26760
373.498	45817
373.580	40318
373.663	160202
373.746	150608
373.828	24644
373.911	12446
373.993	9077
374.076	8649
374.159	8409
374.241	9351
374.324	10972
374.406	10861
374.489	14632
374.571	28619
374.654	12082
374.736	11165
374.819	18436
374.901	29284
374.983	29080
375.066	12365
375.148	8687
375.231	10038
375.313	10268
375.395	10491
375.478	8689
375.560	10181
375.643	9711
375.725	11644
375.807	22012
375.890	16887
375.972	6848
376.054	8344
376.136	8646
376.219	6566
376.301	10570
376.383	15733
376.465	9420
376.548	6893
376.630	8768
376.712	13180
376.794	8828
376.877	7161
376.959	4916
377.041	7218
377.123	5778
377.205	6518
377.287	5534
377.369	7869
377.452	6703
377.534	6453
377.616	6332
377.698	7516
377.780	6063
377.862	7138
377.944	7232
378.026	6616
378.108	6669
378.190	7569
378.272	7205
378.354	7427
378.436	5686
378.518	6616
378.600	6676
378.682	7559
378.764	9083
378.846	8434
378.928	6136
379.010	7498
379.091	7235
379.173	7421
379.255	5620
379.337	7073
379.419	7228
379.501	10747
379.583	7617
379.664	8472
379.746	6839
379.828	11333
379.910	10070
379.991	10957
380.073	6370
380.155	7960
380.237	7160
380.318	8583
380.400	7588
380.482	10059
380.564	9312
380.645	10080
380.727	9360
380.809	10831
380.890	8582
380.972	8579
381.053	9031
381.135	11564
381.217	9730
381.298	13287
381.380	11243
381.461	11636
381.543	17709
381.624	19770
381.706	13419
381.787	13872
381.869	13482
381.951	19750
382.032	36692
382.113	29711
382.195	16957
382.276	19161
382.358	20982
382.439	27732
382.521	35452
382.602	48005
382.684	47237
382.765	84595
382.846	251727
382.928	551146
383.009	313834
383.090	254482
383.172	655396
383.253	796140
383.334	278439
383.416	112635
383.497	88172
383.578	109563
383.659	218115
383.741	586829
383.822	987445
383.903	555637
383.984	165512
384.066	82925
384.147	52862
384.228	38283
384.309	32462
384.390	29531
384.471	26332
384.553	25193
384.634	23271
384.715	23569
384.796	22594
384.877	23483
384.958	25075
385.039	23964
385.120	19532
385.201	19283
385.282	18899
385.363	24160
385.444	28529
385.525	27549
385.606	26405
385.687	23530
385.768	18348
385.849	18440
385.930	28788
386.011	38585
386.092	22536
386.173	18081
386.254	14408
386.335	14429
386.416	13517
386.496	13875
386.577	14854
386.658	14016
386.739	13497
386.820	16088
386.901	15120
386.981	17914
387.062	21424
387.143	23128
387.224	20669
387.304	21738
387.385	20036
387.466	18077
387.547	19944
387.627	20943
387.708	21585
387.789	24919
387.869	22223
387.950	19293
388.031	16794
388.111	16225
388.192	20623
388.273	25205
388.353	20476
388.434	11559
388.514	9747
388.595	16900
388.676	15909
388.756	12607
388.837	10957
388.917	9858
388.998	6384
389.078	9580
389.159	9217
389.239	8178
389.320	10033
389.400	7455
389.480	9681
389.561	11763
389.641	10953
389.722	8832
389.802	7038
389.883	9676
389.963	12213
390.043	8821
390.124	7332
390.204	8566
390.284	10709
390.365	9164
390.445	9101
390.525	8100
390.605	9316
390.686	8901
390.766	9808
390.846	9887
390.927	8742
391.007	8470
391.087	10330
391.167	9232
391.247	9312
391.328	11356
391.408	10883
391.488	10789
391.568	10416
391.648	11369
391.728	12962
391.808	13719
391.888	13705
391.969	15265
392.049	16749
392.129	18412
392.209	17926
392.289	23587
392.369	22843
392.449	24076
392.529	25783
392.609	30831
392.689	35278
392.769	42536
392.849	52340
392.929	66652
393.009	94745
393.089	144256
393.169	272254
393.248	615381
393.328	1067795
393.408	1033336
393.488	575534
393.568	250417
393.648	131991
393.728	83565
393.807	58759
393.887	45445
393.967	35832
394.047	31108
394.127	24434
394.206	23378
394.286	23021
394.366	28740
394.446	27071
394.525	17799
394.605	15766
394.685	15650
394.764	18410
394.844	27502
394.924	30787
395.003	17332
395.083	13074
395.163	13916
395.242	12340
395.322	13510
395.402	10894
395.481	15077
395.561	16509
395.640	41662
395.720	74754
395.799	34709
395.879	17438
395.958	16970
396.038	20824
396.117	36676
396.197	39390
396.276	29332
396.356	31147
396.435	42149
396.515	58422
396.594	93372
396.673	202576
396.753	541376
396.832	957649
396.912	738193
396.991	278663
397.070	115818
397.150	64861
397.229	53667
397.308	78978
397.388	120802
397.467	55418
397.546	25790
397.625	17037
397.705	19172
397.784	15248
397.863	14692
397.942	13079
398.022	12222
398.101	10242
398.180	12213
398.259	9623
398.338	11333
398.417	8696
398.497	8780
398.576	8932
398.655	8827
398.734	8736
398.813	7773
398.892	7899
398.971	8260
399.050	6781
399.129	6057
399.208	6826
399.287	8088
399.366	5462
399.445	6666
399.524	6217
399.603	5535
399.682	5466
399.761	6562
399.840	6447
399.919	6836
399.998	4938
400.077	4987
400.156	3926
400.235	7763
400.313	4450
400.392	5149
400.471	6293
400.550	7315
400.629	4327
400.708	5698
400.786	3951
400.865	5024
400.944	3439
401.023	6963
401.102	3944
401.180	5134
401.259	3588
401.338	4659
401.416	4187
401.495	3769
401.574	4713
401.652	3644
401.731	5021
401.810	3758
401.888	3889
401.967	3959
402.046	3264
402.124	4413
402.203	3031
402.281	3719
402.360	3153
402.438	4943
402.517	2811
402.596	4107
402.674	3718
402.753	4328
402.831	4349
402.910	4983
402.988	5774
403.066	11543
403.145	8102
403.223	7529
403.302	9679
403.380	9365
403.459	7979
403.537	6149
403.615	5506
403.694	4556
403.772	5565
403.850	5112
403.929	3509
404.007	4617
404.085	6085
404.164	4132
404.242	3721
404.320	5978
404.398	4896
404.477	6241
404.555	15263
404.633	13641
404.711	4931
404.789	5214
404.868	3994
404.946	3807
405.024	3311
405.102	3865
405.180	2977
405.258	3238
405.336	3914
405.415	2675
405.493	3755
405.571	5064
405.649	3110
405.727	3928
405.805	6130
405.883	6565
405.961	5595
406.039	3955
406.117	2333
406.195	4942
406.273	3684
406.351	10279
406.429	6985
406.507	2767
406.585	2098
406.663	4198
406.740	3538
406.818	3235
406.896	2575
406.974	4533
407.052	1954
407.130	6728
407.208	7170
407.285	4688
407.363	2608
407.441	3201
407.519	2181
407.596	3781
407.674	6222
407.752	17187
407.830	11797
407.907	4525
407.985	2630
408.063	3666
408.141	2012
408.218	3781
408.296	2150
408.373	4151
408.451	3770
408.529	5219
408.606	4546
408.684	5435
408.762	4068
408.839	5229
408.917	5810
408.994	6592
409.072	5347
409.149	8409
409.227	14886
409.304	22145
409.382	22498
409.459	27068
409.537	34193
409.614	28061
409.692	21366
409.769	24037
409.846	35450
409.924	41391
410.001	25679
410.079	18285
410.156	14064
410.233	10921
410.311	8090
410.388	7573
410.465	7854
410.543	7219
410.620	7496
410.697	8174
410.775	6975
410.852	7007
410.929	8915
411.006	9172
411.083	7012
411.161	7196
411.238	7001
411.315	5647
411.392	6625
411.469	6236
411.547	4536
411.624	3657
411.701	3925
411.778	4471
411.855	4672
411.932	3966
412.009	3428
412.086	4905
412.163	4118
412.240	4619
412.317	4972
412.394	4330
412.471	4141
412.548	4257
412.625	3798
412.702	3861
412.779	3470
412.856	4349
412.933	3438
413.010	4047
413.087	3360
413.164	4055
413.241	3914
413.318	2810
413.395	3476
413.471	2945
413.548	3066
413.625	4021
413.702	2312
413.779	3383
413.855	3721
413.932	3617
414.009	2268
414.086	3592
414.162	3253
414.239	4085
414.316	3713
414.393	6250
414.469	2238
414.546	3269
414.623	3242
414.699	3425
414.776	2796
414.853	2677
414.929	2888
415.006	2610
415.082	3166
415.159	2785
415.236	3343
415.312	4127
415.389	3790
415.465	3259
415.542	2807
415.618	2105
415.695	3552
415.771	3201
415.848	2435
415.924	2955
416.000	2746
416.077	4403
416.153	1798
416.230	2536
416.306	2805
416.383	3007
416.459	3334
416.535	3231
416.612	3678
416.688	4900
416.764	5558
416.841	5465
416.917	3796
416.993	4051
417.069	4254
417.146	2126
417.222	3019
417.298	3341
417.374	2486
417.451	3618
417.527	2043
417.603	2641
417.679	2862
417.755	3464
417.831	1890
417.908	3160
417.984	2583
418.060	2265
418.136	2773
418.212	1988
418.288	2436
418.364	3588
418.440	1730
418.516	3375
418.592	1927
418.668	3395
418.744	2294
418.820	3714
418.896	2051
418.972	2825
419.048	2841
419.124	4697
419.200	2335
419.276	3243
419.352	2831
419.428	3177
419.504	2920
419.579	3758
419.655	3356
419.731	3551
419.807	4144
419.883	3771
419.959	3274
420.034	4585
420.110	3521
420.186	4701
420.262	4736
420.337	3443
420.413	4158
420.489	4559
420.565	5949
420.640	5677
420.716	5850
420.792	4720
420.867	5975
420.943	6020
421.019	5677
421.094	6804
421.170	8494
421.245	8467
421.321	8378
421.397	8909
421.472	11917
421.548	17095
421.623	14660
421.699	13713
421.774	14271
421.850	16869
421.925	19146
422.001	23648
422.076	28354
422.152	35945
422.227	47047
422.302	67241
422.378	102442
422.453	177369
422.529	312667
422.604	411544
422.679	352100
422.755	421537
422.830	315007
422.905	172836
422.981	104821
423.056	72661
423.131	52923
423.207	40509
423.282	31588
423.357	26852
423.432	21443
423.508	20111
423.583	16478
423.658	15929
423.733	13642
423.808	13199
423.883	13010
423.959	14943
424.034	18556
424.109	17398
424.184	10903
424.259	9482
424.334	8088
424.409	7462
424.484	5616
424.559	7558
424.634	6299
424.709	5490
424.784	6034
424.859	5544
424.934	4464
425.009	6171
425.084	6375
425.159	3951
425.234	4299
425.309	4062
425.384	4166
425.459	3537
425.534	4700
425.609	3997
425.683	3744
425.758	3390
425.833	3633
425.908	4214
425.983	3849
426.058	6017
426.132	3661
426.207	3784
426.282	3948
426.357	3410
426.431	2333
426.506	4125
426.581	3413
426.655	3507
426.730	3622
426.805	2605
426.879	3807
426.954	3483
427.029	2780
427.103	5550
427.178	7013
427.253	5461
427.327	3468
427.402	2124
427.476	2945
427.551	2824
427.625	2404
427.700	3480
427.774	1724
427.849	3785
427.923	2438
427.998	4343
428.072	3856
428.147	11831
428.221	55316
428.296	156388
428.370	78196
428.444	10832
428.519	5085
428.593	4917
428.667	4308
428.742	6655
428.816	20377
428.890	97161
428.965	139293
429.039	30831
429.113	5939
429.188	4626
429.262	3117
429.336	3301
429.410	3861
429.485	3891
429.559	3773
429.633	4475
429.707	5248
429.781	19153
429.855	92388
429.930	121920
430.004	28460
430.078	17740
430.152	60808
430.226	212237
430.300	189263
430.374	36852
430.448	10355
430.522	6979
430.596	8411
430.670	30554
430.744	123161
430.818	119819
430.892	20349
430.966	4722
431.040	3266
431.114	2618
431.188	2425
431.262	1944
431.336	1540
431.410	3068
431.484	2062
431.557	3872
431.631	3394
431.705	8600
431.779	43631
431.853	152397
431.927	90858
432.000	12418
432.074	3767
432.148	2696
432.222	728
432.295	2299
432.369	1459
432.443	1574
432.516	3438
432.590	7421
432.664	2652
432.737	1085
432.811	868
432.885	2074
432.958	1853
433.032	1057
433.106	857
433.179	1560
433.253	1723
433.326	1514
433.400	920
433.473	1885
433.547	285
433.620	1657
433.694	949
433.767	1252
433.841	365
433.914	1582
433.988	484
434.061	1880
434.134	1064
434.208	1280
434.281	735
434.355	865
434.428	1714
434.501	1320
434.575	909
434.648	889
434.721	652
434.795	1785
434.868	1633
434.941	2653
435.014	2323
435.088	3916
435.161	5786
435.234	8809
435.307	9253
435.381	10035
435.454	12223
435.527	19187
435.600	18573
435.673	15033
435.746	9431
435.819	7308
435.892	5834
435.966	4131
436.039	2675
436.112	3741
436.185	2129
436.258	2553
436.331	1111
436.404	2138
436.477	1561
436.550	1521
436.623	1811
436.696	1725
436.769	1274
436.842	940
436.915	1410
436.987	1687
437.060	907
437.133	1048
437.206	813
437.279	1912
437.352	927
437.425	893
437.498	756
437.570	1156
437.643	520
437.716	1963
437.789	803
437.861	1476
437.934	633
438.007	1665
438.080	281
438.152	1878
438.225	1284
438.298	4684
438.370	10058
438.443	4441
438.516	1098
438.588	1921
438.661	444
438.734	1778
438.806	913
438.879	1161
438.951	1178
439.024	942
439.096	1097
439.169	2013
439.241	630
439.314	937
439.386	-138
439.459	1990
439.531	389
439.604	1572
439.676	1062
439.749	739
439.821	598
439.893	1615
439.966	827
440.038	1809
440.110	879
440.183	673
440.255	1624
440.327	2284
440.400	1965
440.472	5801
440.544	3375
440.617	2075
440.689	2651
440.761	1641
440.833	1407
440.905	1536
440.978	894
441.050	1842
441.122	1309
441.194	1694
441.266	1337
441.338	694
441.411	1451
441.483	3215
441.555	2875
441.627	2477
441.699	2933
441.771	1406
441.843	1082
441.915	2137
441.987	2273
442.059	2915
442.131	2896
442.203	4084
442.275	4637
442.347	9556
442.419	24547
442.491	121327
442.563	235912
442.635	83289
442.706	14658
442.778	7902
442.850	4716
442.922	4631
442.994	4848
443.066	6158
443.137	7060
443.209	10480
443.281	15175
443.353	34725
443.425	135678
443.496	376230
443.568	368648
443.640	137461
443.711	28162
443.783	12669
443.855	7323
443.926	5192
443.998	4722
444.070	4556
444.141	3295
444.213	3972
444.285	2926
444.356	3558
444.428	2954
444.499	3353
444.571	2843
444.642	3666
444.714	3290
444.785	4764
444.857	4724
444.928	4495
445.000	5789
445.071	7641
445.143	8794
445.214	14291
445.285	25743
445.357	70299
445.428	253833
445.500	442826
445.571	332516
445.642	204961
445.714	60492
445.785	19200
445.856	8943
445.928	6109
445.999	4423
446.070	4311
446.141	3066
446.213	3642
446.284	1704
446.355	2613
446.426	999
446.497	1949
446.569	982
446.640	1793
446.711	2048
446.782	1616
446.853	1561
446.924	1913
446.995	121
447.066	1283
447.138	360
447.209	2222
447.280	277
447.351	1618
447.422	1399
447.493	365
447.564	852
447.635	966
447.706	136
447.777	817
447.847	496
447.918	343
447.989	104
448.060	1173
448.131	1680
448.202	910
448.273	190
448.344	1158
448.414	467
448.485	143
448.556	360
448.627	918
448.698	1016
448.768	163
448.839	-99
448.910	252
448.981	442
449.051	766
449.122	939
449.193	1075
449.263	60
449.334	553
449.405	453
449.475	1427
449.546	490
449.616	1451
449.687	1098
449.758	1544
449.828	-414
449.899	608
449.969	-76
450.040	951
450.110	-169
450.181	347
450.251	642
450.322	1129
450.392	150
450.463	742
450.533	312
450.604	337
450.674	-240
450.744	2579
450.815	675
450.885	1496
450.955	1995
451.026	1837
451.096	8
451.166	1284
451.237	1948
451.307	2478
451.377	988
451.447	-310
451.518	767
451.588	1157
451.658	556
451.728	791
451.799	-90
451.869	990
451.939	110
452.009	642
452.079	314
452.149	1011
452.219	519
452.289	797
452.360	199
452.430	2204
452.500	1219
452.570	4312
452.640	14549
452.710	36127
452.780	34622
452.850	14964
452.920	5269
452.990	3442
453.060	1578
453.129	1725
453.199	703
453.269	1324
453.339	948
453.409	576
453.479	324
453.549	582
453.619	909
453.688	63
453.758	602
453.828	479
453.898	317
453.968	677
454.037	449
454.087	253
454.107	155
454.168	-406
454.177	-514
454.247	858
454.249	826
454.316	-567
454.330	-411
454.386	121
454.411	-60
454.456	-446
454.492	-225
454.525	-49
454.574	364
454.595	516
454.655	501
454.665	479
454.734	397
454.736	430
454.804	728
454.817	874
454.873	1437
454.898	1261
454.943	867
454.979	536
455.013	202
455.060	816
455.082	1054
455.141	872
455.152	827
455.221	1805
455.222	1808
455.291	302
455.303	373
455.360	695
455.384	674
455.430	482
455.465	652
455.499	747
455.546	676
455.569	632
455.627	1223
455.638	1306
455.707	58
455.708	84
455.777	857
455.789	856
455.846	706
455.869	1100
455.916	1866
455.950	1576
455.985	1153
456.031	1317
456.054	1439
456.112	1053
456.124	950
456.193	1884
456.193	1864
456.262	1257
456.274	1477
456.332	2446
456.355	2181
456.401	1552
456.436	1770
456.470	1946
456.516	1781
456.540	1710
456.597	1933
456.609	1937
456.678	1962
456.678	1937
456.747	2890
456.759	2763
456.817	2107
456.840	2231
456.886	2426
456.920	2879
456.955	3311
457.001	3397
457.024	3375
457.082	3541
457.093	3523
457.162	4296
457.163	4324
457.232	2936
457.243	3029
457.301	3641
457.324	3503
457.370	3253
457.405	3706
457.439	4111
457.485	4251
457.508	4462
457.566	6233
457.577	6943
457.646	10122
457.647	10235
457.715	28750
457.727	32722
457.784	57116
457.808	74718
457.853	92583
457.889	100765
457.922	93883
457.969	60297
457.991	62294
458.050	85223
458.060	89552
458.129	156276
458.130	158038
458.198	135890
458.211	119965
458.267	60483
458.292	39868
458.336	28029
458.372	28181
458.405	43445
458.453	69871
458.474	89173
458.533	160082
458.543	164285
458.611	237016
458.614	237631
458.680	124166
458.694	94275
458.749	39662
458.775	26710
458.818	17068
458.855	13464
458.887	11148
458.936	9323
458.955	8851
459.016	6928
459.024	6736
459.093	7354
459.097	7299
459.162	5562
459.177	5488
459.230	5791
459.257	5663
459.299	5077
459.338	5449
459.368	5887
459.418	5524
459.437	5352
459.499	5399
459.505	5412
459.574	5255
459.579	5317
459.643	5322
459.659	5137
459.711	5033
459.740	5452
459.780	5635
459.820	5047
459.849	4842
459.900	5114
459.917	5218
459.981	5212
459.986	5148
460.054	4835
460.061	4839
460.123	5497
460.141	5538
460.191	5459
460.222	5527
460.260	5573
460.302	5693
460.328	5602
460.382	5087
460.397	5137
460.462	6301
460.465	6400
460.534	7937
460.543	8233
460.602	16958
460.623	20292
460.671	28882
460.703	36715
460.739	32423
460.783	22814
460.808	18626
460.864	6585
460.876	5838
460.944	5856
460.945	5842
461.013	5135
461.024	5031
461.081	4997
461.104	5425
461.150	6284
461.184	6092
461.218	5951
461.264	6230
461.286	6076
461.345	5242
461.355	5163
461.423	5271
461.425	5266
461.491	5193
461.505	5248
461.559	5412
461.585	5528
461.628	6036
461.665	6375
461.696	6048
461.745	5464
461.764	5610
461.825	6034
461.832	6006
461.901	5919
461.905	5920
461.969	5792
461.985	5710
462.037	6293
462.065	6761
462.105	6802
462.145	6566
462.173	6188
462.225	5585
462.241	5650
462.305	6165
462.310	6204
462.378	6597
462.385	6621
462.446	6277
462.465	6255
462.514	6548
462.545	6559
462.582	5964
462.625	5545
462.650	5780
462.705	5756
462.718	5646
462.785	6046
462.786	6057
462.854	5740
462.865	5723
462.922	5954
462.945	6019
462.990	6139
463.025	6379
463.058	6354
463.104	6272
463.126	6270
463.184	6031
463.194	5985
463.262	5692
463.264	5687
463.330	6373
463.344	6404
463.398	6493
463.424	6666
463.466	6173
463.504	5620
463.533	5928
463.583	6542
463.601	6593
463.663	6480
463.669	6448
463.737	6581
463.743	6539
463.805	6990
463.823	7198
463.873	6750
463.903	6446
463.940	6733
463.982	6785
464.008	6761
464.062	6942
464.076	6786
464.142	5904
464.144	5928
464.211	6470
464.221	6558
464.279	6604
464.301	6604
464.347	6478
464.381	6447
464.414	6190
464.461	5679
464.482	5919
464.540	6494
464.550	6517
464.617	6688
464.620	6690
464.685	6718
464.699	6642
464.753	6958
464.779	7180
464.820	7104
464.859	6937
464.888	6710
464.938	6366
464.956	6760
465.018	8077
465.023	8053
465.091	7505
465.098	7446
465.158	7733
465.177	7893
465.226	7714
465.257	7297
465.293	7049
465.336	6986
465.361	7017
465.416	6837
465.428	6859
465.495	7241
465.496	7252
465.563	6513
465.575	6446
465.631	6727
465.654	6793
465.698	6922
465.734	6967
465.765	7080
465.813	7196
465.833	7197
465.893	7283
465.900	7350
465.968	7656
465.972	7671
466.035	7400
466.052	7274
466.102	7387
466.131	7463
466.170	6949
466.210	6429
466.237	6768
466.290	7300
466.304	7259
466.369	6967
466.372	6988
466.439	7243
466.449	7264
466.506	7355
466.528	7380
466.573	7774
466.607	7986
466.641	8243
466.687	8624
466.708	8674
466.766	8707
466.775	8670
466.842	8277
466.845	8240
466.909	8159
466.925	8128
466.977	9102
467.004	9572
467.044	8978
467.083	8370
467.111	8614
467.163	9009
467.178	9015
467.242	8950
467.245	8965
467.312	8915
467.321	8893
467.379	8687
467.400	8584
467.446	8927
467.480	9145
467.559	9984
467.638	9545
467.717	8654
467.796	11175
467.875	10720
467.955	11255
468.034	12262
468.113	13742
468.192	17631
468.271	21720
468.350	33400
468.429	48800
468.508	51241
468.588	31370
468.667	18328
468.746	14136
468.825	12434
468.904	11025
468.983	11842
469.062	10679
469.141	10712
469.220	9835
469.299	9207
469.378	8787
469.456	10617
469.535	9747
469.614	10603
469.693	10367
469.772	11163
469.851	12054
469.930	12330
470.009	14064
470.088	16810
470.166	28083
470.245	52993
470.324	69218
470.403	42690
470.482	23935
470.560	15942
470.639	12741
470.718	12784
470.797	11215
470.875	11143
470.954	10209
471.033	10014
471.111	9943
471.190	9608
471.269	8160
471.347	9112
471.426	8850
471.505	9848
471.583	9655
471.662	8999
471.740	9281
471.819	8446
471.898	9211
471.976	9673
472.055	9410
472.133	9213
472.212	9226
472.290	9100
472.369	8255
472.447	9077
472.526	8779
472.604	10252
472.683	9797
472.761	9059
472.839	9422
472.918	10321
472.996	9822
473.075	11517
473.153	9886
473.231	10412
473.310	9749
473.388	10367
473.466	9777
473.545	10695
473.623	10332
473.701	10334
473.780	11492
473.858	9378
473.936	11285
474.014	10178
474.093	11052
474.171	11199
474.249	11113
474.327	10137
474.405	9032
474.484	10874
474.562	10142
474.640	10004
474.718	9673
474.796	9073
474.874	10131
474.952	9306
475.030	9714
475.108	9915
475.187	9189
475.265	9760
475.343	10779
475.421	10827
475.499	9753
475.577	9728
475.655	9279
475.733	9494
475.811	9478
475.889	9410
475.966	10141
476.044	9979
476.122	9555
476.200	10079
476.278	9123
476.356	9116
476.434	9807
476.512	10105
476.590	10349
476.667	9735
476.745	9391
476.823	9366
476.901	9323
476.979	8964
477.056	9676
477.134	8984
477.212	9205
477.290	10213
477.367	9762
477.445	9503
477.523	8720
477.601	9691
477.678	9661
477.756	9559
477.834	8595
477.911	9914
477.989	9110
478.066	10015
478.144	8864
478.222	9696
478.299	9955
478.377	11110
478.454	9814
478.532	9333
478.609	9226
478.687	9357
478.764	9464
478.842	9007
478.919	9075
478.997	10051
479.074	9248
479.152	9130
479.229	9093
479.307	8629
479.384	9222
479.461	9081
479.539	8782
479.616	9785
479.694	8093
479.771	9520
479.848	9522
479.926	8332
480.003	10720
480.080	9194
480.157	9936
480.235	9096
480.312	10090
480.389	9839
480.467	9955
480.544	10465
480.621	11042
480.698	12097
480.775	12795
480.853	10977
480.930	9822
481.007	10019
481.084	10244
481.161	10962
481.238	10897
481.315	9967
481.392	9478
481.470	11330
481.547	10147
481.624	9433
481.701	10984
481.778	11184
481.855	11042
481.932	12294
482.009	13526
482.086	14047
482.163	15613
482.240	19219
482.317	18967
482.393	16076
482.470	15204
482.547	14175
482.624	13347
482.701	12778
482.778	11805
482.855	12920
482.932	12486
483.009	14075
483.085	15732
483.162	18109
483.239	19472
483.316	19639
483.393	19376
483.469	16981
483.546	14723
483.623	13178
483.699	11662
483.776	11051
483.853	11029
483.930	9833
484.006	11532
484.083	11905
484.160	11407
484.236	12696
484.313	12271
484.389	12232
484.466	15974
484.543	19003
484.619	25822
484.696	29182
484.772	18280
484.849	13639
484.925	12317
485.002	12531
485.078	10889
485.155	10003
485.231	9386
485.308	10834
485.384	9745
485.461	10298
485.537	8989
485.614	9601
485.690	9377
485.766	9906
485.843	9654
485.919	9798
485.995	9186
486.072	9775
486.148	8832
486.224	8876
486.301	8932
486.377	9380
486.453	8817
486.530	9837
486.606	10067
486.682	9943
486.758	9780
486.835	10758
486.911	10091
486.987	12695
487.063	15134
487.139	15996
487.215	17701
487.292	21746
487.368	24589
487.444	30763
487.520	43025
487.596	67205
487.672	177748
487.748	564563
487.824	811616
487.900	243444
487.976	64837
488.052	34238
488.128	25309
488.204	18013
488.280	17193
488.356	14708
488.432	12877
488.508	13857
488.584	12638
488.660	11829
488.736	11694
488.812	10301
488.888	11278
488.964	11190
489.039	12179
489.115	11970
489.191	11909
489.267	9936
489.343	9641
489.418	10224
489.494	9877
489.570	8904
489.646	12000
489.722	10844
489.797	10261
489.873	10838
489.949	10983
490.024	11151
490.100	9634
490.176	11086
490.251	9834
490.327	12050
490.403	10261
490.478	10543
490.554	10331
490.629	11210
490.705	9896
490.781	11360
490.856	10299
490.932	10437
491.007	10045
491.083	9267
491.158	9901
491.234	9785
491.309	9968
491.385	9521
491.460	8777
491.536	9872
491.611	9107
491.686	10338
491.762	9818
491.837	10663
491.913	10629
491.988	12780
492.063	12511
492.139	10815
492.214	10221
492.289	10323
492.365	9703
492.440	10183
492.515	9657
492.590	9409
492.666	9945
492.741	10264
492.816	9296
492.891	9734
492.967	10865
493.042	10388
493.117	9936
493.192	10756
493.267	10898
493.342	11771
493.418	12286
493.493	11774
493.568	11095
493.643	10030
493.718	11252
493.793	9884
493.868	10181
493.943	10602
494.018	9976
494.093	10880
494.168	10764
494.243	10748
494.318	11438
494.393	10913
494.468	10231
494.543	11305
494.618	11703
494.693	12570
494.768	11916
494.842	12021
494.917	12604
494.992	11707
495.067	11868
495.142	10996
495.217	10830
495.292	11080
495.366	11066
495.441	11071
495.516	12427
495.591	12276
495.665	15518
495.740	20171
495.815	14882
495.890	12448
495.964	10686
496.039	14577
496.114	13331
496.188	15737
496.263	14578
496.338	12381
496.412	11285
496.487	12964
496.561	11892
496.636	11681
496.710	10989
496.785	11686
496.860	12177
496.934	11594
497.009	13216
497.083	13269
497.158	13571
497.232	14696
497.307	16409
497.381	17498
497.455	16024
497.530	13594
497.604	12263
497.679	11597
497.753	12217
497.827	10863
497.902	11641
497.976	12344
498.050	12874
498.125	15000
498.199	15561
498.273	14252
498.348	15055
498.422	16710
498.496	18300
498.570	22361
498.645	13068
498.719	9282
498.793	10761
498.867	10546
498.941	10762
499.016	11855
499.090	13392
499.164	13601
499.238	13767
499.312	14471
499.386	14961
499.460	17342
499.534	19406
499.609	23451
499.683	16077
499.757	9179
499.831	9361
499.905	9976
499.979	9689
500.053	10105
500.127	12226
500.201	11244
500.275	13822
500.349	14060
500.422	15332
500.496	18270
500.570	22430
500.644	28938
500.718	24384
500.792	10823
500.866	8398
500.940	7507
501.013	8384
501.087	8251
501.161	8785
501.235	5688
501.309	10567
501.382	9077
501.456	10114
501.530	8115
501.603	7290
501.677	7172
501.751	6086
501.825	9071
501.898	8301
501.972	8690
502.046	7842
502.119	7032
502.193	7046
502.266	7732
502.340	7316
502.413	7881
502.487	8138
502.561	7259
502.634	8503
502.708	9061
502.781	7276
502.855	9588
502.928	6206
503.002	8806
503.075	6650
503.149	8370
503.222	9175
503.295	7720
503.369	9385
503.442	8623
503.516	12025
503.589	12634
503.662	14557
503.736	17321
503.809	23020
503.882	29798
503.956	46036
504.029	104483
504.102	313500
504.175	433505
504.249	150734
504.322	53119
504.395	28141
504.468	19071
504.542	14201
504.615	10482
504.688	11630
504.761	8560
504.834	10441
504.907	8336
504.980	8965
505.053	7282
505.127	5441
505.200	9793
505.273	7448
505.346	6280
505.419	6484
505.492	8575
505.565	6531
505.638	6979
505.711	5478
505.784	4909
505.857	5687
505.930	7743
506.003	5028
506.076	8093
506.149	5608
506.221	3431
506.294	7079
506.367	3541
506.440	5167
506.513	6784
506.586	5807
506.659	6373
506.731	6223
506.804	5442
506.877	5086
506.950	5493
507.022	7383
507.095	4633
507.168	5555
507.241	6329
507.313	4867
507.386	5154
507.459	6680
507.531	5265
507.604	4901
507.677	6244
507.749	3571
507.822	6363
507.894	4476
507.967	6783
508.040	5016
508.112	5125
508.185	6510
508.257	4116
508.330	7395
508.402	5301
508.475	5885
508.547	5930
508.620	4853
508.692	5947
508.765	6574
508.837	5180
508.909	6060
508.982	4557
509.054	5145
509.127	5128
509.199	5393
509.271	4576
509.344	5454
509.416	5286
509.488	4910
509.560	6790
509.633	5321
509.705	5081
509.777	4667
509.849	5740
509.922	4120
509.994	5339
510.066	6009
510.138	4229
510.210	7286
510.283	4648
510.355	5752
510.427	4839
510.499	5027
510.571	5517
510.643	4381
510.715	7508
510.787	4368
510.859	6573
510.931	5074
511.003	7083
511.076	6258
511.148	4610
511.219	4193
511.291	5241
511.363	6567
511.435	6391
511.507	4505
511.579	5572
511.651	6437
511.723	5527
511.795	5729
511.867	6503
511.939	5959
512.010	5051
512.082	5735
512.154	4909
512.226	6196
512.298	7363
512.369	5971
512.441	6354
512.513	6776
512.585	4949
512.656	6135
512.728	5308
512.800	5432
512.871	7131
512.943	6375
513.015	4968
513.086	6072
513.158	6383
513.230	4660
513.301	5170
513.373	6873
513.444	6534
513.516	6346
513.588	5468
513.659	7052
513.731	6254
513.802	5157
513.874	8838
513.945	7620
514.016	5768
514.088	5803
514.159	4432
514.231	6777
514.302	6276
514.374	6417
514.445	4976
514.516	8317
514.588	5888
514.659	6603
514.730	6178
514.802	7912
514.873	5048
514.944	9038
515.016	6978
515.087	6780
515.158	7585
515.229	8562
515.301	7168
515.372	7963
515.443	6468
515.514	7438
515.585	6419
515.656	8739
515.728	9050
515.799	9009
515.870	10571
515.941	10379
516.012	11061
516.083	14553
516.154	13863
516.225	17823
516.296	22461
516.367	25128
516.438	32363
516.509	42504
516.580	78772
516.651	312238
516.722	944686
516.793	345860
516.864	63126
516.935	53966
517.006	65800
517.077	93072
517.148	241682
517.219	1035794
517.289	1318980
517.360	229246
517.431	59236
517.502	34959
517.573	31294
517.643	26866
517.714	27786
517.785	30136
517.856	34490
517.926	44949
517.997	55336
518.068	70297
518.138	100374
518.209	195367
518.280	715807
518.350	1687276
518.421	825384
518.492	145103
518.562	82740
518.633	79618
518.703	104706
518.774	227895
518.845	574908
518.915	497300
518.986	133537
519.056	56137
519.127	36970
519.197	28342
519.268	20481
519.338	16716
519.408	14124
519.479	13083
519.549	11788
519.620	14081
519.690	9767
519.760	8853
519.831	9586
519.901	8664
519.971	8171
520.042	8152
520.112	7650
520.182	7612
520.253	7469
520.323	7135
520.393	7102
520.463	9096
520.534	4284
520.604	9707
520.674	8512
520.744	5839
520.814	5028
520.885	7530
520.955	5578
521.025	7042
521.095	6840
521.165	6901
521.235	5730
521.305	5365
521.375	7613
521.445	7143
521.515	5852
521.585	7432
521.655	5482
521.725	7263
521.795	7989
521.865	4127
521.935	9034
522.005	5949
522.075	7075
522.145	7313
522.215	5368
522.285	6785
522.355	6751
522.424	6828
522.494	5583
522.564	6942
522.634	7448
522.704	11015
522.774	6676
522.843	7211
522.913	6452
522.983	6185
523.053	6093
523.122	8207
523.192	6421
523.262	7265
523.331	6975
523.401	7247
523.471	7355
523.540	7024
523.610	6812
523.680	7815
523.749	7799
523.819	8232
523.888	8568
523.958	7770
524.027	7410
524.097	7403
524.166	7762
524.236	6470
524.305	9398
524.375	6751
524.444	6719
524.514	9633
524.583	7324
524.653	7235
524.722	8144
524.791	7012
524.861	10224
524.930	7536
524.999	7790
525.069	9561
525.138	9113
525.207	8980
525.277	10715
525.346	11440
525.415	13023
525.484	14339
525.554	16848
525.623	20735
525.692	26056
525.761	31426
525.830	39725
525.900	53909
525.969	87503
526.038	173243
526.107	385749
526.176	1023144
526.245	735355
526.314	216750
526.383	522055
526.452	658820
526.522	949344
526.591	781685
526.660	125719
526.729	75532
526.797	82538
526.867	126325
526.935	389771
527.004	1303187
527.073	779312
527.142	104022
527.211	43521
527.280	29642
527.349	22152
527.418	16421
527.487	16749
527.555	12538
527.624	12436
527.693	10125
527.762	12010
527.831	9731
527.899	10875
527.968	9077
528.037	8302
528.106	8800
528.174	9159
528.243	8918
528.312	8491
528.380	9286
528.449	7613
528.518	9426
528.586	7721
528.655	8979
528.723	7801
528.792	7948
528.861	7158
528.929	6620
528.998	8559
529.066	6890
529.135	8511
529.203	7744
529.272	7868
529.340	9247
529.409	10508
529.477	8199
529.545	7705
529.614	10523
529.682	7890
529.751	9092
529.819	12591
529.887	10311
529.956	9609
530.024	10417
530.092	9501
530.161	9892
530.229	9675
530.297	8843
530.365	11077
530.434	10409
530.502	8965
530.570	10558
530.638	8161
530.707	10359
530.775	11566
530.843	10088
530.911	11014
530.979	10539
531.047	10288
531.115	10687
531.183	11347
531.252	10397
531.320	9836
531.388	9963
531.456	10081
531.524	9420
531.592	11476
531.660	13247
531.728	10232
531.796	10214
531.864	11001
531.932	10218
532.000	10950
532.067	11225
532.135	11926
532.203	14108
532.271	12108
532.339	14909
532.407	15053
532.475	14311
532.542	14158
532.610	13895
532.678	12954
532.746	17683
532.814	21373
532.881	15958
532.949	14228
533.017	13872
533.084	12229
533.152	11762
533.220	12886
533.287	11800
533.355	13716
533.423	13984
533.490	13370
533.558	14004
533.625	13916
533.693	13912
533.761	13715
533.828	14689
533.896	12195
533.963	15233
534.031	16139
534.098	20480
534.166	22909
534.233	20261
534.300	25498
534.368	24800
534.435	23727
534.503	25653
534.570	27959
534.637	31888
534.705	37144
534.772	47127
534.840	103740
534.907	464432
534.974	506076
535.041	62096
535.109	29194
535.176	22590
535.243	22977
535.310	21891
535.378	19729
535.445	21610
535.512	22668
535.579	21521
535.646	19322
535.714	21656
535.781	22632
535.848	22163
535.915	22528
535.982	19447
536.049	20975
536.116	22325
536.183	19571
536.250	19442
536.317	21210
536.384	22046
536.451	22681
536.518	22432
536.585	20606
536.652	23926
536.719	23863
536.786	21541
536.853	21469
536.920	23125
536.987	22173
537.053	21474
537.120	25554
537.187	25256
537.254	24207
537.321	23321
537.388	24774
537.454	22913
537.521	24340
537.588	23023
537.654	23978
537.721	24783
537.788	25499
537.855	23883
537.921	24095
537.988	23500
538.055	22072
538.121	20701
538.188	20081
538.254	19519
538.321	21043
538.388	22492
538.454	26202
538.521	26055
538.587	26079
538.654	25551
538.720	24083
538.787	25073
538.853	24546
538.920	24012
538.986	20717
539.053	21379
539.119	21927
539.185	21329
539.252	23896
539.318	24651
539.385	27850
539.451	24155
539.517	24809
539.583	24096
539.650	24297
539.716	25329
539.782	22574
539.849	22339
539.915	23857
539.981	21908
540.047	21547
540.114	21983
540.180	25806
540.246	25860
540.312	27279
540.378	25451
540.444	25840
540.510	25955
540.576	27871
540.643	23578
540.709	22717
540.775	23798
540.841	22685
540.907	23147
540.973	23062
541.039	22890
541.105	23620
541.171	25720
541.237	26320
541.303	26218
541.369	26796
541.435	25772
541.500	25084
541.566	22630
541.632	22892
541.698	24041
541.764	24990
541.830	24721
541.896	23098
541.961	24278
542.027	23988
542.093	26108
542.159	25990
542.224	21775
542.290	25637
542.356	23230
542.421	25030
542.487	23035
542.553	21851
542.618	22856
542.684	23016
542.750	23304
542.815	25546
542.881	23170
542.947	27056
543.012	26862
543.078	23744
543.143	22371
543.209	24082
543.274	22307
543.340	24907
543.405	25422
543.471	24949
543.536	24882
543.602	24830
543.667	23565
543.732	25739
543.798	24908
543.863	24457
543.928	25464
543.994	25169
544.059	25810
544.124	26547
544.190	26247
544.255	26704
544.320	27618
544.386	27012
544.451	27890
544.516	27574
544.581	26421
544.646	29842
544.712	30683
544.777	29220
544.842	28562
544.907	29082
544.972	28271
545.037	29310
545.102	29450
545.168	30605
545.233	31540
545.298	30724
545.363	30703
545.428	33591
545.493	34557
545.558	34229
545.623	33912
545.688	33436
545.753	34921
545.818	36605
545.883	39548
545.947	39804
546.012	41063
546.077	42168
546.142	43871
546.207	45597
546.272	49412
546.337	49371
546.401	51159
546.466	54486
546.531	54862
546.596	60496
546.661	62902
546.725	66688
546.790	69956
546.855	77615
546.919	85531
546.984	94148
547.049	102997
547.113	114823
547.178	128450
547.243	146953
547.307	171518
547.372	186085
547.436	186522
547.501	199274
547.565	211681
547.630	192928
547.695	186404
547.759	187378
547.823	192108
547.888	194162
547.952	199211
548.017	205425
548.081	210602
548.146	207400
548.210	216466
548.274	236695
548.339	225477
548.403	206870
548.468	195434
548.532	194018
548.596	197892
548.660	198964
548.725	218837
548.789	236211
548.853	227375
548.917	215482
548.982	211380
549.046	190232
549.110	171086
549.174	180507
549.238	210388
549.303	231388
549.367	235169
549.431	222675
549.495	208124
549.559	209211
549.623	246215
549.687	263837
549.751	260321
549.815	313980
549.879	311747
549.943	304513
550.007	318122
550.071	311248
550.135	277943
550.199	265889
550.263	258899
550.327	246141
550.391	254477
550.455	284911
550.519	298814
550.582	315529
550.646	358434
550.710	359512
550.774	356308
550.838	359275
550.901	369290
550.965	391030
551.029	406844
551.093	434923
551.156	467482
551.220	517895
551.284	561054
551.347	446626
551.411	384802
551.475	368991
551.538	383084
551.602	357531
551.666	341077
551.729	321936
551.793	316748
551.856	308848
551.920	305571
551.983	305134
552.047	298981
552.110	303010
552.174	307035
552.237	313193
552.301	291754
552.364	281320
552.428	271973
552.491	283339
552.554	288850
552.618	289303
552.681	298453
552.745	295170
552.808	349359
552.871	402673
552.934	330554
552.998	296175
553.061	283662
553.124	270800
553.187	267485
553.251	278207
553.314	275983
553.377	280166
553.440	294877
553.503	302339
553.567	299519
553.630	298870
553.693	299868
553.756	301051
553.819	294600
553.882	282729
553.945	285054
554.008	285914
554.071	288176
554.134	289968
554.197	274784
554.260	270258
554.323	274036
554.386	277864
554.449	289965
554.512	284626
554.575	274396
554.638	271481
554.701	270781
554.764	267585
554.827	258812
554.889	248310
554.952	234093
555.015	231039
555.078	233711
555.141	236340
555.203	231616
555.266	230267
555.329	229493
555.391	220358
555.454	216277
555.517	209138
555.580	202430
555.642	196058
555.705	191186
555.768	188262
555.830	182687
555.893	173772
555.955	169276
556.018	165260
556.080	167941
556.143	171967
556.206	168013
556.268	165069
556.330	161342
556.393	156155
556.455	152803
556.518	149777
556.580	144801
556.643	136786
556.705	137273
556.767	132136
556.830	132278
556.892	127925
556.955	124990
557.017	122329
557.079	122464
557.142	118558
557.204	116447
557.266	116758
557.328	109116
557.391	101975
557.453	101189
557.515	100477
557.577	102139
557.639	100728
557.701	100617
557.764	100172
557.826	102244
557.888	105747
557.950	109750
558.012	120055
558.074	156530
558.136	333741
558.198	675788
558.260	232636
558.322	110002
558.384	109383
558.446	114863
558.508	121146
558.570	133250
558.632	151392
558.694	197712
558.756	328976
558.818	863589
558.880	1530014
558.942	682530
559.003	718861
559.065	320706
559.127	136531
559.189	131570
559.251	149266
559.312	218224
559.374	494023
559.436	1240657
559.498	594877
559.559	152831
559.621	130710
559.683	155523
559.744	254587
559.806	742571
559.868	940142
559.929	215489
559.991	149873
560.052	256090
560.114	664480
560.176	389917
560.237	404491
560.299	567578
560.360	123830
560.422	57727
560.483	49873
560.545	46719
560.606	45408
560.667	43219
560.729	41805
560.790	39729
560.852	38387
560.913	38174
560.974	36457
561.036	36236
561.097	36540
561.158	36225
561.220	35717
561.281	33876
561.342	33502
561.403	33480
561.465	32993
561.526	32294
561.587	33721
561.648	30352
561.709	31253
561.771	30390
561.832	29691
561.893	29611
561.954	28529
562.015	28678
562.076	28126
562.137	27203
562.198	28490
562.259	27931
562.320	27554
562.381	27761
562.442	27574
562.503	26570
562.564	26621
562.625	25816
562.686	25443
562.747	25441
562.808	25615
562.869	25310
562.930	24931
562.991	23629
563.051	23079
563.112	24621
563.173	24725
563.234	23708
563.294	23449
563.355	23571
563.416	23791
563.477	23456
563.537	22230
563.598	22645
563.659	23133
563.720	22419
563.780	21997
563.841	21784
563.901	23884
563.962	20996
564.023	21801
564.083	20934
564.144	21745
564.204	21597
564.265	21782
564.325	20456
564.386	20503
564.446	21048
564.507	20216
564.567	19357
564.628	20418
564.688	20082
564.749	19375
564.809	20147
564.869	20749
564.930	19604
564.990	20119
565.050	20631
565.111	20362
565.171	19419
565.231	19949
565.292	20409
565.352	19987
565.412	19626
565.472	19857
565.532	19194
565.593	18648
565.653	19551
565.713	20332
565.773	20040
565.833	20120
565.893	21758
565.953	18448
566.013	17972
566.074	18172
566.134	18215
566.194	18203
566.254	17371
566.314	18056
566.374	17614
566.434	18064
566.494	18112
566.554	17732
566.614	18487
566.673	18816
566.733	19833
566.793	19996
566.853	19649
566.913	20044
566.973	18994
567.033	19416
567.092	18602
567.152	19047
567.212	18582
567.272	19620
567.331	20018
567.391	20130
567.451	21323
567.511	21043
567.570	19653
567.630	20327
567.690	19023
567.749	19849
567.809	19404
567.868	19438
567.928	19001
567.988	19112
568.047	19375
568.107	20285
568.166	19539
568.226	19601
568.285	20768
568.345	21121
568.404	20698
568.464	18849
568.523	19472
568.582	20528
568.642	20389
568.701	18410
568.761	19443
568.820	19765
568.879	18383
568.939	19580
568.998	19940
569.057	18672
569.116	19399
569.176	19197
569.235	18398
569.294	19320
569.353	18033
569.413	18790
569.472	17523
569.531	18404
569.590	17495
569.649	18380
569.708	17257
569.767	19555
569.827	17647
569.886	18240
569.945	18314
570.004	19264
570.063	17935
570.122	19520
570.181	18813
570.240	19749
570.299	19207
570.358	19233
570.417	19799
570.475	20799
570.534	20360
570.593	20013
570.652	19218
570.711	20738
570.770	18821
570.829	19409
570.887	21213
570.946	20585
571.005	21375
571.064	23878
571.122	26309
571.181	22787
571.240	20185
571.299	18599
571.357	17583
571.416	18638
571.475	19707
571.533	18866
571.592	20535
571.650	19376
571.709	21890
571.768	24592
571.826	24693
571.885	22338
571.943	20925
572.002	19748
572.060	18328
572.119	18915
572.177	18999
572.236	18608
572.294	18998
572.352	21809
572.411	20708
572.469	19314
572.528	18721
572.586	18446
572.644	18088
572.703	18305
572.761	17716
572.819	17709
572.877	16435
572.936	16511
572.994	17140
573.052	17207
573.110	17561
573.169	18902
573.227	18963
573.285	18581
573.343	18148
573.401	17120
573.459	18029
573.517	18616
573.576	19673
573.634	18740
573.692	18170
573.750	18866
573.808	17260
573.866	16926
573.924	16622
573.982	16856
574.040	17710
574.098	17357
574.155	16148
574.213	16695
574.271	17793
574.329	19168
574.387	16812
574.445	15002
574.503	15480
574.560	15578
574.618	15424
574.676	16225
574.734	15234
574.792	15030
574.849	14977
574.907	13573
574.965	12466
575.022	13105
575.080	12468
575.138	12608
575.195	12362
575.253	11584
575.311	13180
575.368	12675
575.426	12258
575.483	13479
575.541	12748
575.598	13494
575.656	12621
575.713	13399
575.771	15292
575.828	13090
575.886	12506
575.943	12181
576.001	11296
576.058	10996
576.115	11482
576.173	12917
576.230	12790
576.287	13430
576.345	12101
576.402	13076
576.459	13367
576.517	11522
576.574	11440
576.631	11691
576.688	10420
576.746	11357
576.803	10155
576.860	10706
576.917	11786
576.974	11501
577.031	11452
577.089	11805
577.146	10581
577.203	10907
577.260	11014
577.317	10324
577.374	10865
577.431	10945
577.488	10816
577.545	9902
577.602	10464
577.659	10758
577.716	11001
577.773	10689
577.830	10080
577.886	10764
577.943	10520
578.000	10809
578.057	9628
578.114	10330
578.171	10267
578.227	10326
578.284	10272
578.341	10859
578.398	11136
578.454	10163
578.511	10233
578.568	10551
578.625	10540
578.681	11227
578.738	10936
578.794	11063
578.851	10617
578.908	10676
578.964	10801
579.021	10827
579.077	9744
579.134	10963
579.190	11071
579.247	10293
579.303	10094
579.360	9162
579.416	10580
579.473	10688
579.529	10620
579.586	10696
579.642	10452
579.698	12021
579.755	11108
579.811	11225
579.867	10437
579.924	10632
579.980	10663
580.036	11739
580.093	11760
580.149	12028
580.205	12132
580.261	11858
580.317	12490
580.374	12468
580.430	11772
580.486	11537
580.542	10829
580.598	12135
580.619	12165
580.654	12230
580.692	12458
580.710	12594
580.765	11505
580.767	11483
580.823	12664
580.838	12846
580.879	13389
580.911	12997
580.935	12730
580.984	12533
580.991	12526
581.047	12532
581.057	12708
581.103	13531
581.130	12917
581.159	12314
581.203	12567
581.215	12646
581.270	11515
581.276	11472
581.326	11111
581.349	11620
581.382	12426
581.422	11958
581.438	11796
581.494	11730
581.494	11720
581.550	11526
581.567	11519
581.606	11590
581.640	11571
581.661	11528
581.713	11599
581.717	11619
581.773	12151
581.786	12279
581.829	12725
581.859	12146
581.885	11664
581.932	12261
581.940	12370
581.996	12199
582.004	12190
582.052	12164
582.077	11876
582.107	11589
582.150	11987
582.163	12146
582.219	12026
582.223	12040
582.274	12084
582.296	11709
582.330	11134
582.368	11409
582.386	11609
582.441	11781
582.441	11784
582.497	11253
582.514	11162
582.552	11005
582.587	11277
582.608	11495
582.659	11466
582.663	11458
582.719	11466
582.732	11587
582.774	12024
582.805	11374
582.830	10898
582.877	11749
582.885	11859
582.941	11855
582.950	11813
582.996	11592
583.023	11649
583.052	11936
583.095	11962
583.107	11891
583.162	11411
583.168	11456
583.218	11824
583.240	11346
583.273	10797
583.313	10651
583.328	10575
583.384	11790
583.385	11756
583.439	10671
583.458	10838
583.494	11139
583.531	11180
583.549	11254
583.603	10635
583.605	10616
583.660	11754
583.676	11631
583.715	11324
583.748	11863
583.770	12133
583.820	11360
583.825	11292
583.881	11186
583.893	11145
583.936	11172
583.965	11260
583.991	11131
584.038	11087
584.046	11114
584.101	11060
584.110	11136
584.156	11689
584.183	11540
584.211	11230
584.255	11799
584.266	11963
584.321	11856
584.328	11911
584.376	12229
584.400	12273
584.431	12335
584.472	12287
584.486	12276
584.541	12850
584.545	12883
584.596	13350
584.617	13278
584.651	13519
584.689	14580
584.706	14765
584.761	14358
584.762	14363
584.816	14804
584.834	15275
584.871	16133
584.906	16596
584.926	16957
584.978	18470
584.980	18520
585.035	19871
585.051	20375
585.090	22065
585.123	24302
585.145	25863
585.195	28752
585.200	29050
585.254	33578
585.267	34999
585.309	40169
585.340	44364
585.364	47891
585.412	56642
585.419	58129
585.473	74170
585.484	79147
585.528	105911
585.556	134172
585.583	184680
585.628	305679
585.637	346574
585.692	712542
585.700	768471
585.747	951680
585.772	795152
585.801	486990
585.845	174159
585.856	133847
585.910	64657
585.917	58145
585.965	41942
585.989	37012
586.019	33520
586.061	29914
586.074	29068
586.128	25948
586.133	25747
586.183	24298
586.205	24063
586.237	23551
586.277	22530
586.292	22465
586.346	22557
586.349	22574
586.401	22201
586.421	22001
586.455	21528
586.493	21593
586.509	21937
586.564	22345
586.565	22387
586.618	24560
586.637	25564
586.672	28898
586.709	33996
586.727	36024
586.781	39330
586.781	39312
586.835	28875
586.853	26649
586.889	23936
586.925	21962
586.944	21566
586.996	21674
586.998	21659
587.052	20701
587.068	20530
587.106	20913
587.140	21164
587.161	21114
587.212	22131
587.215	22172
587.269	21074
587.284	21439
587.323	22475
587.356	22522
587.377	22685
587.427	24024
587.431	24075
587.485	24064
587.499	24090
587.539	24391
587.571	24963
587.593	25339
587.643	26467
587.648	26589
587.702	27175
587.715	27324
587.755	27026
587.786	27125
587.810	27240
587.858	27199
587.864	27156
587.917	26972
587.930	26836
587.971	26913
588.001	27199
588.025	27444
588.073	28342
588.079	28381
588.133	28253
588.145	28297
588.187	28537
588.217	28740
588.241	29088
588.288	29886
588.295	29951
588.348	31209
588.360	31322
588.402	31964
588.431	32749
588.456	33264
588.503	34003
588.510	34258
588.564	37302
588.575	38003
588.617	40042
588.646	41742
588.671	43353
588.718	47100
588.725	48094
588.778	59486
588.789	62723
588.832	92410
588.861	117933
588.886	168433
588.932	290136
588.939	301405
588.993	372793
589.004	363651
589.047	185344
589.075	93880
589.100	69533
589.147	45835
589.154	45101
589.207	41530
589.218	41059
589.261	41363
589.290	42295
589.314	44068
589.361	48782
589.368	50416
589.421	67302
589.433	72161
589.475	122611
589.504	166144
589.528	219436
589.576	333798
589.582	324885
589.635	155384
589.647	124754
589.689	66866
589.718	38031
589.742	35717
589.790	32166
589.795	32052
589.849	31673
589.861	31649
589.902	30432
589.932	29422
589.955	29238
590.004	29230
590.009	29166
590.062	28630
590.075	28541
590.115	29284
590.146	29743
590.168	29215
590.218	27932
590.222	27920
590.275	28763
590.289	28862
590.328	29571
590.360	30063
590.381	30102
590.431	30255
590.435	30234
590.488	30372
590.503	30386
590.541	31160
590.574	31854
590.594	32014
590.645	32641
590.647	32653
590.700	33110
590.716	33347
590.753	34416
590.787	35487
590.806	35714
590.859	36222
590.859	36216
590.912	36846
590.930	37059
590.965	37303
591.001	37655
591.018	37138
591.071	35471
591.072	35476
591.124	35479
591.143	35545
591.177	35962
591.214	36541
591.230	36925
591.283	38134
591.285	38192
591.336	37269
591.356	37006
591.389	37143
591.427	37233
591.442	37109
591.495	36686
591.498	36678
591.547	36929
591.569	37134
591.600	37513
591.640	37839
591.653	37885
591.706	38280
591.711	38348
591.759	39315
591.782	39828
591.811	40134
591.853	40622
591.864	40698
591.917	41162
591.924	41231
591.969	41178
591.995	41268
592.022	41361
592.066	41547
592.075	41758
592.127	43251
592.137	43540
592.180	44080
592.208	44487
592.233	44995
592.279	46010
592.285	46059
592.338	46696
592.350	46859
592.390	46637
592.421	46513
592.443	46673
592.491	47184
592.495	47255
592.548	48699
592.562	49135
592.600	48563
592.633	48123
592.653	48215
592.704	48295
592.705	48582
592.775	49265
592.846	51615
592.916	51531
592.987	52102
593.058	53680
593.128	53277
593.199	53168
593.270	54699
593.341	56874
593.411	57710
593.482	58663
593.553	61225
593.623	61402
593.694	62935
593.764	64162
593.835	63360
593.906	63849
593.976	65832
594.047	66916
594.117	70938
594.188	71638
594.258	71443
594.329	71562
594.399	74294
594.470	76426
594.540	78968
594.611	80859
594.681	80089
594.751	80142
594.822	84236
594.892	88025
594.963	89089
595.033	92418
595.103	93950
595.174	95818
595.244	97855
595.314	100997
595.384	103841
595.455	104876
595.525	108641
595.595	113618
595.665	114448
595.736	110962
595.806	114154
595.876	114314
595.946	116435
596.016	120119
596.087	125229
596.157	124705
596.227	126124
596.297	134224
596.367	142566
596.437	150080
596.507	148914
596.577	148674
596.647	154560
596.717	161277
596.787	165666
596.857	164959
596.927	165116
596.997	164651
597.067	168431
597.137	171439
597.207	171377
597.277	173493
597.347	165267
597.417	159412
597.487	159536
597.557	164485
597.626	169220
597.696	170170
597.766	167382
597.836	157689
597.906	148672
597.975	147268
598.045	149077
598.115	157732
598.185	170301
598.254	190709
598.324	207285
598.394	209411
598.464	202458
598.533	198377
598.603	183955
598.672	178777
598.742	184661
598.812	184172
598.881	188999
598.951	188309
599.020	191686
599.090	199408
599.159	202299
599.229	191624
599.299	190370
599.368	194457
599.437	190583
599.507	173224
599.576	168899
599.646	166392
599.715	165008
599.785	162978
599.854	156838
599.924	155068
599.993	156478
600.062	157920
600.132	163803
600.201	174777
600.270	203653
600.340	212625
600.409	207369
600.478	206698
600.547	211635
600.617	189161
600.686	149145
600.755	134866
600.824	127517
600.894	125900
600.963	126592
601.032	122854
601.101	118571
601.170	112409
601.239	109085
601.308	109415
601.378	110635
601.447	109832
601.516	110053
601.585	111128
601.654	113962
601.723	113597
601.792	117280
601.861	121572
601.930	124933
601.999	125293
602.068	125229
602.137	126722
602.206	129016
602.275	131791
602.343	131807
602.412	133599
602.481	136595
602.550	134349
602.619	140938
602.688	142677
602.756	143610
602.825	144590
602.894	148573
602.963	152639
603.032	154795
603.100	156515
603.169	155551
603.238	156324
603.307	158259
603.375	160448
603.444	162585
603.513	164721
603.581	167228
603.650	169309
603.719	168272
603.787	172688
603.856	176836
603.924	182041
603.993	189595
604.061	194766
604.130	204726
604.198	208552
604.267	212738
604.335	216012
604.404	218173
604.472	220017
604.541	225370
604.609	224754
604.678	227561
604.746	227483
604.815	236917
604.883	237697
604.951	238134
605.020	241942
605.088	248557
605.156	254192
605.225	259450
605.293	257546
605.361	259422
605.429	263151
605.498	267352
605.566	272338
605.634	288244
605.702	298605
605.771	307047
605.839	307228
605.907	300836
605.975	287777
606.043	284903
606.111	285277
606.180	285305
606.248	278281
606.316	277766
606.384	279514
606.452	279054
606.520	290801
606.588	300285
606.656	301780
606.724	293209
606.792	277175
606.860	250713
606.928	227183
606.996	218097
607.064	215386
607.132	221620
607.200	236065
607.267	242364
607.335	246792
607.403	252902
607.471	242478
607.539	237936
607.607	236757
607.674	209467
607.742	210880
607.810	208566
607.878	208193
607.946	214396
608.013	224397
608.081	226774
608.149	229362
608.216	239951
608.284	248266
608.352	247348
608.419	242752
608.487	238237
608.555	233349
608.622	241960
608.690	257768
608.757	286067
608.825	289782
608.893	281738
608.960	265922
609.028	252353
609.095	254063
609.163	250862
609.230	224306
609.298	207702
609.365	222288
609.432	237851
609.500	258875
609.567	294994
609.635	336938
609.702	356089
609.769	332838
609.837	258267
609.904	227563
609.971	234962
610.039	264603
610.106	340281
610.173	616721
610.241	1256309
610.308	699900
610.375	291755
610.442	246623
610.509	236654
610.577	236083
610.644	239909
610.711	250373
610.778	254118
610.845	263894
610.912	280936
610.980	290255
611.047	289077
611.114	284367
611.181	276651
611.248	276924
611.315	292542
611.382	296978
611.449	308657
611.516	313832
611.583	310355
611.650	310311
611.717	316669
611.784	323605
611.851	337757
611.918	355066
611.984	415473
612.051	554804
612.118	976963
612.185	1865211
612.252	1276042
612.319	503159
612.386	414294
612.452	375637
612.519	356594
612.586	348569
612.653	353661
612.719	367057
612.786	349334
612.853	324661
612.919	321464
612.986	323644
613.053	304316
613.120	287136
613.186	275378
613.253	279178
613.319	281121
613.386	282825
613.453	285511
613.519	288491
613.586	281356
613.652	286890
613.719	279523
613.785	286842
613.852	291608
613.918	285977
613.985	288544
614.051	303671
614.118	297397
614.184	287725
614.250	289280
614.317	294672
614.383	291618
614.449	292788
614.516	295104
614.582	295824
614.648	292481
614.715	287814
614.781	279786
614.847	281893
614.914	280202
614.980	270734
615.046	274892
615.112	282597
615.179	283805
615.245	285594
615.311	281771
615.377	286846
615.443	291579
615.509	293269
615.575	305139
615.642	300169
615.708	306836
615.774	324183
615.840	343650
615.906	364144
615.972	432659
616.038	617408
616.104	1152964
616.170	2034525
616.236	1725369
616.302	703378
616.368	554511
616.434	405518
616.500	374850
616.565	422785
616.631	528920
616.697	427728
616.763	447137
616.829	673967
616.895	1158322
616.961	1047808
617.026	473224
617.092	332464
617.158	310888
617.224	298268
617.289	277354
617.355	263448
617.421	257789
617.487	258660
617.552	246843
617.618	243573
617.684	244260
617.749	246314
617.815	235918
617.880	232153
617.946	231219
618.012	235486
618.077	241999
618.143	228978
618.208	232005
618.274	249863
618.339	246615
618.405	206347
618.470	206584
618.536	206220
618.601	202365
618.667	190426
618.732	179203
618.798	178164
618.863	179228
618.928	176512
618.994	179458
619.059	177960
619.124	180651
619.190	179431
619.255	176006
619.320	176705
619.386	179002
619.451	176562
619.516	170793
619.581	173427
619.647	177046
619.712	176928
619.777	168878
619.842	172110
619.907	174126
619.972	177155
620.038	174465
620.103	171824
620.168	172964
620.233	175857
620.298	176617
620.363	178957
620.428	182959
620.493	187534
620.558	189628
620.623	191759
620.688	189919
620.753	188890
620.818	191734
620.883	193614
620.948	192595
621.013	189579
621.078	186995
621.143	188673
621.207	192068
621.272	186780
621.337	181139
621.402	180721
621.467	177904
621.532	179694
621.596	179348
621.661	173510
621.726	172440
621.791	174651
621.855	174737
621.920	170973
621.985	176284
622.049	180704
622.114	178890
622.179	181602
622.243	185812
622.308	191373
622.373	199828
622.437	192291
622.502	182208
622.566	182578
622.631	178824
622.695	185769
622.760	183661
622.824	183389
622.889	183345
622.953	182387
623.018	196762
623.082	198558
623.147	193447
623.211	189515
623.276	190944
623.340	182865
623.404	178330
623.469	176321
623.533	180732
623.597	173408
623.662	175679
623.726	162487
623.790	153561
623.854	148935
623.919	152910
623.983	155408
624.047	156298
624.111	158065
624.176	162330
624.240	160491
624.304	167279
624.368	160014
624.432	161290
624.496	165573
624.560	174747
624.625	173357
624.689	172499
624.753	182568
624.817	172116
624.881	165979
624.945	152072
625.009	146730
625.073	151049
625.137	155005
625.201	160846
625.265	161460
625.329	154598
625.393	156647
625.456	159342
625.520	164115
625.584	164117
625.648	168747
625.712	172577
625.776	168808
625.839	160358
625.903	136742
625.967	128614
626.031	138513
626.095	162107
626.158	147719
626.222	117432
626.286	110938
626.349	107217
626.413	100044
626.477	99783
626.540	101017
626.604	99209
626.668	98729
626.731	95890
626.795	95547
626.858	97175
626.922	95133
626.986	94429
627.049	93317
627.113	100205
627.176	94843
627.240	92832
627.303	92249
627.366	91473
627.430	92059
627.493	90978
627.557	87931
627.620	92278
627.684	96001
627.747	95043
627.810	85540
627.874	79668
627.937	76284
628.000	79634
628.064	76616
628.127	67370
628.190	67222
628.253	66811
628.317	62887
628.380	58875
628.443	56944
628.506	58187
628.569	55736
628.632	52204
628.696	53608
628.759	51857
628.822	50095
628.885	49196
628.948	48510
629.011	47976
629.074	44943
629.137	43353
629.200	42220
629.263	44506
629.326	41895
629.389	43343
629.452	41474
629.515	41107
629.578	40316
629.641	41656
629.704	41535
629.767	41412
629.830	39953
629.892	38723
629.955	38677
630.018	42051
630.081	39067
630.144	39382
630.207	36227
630.269	40399
630.332	36757
630.395	36422
630.458	36489
630.520	34662
630.583	36466
630.646	37752
630.708	36422
630.771	36762
630.834	39434
630.896	38795
630.959	38119
631.021	37477
631.084	37410
631.146	38267
631.209	38959
631.272	38351
631.334	39795
631.397	39491
631.459	40810
631.522	43900
631.584	44718
631.646	50833
631.709	53405
631.771	53288
631.834	50184
631.896	45908
631.958	42780
632.021	41824
632.083	38124
632.145	37479
632.208	37208
632.270	36974
632.332	35897
632.395	34534
632.457	35291
632.519	34159
632.581	35358
632.643	34678
632.706	34608
632.768	33451
632.830	35277
632.892	35016
632.954	33999
633.016	37532
633.078	36041
633.141	36173
633.203	35231
633.265	35708
633.327	35724
633.389	35761
633.451	36166
633.513	35672
633.575	37694
633.637	36909
633.698	37210
633.760	40533
633.822	42427
633.884	43745
633.946	45082
634.008	46910
634.070	50053
634.132	54758
634.193	60865
634.255	68181
634.317	69206
634.379	66406
634.441	57611
634.502	50677
634.564	45973
634.626	41136
634.687	40073
634.749	38235
634.811	36700
634.873	35087
634.934	36099
634.996	37460
635.057	36710
635.119	36576
635.181	38228
635.242	38676
635.304	36755
635.365	40844
635.427	37598
635.488	38647
635.550	37305
635.611	39573
635.673	38306
635.734	44888
635.796	45850
635.857	54150
635.918	58003
635.980	66506
636.041	70170
636.102	76509
636.164	78890
636.225	73099
636.286	61090
636.348	53529
636.409	46395
636.470	42206
636.531	40672
636.593	37551
636.654	36597
636.715	34735
636.776	33548
636.838	31947
636.899	32715
636.960	30700
637.021	30631
637.082	29778
637.143	29723
637.204	27827
637.265	28611
637.326	30359
637.387	30374
637.448	29499
637.509	29534
637.570	29922
637.631	29423
637.692	26308
637.753	26006
637.814	26183
637.875	26015
637.936	27435
637.997	26513
638.058	25910
638.119	26715
638.179	26941
638.240	25290
638.301	26727
638.362	25168
638.423	23682
638.483	25143
638.544	22963
638.605	24735
638.666	23325
638.726	23957
638.787	24953
638.848	24703
638.908	24731
638.969	23756
639.030	22875
639.090	21996
639.151	23865
639.211	24903
639.272	24124
639.332	24630
639.393	25128
639.453	27764
639.514	28761
639.574	25484
639.635	23121
639.695	23257
639.756	21359
639.816	22104
639.877	22224
639.937	23237
639.997	22255
640.058	21584
640.118	21697
640.178	23204
640.239	22377
640.299	22891
640.359	23309
640.420	25003
640.480	31630
640.540	35938
640.600	34759
640.661	30655
640.721	28008
640.781	28056
640.841	22130
640.901	22728
640.961	24186
641.021	24582
641.082	27888
641.142	23289
641.202	23142
641.262	19578
641.322	21492
641.382	20112
641.442	21533
641.502	20899
641.562	21966
641.622	22556
641.682	24908
641.742	31320
641.802	27244
641.861	22239
641.921	20045
641.981	20853
642.041	20389
642.101	19073
642.161	17492
642.221	19492
642.280	19993
642.340	19350
642.400	20163
642.460	21315
642.519	20911
642.579	20954
642.639	21640
642.698	19662
642.758	24382
642.818	20955
642.877	21229
642.937	21037
642.997	22132
643.056	20672
643.116	19287
643.175	22633
643.235	22290
643.294	23379
643.354	24983
643.414	27466
643.473	32334
643.532	39443
643.592	55885
643.651	84950
643.711	144430
643.770	282088
643.830	662132
643.889	1121309
643.948	317280
644.008	76515
644.067	45713
644.126	34233
644.186	29310
644.245	26911
644.304	21876
644.363	25061
644.423	22435
644.482	23383
644.541	24831
644.600	26210
644.659	35133
644.719	44332
644.778	69480
644.837	122012
644.896	252578
644.955	530420
645.014	159118
645.073	41581
645.132	31069
645.191	27721
645.250	25803
645.309	28153
645.368	31743
645.427	44321
645.486	81688
645.545	133920
645.604	36832
645.663	24047
645.722	23651
645.781	25221
645.840	30043
645.898	36997
645.957	53525
646.016	79847
646.075	140269
646.134	272141
646.192	700999
646.251	865628
646.310	163731
646.369	56645
646.427	45796
646.486	33065
646.545	25653
646.603	23232
646.662	21805
646.721	21604
646.779	21346
646.838	22893
646.896	30604
646.955	43475
647.014	70386
647.072	140889
647.131	374239
647.189	155934
647.248	27641
647.306	20520
647.365	18229
647.423	15034
647.481	16791
647.540	14151
647.598	15431
647.657	15546
647.715	15199
647.773	13282
647.832	14363
647.890	11994
647.948	12963
648.007	13099
648.065	12449
648.123	12228
648.181	12793
648.240	12725
648.298	11212
648.356	11599
648.414	12477
648.472	12098
648.531	12495
648.589	11947
648.647	12174
648.705	12053
648.763	11352
648.821	12970
648.879	13134
648.937	15625
648.995	20235
649.053	27137
649.111	40944
649.169	68275
649.227	122060
649.285	264148
649.343	676038
649.401	289879
649.459	44457
649.516	25258
649.574	19157
649.632	20890
649.690	24101
649.748	32854
649.806	48843
649.863	96386
649.921	276423
649.979	159508
650.037	22102
650.094	13584
650.152	12844
650.210	10447
650.268	10752
650.325	9305
650.383	9080
650.440	8008
650.498	8964
650.556	8656
650.613	7918
650.671	8965
650.728	8820
650.786	9816
650.843	14725
650.901	9431
650.958	8018
651.016	7039
651.073	7020
651.131	6437
651.188	5964
651.246	6287
651.303	5769
651.360	6115
651.418	6219
651.475	6021
651.532	6235
651.590	6705
651.647	5798
651.704	6704
651.762	6240
651.819	6058
651.876	5441
651.933	5257
651.990	6669
652.048	4432
652.105	5489
652.162	5739
652.219	5255
652.276	5464
652.333	5698
652.390	4519
652.448	5688
652.505	4799
652.562	4991
652.619	4543
652.676	5205
652.733	5994
652.790	5217
652.847	4054
652.904	5180
652.961	3189
653.017	4224
653.074	4764
653.131	5136
653.188	4153
653.245	4350
653.302	5223
653.359	5035
653.415	5242
653.472	3770
653.529	4765
653.586	3804
653.642	4770
653.699	5691
653.756	4081
653.813	4411
653.869	5601
653.926	4821
653.983	5425
654.039	5619
654.096	4693
654.152	5049
654.209	3394
654.266	3847
654.322	2766
654.379	4552
654.435	4311
654.492	3589
654.548	4419
654.605	3903
654.661	4584
654.717	4152
654.774	4400
654.830	4138
654.887	3902
654.943	3829
655.000	4077
655.056	4322
655.112	4588
655.168	3503
655.225	5062
655.281	5617
655.337	4484
655.394	4087
655.450	3885
655.506	3687
655.562	4047
655.618	4991
655.675	3526
655.731	4356
655.787	3495
655.843	4543
655.899	3507
655.955	4640
656.011	5301
656.067	4152
656.123	5326
656.179	5344
656.235	6288
656.291	4151
656.347	6135
656.403	4577
656.459	3852
656.515	4802
656.571	4697
656.627	4472
656.683	3804
656.739	4492
656.795	5012
656.850	4199
656.906	4045
656.962	4632
657.018	4764
657.074	5812
657.129	8421
657.185	15740
657.241	36648
657.297	17606
657.352	5060
657.408	4246
657.464	4040
657.519	4062
657.575	2685
657.630	3432
657.686	2967
657.742	2550
657.797	4280
657.853	3079
657.908	4292
657.964	2644
658.019	2484
658.075	3632
658.130	3033
658.186	3363
658.241	3081
658.297	2442
658.352	2839
658.407	2939
658.463	2630
658.518	3836
658.573	2902
658.629	2285
658.684	2466
658.739	3459
658.795	2443
658.850	2945
658.905	1711
658.960	2654
659.016	2364
659.071	3027
659.126	3284
659.181	2417
659.236	3591
659.291	3115
659.346	2103
659.401	2670
659.457	3795
659.512	1530
659.567	3814
659.622	2569
659.677	2224
659.732	1690
659.787	2801
659.842	1992
659.897	2498
659.952	2642
660.007	2238
660.061	3040
660.116	1726
660.171	1984
660.226	2739
660.281	3727
660.336	2320
660.391	3142
660.445	1794
660.500	2986
660.555	2216
660.610	1872
660.664	3030
660.719	2566
660.774	2474
660.828	2741
660.883	2392
660.938	3333
660.992	1566
661.047	2587
661.101	890
661.156	2602
661.211	1398
661.265	3229
661.320	2090
661.374	2333
661.429	1749
661.483	2966
661.538	1374
661.592	1756
661.647	2649
661.701	2959
661.755	2064
661.810	2973
661.864	1832
661.919	2033
661.973	2648
662.027	2220
662.081	2022
662.136	2080
662.190	2107
662.244	2918
662.299	3423
662.353	2965
662.407	2409
662.461	1510
662.515	2564
662.569	1014
662.624	2500
662.678	2381
662.732	2091
662.786	1848
662.840	2239
662.894	2620
662.948	2212
663.002	1967
663.056	2991
663.110	1638
663.164	2023
663.218	3175
663.272	3259
663.326	1971
663.380	2739
663.434	2679
663.488	2177
663.542	3099
663.595	2735
663.649	1928
663.703	2551
663.757	2332
663.811	3092
663.864	3300
663.918	2901
663.972	2667
664.026	1856
664.079	3232
664.133	3308
664.187	2831
664.240	2475
664.294	3335
664.348	3046
664.401	2635
664.455	2343
664.508	2179
664.562	2304
664.615	2605
664.669	1896
664.722	2131
664.776	2206
664.829	2650
664.883	2006
664.936	1910
664.990	2168
665.043	3556
665.097	2417
665.150	2730
665.203	1780
665.257	2610
665.310	3097
665.363	3098
665.417	2797
665.470	2924
665.523	2197
665.576	3291
665.630	2712
665.683	3698
665.736	3225
665.789	2931
665.842	2647
665.895	3224
665.949	3211
666.002	2591
666.055	3339
666.108	3317
666.161	3448
666.214	4161
666.267	3903
666.320	3421
666.373	3702
666.426	3272
666.479	2807
666.532	3337
666.585	3941
666.638	3582
666.691	3335
666.744	3259
666.796	2938
666.849	3522
666.902	3440
666.955	2866
667.008	2879
667.060	3448
667.113	2390
667.166	3939
667.219	3257
667.271	3663
667.324	3233
667.377	3699
667.430	2984
667.482	3998
667.535	2479
667.587	2860
667.640	3092
667.693	2884
667.745	3505
667.798	3230
667.850	3000
667.903	3215
667.955	3134
668.008	3470
668.060	3713
668.113	2743
668.165	2975
668.218	3293
668.270	3094
668.322	2509
668.375	2763
668.427	2964
668.479	2580
668.532	2771
668.584	3751
668.636	3468
668.689	2914
668.741	2785
668.793	2468
668.845	3148
668.898	2929
668.950	3469
669.002	3368
669.054	2535
669.106	2656
669.158	2743
669.211	2752
669.263	2836
669.315	2435
669.367	2475
669.419	2459
669.471	3019
669.523	2708
669.575	2621
669.627	2263
669.679	2017
669.731	2873
669.783	3043
669.835	2861
669.886	2403
669.938	2452
669.990	2953
670.042	1662
670.094	2904
670.146	1610
670.197	2839
670.249	2721
670.301	2984
670.353	2397
670.404	3303
670.456	2996
670.508	4494
670.560	6125
670.611	7325
670.663	12805
670.715	30273
670.766	40624
670.818	11404
670.869	3426
670.921	3709
670.972	3830
671.024	3307
671.075	3139
671.127	3895
671.178	3959
671.230	4543
671.281	4359
671.333	6106
671.384	6925
671.436	9299
671.487	15048
671.538	22437
671.590	36342
671.641	62132
671.692	115770
671.744	213608
671.795	137649
671.846	44789
671.897	20735
671.949	12318
672.000	9425
672.051	5916
672.102	6160
672.153	5274
672.204	4404
672.256	3386
672.307	3538
672.358	3253
672.409	2520
672.460	2100
672.511	2980
672.562	1873
672.613	1280
672.664	2035
672.715	2091
672.766	2245
672.817	2359
672.868	1913
672.919	2381
672.970	1530
673.021	1623
673.071	1870
673.122	1654
673.173	1440
673.224	1344
673.275	1128
673.326	1158
673.376	1655
673.427	1680
673.478	2288
673.528	2214
673.579	2123
673.630	1137
673.680	2490
673.731	2064
673.782	1034
673.832	1820
673.883	2056
673.934	688
673.984	2063
674.035	1664
674.085	2466
674.136	2230
674.186	1788
674.237	1738
674.287	1868
674.338	2072
674.388	1839
674.438	2084
674.489	2484
674.539	3346
674.589	3323
674.640	1921
674.690	2436
674.740	3025
674.791	2465
674.841	2183
674.891	1770
674.942	1606
674.992	1357
675.042	1920
675.092	1540
675.142	1650
675.193	1123
675.243	1441
675.293	2399
675.343	1382
675.393	2103
675.443	1934
675.493	1224
675.543	1218
675.593	1293
675.643	1431
675.693	1890
675.743	1427
675.793	1709
675.843	918
675.893	1693
675.943	1573
675.993	1506
676.043	725
676.093	1549
676.142	950
676.192	1029
676.242	1587
676.292	1236
676.341	921
676.391	916
676.441	1563
676.491	1031
676.540	1005
676.590	1347
676.640	1481
676.689	1136
676.739	493
676.789	1811
676.838	992
676.888	913
676.937	772
676.987	665
677.037	848
677.086	1363
677.136	1470
677.185	1331
677.235	370
677.284	547
677.333	536
677.383	1337
677.432	54
677.482	1226
677.531	1513
677.580	573
677.630	831
677.679	513
677.728	1554
677.778	1410
677.827	782
677.876	1601
677.925	630
677.975	1033
678.024	2057
678.073	2106
678.122	929
678.171	1348
678.220	1943
678.269	2662
678.319	2681
678.368	3600
678.417	2129
678.466	1898
678.515	1393
678.564	995
678.613	784
678.662	106
678.711	1385
678.760	721
678.809	831
678.857	1450
678.906	1269
678.955	820
679.004	696
679.053	524
679.102	984
679.151	1101
679.199	554
679.248	610
679.297	1437
679.346	468
679.394	181
679.443	512
679.492	367
679.540	638
679.589	-13
679.638	539
679.686	1268
679.735	1730
679.784	2138
679.832	3292
679.881	793
679.929	1696
679.978	986
680.026	446
680.075	946
680.123	470
680.172	392
680.220	1744
680.268	828
680.317	209
680.365	622
680.414	629
680.462	431
680.510	818
680.559	393
680.607	482
680.655	711
680.703	729
680.752	568
680.800	936
680.848	965
680.896	517
680.945	-309
680.993	-137
681.041	364
681.089	220
681.137	100
681.185	-427
681.233	536
681.258	627
681.281	699
681.329	782
681.377	1044
681.380	1024
681.425	394
681.473	1017
681.502	949
681.521	876
681.569	862
681.617	243
681.624	356
681.665	958
681.713	1351
681.745	1350
681.761	1325
681.809	1696
681.857	1492
681.867	1463
681.904	1296
681.952	1282
681.989	839
682.000	690
682.048	1202
682.096	823
682.111	933
682.143	1108
682.191	152
682.233	1492
682.239	1680
682.286	866
682.334	1114
682.354	1117
682.382	1077
682.430	1496
682.476	902
682.477	876
682.525	1092
682.572	1721
682.598	1460
682.620	1214
682.667	736
682.715	1571
682.720	1578
682.763	1520
682.810	1278
682.841	1477
682.857	1557
682.905	1740
682.952	1317
682.963	1162
683.000	541
683.047	1638
683.085	2116
683.095	2240
683.142	2122
683.190	2473
683.206	2187
683.237	1566
683.284	2126
683.328	1068
683.332	977
683.379	1460
683.426	1127
683.449	1435
683.473	1731
683.521	1709
683.568	1558
683.571	1626
683.615	2326
683.662	1904
683.693	1691
683.709	1515
683.757	1479
683.804	1323
683.814	1506
683.851	2214
683.898	1610
683.936	1791
683.945	1819
683.992	1493
684.039	1516
684.057	1434
684.086	1294
684.133	2164
684.179	1025
684.180	978
684.227	2151
684.274	1701
684.300	1940
684.321	2134
684.368	1122
684.415	2225
684.422	2205
684.462	1944
684.509	1728
684.543	2007
684.556	2131
684.603	2424
684.649	2327
684.665	2367
684.696	2436
684.743	1992
684.786	2056
684.790	2042
684.837	2288
684.883	2455
684.908	2421
684.930	2422
684.977	2750
685.023	2659
685.029	2700
685.070	2859
685.117	2567
685.150	2529
685.164	2535
685.210	2897
685.257	2778
685.272	2793
685.303	2751
685.350	2801
685.393	2342
685.396	2299
685.443	2478
685.490	2386
685.514	2530
685.536	2664
685.583	2732
685.629	2757
685.636	2727
685.675	2545
685.722	2818
685.757	2771
685.768	2738
685.815	3096
685.861	3271
685.878	3147
685.908	2956
685.954	2543
686.000	2845
686.000	2847
686.047	3032
686.093	3152
686.121	3008
686.139	2901
686.185	2822
686.232	3221
686.242	3209
686.278	3069
686.324	3112
686.363	3200
686.370	3223
686.416	3322
686.463	3356
686.484	3412
686.509	3434
686.555	3208
686.601	2738
686.606	2793
686.647	3288
686.693	3275
686.727	3345
686.739	3378
686.785	2979
686.831	3066
686.848	3228
686.877	3532
686.923	3284
686.969	3057
686.969	3057
687.015	3761
687.061	4107
687.090	4393
687.107	4411
687.153	4319
687.199	3789
687.211	3637
687.245	3327
687.291	3776
687.332	3404
687.336	3367
687.382	3889
687.428	3468
687.453	3701
687.474	3922
687.520	4184
687.565	3943
687.574	3915
687.611	3924
687.657	4432
687.695	4767
687.702	4796
687.748	4884
687.794	4489
687.816	4593
687.839	4667
687.885	4169
687.931	4099
687.937	4088
687.976	4188
688.022	4447
688.058	4121
688.067	3995
688.113	4227
688.158	4049
688.179	3987
688.204	4081
688.249	4691
688.295	4256
688.300	4291
688.340	4348
688.386	4630
688.421	4003
688.431	3900
688.477	4463
688.522	4539
688.542	4816
688.567	5207
688.613	5203
688.658	5337
688.663	5347
688.703	5082
688.749	4895
688.784	4927
688.794	4956
688.839	4943
688.884	5379
688.905	5038
688.930	4734
688.975	4850
689.020	4962
689.026	4950
689.065	4765
689.110	4708
689.146	4384
689.155	4345
689.201	4548
689.246	4834
689.267	4859
689.291	4840
689.336	4660
689.381	4958
689.388	4872
689.426	4616
689.471	4937
689.509	4815
689.516	4767
689.561	5200
689.606	4855
689.630	4698
689.651	4594
689.696	4766
689.741	4927
689.750	4907
689.785	5114
689.830	5722
689.871	5739
689.875	5693
689.920	5533
689.965	5387
689.992	5170
690.010	5194
690.054	4346
690.099	5131
690.112	5064
690.144	4833
690.189	4955
690.233	4667
690.233	4674
690.278	4848
690.323	5382
690.354	5299
690.367	5294
690.412	5562
690.457	5318
690.474	5619
690.501	5704
690.546	5010
690.590	4482
690.595	4445
690.635	4831
690.680	4833
690.716	5078
690.724	5104
690.769	5295
690.813	5379
690.836	5135
690.857	5055
690.902	5471
690.946	5709
690.957	5766
690.991	5793
691.035	5707
691.077	5926
691.080	5942
691.124	5677
691.168	5927
691.198	5358
691.213	5074
691.257	5800
691.301	5234
691.318	5149
691.346	5261
691.390	5620
691.434	5808
691.439	5758
691.478	5072
691.522	5244
691.559	4988
691.567	5069
691.611	5711
691.655	5832
691.680	6041
691.699	5984
691.743	6360
691.787	6376
691.800	6187
691.831	5861
691.875	6190
691.919	6167
691.921	6156
691.964	6027
692.008	5614
692.041	5556
692.052	5649
692.096	5701
692.139	6368
692.162	6420
692.183	6196
692.227	5766
692.271	5328
692.282	5298
692.315	5645
692.359	5624
692.402	5745
692.403	5758
692.447	5827
692.490	5863
692.523	5628
692.534	5580
692.578	5753
692.622	5801
692.643	5742
692.666	5665
692.709	5790
692.753	5643
692.763	5602
692.797	5741
692.840	6088
692.884	6472
692.884	6486
692.928	6303
692.971	6056
693.004	5640
693.015	5599
693.059	5984
693.102	6221
693.124	6133
693.146	6022
693.189	6048
693.233	6228
693.245	6186
693.276	6221
693.320	6147
693.363	5968
693.365	5965
693.407	6305
693.450	6493
693.485	6569
693.493	6579
693.537	6484
693.580	6284
693.605	6099
693.624	6033
693.667	6215
693.710	6471
693.725	6296
693.753	6023
693.797	6498
693.840	6433
693.845	6434
693.883	6430
693.926	6290
693.966	6106
693.970	6136
694.013	6458
694.056	6635
694.086	6782
694.099	6768
694.142	6596
694.185	6477
694.206	6368
694.229	6412
694.272	6482
694.315	6699
694.326	6707
694.358	6704
694.401	6532
694.444	6526
694.446	6519
694.487	6825
694.530	6984
694.566	7113
694.573	7151
694.616	6898
694.659	6898
694.686	6907
694.702	6872
694.745	6946
694.787	6664
694.806	6545
694.830	6597
694.873	6684
694.916	6866
694.926	6884
694.959	7149
695.002	7635
695.044	7807
695.046	7809
695.087	8038
695.130	7845
695.166	7755
695.172	7794
695.215	7959
695.258	8299
695.286	8346
695.301	8430
695.343	8572
695.386	8949
695.406	8969
695.428	9030
695.471	9432
695.514	9706
695.526	9755
695.556	10587
695.599	11998
695.641	12932
695.646	13031
695.684	12242
695.726	11302
695.766	10337
695.769	10338
695.811	10031
695.854	9601
695.886	9432
695.896	9641
695.938	10241
695.981	10814
696.005	11057
696.023	11241
696.065	12028
696.108	12621
696.125	12746
696.150	12879
696.192	13371
696.235	13616
696.245	13658
696.277	13654
696.319	13779
696.361	13639
696.365	13595
696.404	13267
696.446	13079
696.485	12785
696.488	12825
696.530	12800
696.572	12945
696.604	12938
696.614	12940
696.656	12888
696.698	12830
696.724	12682
696.740	12750
696.783	12910
696.825	13234
696.844	13271
696.867	13427
696.909	13683
696.951	13815
696.964	13951
696.992	14178
697.034	14077
697.076	14063
697.083	14021
697.118	14447
697.160	15005
697.202	15428
697.203	15403
697.244	14958
697.286	14468
697.323	13905
697.327	13991
697.369	14465
697.411	14958
697.442	15422
697.453	15414
697.494	14963
697.536	14680
697.562	14418
697.578	14457
697.620	14470
697.661	14478
697.682	14477
697.703	14794
697.744	15281
697.786	15846
697.801	15944
697.828	15849
697.869	15750
697.911	15682
697.921	15630
697.952	15479
697.994	15143
698.035	14893
698.040	14809
698.077	15165
698.118	15659
698.160	16086
698.160	16046
698.201	16642
698.243	17162
698.279	17624
698.284	17671
698.325	17681
698.367	17665
698.399	17600
698.408	17716
698.449	18058
698.491	18426
698.518	18585
698.532	18660
698.573	18763
698.614	18883
698.638	18889
698.656	18957
698.697	19021
698.738	19081
698.757	19050
698.779	18969
698.820	18741
698.862	18512
698.877	18374
698.903	18621
698.944	18953
698.985	19281
698.996	19326
699.026	18874
699.067	18177
699.116	17305
699.235	18368
699.354	18545
699.474	17135
699.593	16963
699.713	17093
699.832	18165
699.951	18440
700.070	17741
700.190	16307
700.309	14667
700.428	15442
700.547	15283
700.667	15338
700.786	15649
700.905	14653
701.024	16150
701.143	14219
701.262	16172
701.381	14983
701.500	15818
701.619	15525
701.738	16184
701.857	15218
701.976	14714
702.095	15386
702.214	16313
702.333	14616
702.452	15992
702.571	15737
702.690	15386
702.809	15820
702.928	13807
703.047	13267
703.165	14252
703.284	14129
703.403	14429
703.522	13732
703.640	13344
703.759	12152
703.878	13899
703.997	13403
704.115	13833
704.234	13495
704.353	14351
704.471	12572
704.590	12193
704.708	11644
704.827	12179
704.946	11462
705.064	12182
705.183	11316
705.301	12746
705.420	12256
705.538	11096
705.656	10949
705.775	10158
705.893	10722
706.012	11086
706.130	11584
706.249	12361
706.367	10303
706.485	10433
706.604	9925
706.722	10547
706.840	10834
706.958	12612
707.077	10741
707.195	10092
707.313	10171
707.431	9707
707.549	9887
707.668	9200
707.786	10391
707.904	9608
708.022	10274
708.140	9608
708.258	9429
708.376	10946
708.494	9778
708.612	10471
708.730	10698
708.848	10999
708.966	9907
709.084	10149
709.202	9468
709.320	9330
709.438	9177
709.556	8439
709.674	8272
709.791	8772
709.909	8049
710.027	8608
710.145	8153
710.263	8827
710.380	9100
710.498	8769
710.616	7932
710.733	7619
710.851	8111
710.969	8324
711.086	7410
711.204	8834
711.322	8056
711.439	7581
711.557	7424
711.674	7453
711.792	7393
711.909	7043
712.027	6954
712.144	7401
712.262	7510
712.379	7693
712.497	6454
712.614	7214
712.732	7225
712.849	7644
712.966	7260
713.084	7934
713.201	6205
713.318	7395
713.436	8230
713.553	8172
713.670	9493
713.787	8373
713.905	8390
714.022	8953
714.139	9606
714.256	14745
714.373	23328
714.490	50227
714.608	160605
714.725	675928
714.842	524077
714.959	40957
715.076	16655
715.193	13542
715.310	10754
715.427	8894
715.544	8656
715.661	8535
715.778	7143
715.895	8375
716.011	7044
716.128	7193
716.245	6786
716.362	7303
716.479	5300
716.596	6538
716.713	6127
716.829	5787
716.946	5489
717.063	5949
717.180	4238
717.296	5894
717.413	5562
717.530	5666
717.646	5069
717.763	5893
717.880	5345
717.996	4675
718.113	4696
718.229	5359
718.346	4405
718.462	4309
718.579	5159
718.695	6296
718.812	5591
718.928	5513
719.045	4803
719.161	5276
719.277	5892
719.394	5085
719.510	5761
719.626	7520
719.743	11401
719.859	21323
719.975	53515
720.092	245558
720.208	455985
720.324	39731
720.440	9745
720.557	7590
720.673	7299
720.789	5538
720.905	5188
721.021	4915
721.137	4418
721.253	5143
721.369	5060
721.486	5124
721.602	4811
721.718	4049
721.834	4057
721.950	3736
722.066	3693
722.181	3916
722.297	3764
722.413	4170
722.529	4217
722.645	4805
722.761	3792
722.877	4404
722.993	6069
723.108	8457
723.224	5844
723.340	3883
723.456	4288
723.571	4368
723.687	2824
723.803	4297
723.918	3603
724.034	4136
724.150	3194
724.265	3219
724.381	2799
724.497	3295
724.612	3350
724.728	3677
724.843	3754
724.959	4051
725.074	3361
725.190	3065
725.305	3174
725.421	4097
725.536	2922
725.651	4121
725.767	3724
725.882	3696
725.997	2189
726.113	3284
726.228	3613
726.343	3475
726.459	3089
726.574	3598
726.689	2687
726.804	4084
726.920	3367
727.035	4015
727.150	3237
727.265	2974
727.380	3327
727.495	4133
727.610	2886
727.725	3189
727.841	2365
727.956	3918
728.071	3711
728.186	3119
728.301	2437
728.416	3106
728.531	2340
728.645	2758
728.760	2831
728.875	2350
728.990	3605
729.105	3317
729.220	3006
729.335	3801
729.449	3215
729.564	3408
729.679	2789
729.794	3819
729.908	2890
730.023	3884
730.138	3468
730.253	3374
730.367	2568
730.482	3110
730.596	3260
730.711	4450
730.826	5543
730.940	6081
731.055	4425
731.169	4547
731.284	4031
731.398	5176
731.513	4545
731.627	6594
731.742	8422
731.856	10190
731.970	10108
732.085	14676
732.199	21784
732.313	43556
732.428	132258
732.542	402309
732.656	183133
732.771	29288
732.885	16360
732.999	14972
733.113	15160
733.227	14784
733.342	13893
733.456	12631
733.570	11509
733.684	11346
733.798	11298
733.912	11105
734.026	11154
734.140	11205
734.254	10540
734.368	10843
734.482	10028
734.596	10550
734.710	9920
734.824	10150
734.938	8978
735.052	11045
735.166	9671
735.280	10024
735.393	9559
735.507	9483
735.621	8954
735.735	8144
735.849	8925
735.962	9089
736.076	9309
736.190	8411
736.303	8803
736.417	9124
736.531	8042
736.644	8631
736.758	8443
736.872	8593
736.985	8313
737.099	8138
737.212	8779
737.326	8436
737.439	8780
737.553	6667
737.666	8049
737.780	7358
737.893	7362
738.007	7598
738.120	7628
738.233	6709
738.347	7726
738.460	7661
738.573	7341
738.687	7902
738.800	7232
738.913	8187
739.026	6817
739.140	7592
739.253	7017
739.366	7411
739.479	7240
739.592	6519
739.705	6354
739.818	8207
739.932	5450
740.045	7322
740.158	6485
740.271	7458
740.384	6501
740.497	6265
740.610	7052
740.723	5993
740.836	5624
740.949	6469
741.062	6804
741.174	7092
741.287	5951
741.400	6662
741.513	5037
741.626	5650
741.739	5874
741.851	6730
741.964	6704
742.077	5972
742.189	5651
742.302	7083
742.415	6415
742.527	6116
742.640	5436
742.753	5372
742.865	5739
742.978	5668
743.090	5188
743.203	5834
743.316	4793
743.428	5785
743.541	5787
743.653	4778
743.766	5334
743.878	5522
743.990	4737
744.103	6491
744.215	6328
744.327	5129
744.440	6256
744.552	5058
744.664	4145
744.777	5995
744.889	4929
745.001	5513
745.113	5295
745.226	5073
745.338	4791
745.450	5792
745.562	5088
745.674	5255
745.786	6235
745.898	4913
746.010	4475
746.122	5409
746.234	5279
746.347	5447
746.459	5877
746.570	4245
746.682	6196
746.794	7992
746.906	4543
747.018	4532
747.130	5084
747.242	3455
747.354	4209
747.466	5002
747.577	4682
747.689	5596
747.801	4862
747.913	3267
748.024	4301
748.136	3638
748.248	3331
748.359	3861
748.471	3632
748.583	3828
748.694	3128
748.806	5016
748.918	3496
749.029	4160
749.141	4407
749.252	3917
749.364	3482
749.475	3372
749.587	2718
749.698	3838
749.809	3843
749.921	4328
750.032	2999
750.144	3505
750.255	3582
750.366	3337
750.478	3755
750.589	3442
750.700	3362
750.811	4202
750.923	2500
751.034	3539
751.145	3611
751.256	2946
751.367	2810
751.479	3782
751.590	2609
751.701	2917
751.812	2480
751.923	2679
752.034	3497
752.145	4328
752.256	2817
752.367	3176
752.478	2685
752.589	3694
752.700	2872
752.811	2560
752.922	3244
753.032	3966
753.143	3651
753.254	2539
753.365	4098
753.476	3353
753.586	2629
753.697	3642
753.808	2601
753.919	2617
754.029	2357
754.140	3535
754.251	3174
754.361	2342
754.472	3510
754.582	2842
754.693	2464
754.804	3827
754.914	3041
755.025	2237
755.135	3590
755.246	3723
755.356	2250
755.466	2716
755.577	2261
755.687	2809
755.798	2594
755.908	2588
756.018	2438
756.129	3200
756.239	2024
756.349	3158
756.460	2749
756.570	4246
756.680	2621
756.790	3153
756.900	3543
757.011	2030
757.121	2494
757.231	1911
757.341	2701
757.451	1241
757.561	2737
757.671	3224
757.781	1863
757.891	3100
758.001	2134
758.111	2727
758.221	4038
758.331	3283
758.441	3487
758.551	3648
758.661	2892
758.771	3570
758.880	2803
758.990	2878
759.100	2909
759.210	3766
759.320	3805
759.429	3779
759.539	4369
759.649	3990
759.758	5187
759.868	5211
759.978	4964
760.087	5715
760.197	6050
760.307	5759
760.416	4888
760.526	4116
760.635	4706
760.745	5671
760.854	6526
760.964	8120
761.073	7647
761.182	6901
761.292	4599
761.401	3944
761.511	3229
761.620	3095
761.729	2509
761.839	1600
761.948	2363
762.057	2269
762.166	1912
762.276	2116
762.385	2996
762.494	2520
762.603	2431
762.712	3027
762.822	1317
762.931	1368
763.040	763
763.149	1155
763.258	2300
763.367	2370
763.476	2044
763.585	2123
763.694	1603
763.803	2607
763.912	1948
764.021	1670
764.130	1105
764.238	2337
764.347	2774
764.456	2844
764.565	1932
764.674	2317
764.783	1547
764.891	2396
765.000	2749
765.109	1945
765.217	1839
765.326	2237
765.435	2442
765.543	4004
765.652	3418
765.761	3035
765.869	3495
765.978	4733
766.086	8037
766.195	14759
766.303	43749
766.412	161321
766.520	113306
766.629	13623
766.737	5112
766.846	3781
766.954	2609
767.062	3321
767.171	2503
767.279	2420
767.387	1390
767.496	2540
767.604	1415
767.712	1996
767.820	1375
767.928	1655
768.037	1023
768.145	2249
768.253	1573
768.361	1285
768.469	2018
768.577	1012
768.685	2466
768.793	2228
768.901	1377
769.009	2504
769.117	1159
769.225	2821
769.333	2840
769.441	5189
769.549	6584
769.657	15009
769.765	59153
769.873	137611
769.981	25389
770.088	4960
770.196	3919
770.304	3804
770.412	3575
770.519	3228
770.627	3304
770.735	2940
770.842	3457
770.950	3923
771.058	2673
771.165	5398
771.273	4027
771.380	4448
771.488	7395
771.595	7254
771.703	6028
771.810	7022
771.918	6335
772.025	8039
772.133	9512
772.240	9199
772.348	10358
772.455	9135
772.562	7828
772.670	8377
772.777	7925
772.884	7963
772.991	7156
773.099	8873
773.206	7393
773.313	7769
773.420	7461
773.528	7493
773.635	6822
773.742	8969
773.849	7591
773.956	7541
774.063	7472
774.170	6739
774.277	7381
774.384	6943
774.491	6474
774.598	7014
774.705	6245
774.812	6951
774.919	6469
775.026	6433
775.133	7360
775.239	7217
775.346	5851
775.453	6958
775.560	6298
775.667	6973
775.773	5370
775.880	7452
775.987	5943
776.093	7110
776.200	6426
776.307	4873
776.413	6037
776.520	7556
776.627	5934
776.733	5429
776.840	3813
776.946	9703
777.053	7216
777.159	10805
777.266	6661
777.372	9792
777.478	9769
777.585	7904
777.691	4856
777.798	6580
777.904	5201
778.010	5544
778.117	5676
778.223	5932
778.329	5518
778.435	5228
778.542	5606
778.648	4904
778.754	4781
778.860	5498
778.966	5175
779.072	5290
779.178	5161
779.284	4051
779.391	5091
779.497	4114
779.603	6662
779.708	4082
779.815	4932
779.920	6273
780.026	4602
780.132	4773
780.238	4345
780.344	4014
780.450	5876
780.556	3901
780.661	4584
780.767	4766
780.873	3346
780.979	4410
781.085	4153
781.190	4266
781.296	2375
781.402	4521
781.507	4095
781.613	3890
781.719	4407
781.824	4345
781.930	3805
782.035	4331
782.141	4650
782.246	2961
782.352	2946
782.457	3467
782.563	3604
782.668	4920
782.773	3349
782.879	2716
782.984	3782
783.090	4006
783.195	3799
783.300	3866
783.405	3343
783.511	3664
783.616	3701
783.721	3798
783.826	3185
783.932	3103
784.037	3412
784.142	3418
784.247	3361
784.352	3512
784.457	1863
784.562	3842
784.667	3219
784.772	2367
784.877	1447
784.982	4452
785.087	2566
785.192	2912
785.297	2544
785.402	3685
785.507	3725
785.611	2688
785.716	2273
785.821	3005
785.926	2933
786.031	2699
786.135	2291
786.240	3882
786.345	832
786.450	3013
786.554	2180
786.659	1898
786.763	1727
786.868	3065
786.973	2949
787.077	3046
787.182	1965
787.286	2501
787.391	3357
787.495	1073
787.600	1004
787.704	2033
787.809	3323
787.913	2330
788.017	1784
788.122	3138
788.226	1917
788.330	1322
788.435	2190
788.539	3437
788.643	1507
788.747	1748
788.852	2316
788.956	2406
789.060	2410
789.164	2437
789.268	1567
789.372	3347
789.476	1372
789.580	2240
789.684	1815
789.788	3210
789.892	2949
789.996	2306
790.100	1144
790.204	2272
790.308	2283
790.412	1635
790.516	2141
790.620	1942
790.724	2920
790.828	1924
790.931	193
791.035	2904
791.139	1795
791.242	1125
791.346	1962
791.450	1727
791.554	923
791.657	1215
791.761	1917
791.864	2753
791.968	2226
792.072	2528
792.175	2041
792.279	1589
792.382	1628
792.486	1409
792.589	1543
792.693	2759
792.796	593
792.899	2449
793.003	2557
793.106	437
793.209	1035
793.313	2974
793.416	-169
793.519	2044
793.623	2920
793.726	2336
793.829	568
793.932	1653
794.035	242
794.138	2782
794.242	3151
794.345	191
794.448	678
794.551	459
794.654	3338
794.757	2844
794.860	1456
794.963	1455
795.066	548
795.169	2280
795.272	1048
795.375	2292
795.477	-264
795.580	1717
795.683	354
795.786	2257
795.889	-180
795.991	2399
796.094	2078
796.197	-601
796.300	3072
796.402	1796
796.505	116
796.608	193
796.710	2114
796.813	1946
796.915	1497
797.018	2724
797.120	2531
797.223	627
797.326	2904
797.428	666
797.530	1173
797.633	1344
797.735	1682
797.838	1859
797.940	2048
798.042	1495
798.145	595
798.247	1477
798.349	585
798.452	2041
798.554	989
798.656	1590
798.758	3199
798.860	1227
798.962	392
799.065	66
799.167	20
799.269	2036
799.371	2531
799.473	3386
799.575	1442
799.677	613
799.779	1562
799.881	-102
799.983	1944
800.085	436
800.187	120
800.289	-261
800.390	204
800.492	2421
800.594	2314
800.696	1122
800.798	1704
800.899	1367
801.001	98
801.103	1852
801.205	1450
801.306	823
801.408	213
801.509	1426
801.611	479
801.713	1478
801.814	-224
801.916	1152
802.017	202
802.119	-368
802.220	1803
802.322	148
802.423	2742
802.525	-617
802.626	1018
802.727	975
802.829	1155
802.930	-856
803.031	1781
803.133	1125
803.234	594
803.335	1560
803.436	-441
803.538	1599
803.639	233
803.740	980
803.841	266
803.942	2375
804.043	1210
804.144	329
804.245	602
804.346	398
804.447	1039
804.548	1042
804.649	1908
804.750	470
804.851	278
804.952	447
805.053	1334
805.154	-320
805.255	1078
805.355	1382
805.456	0
805.557	255
805.658	-420
805.758	1675
805.859	-279
805.960	981
806.061	-91
806.161	126
806.262	272
806.362	-33
806.463	521
806.564	1502
806.664	898
806.765	180
806.865	350
806.966	-53
807.066	438
807.166	1503
807.267	508
807.367	452
807.468	823
807.568	-684
807.668	414
807.769	2095
807.869	70
807.969	379
808.069	1182
808.170	397
808.270	562
808.370	953
808.470	487
808.570	-854
808.670	327
808.770	594
808.870	-127
808.970	1535
809.070	614
809.170	-207
809.271	1744
809.370	909
809.470	223
809.570	-894
809.670	-1110
809.770	428
809.870	1052
809.970	84
810.070	358
810.169	881
810.269	-1011
810.369	1447
810.469	319
810.568	405
810.668	-454
810.768	76
810.867	-238
810.967	813
811.066	1027
811.166	-60
811.265	878
811.365	104
811.464	-177
811.564	869
811.663	414
811.763	-394
811.862	825
811.962	2025
812.061	350
812.160	238
812.260	304
812.359	159
812.458	-281
812.557	1679
812.657	-834
812.756	378
812.855	237
812.954	627
813.053	599
813.153	1499
813.252	-375
813.351	1196
813.450	163
813.549	679
813.648	301
813.747	535
813.846	386
813.945	253
814.044	594
814.143	1067
814.242	1478
814.341	1267
814.439	1601
814.538	1199
814.637	401
814.736	797
814.835	1235
814.933	1301
815.032	1682
815.131	2373
815.229	5897
815.328	8130
815.427	4632
815.525	5257
815.624	3788
815.722	4820
815.821	4333
815.919	5594
816.018	3659
816.116	5504
816.215	4475
816.313	5571
816.412	7387
816.510	7715
816.609	7790
816.707	8839
816.805	6896
816.904	6916
817.002	7170
817.100	7960
817.198	8221
817.296	6246
817.395	6866
817.493	7500
817.591	5415
817.689	6336
817.787	5738
817.885	5794
817.983	5594
818.081	6834
818.179	7129
818.277	10523
818.375	8307
818.473	7086
818.571	5435
818.669	6926
818.767	6371
818.865	5006
818.963	5099
819.061	6180
819.158	5981
819.256	8674
819.354	7379
819.452	14536
819.549	6990
819.647	6841
819.745	4469
819.842	5776
819.940	5160
820.038	5083
820.135	4776
820.233	6902
820.330	4921
820.428	4201
820.525	6015
820.623	4883
820.720	3614
820.818	4547
820.915	5627
821.012	4629
821.110	4267
821.207	5929
821.304	3921
821.402	5503
821.499	5683
821.596	5861
821.693	5272
821.791	5736
821.888	4997
821.985	6254
822.082	3671
822.179	5288
822.276	4460
822.373	3834
822.470	4318
822.567	5699
822.664	3597
822.761	4996
822.858	4299
822.955	3800
823.052	3672
823.149	4051
823.246	5184
823.343	4054
823.440	3724
823.536	4380
823.633	4360
823.730	3514
823.827	3897
823.923	4973
824.020	4072
824.117	5612
824.213	4265
824.310	3821
824.407	2402
824.503	4593
824.600	3000
824.696	3097
824.793	5081
824.889	4652
824.986	3720
825.082	3033
825.179	3268
825.275	4896
825.371	5392
825.468	3430
825.564	989
825.660	5028
825.757	5672
825.853	3986
825.949	2595
826.045	3005
826.142	3040
826.238	4215
826.334	3742
826.430	2997
826.526	2596
826.622	3038
826.718	3601
826.814	4955
826.910	3744
827.006	2058
827.102	1113
827.198	4350
827.294	3120
827.390	4340
827.486	2117
827.582	1550
827.678	1577
827.774	5342
827.869	1868
827.965	3775
828.061	1501
828.157	4013
828.252	4002
828.348	2898
828.444	2401
828.539	2353
828.635	2793
828.731	3628
828.826	2142
828.922	3225
829.017	3332
829.113	3907
829.208	2408
829.304	3056
829.399	5702
829.495	3821
829.590	3051
829.685	1838
829.781	4109
829.876	3837
829.971	1584
830.066	1342
830.162	3051
830.257	4205
830.352	1959
830.447	2787
830.543	1054
830.638	1763
830.733	4275
830.828	2727
830.923	3243
831.018	3602
831.113	2938
831.208	1303
831.303	1315
831.398	2530
831.493	2709
831.588	5227
831.683	1731
831.778	2392
831.873	2674
831.967	3698
832.062	2618
832.157	1945
832.252	1780
832.346	1155
832.441	2631
832.536	2256
832.631	1687
832.725	1814
832.820	1426
832.914	2327
833.009	1418
833.104	833
833.198	1041
833.293	1918
833.387	2725
833.482	3030
833.576	1634
833.670	2284
833.765	2665
833.859	2631
833.954	2421
834.048	1669
834.142	1668
834.237	1549
834.331	1812
834.425	1927
834.519	1650
834.613	2432
834.708	1174
834.802	1421
834.896	1330
834.990	1920
835.084	1756
835.178	1699
835.272	1122
835.366	2464
835.460	2700
835.554	1649
835.648	1646
835.742	663
835.836	945
835.930	819
836.024	2137
836.117	2112
836.211	923
836.305	1264
836.399	1253
836.493	1251
836.586	2083
836.680	1880
836.774	889
836.867	1653
836.961	642
837.055	1236
837.148	1295
837.242	1593
837.335	1670
837.429	2196
837.522	1195
837.616	637
837.709	1378
837.803	1139
837.896	1542
837.989	671
838.083	830
838.176	993
838.269	68
838.363	1627
838.456	861
838.549	1988
838.642	679
838.735	1237
838.829	1600
838.922	342
839.015	1372
839.108	-33
839.201	1272
839.294	2081
839.387	1290
839.480	411
839.573	1176
839.666	1083
839.759	780
839.852	482
839.945	2133
840.038	1035
840.131	675
840.223	863
840.316	1115
840.409	1969
840.502	1158
840.594	2798
840.687	-1060
840.780	508
840.873	30
840.965	787
841.058	1621
841.150	2127
841.243	-20
841.336	895
841.428	367
841.521	841
841.613	957
841.706	1641
841.798	625
841.890	1592
841.983	404
842.075	901
842.167	381
842.260	960
842.352	2134
842.444	744
842.537	255
842.629	831
842.721	-75
842.813	1302
842.905	-86
842.997	1627
843.090	717
843.182	1431
843.274	-397
843.366	664
843.458	1344
843.550	2487
843.642	-124
843.734	796
843.826	116
843.918	791
844.009	1247
844.101	1012
844.193	457
844.285	1076
844.377	1037
844.469	1187
844.560	-379
844.652	1149
844.744	477
844.835	789
844.927	1543
845.019	294
845.110	509
845.202	1053
845.293	522
845.385	211
845.476	451
845.568	1272
845.659	316
845.751	260
845.842	693
845.934	787
846.025	537
846.116	1130
846.208	-14
846.299	-7
846.390	561
846.482	442
846.573	1717
846.664	970
846.755	386
846.846	910
846.937	-950
847.029	889
847.120	274
847.211	664
847.302	1354
847.393	310
847.484	328
847.575	-164
847.666	-553
847.757	-195
847.847	751
847.938	1435
848.029	851
848.120	915
848.211	783
848.302	514
848.392	-163
848.483	1888
848.574	-222
848.664	979
848.755	-454
848.846	797
848.936	792
849.027	1329
849.118	1066
849.208	1814
849.299	3623
849.389	8270
849.480	16518
849.570	32400
849.661	65077
849.751	98175
849.841	28179
849.932	3906
850.022	1722
850.112	2332
850.203	1190
850.293	595
850.383	500
850.474	765
850.564	178
850.654	944
850.744	-54
850.834	363
850.924	1317
851.014	1539
851.104	619
851.194	206
851.284	376
851.374	982
851.464	-60
851.554	1309
851.644	935
851.734	1443
851.824	507
851.914	531
852.004	1323
852.094	-109
852.183	254
852.273	711
852.363	1078
852.452	1449
852.542	1141
852.632	838
852.721	437
852.811	789
852.901	1927
852.990	1015
853.080	1526
853.169	1813
853.259	1259
853.348	2905
853.438	3280
853.527	5965
853.617	8441
853.706	17409
853.795	31290
853.885	65888
853.974	117520
854.063	214446
854.152	268479
854.242	106164
854.331	26475
854.420	11151
854.509	7188
854.598	6580
854.687	4310
854.777	4176
854.866	2863
854.955	2178
855.044	325
855.133	1742
855.222	1222
855.311	1571
855.400	2179
855.488	1256
855.577	276
855.666	1201
855.755	323
855.844	645
855.933	159
856.021	1366
856.110	633
856.199	-170
856.288	691
856.376	604
856.465	-184
856.554	1027
856.642	569
856.731	1546
856.819	1057
856.908	728
856.996	-49
857.085	683
857.173	212
857.262	964
857.350	709
857.438	4
857.527	713
857.615	250
857.703	949
857.792	241
857.880	814
857.968	887
858.056	208
858.145	783
858.233	349
858.321	387
858.409	468
858.497	540
858.585	-905
858.673	712
858.761	474
858.849	283
858.937	-657
859.025	466
859.113	266
859.201	-371
859.289	1290
859.377	-70
859.465	521
859.552	991
859.640	-477
859.728	1032
859.816	586
859.903	1440
859.991	-639
860.079	1485
860.166	192
860.254	449
860.342	1503
860.429	357
860.517	376
860.604	1504
860.692	644
860.779	210
860.867	779
860.954	1508
861.042	899
861.129	1194
861.216	496
861.304	1354
861.391	388
861.478	749
861.565	639
861.653	803
861.740	-157
861.827	361
861.914	405
862.001	611
862.089	764
862.176	1310
862.263	-50
862.350	1035
862.437	-5
862.524	943
862.611	179
862.698	1478
862.785	1303
862.871	2046
862.958	217
863.045	1161
863.132	534
863.219	1655
863.306	-520
863.392	1277
863.479	495
863.566	1121
863.652	1366
863.739	954
863.826	592
863.912	1480
863.999	315
864.086	1683
864.172	2647
864.259	1743
864.345	563
864.432	2091
864.518	1276
864.604	1755
864.691	996
864.777	2961
864.863	2441
864.950	4876
865.036	6202
865.122	12332
865.209	11627
865.295	10497
865.381	10416
865.467	10757
865.553	12313
865.639	16155
865.726	23943
865.812	41708
865.898	70445
865.984	103017
866.070	180855
866.156	165528
866.242	50564
866.328	19004
866.414	11791
866.499	11012
866.585	9489
866.671	8833
866.757	8466
866.843	8508
866.928	8035
867.014	8083
867.100	7561
867.186	7753
867.271	7220
867.357	7796
867.442	6872
867.528	7737
867.614	7482
867.699	7153
867.785	7622
867.870	7768
867.956	7699
868.041	8113
868.127	6029
868.212	6493
868.297	7137
868.383	7480
868.468	6603
868.553	7838
868.639	6046
868.724	6195
868.809	5994
868.894	6043
868.979	6263
869.065	6248
869.150	4937
869.235	5557
869.320	5569
869.405	5355
869.490	6250
869.575	5459
869.660	5093
869.745	7350
869.830	6914
869.915	6051
870.000	5921
870.085	5002
870.169	7066
870.254	7217
870.339	3868
870.424	5163
870.509	6158
870.593	7220
870.678	6140
870.763	5449
870.847	4658
870.932	6940
871.016	4808
871.101	4258
871.186	6159
871.270	7002
871.355	3681
871.439	5400
871.523	5604
871.608	3854
871.692	4275
871.777	6690
871.861	5723
871.945	4948
872.030	5291
872.114	5164
872.198	3942
872.282	5341
872.367	4519
872.451	4964
872.535	4315
872.619	4875
872.703	4286
872.787	6012
872.871	4917
872.955	3266
873.039	3987
873.123	5820
873.207	4797
873.291	3341
873.375	4386
873.459	5361
873.543	3955
873.627	4046
873.711	3029
873.794	6019
873.878	3851
873.962	3307
874.045	3702
874.129	4604
874.137	4609
874.213	4660
874.245	4582
874.296	4451
874.352	3205
874.380	2598
874.460	4326
874.464	4396
874.547	3436
874.568	3808
874.631	4889
874.676	4683
874.714	4489
874.784	4425
874.798	4417
874.881	3570
874.892	3505
874.965	3169
874.999	3849
875.048	4699
875.107	4354
875.131	4221
875.215	2339
875.215	2340
875.298	3069
875.323	3468
875.381	4431
875.430	5280
875.465	5811
875.538	4424
875.548	4230
875.631	2844
875.646	2778
875.714	2570
875.753	3035
875.798	3657
875.861	4507
875.881	4670
875.964	3384
875.968	3345
876.047	3004
876.076	3469
876.130	4368
876.183	4578
876.213	4621
876.291	5368
876.296	5417
876.379	3483
876.398	3540
876.462	3596
876.506	3148
876.545	2936
876.613	3834
876.628	4024
876.711	3532
876.721	3741
876.794	5377
876.828	5097
876.877	4362
876.935	3351
876.960	3087
877.043	3626
877.043	3627
877.125	4327
877.150	4631
877.208	5068
877.258	4284
877.291	3740
877.365	3239
877.374	3191
877.456	3427
877.472	3345
877.539	3263
877.579	4167
877.622	4970
877.687	4428
877.704	4334
877.787	4652
877.794	4639
877.869	4397
877.901	4448
877.952	4086
878.008	3041
878.034	2803
878.115	2994
878.117	3000
878.199	3456
878.222	3845
878.282	5228
878.329	5604
878.364	5493
878.437	4503
878.447	4385
878.529	3164
878.544	3185
878.611	3131
878.651	3345
878.694	4056
878.758	4534
878.776	4591
878.858	4105
878.865	4120
878.941	3527
878.972	3125
879.023	3086
879.078	3630
879.105	4062
879.185	5043
879.187	5051
879.269	5026
879.292	5077
879.351	5305
879.399	4511
879.433	3759
879.506	3926
879.516	4038
879.598	4399
879.613	4430
879.680	4471
879.720	4666
879.762	4796
879.827	4454
879.844	4406
879.926	4953
879.933	4991
880.007	5337
880.040	5407
880.089	5492
880.147	6664
880.171	7403
880.253	10540
880.254	10552
880.335	12296
880.360	13043
880.417	17405
880.467	24852
880.499	28649
880.574	29007
880.580	28438
880.662	12023
880.680	10050
880.744	5915
880.787	4752
880.825	4708
880.893	4763
880.907	4783
880.989	4369
881.000	4404
881.070	5138
881.106	5260
881.152	4682
881.213	3993
881.233	4005
881.315	4222
881.319	4231
881.396	4747
881.426	4856
881.478	5196
881.532	6327
881.559	6492
881.639	5120
881.641	5100
881.722	4277
881.745	4188
881.803	4905
881.852	5349
881.885	4984
881.958	3728
881.966	3707
882.047	4567
882.064	4545
882.129	3915
882.171	3711
882.210	3515
882.277	2894
882.291	3072
882.372	5603
882.383	5703
882.454	5984
882.489	6299
882.535	6204
882.596	5876
882.616	5868
882.697	6256
882.702	6195
882.778	4205
882.808	3841
882.859	3488
882.914	3018
882.940	3456
883.020	4754
883.021	4769
883.102	5250
883.127	5543
883.183	6890
883.233	7217
883.264	6105
883.339	4068
883.345	4060
883.426	3603
883.445	3645
883.507	4134
883.551	4165
883.587	4672
883.657	6178
883.668	6319
883.749	6530
883.763	6536
883.830	4621
883.869	3670
883.910	3965
883.975	4283
883.991	4416
884.072	5220
884.081	5321
884.152	6926
884.187	7447
884.233	7581
884.292	7723
884.314	6980
884.394	3442
884.398	3314
884.475	3609
884.504	3426
884.555	3120
884.610	3191
884.636	3833
884.716	5463
884.716	5485
884.797	7168
884.821	7415
884.877	6576
884.927	5903
884.958	5359
885.033	3880
885.038	3859
885.118	3815
885.139	3680
885.199	4122
885.244	4679
885.279	5100
885.350	5711
885.359	5913
885.439	7588
885.456	7891
885.520	6571
885.561	5634
885.600	5165
885.667	4625
885.680	4846
885.760	5743
885.773	5901
885.840	4587
885.878	3901
885.920	4338
885.984	4874
886.000	5018
886.080	5519
886.089	5570
886.160	5939
886.195	5948
886.240	5712
886.300	5664
886.320	5766
886.400	5936
886.406	5919
886.480	4705
886.511	4364
886.560	4735
886.616	4830
886.640	4703
886.720	4392
886.722	4370
886.800	4456
886.827	4546
886.879	5254
886.932	5783
886.959	6021
887.038	6603
887.039	6615
887.119	6137
887.143	5999
887.198	5577
887.248	5065
887.278	5249
887.354	5663
887.358	5687
887.437	5866
887.459	5937
887.517	6152
887.564	6088
887.596	5569
887.669	4484
887.676	4414
887.755	3447
887.774	3209
887.835	3767
887.880	4172
887.914	4583
887.985	5315
887.994	5597
888.073	8077
888.090	8532
888.153	8853
888.195	8994
888.232	7720
888.300	5444
888.311	5446
888.391	5221
888.405	5206
888.470	5103
888.510	4891
888.549	4945
888.615	5228
888.628	5513
888.708	6896
888.720	7104
888.787	6897
888.825	6754
888.866	5332
888.930	3098
888.945	3555
889.024	5937
889.035	6236
889.103	7567
889.140	8227
889.182	6814
889.245	4772
889.261	4940
889.340	5635
889.349	5700
889.419	5360
889.454	5167
889.498	4955
889.559	4655
889.577	5093
889.656	6960
889.664	7129
889.735	6906
889.768	6770
889.814	6240
889.873	5495
889.978	5196
890.083	4898
890.187	6530
890.292	6559
890.397	5863
890.501	5273
890.606	5114
890.710	5432
890.815	8030
890.919	5345
891.024	6044
891.128	4409
891.233	4763
891.337	6697
891.442	6800
891.546	6263
891.650	4857
891.755	4570
891.859	6313
891.963	7609
892.068	6111
892.172	4613
892.276	3784
892.380	4632
892.484	7588
892.589	7608
892.693	4990
892.797	3226
892.901	3124
893.005	4558
893.109	8672
893.213	7070
893.317	5437
893.421	3470
893.525	3415
893.629	4364
893.733	7120
893.837	5041
893.941	4329
894.045	3687
894.148	3507
894.252	4667
894.356	6354
894.460	8035
894.564	4418
894.667	4002
894.771	2782
894.875	3481
894.978	5089
895.082	6433
895.186	6357
895.289	5801
895.393	4555
895.496	7037
895.600	3634
895.703	3743
895.807	4320
895.910	4312
896.014	5463
896.117	4239
896.221	5934
896.324	5508
896.427	3691
896.531	3369
896.634	4356
896.737	4235
896.840	5256
896.944	5333
897.047	5864
897.150	5082
897.253	3780
897.356	2934
897.460	3101
897.563	3237
897.666	6521
897.769	4951
897.872	3122
897.975	2751
898.078	4512
898.181	2573
898.284	3715
898.387	5670
898.490	6035
898.593	3680
898.695	3431
898.798	3322
898.901	4015
899.004	4789
899.107	3688
899.209	4406
899.312	7226
899.415	3735
899.518	2616
899.620	2731
899.723	3444
899.826	3814
899.928	3400
900.031	4039
900.133	5944
900.236	3477
900.338	2554
900.441	3820
900.543	3699
900.646	4493
900.748	4031
900.851	4922
900.953	3726
901.055	2312
901.158	3930
901.260	2733
901.362	2399
901.465	2992
901.567	5620
901.669	4942
901.771	4131
901.873	4460
901.976	3946
902.078	4831
902.180	3070
902.282	2646
902.384	4341
902.486	5882
902.588	5388
902.690	2047
902.792	2071
902.894	4738
902.996	4930
903.098	4260
903.200	2774
903.302	2910
903.404	3303
903.505	2782
903.607	3252
903.709	6843
903.811	4910
903.913	4534
904.014	2470
904.116	1715
904.218	3099
904.319	4695
904.421	7157
904.523	5023
904.624	3535
904.726	3025
904.827	2495
904.929	3349
905.030	4410
905.132	5625
905.233	3798
905.335	2994
905.436	2017
905.537	2423
905.639	3766
905.740	3657
905.841	5055
905.943	3895
906.044	3773
906.145	2359
906.247	1806
906.348	2886
906.449	3646
906.550	4924
906.651	2527
906.752	3247
906.854	1975
906.955	3119
907.056	3175
907.157	5107
907.258	4772
907.359	2797
907.460	2038
907.561	2557
907.662	3665
907.762	2776
907.863	3925
907.964	3883
908.065	2947
908.166	3240
908.267	3683
908.367	2587
908.468	2556
908.569	3824
908.670	4438
908.770	3181
908.871	4380
908.971	4002
909.072	3852
909.173	2321
909.273	3253
909.374	4367
909.474	2990
909.575	3151
909.675	2846
909.776	2766
909.876	4105
909.977	3001
910.077	3745
910.177	4319
910.278	3754
910.378	2598
910.478	3297
910.579	3973
910.679	4149
910.779	4244
910.879	3868
910.980	3756
911.080	4045
911.180	2953
911.280	2480
911.380	2184
911.480	3222
911.580	2634
911.680	2962
911.780	3643
911.880	3988
911.980	2755
912.080	3179
912.180	3590
912.280	3340
912.380	3149
912.480	2340
912.580	2982
912.679	3703
912.779	3402
912.879	4050
912.979	3076
913.078	2788
913.178	2802
913.278	2858
913.377	2408
913.477	3303
913.577	2412
913.676	4462
913.776	3475
913.875	3453
913.975	3474
914.074	3177
914.174	3560
914.273	2365
914.373	3395
914.472	3298
914.572	2213
914.671	2803
914.770	3561
914.870	3461
914.969	3043
915.068	3887
915.167	4226
915.267	3045
915.366	3509
915.465	3751
915.564	3987
915.663	3940
915.763	3869
915.862	4151
915.961	4559
916.060	3258
916.159	2587
916.258	2785
916.357	2460
916.456	4042
916.555	4389
916.654	3795
916.752	4739
916.851	3975
916.950	3478
917.049	3145
917.148	3191
917.247	3819
917.345	2874
917.444	3277
917.543	3179
917.642	3244
917.740	3871
917.839	6236
917.937	6409
918.036	5003
918.135	4418
918.233	3548
918.332	3251
918.430	2933
918.529	3397
918.627	3934
918.726	5183
918.824	4574
918.923	3270
919.021	3995
919.119	3064
919.218	3095
919.316	4763
919.414	3990
919.512	5284
919.611	5007
919.709	3937
919.807	5453
919.905	6211
920.003	5762
920.102	5686
920.200	6287
920.298	6991
920.396	5658
920.494	5017
920.592	4940
920.690	5250
920.788	5996
920.886	5733
920.984	7052
921.082	6383
921.180	6113
921.277	6647
921.375	8940
921.473	11553
921.571	10715
921.669	10304
921.766	8573
921.864	10376
921.962	9438
922.060	9313
922.157	9630
922.255	11414
922.352	9667
922.450	10086
922.548	12075
922.645	13105
922.743	17792
922.840	27229
922.938	29316
923.035	25580
923.133	24721
923.230	29702
923.327	34533
923.425	30724
923.522	31322
923.619	27971
923.717	26155
923.814	25987
923.911	25257
924.008	26970
924.106	24835
924.203	24877
924.300	26705
924.397	23897
924.494	25641
924.591	24449
924.688	25118
924.786	24901
924.883	25797
924.979	25099
925.077	24244
925.173	23117
925.270	24515
925.367	24431
925.464	26244
925.561	26198
925.658	25841
925.755	21477
925.852	24910
925.948	22848
926.045	23665
926.142	24774
926.239	25103
926.335	20107
926.432	23424
926.529	25181
926.625	26277
926.722	19989
926.818	21674
926.915	25007
927.011	21245
927.108	22372
927.204	22670
927.301	20217
927.397	25297
927.494	25918
927.590	16894
927.687	20522
927.783	25859
927.879	24038
927.976	19913
928.072	20150
928.168	23069
928.264	21931
928.361	20734
928.457	23987
928.553	19229
928.649	21079
928.745	21175
928.841	18610
928.937	21344
929.033	20185
929.129	20077
929.225	23193
929.321	18708
929.417	18659
929.513	21922
929.609	17699
929.705	18616
929.801	21392
929.897	17956
929.993	18581
930.089	20102
930.184	17192
930.280	20700
930.376	24497
930.471	17001
930.567	15959
930.663	18621
930.758	16664
930.854	17701
930.950	17856
931.045	16602
931.141	16645
931.236	22268
931.332	16650
931.427	15792
931.523	21525
931.618	17946
931.714	13102
931.809	16884
931.905	19069
932.000	12934
932.095	14446
932.191	21361
932.286	21269
932.381	16438
932.476	14114
932.572	16514
932.667	14328
932.762	15071
932.857	17436
932.952	20703
933.047	15584
933.142	13205
933.237	17871
933.332	18309
933.427	18999
933.522	14820
933.617	13740
933.712	14925
933.807	19533
933.902	19732
933.997	18766
934.092	13097
934.187	15169
934.282	17435
934.376	17008
934.471	17159
934.566	14182
934.661	13714
934.755	17303
934.850	17364
934.945	14685
935.039	12400
935.134	11548
935.228	16740
935.323	21107
935.417	11966
935.512	10263
935.606	13102
935.701	16012
935.795	16567
935.890	14528
935.984	12429
936.079	11954
936.173	14331
936.267	12214
936.362	12136
936.456	14934
936.550	18175
936.644	14544
936.738	11299
936.833	11057
936.927	9155
937.021	12692
937.115	14436
937.209	14409
937.303	12352
937.397	10428
937.491	13127
937.585	15462
937.679	13524
937.773	11297
937.867	8917
937.961	11225
938.055	16620
938.149	12926
938.243	8722
938.337	9296
938.430	11991
938.524	15634
938.618	12140
938.712	9923
938.805	11718
938.899	14953
938.993	16630
939.086	9140
939.180	8332
939.274	10849
939.367	14279
939.461	13933
939.554	10235
939.648	9795
939.741	9963
939.835	13367
939.928	16410
940.022	13230
940.115	12152
940.208	13900
940.302	16912
940.395	15133
940.488	10552
940.582	10477
940.675	8827
940.768	10359
940.861	14895
940.954	13924
941.048	7584
941.141	8741
941.234	10026
941.327	10824
941.420	12292
941.513	11632
941.606	9115
941.699	9693
941.792	12017
941.885	10507
941.978	11258
942.071	10636
942.164	7928
942.257	8167
942.349	10595
942.442	11238
942.535	7545
942.628	8776
942.721	9531
942.813	9478
942.906	11165
942.999	9124
943.091	8630
943.184	10613
943.277	10025
943.369	6947
943.462	7156
943.554	9367
943.647	9282
943.739	12392
943.832	11812
943.924	5361
944.017	6390
944.109	7506
944.201	8518
944.294	8254
944.386	8952
944.478	8239
944.571	7979
944.663	7552
944.755	9806
944.847	10450
944.940	8910
945.032	5572
945.124	6361
945.216	8365
945.308	9624
945.400	8776
945.492	7486
945.584	10865
945.676	11682
945.768	9811
945.860	9984
945.952	10430
946.044	9343
946.136	7709
946.228	8658
946.320	7467
946.412	10077
946.503	10740
946.595	9730
946.687	6523
946.779	6194
946.870	6722
946.962	7217
947.054	6769
947.145	8962
947.237	7548
947.329	8175
947.420	9272
947.512	7500
947.603	6102
947.695	6701
947.786	6336
947.878	7098
947.969	8331
948.061	10497
948.152	7338
948.243	5327
948.335	4391
948.426	6155
948.517	7773
948.609	8290
948.700	8785
948.791	6209
948.882	5201
948.973	6427
949.065	7786
949.156	7225
949.247	5502
949.338	7039
949.429	4585
949.520	6133
949.611	7662
949.702	9122
949.793	5735
949.884	7179
949.975	5997
950.066	4472
950.157	5279
950.247	6533
950.338	3991
950.429	6496
950.520	6217
950.611	5160
950.701	7441
950.792	9251
950.883	6932
950.973	6669
951.064	7150
951.155	8055
951.245	7620
951.336	9314
951.427	8805
951.517	9884
951.608	6688
951.698	6248
951.788	5331
951.879	5084
951.969	5030
952.060	5240
952.150	6991
952.240	8735
952.331	6666
952.421	6800
952.511	4045
952.602	4856
952.692	4658
952.782	4057
952.872	5737
952.962	6617
953.052	6354
953.143	5200
953.233	5602
953.323	6415
953.413	7313
953.503	7497
953.593	6679
953.683	5170
953.773	3858
953.863	4617
953.953	4019
954.042	4914
954.132	6008
954.222	6266
954.312	4431
954.402	5764
954.492	4813
954.581	6857
954.671	6199
954.761	5609
954.850	6730
954.940	3070
955.030	3536
955.119	3886
955.209	5294
955.298	5476
955.388	6538
955.477	7458
955.567	3977
955.656	4642
955.746	5064
955.835	4445
955.925	4258
956.014	6117
956.103	7840
956.193	7942
956.282	6464
956.371	6043
956.461	6076
956.550	4745
956.639	4754
956.728	3963
956.817	5138
956.906	5636
956.995	6934
957.085	4981
957.174	5305
957.263	4823
957.352	5331
957.441	5843
957.530	4906
957.619	4681
957.708	4457
957.796	4913
957.885	5195
957.974	5220
958.063	4366
958.152	2667
958.241	3578
958.329	4558
958.418	4183
958.507	5380
958.596	5798
958.684	4208
958.773	5206
958.861	3289
958.950	3194
959.039	4472
959.127	3806
959.216	4738
959.304	3465
959.393	4503
959.481	4670
959.570	3653
959.658	3065
959.746	3508
959.835	3867
959.923	3452
960.011	2976
960.100	4579
960.188	5289
960.276	4761
960.365	3223
960.453	2955
960.541	2565
960.629	3076
960.717	2811
960.805	1628
960.893	4805
960.981	5045
961.069	6326
961.158	6513
961.245	6990
961.333	5828
961.421	4413
961.509	4445
961.597	4027
961.685	4805
961.773	5331
961.861	4936
961.949	5327
962.036	3635
962.124	4090
962.212	3812
962.299	3755
962.387	2985
962.475	3581
962.562	3660
962.650	5341
962.738	3926
962.825	2838
962.913	3647
963.000	4243
963.088	5169
963.175	3760
963.263	3785
963.350	3353
963.438	2878
963.525	3262
963.612	4675
963.700	3465
963.787	4568
963.874	3957
963.962	3091
964.049	2883
964.136	2600
964.223	3137
964.310	2520
964.398	3130
964.485	4016
964.572	3669
964.659	4426
964.746	2861
964.833	2907
964.920	2922
965.007	3678
965.094	3714
965.181	4233
965.268	4727
965.355	3679
965.441	3248
965.528	3191
965.615	4314
965.702	3475
965.789	3599
965.875	5415
965.962	4440
966.049	3868
966.136	5205
966.222	4298
966.309	4443
966.395	4742
966.482	4630
966.569	4415
966.655	4480
966.742	4071
966.828	3099
966.915	2536
967.001	3636
967.087	1968
967.174	3298
967.260	3646
967.347	3634
967.433	3453
967.519	2938
967.605	3016
967.692	3625
967.778	3950
967.864	3292
967.950	3972
968.036	2705
968.123	3959
968.209	3404
968.295	2246
968.381	3377
968.467	3237
968.553	1921
968.639	3358
968.725	3693
968.811	4195
968.897	4260
968.983	3362
969.069	1727
969.154	3327
969.240	2951
969.326	2296
969.412	2623
969.497	3041
969.583	2669
969.669	5495
969.755	3943
969.840	4498
969.926	6794
970.012	8184
970.097	7735
970.183	5912
970.268	5203
970.354	4458
970.439	2270
970.525	4586
970.610	3153
970.696	5015
970.781	2875
970.866	1932
970.952	4067
971.037	3006
971.122	3088
971.208	3538
971.293	3079
971.378	2097
971.463	3834
971.549	3767
971.634	3205
971.719	3474
971.804	3096
971.889	4078
971.974	2664
972.059	3657
972.144	3618
972.229	3534
972.314	2267
972.399	3952
972.484	2444
972.569	2260
972.654	1690
972.739	3566
972.824	2643
972.908	2504
972.993	2821
973.078	2918
973.163	3212
973.247	3324
973.332	2197
973.417	4605
973.501	2519
973.586	4443
973.671	3640
973.755	3032
973.840	3335
973.924	5672
974.009	4989
974.093	6423
974.178	5275
974.262	5027
974.346	4151
974.431	3952
974.515	3717
974.600	4107
974.684	4108
974.768	3069
974.852	4026
974.937	3404
975.021	4349
975.105	4098
975.189	3854
975.273	4074
975.358	2420
975.442	2313
975.526	4350
975.610	2778
975.694	3017
975.778	3899
975.862	3432
975.946	1599
976.030	4376
976.114	2989
976.198	3375
976.281	3670
976.365	3421
976.449	3299
976.533	2949
976.617	2767
976.700	2464
976.784	3383
976.868	2351
976.951	3847
977.035	2287
977.119	3224
977.202	3299
977.286	4620
977.369	5619
977.453	8341
977.536	6723
977.620	5760
977.703	6069
977.787	4523
977.870	5244
977.953	5588
978.037	2563
978.120	4843
978.203	3515
978.287	4317
978.370	3736
978.453	3601
978.536	3484
978.620	4303
978.703	3573
978.786	3330
978.869	3763
978.952	2880
979.035	5427
979.118	3390
979.201	3628
979.284	4117
979.367	3624
979.450	4414
979.533	3017
979.616	2757
979.699	3445
979.782	4296
979.865	3589
979.948	3998
980.030	3202
980.113	4225
980.196	3398
980.279	4819
980.361	3144
980.444	3490
980.526	5177
980.609	7057
980.692	8481
980.774	7480
980.857	4384
980.939	7130
981.022	4503
981.104	4823
981.187	4139
981.269	5895
981.352	5003
981.434	4140
981.516	4248
981.599	5864
981.681	3975
981.763	4388
981.846	4777
981.928	4221
982.010	4175
982.092	3820
982.174	5266
982.256	5155
982.339	3657
982.421	4816
982.503	4662
982.585	3482
982.667	4140
982.749	4182
982.831	3692
982.913	3344
982.995	5468
983.077	4125
983.158	6747
983.240	3712
983.322	6642
983.404	8926
983.486	8560
983.568	7493
983.649	5744
983.731	7331
983.813	5288
983.894	6014
983.976	5524
984.058	5401
984.139	6148
984.221	5211
984.302	6124
984.384	4644
984.465	5355
984.547	5977
984.628	5249
984.710	6197
984.791	5055
984.872	5554
984.954	5050
985.035	6409
985.116	5380
985.198	4392
985.279	6177
985.360	4602
985.441	5355
985.522	6522
985.604	5928
985.685	4049
985.766	5878
985.847	7054
985.928	4757
986.009	5404
986.090	5738
986.171	6543
986.252	5393
986.333	5376
986.414	5496
986.495	5977
986.576	5733
986.656	6570
986.737	6488
986.818	6695
986.899	6377
986.980	6133
987.060	6639
987.141	6687
987.222	8018
987.302	9188
987.383	9325
987.464	7921
987.544	7979
987.625	7921
987.705	8911
987.786	9077
987.866	8047
987.947	7755
988.027	8814
988.108	7459
988.188	7810
988.268	7139
988.349	7192
988.429	8377
988.509	7132
988.589	6633
988.670	5202
988.750	7868
988.830	6801
988.910	7071
988.990	6554
989.070	7018
989.151	5723
989.231	6422
989.311	6832
989.391	6857
989.471	6041
989.551	5711
989.631	5343
989.711	7553
989.791	6316
989.870	5281
989.950	6590
990.030	5714
990.110	5806
990.190	4702
990.269	6128
990.349	6146
990.429	5708
990.509	5093
990.588	4691
990.668	6224
990.747	5111
990.827	4078
990.907	6191
990.986	5815
991.066	5389
991.145	4815
991.225	5656
991.304	5444
991.383	5223
991.463	5645
991.542	6032
991.622	4541
991.701	4490
991.780	4811
991.859	4724
991.939	5159
992.018	5475
992.097	4701
992.176	4495
992.256	4860
992.335	4658
992.414	5759
992.493	3887
992.572	3554
992.651	5984
992.730	5275
992.809	4592
992.888	2723
992.967	4430
993.046	4618
993.125	3491
993.203	3690
993.282	4391
993.361	4617
993.440	3944
993.519	3470
993.597	3970
993.676	3344
993.755	5361
993.834	4284
993.912	2855
993.991	3936
994.069	3162
994.148	3805
994.226	3480
994.305	3651
994.384	3702
994.462	5011
994.540	3033
994.619	3158
994.697	3230
994.776	3923
994.854	3553
994.932	2997
995.011	3070
995.089	3149
995.167	3109
995.245	3320
995.324	2124
995.402	3507
995.480	2460
995.558	3199
995.636	2516
995.714	2916
995.792	4633
995.870	1791
995.948	3461
996.026	3006
996.104	1762
996.182	2824
996.260	2393
996.338	2811
996.416	1826
996.494	3613
996.572	2924
996.649	2590
996.727	2618
996.805	3147
996.883	2335
996.960	2669
997.038	3182
997.116	2801
997.193	1419
997.271	1158
997.348	1422
997.426	2683
997.504	3427
997.581	3748
997.658	2350
997.736	778
997.813	1374
997.891	3224
997.968	1636
998.046	2124
998.123	1633
998.200	2525
998.277	1116
998.355	2709
998.432	798
998.509	1704
998.586	2340
998.663	1700
998.741	2256
998.818	1081
998.895	1025
998.972	2511
999.049	3000
999.126	1955
999.203	1888
999.280	1863
999.357	2044
999.434	1788
999.511	1501
999.587	2837
999.664	833
999.741	1835
999.818	1882
999.895	2352
999.971	1581
1000.048	1627
1000.125	2430
1000.202	1227
1000.278	1832
1000.355	2491
1000.431	1341
1000.508	414
1000.584	738
1000.661	1788
1000.738	462
1000.814	1981
1000.890	1930
1000.967	1386
1001.043	1064
1001.120	785
1001.196	435
1001.272	-36
1001.349	1066
1001.425	1847
1001.501	1306
1001.577	780
1001.654	1053
1001.730	300
1001.806	365
1001.882	1305
1001.958	1756
1002.034	2152
1002.110	1393
1002.186	545
1002.262	1146
1002.338	812
1002.414	1187
1002.490	1980
1002.566	377
1002.642	203
1002.718	1622
1002.794	1454
1002.870	900
1002.945	1163
1003.021	794
1003.097	495
1003.173	1539
1003.248	595
1003.324	725
1003.400	663
1003.475	240
1003.551	1221
1003.626	965
1003.702	254
1003.777	205
1003.853	858
1003.928	249
1004.004	992
1004.079	1061
1004.155	1261
1004.230	-694
1004.305	1227
1004.381	753
1004.456	-288
1004.531	336
1004.607	630
1004.682	679
1004.757	598
1004.832	237
1004.907	372
1004.982	707
1005.057	645
1005.133	284
1005.208	-483
1005.283	-185
1005.358	949
1005.433	103
1005.508	154
1005.583	264
1005.657	300
1005.732	960
1005.807	429
1005.882	-305
1005.957	-1045
1006.032	-17
1006.106	439
1006.181	492
1006.256	990
1006.331	-350
1006.405	-237
1006.480	916
1006.554	-52
1006.629	-874
1006.704	19
1006.778	711
1006.853	229
1006.927	833
1007.002	-136
1007.076	31
1007.150	-458
1007.225	-170
1007.299	1018
1007.373	-185
1007.448	210
1007.522	286
1007.596	-570
1007.671	397
1007.745	521
1007.819	-810
1007.893	-606
1007.967	720
1008.041	-406
1008.115	495
1008.190	-359
1008.264	-336
1008.338	-438
1008.412	-420
1008.486	200
1008.560	163
1008.633	-160
1008.707	293
1008.781	958
1008.855	877
1008.929	-250
1009.003	-376
1009.076	-211
1009.150	43
1009.224	-40
1009.298	-440
1009.371	-1008
1009.445	-307
1009.519	-636
1009.592	-276
1009.666	-51
1009.739	-112
1009.813	-1010
1009.886	597
1009.960	-1390
1010.033	-420
1010.107	1249
1010.180	-838
1010.253	-297
1010.327	-1398
1010.400	-52
1010.473	-752
1010.547	776
1010.620	-603
1010.693	-309
1010.766	-710
1010.840	161
1010.913	-174
1010.986	-1172
1011.059	-1658
1011.132	-637
1011.205	-253
1011.278	-365
1011.351	-601
1011.424	295
1011.497	-1209
1011.570	-149
1011.643	-633
1011.716	-227
1011.789	-1109
1011.862	-142
1011.934	-782
1012.007	-1241
1012.080	-676
1012.153	-1081
1012.225	-502
1012.298	-680
1012.371	-995
1012.443	-1129
1012.516	-972
1012.588	-1
1012.661	-378
1012.733	-840
1012.806	-64
1012.879	-768
1012.951	-333
1013.023	-623
1013.096	-403
1013.168	-1275
1013.241	155
1013.313	-779
1013.385	-833
1013.458	-1486
1013.530	-428
1013.602	-909
1013.674	-165
1013.746	-1252
1013.819	-612
1013.891	-635
1013.963	-651
1014.035	44
1014.107	-1003
1014.179	-685
1014.251	-1464
1014.323	-423
1014.395	-380
1014.467	-675
1014.539	-698
1014.611	-1392
1014.683	-650
1014.754	-1321
1014.826	-1429
1014.898	-875
1014.970	-1169
1015.042	-598
1015.113	-1032
1015.185	-979
1015.257	-1414
1015.328	-149
1015.400	-1376
1015.471	-1235
1015.543	-1788
1015.615	-777
1015.686	-1331
1015.757	-909
1015.829	-1221
1015.901	-825
1015.972	-1166
1016.043	-1170
1016.115	-974
1016.186	-859
1016.257	-1146
1016.328	-532
1016.400	-678
1016.471	-1190
1016.542	-2135
1016.613	-584
1016.685	-1568
1016.756	-575
1016.827	-1365
1016.898	-1426
1016.969	-578
1017.040	-2024
1017.111	-2384
1017.182	-1640
1017.253	-1169
1017.324	-2156
1017.395	-1267
1017.466	-1145
1017.537	-1886
1017.608	-940
1017.678	-1134
1017.749	-942
1017.820	-1147
1017.891	-2125
1017.961	-1536
1018.032	-1127
1018.103	-1548
1018.173	-1347
1018.244	-1115
1018.315	-1447
1018.385	-618
1018.456	-1223
1018.526	-2068
1018.597	-1562
1018.667	-1329
1018.738	-1181
1018.808	-1772
1018.878	-1315
1018.949	-2272
1019.019	-1693
1019.089	-1131
1019.160	-714
1019.230	-2138
1019.300	-1205
1019.371	-1952
1019.441	-972
1019.511	-1649
1019.581	-1663
1019.651	-1428
1019.721	-860
1019.791	-1575
1019.861	-1616
1019.931	-1642
1020.001	-867
1020.071	-1660
1020.141	-1851
1020.211	-2193
1020.281	-1418
1020.351	-1611
1020.421	-881
1020.491	-1300
1020.560	-1696
1020.630	-1249
1020.700	-1247
1020.770	-1166
1020.839	-1711
1020.909	-1829
1020.979	-1733
1021.048	-2091
1021.118	-1736
1021.187	-1377
1021.257	-1228
1021.326	-1289
1021.396	-1717
1021.465	-1375
1021.535	-2075
1021.604	-2877
1021.674	-1010
1021.743	-487
1021.812	-799
1021.882	-2047
1021.951	-597
1022.020	-1675
1022.089	-1088
1022.159	-2235
1022.228	-1646
1022.297	-2325
1022.366	-829
1022.435	-2155
1022.504	-1862
1022.573	-1713
1022.642	-1646
1022.711	-1159
1022.781	-1298
1022.849	-1636
1022.918	-1091
1022.987	-2128
1023.056	-1513
1023.125	-1857
1023.194	-2390
1023.263	-1583
1023.331	-699
1023.400	-2028
1023.469	-2219
1023.538	-1833
1023.606	-1740
1023.675	-1589
1023.744	-1518
1023.812	-1826
1023.881	-1581
1023.949	-1490
1024.018	-1782
1024.086	-2041
1024.155	-1944
1024.223	-1378
1024.292	-1564
1024.360	-1213
1024.429	-2219
1024.497	-1977
1024.565	-1564
1024.634	-1321
1024.702	-1395
1024.770	-1335
1024.838	-2005
1024.907	-1391
1024.975	-2217
1025.043	-1505
1025.111	-2447
1025.179	-1721
1025.247	-1424
1025.315	-1259
1025.383	-2175
1025.451	-2549
1025.519	-1539
1025.587	-1917
1025.655	-1817
1025.723	-1893
1025.791	-2394
1025.859	-1682
1025.927	-1168
1025.995	-1784
1026.062	-2574
1026.130	-2891
1026.198	-2661
1026.266	-2398
1026.333	-639
1026.401	-1669
1026.469	-1607
1026.536	-1623
1026.604	-1383
1026.671	-2183
1026.739	-1640
1026.806	-2239
1026.874	-2093
1026.941	-1900
1027.009	-1823
1027.076	-2447
1027.144	-1959
1027.211	-2323
1027.278	-1710
1027.345	-1306
1027.413	-2500
1027.480	-2169
1027.547	-1877
1027.614	-1860
1027.682	-2200
1027.749	-1965
1027.816	-1695
1027.883	-2177
1027.950	-2046
1028.017	-2111
1028.084	-1385
1028.151	-2489
1028.218	-2050
1028.285	-2323
1028.352	-2313
1028.419	-1989
1028.486	-1687
1028.553	-2133
1028.619	-2364
1028.686	-2159
1028.753	-1520
1028.820	-1576
1028.886	-1506
1028.953	-1424
1029.020	-1774
1029.086	-1909
1029.153	-1926
1029.220	-2495
1029.286	-2066
1029.353	-1588
1029.419	-2226
1029.486	-2199
1029.552	-1601
1029.619	-2534
1029.685	-2546
1029.751	-2379
1029.818	-1489
1029.884	-2832
1029.951	-873
1030.017	-2553
1030.083	-1856
1030.149	-2823
1030.216	-2620
1030.282	-1959
1030.348	-1624
1030.414	-2801
1030.480	-2339
1030.546	-1792
1030.612	-1319
1030.678	-2138
1030.744	-2344
1030.810	-2109
1030.876	-1304
1030.942	-2122
1031.008	-1624
1031.074	-2571
1031.140	-2532
1031.206	-2247
1031.272	-2940
1031.337	-1813
1031.403	-2033
1031.469	-1599
1031.534	-2743
1031.600	-1991
1031.666	-1964
1031.731	-2044
1031.797	-1880
1031.863	-2122
1031.928	-1527
1031.994	-1557
1032.059	-1821
1032.125	-1808
1032.190	-2717
1032.256	-1775
1032.321	-2425
1032.386	-2641
1032.452	-1538
1032.517	-2082
1032.582	-2213
1032.647	-2066
1032.713	-2124
1032.778	-1742
1032.843	-2199
1032.908	-2796
1032.974	-2855
1033.039	-2667
1033.104	-1450
1033.169	-2150
1033.234	-1990
1033.299	-2355
1033.364	-1838
1033.429	-2590
1033.494	-1732
1033.559	-1964
1033.624	-1439
1033.688	-851
1033.753	-1748
1033.818	-2415
1033.883	-926
1033.948	-1530
1034.013	-1469
1034.077	-939
1034.142	-815
1034.207	-122
1034.271	2260
1034.336	1871
1034.400	802
1034.465	-627
1034.530	-1801
1034.594	-2256
1034.658	-2566
1034.723	-1838
1034.787	-1879
1034.852	-2327
1034.916	-2532
1034.981	-2021
1035.045	-1092
1035.109	-2050
1035.173	-2289
1035.238	-2781
1035.302	-1674
1035.366	-2091
1035.430	-2429
1035.495	-2312
1035.559	-1472
1035.623	-2066
1035.687	-2716
1035.751	-2515
1035.815	-1343
1035.879	-2000
1035.943	-1747
1036.007	-3013
1036.071	-1894
1036.135	-2740
1036.198	-1708
1036.262	-2030
1036.326	-1843
1036.390	-2037
1036.454	-1634
1036.517	-2247
1036.581	-1459
1036.645	-1084
1036.709	-619
1036.772	-1947
1036.836	-2371
1036.900	-909
1036.963	-1640
1037.026	-1954
1037.090	-1955
1037.154	-2396
1037.217	-1456
1037.280	-2075
1037.344	-1513
1037.407	-2191
1037.471	-1955
1037.534	-1384
1037.597	-1948
1037.661	-1955
1037.724	-1956
1037.787	-1780
1037.850	-2153
1037.913	-2215
1037.977	-1403
1038.040	-1953
1038.103	-2129
1038.166	-1217
1038.229	-2220
1038.292	-1951
1038.355	-2088
1038.418	-1998
1038.481	-2379
1038.544	-2473
1038.607	-1493
1038.670	-2601
1038.732	-1392
1038.795	-1868
1038.858	-2171
1038.921	-2294
1038.984	-2202
1039.046	-3037
1039.109	-2315
1039.172	-1833
1039.234	-2707
1039.297	-2116
1039.360	-1840
1039.422	-2007
1039.485	-1297
1039.547	-2085
1039.610	-1906
1039.672	-2271
1039.734	-2532
1039.797	-2545
1039.859	-1425
1039.922	-1334
1039.984	-1946
1040.046	-3215
1040.109	-2200
1040.171	-2436
1040.233	-1527
1040.295	-1645
1040.358	-2259
1040.420	-1965
1040.482	-2574
1040.544	-2276
1040.606	-1245
1040.668	-2312
1040.730	-2178
1040.792	-1361
1040.854	-1770
1040.916	-2132
1040.978	-1396
1041.040	-2061
1041.102	-1962
1041.164	-2366
1041.225	-2519
1041.287	-2093
1041.349	-2562
1041.411	-1829
1041.472	-2299
1041.534	-2301
1041.596	-2649
1041.657	-1852
1041.719	-1458
1041.781	-2209
1041.842	-2422
1041.904	-2036
1041.965	-2017
1042.027	-1853
1042.088	-1223
1042.150	-967
1042.211	-2823
1042.272	-2109
1042.334	-2478
1042.395	-2164
1042.456	-1759
1042.518	-2021
1042.579	-2269
1042.640	-2616
1042.701	-2069
1042.763	-2839
1042.824	-1685
1042.885	-2510
1042.946	-1891
1043.007	-1616
1043.068	-1420
1043.129	-1989
1043.190	-1409
1043.251	-1517
1043.312	-1715
1043.373	-1756
1043.434	-2234
1043.495	-2219
1043.556	-1481
1043.616	-2017
1043.677	-2624
1043.738	-1526
1043.799	-2223
1043.859	-2062
1043.920	-2418
1043.981	-2130
1044.041	-1193
1044.102	-1915
1044.162	-2002
1044.223	-2484
1044.284	-1475
1044.344	-1612
1044.405	-1265
1044.465	-2467
1044.525	-2234
1044.586	-1550
1044.646	-2637
1044.707	-1362
1044.767	-1506
1044.827	-2695
1044.887	-2060
1044.948	-1580
1045.008	-1382
1045.068	-2644
1045.128	-1645
1045.188	-1255
1045.249	-903
1045.309	-998
1045.369	-1256
1045.429	-2052
1045.489	-2399
1045.549	-1926
1045.609	-1661
1045.669	-1673
1045.729	-2252
1045.789	-2483
1045.848	-1249
1045.908	-2388
1045.968	-971
1046.028	-1167
1046.088	-1553
1046.147	-801
1046.207	-1203
1046.267	-1111
1046.326	-1418
1046.386	-1787
1046.446	-1248
1046.505	-770
1046.565	-1098
1046.624	-1214
1046.684	-1044
1046.743	-278
1046.803	-316
1046.862	-569
1046.922	0
