'Start Wavelength	183.907
'End Wavelength	1046.922
'Gate Delay	5.000
'Gate Width (ms)	1.050
'Laser Output Level	0.000
'X Position	0.000
'Y Position	0.000
'Z Position	0.000
'Grid Point Number	1.000
'Shot Number	100.000
183.907	1264.000
183.977	48.000
184.047	-67
184.116	744
184.186	347
184.256	311
184.325	24
184.395	-219
184.465	1480
184.534	-116
184.604	-224
184.674	503
184.743	-48
184.813	773
184.883	346
184.952	186
185.022	196
185.092	163
185.161	55
185.231	-348
185.301	735
185.370	691
185.440	362
185.509	-581
185.579	321
185.649	311
185.718	509
185.788	349
185.857	-154
185.927	-103
185.996	809
186.066	-9
186.136	171
186.205	102
186.275	1198
186.344	90
186.414	433
186.483	171
186.553	1143
186.622	678
186.692	721
186.761	-237
186.831	754
186.900	-139
186.970	990
187.039	369
187.109	940
187.178	140
187.248	1026
187.317	379
187.387	379
187.456	419
187.526	1130
187.595	1144
187.664	434
187.734	58
187.803	591
187.873	258
187.942	467
188.012	732
188.081	199
188.150	-720
188.220	696
188.289	465
188.358	298
188.428	747
188.497	-71
188.567	734
188.636	685
188.705	385
188.775	37
188.844	-290
188.913	641
188.983	-258
189.052	169
189.121	814
189.191	721
189.260	239
189.329	819
189.399	565
189.468	743
189.537	10
189.606	705
189.676	330
189.745	346
189.814	469
189.883	340
189.953	476
190.022	600
190.091	673
190.161	516
190.230	315
190.299	127
190.368	-186
190.437	250
190.507	894
190.576	-103
190.645	670
190.714	769
190.783	-329
190.853	1023
190.922	411
190.991	1026
191.060	280
191.129	-438
191.198	374
191.268	834
191.337	-67
191.406	960
191.475	859
191.544	463
191.613	780
191.682	82
191.752	132
191.821	168
191.890	-327
191.959	955
192.028	-268
192.097	207
192.166	99
192.235	-99
192.304	229
192.373	-447
192.442	-483
192.511	635
192.580	50
192.650	-7
192.719	431
192.788	-18
192.857	-622
192.926	854
192.995	776
193.064	900
193.133	797
193.202	141
193.271	834
193.340	1210
193.409	972
193.478	1529
193.547	921
193.615	1082
193.684	951
193.753	229
193.822	1083
193.891	58
193.960	469
194.029	298
194.098	604
194.167	650
194.236	1143
194.305	158
194.374	-2
194.443	-125
194.512	65
194.580	502
194.649	-36
194.718	319
194.787	325
194.856	57
194.925	252
194.994	525
195.062	-22
195.131	332
195.200	29
195.269	1464
195.338	36
195.407	299
195.475	271
195.544	477
195.613	233
195.682	1331
195.751	192
195.819	346
195.888	821
195.957	1110
196.026	-12
196.094	436
196.163	462
196.232	562
196.301	-28
196.369	741
196.438	102
196.507	660
196.576	-16
196.644	494
196.713	211
196.782	40
196.850	-281
196.919	1126
196.988	308
197.056	-133
197.125	179
197.194	-8
197.262	728
197.331	951
197.400	-459
197.468	-574
197.537	511
197.606	271
197.674	739
197.743	788
197.812	361
197.880	933
197.949	-57
198.017	1018
198.086	506
198.155	196
198.223	310
198.292	706
198.360	386
198.429	69
198.497	787
198.566	346
198.635	1148
198.703	836
198.772	858
198.840	1376
198.909	1360
198.977	288
199.046	699
199.114	1280
199.183	-416
199.251	233
199.320	-7
199.388	208
199.457	196
199.525	-441
199.594	682
199.662	-219
199.731	187
199.799	476
199.867	477
199.936	83
200.004	1080
200.073	840
200.141	590
200.210	489
200.278	649
200.346	262
200.415	1187
200.483	920
200.552	1056
200.620	704
200.688	201
200.757	326
200.825	262
200.893	86
200.962	490
201.030	492
201.098	-401
201.167	887
201.235	-295
201.303	896
201.372	787
201.440	564
201.508	613
201.577	1475
201.645	448
201.713	1299
201.781	300
201.850	1140
201.918	-77
201.986	703
202.055	833
202.123	209
202.191	-90
202.259	1204
202.327	629
202.396	931
202.464	937
202.532	684
202.600	1372
202.669	719
202.737	914
202.805	-129
202.873	1327
202.941	583
203.009	286
203.078	292
203.146	189
203.214	96
203.282	-400
203.350	1052
203.418	-471
203.487	653
203.555	996
203.623	-38
203.691	1000
203.759	37
203.827	197
203.895	999
203.963	644
204.031	109
204.099	744
204.168	578
204.236	1021
204.304	727
204.372	569
204.440	727
204.508	274
204.576	211
204.644	1279
204.712	-60
204.780	389
204.848	1029
204.916	164
204.984	523
205.052	-325
205.120	-129
205.188	324
205.256	513
205.324	564
205.392	-113
205.460	620
205.528	904
205.596	-190
205.664	998
205.732	511
205.799	1131
205.867	1636
205.935	76
206.003	102
206.071	408
206.139	407
206.207	570
206.275	927
206.343	226
206.411	839
206.478	574
206.546	211
206.614	731
206.682	1104
206.750	130
206.818	1244
206.885	1023
206.953	-444
207.021	1822
207.089	786
207.157	134
207.225	-26
207.292	377
207.360	437
207.428	265
207.496	-292
207.563	390
207.631	158
207.699	-42
207.767	504
207.834	-427
207.902	-172
207.970	-59
208.038	266
208.105	-128
208.173	-15
208.241	803
208.309	1014
208.376	401
208.444	961
208.512	1236
208.579	-196
208.647	1314
208.715	1937
208.782	917
208.850	-434
208.918	911
208.985	510
209.053	907
209.120	1022
209.188	-86
209.256	433
209.323	213
209.391	421
209.459	1481
209.526	816
209.594	248
209.661	945
209.729	935
209.796	809
209.864	996
209.932	-885
209.999	1516
210.067	936
210.134	493
210.202	1042
210.269	1375
210.337	1425
210.404	650
210.472	796
210.539	389
210.607	416
210.674	704
210.742	771
210.809	365
210.877	274
210.944	1768
211.012	-304
211.079	1775
211.146	703
211.214	909
211.281	1814
211.349	1731
211.416	939
211.484	1149
211.551	-325
211.618	886
211.686	643
211.753	381
211.821	1373
211.888	-28
211.955	948
212.023	964
212.090	865
212.157	-126
212.225	761
212.292	1959
212.359	1907
212.427	4481
212.494	2012
212.561	1029
212.629	-98
212.696	693
212.763	826
212.831	682
212.898	1339
212.965	609
213.032	861
213.100	837
213.167	293
213.234	1440
213.301	696
213.369	967
213.436	368
213.503	183
213.570	846
213.638	648
213.705	56
213.772	84
213.839	-118
213.906	1354
213.973	266
214.041	926
214.108	828
214.175	969
214.242	796
214.309	942
214.376	577
214.444	761
214.511	676
214.578	796
214.645	953
214.712	1481
214.779	986
214.846	218
214.913	1121
214.980	1855
215.048	1682
215.115	2112
215.182	1336
215.249	1392
215.316	-217
215.383	1372
215.450	931
215.517	936
215.584	1059
215.651	1387
215.718	645
215.785	742
215.852	1173
215.919	1179
215.986	393
216.053	839
216.120	575
216.187	555
216.254	873
216.321	795
216.388	1043
216.455	477
216.522	705
216.589	77
216.656	642
216.722	1622
216.789	412
216.856	806
216.923	1072
216.990	861
217.057	1528
217.124	782
217.191	320
217.258	1627
217.324	1469
217.391	2154
217.458	846
217.525	1384
217.592	905
217.659	468
217.725	1681
217.792	1140
217.859	1035
217.926	36
217.993	535
218.059	1186
218.126	600
218.193	369
218.260	174
218.327	816
218.393	133
218.460	75
218.527	411
218.594	580
218.660	324
218.727	1317
218.794	680
218.860	1014
218.927	442
218.994	-185
219.061	336
219.127	258
219.194	628
219.261	565
219.327	596
219.394	1107
219.461	-364
219.527	1097
219.594	943
219.661	764
219.727	1
219.794	980
219.860	669
219.927	1325
219.994	2062
220.060	2517
220.127	3470
220.193	2736
220.260	1237
220.326	2604
220.393	2966
220.460	2983
220.526	1645
220.593	982
220.659	2692
220.726	1097
220.792	3071
220.859	2485
220.925	3666
220.992	3561
221.058	3971
221.125	4314
221.191	2629
221.258	1075
221.324	1276
221.391	-362
221.457	865
221.524	760
221.590	1608
221.657	3262
221.723	2157
221.789	1894
221.856	2581
221.922	802
221.989	1120
222.055	1010
222.121	-320
222.188	3086
222.254	228
222.321	857
222.387	1142
222.453	810
222.520	493
222.586	-18
222.652	565
222.719	636
222.785	1271
222.851	615
222.918	247
222.984	708
223.050	1
223.116	-769
223.183	1366
223.249	166
223.315	-464
223.382	1349
223.448	-207
223.514	-65
223.580	305
223.647	-36
223.713	-339
223.779	197
223.845	727
223.911	346
223.978	-477
224.044	332
224.110	110
224.176	313
224.242	508
224.309	-126
224.375	222
224.441	687
224.507	-21
224.573	-754
224.639	991
224.705	-237
224.772	-28
224.838	-929
224.904	986
224.970	285
225.036	257
225.102	-413
225.168	1447
225.234	1682
225.300	-438
225.366	1323
225.432	513
225.499	255
225.565	1413
225.631	-136
225.697	295
225.763	1382
225.829	270
225.895	727
225.961	664
226.027	1522
226.093	273
226.159	2384
226.225	2023
226.291	4902
226.357	7976
226.423	4683
226.489	2235
226.554	1583
226.620	1415
226.686	1427
226.752	2676
226.818	4400
226.884	9924
226.950	9363
227.016	3879
227.082	3147
227.148	1643
227.214	709
227.279	1159
227.345	2422
227.411	1531
227.477	2646
227.543	5273
227.609	5222
227.674	4400
227.740	1557
227.806	1947
227.872	1390
227.938	1292
228.003	1441
228.069	503
228.135	68
228.201	820
228.267	21
228.332	982
228.398	-393
228.464	692
228.530	623
228.595	63
228.661	512
228.727	-199
228.792	709
228.858	245
228.924	-309
228.990	1320
229.055	-433
229.121	261
229.187	872
229.252	306
229.318	404
229.384	624
229.449	236
229.515	-1388
229.581	-640
229.646	1368
229.712	164
229.777	1041
229.843	1233
229.909	1192
229.974	1721
230.040	1197
230.105	1172
230.171	-151
230.236	1960
230.302	1624
230.368	1016
230.433	-14
230.499	980
230.564	2091
230.630	742
230.695	1278
230.761	775
230.826	-585
230.892	2020
230.957	283
231.023	662
231.088	475
231.154	1448
231.219	886
231.284	551
231.350	1107
231.415	728
231.481	1341
231.546	224
231.612	1063
231.677	123
231.742	-593
231.808	1877
231.873	599
231.939	-1050
232.004	1380
232.069	1038
232.135	351
232.200	16
232.265	1034
232.331	220
232.396	351
232.461	-211
232.527	336
232.592	-73
232.657	379
232.723	996
232.788	-166
232.853	1216
232.918	825
232.984	-71
233.049	98
233.114	-350
233.179	994
233.245	1774
233.310	913
233.375	289
233.440	986
233.506	393
233.571	476
233.636	52
233.701	-409
233.766	447
233.832	50
233.897	303
233.962	-1085
234.027	2148
234.092	127
234.157	164
234.222	804
234.288	1387
234.353	634
234.418	1357
234.483	1505
234.548	1019
234.613	94
234.678	1152
234.743	116
234.808	1537
234.873	-391
234.938	1984
235.004	684
235.069	606
235.134	123
235.199	877
235.264	697
235.329	246
235.394	939
235.459	1700
235.524	-793
235.589	1099
235.654	729
235.719	-722
235.784	1223
235.849	1445
235.913	477
235.978	897
236.043	1536
236.108	1053
236.173	174
236.238	1083
236.303	138
236.368	732
236.433	1010
236.498	305
236.563	1710
236.627	3657
236.692	13060
236.757	12169
236.822	3217
236.887	2247
236.952	2770
237.017	1100
237.081	2440
237.146	1655
237.211	4961
237.276	11898
237.341	19978
237.405	10000
237.470	3396
237.535	2118
237.600	2332
237.664	2487
237.729	938
237.794	1188
237.859	3958
237.923	1019
237.988	975
238.053	2189
238.118	920
238.182	1411
238.247	3449
238.312	-173
238.376	1606
238.441	-451
238.506	1448
238.570	397
238.635	1596
238.700	876
238.764	-24
238.829	597
238.893	-159
238.958	1516
239.023	97
239.087	589
239.152	813
239.216	-46
239.281	1744
239.346	1117
239.410	394
239.475	717
239.539	2120
239.604	1148
239.668	2185
239.733	1565
239.797	4460
239.862	10596
239.926	7968
239.991	3573
240.055	1588
240.120	1290
240.184	1532
240.249	833
240.313	648
240.378	238
240.442	683
240.507	1822
240.571	336
240.635	259
240.700	510
240.764	-160
240.829	371
240.893	-581
240.957	1382
241.022	412
241.086	1757
241.151	-599
241.215	-57
241.279	1409
241.344	-400
241.408	1569
241.472	331
241.537	1984
241.601	1636
241.665	-13
241.730	833
241.794	2364
241.858	1225
241.922	1410
241.987	923
242.051	982
242.115	605
242.179	1888
242.244	731
242.308	1097
242.372	799
242.436	785
242.501	1571
242.565	-61
242.629	492
242.693	2230
242.757	-720
242.822	1376
242.886	783
242.950	1260
243.014	-396
243.078	1158
243.142	588
243.206	-228
243.271	655
243.335	791
243.399	2886
243.463	5633
243.527	18214
243.591	5037
243.655	2200
243.719	594
243.783	2022
243.847	2156
243.911	3049
243.975	1490
244.040	176
244.104	2503
244.168	162
244.232	570
244.296	1630
244.360	3070
244.424	671
244.488	1287
244.552	1293
244.615	-1060
244.679	406
244.743	3
244.807	-79
244.871	896
244.935	482
244.999	-347
245.063	392
245.127	1838
245.191	798
245.255	2156
245.319	1074
245.383	-1016
245.446	2087
245.510	-444
245.574	1119
245.638	990
245.702	-786
245.766	1342
245.829	2234
245.893	-539
245.957	226
246.021	905
246.085	1290
246.149	904
246.212	2428
246.276	2836
246.340	1346
246.404	1428
246.467	1697
246.531	76
246.595	2120
246.659	1298
246.722	-221
246.786	1790
246.850	1652
246.913	1016
246.977	-436
247.041	1033
247.104	1117
247.168	1343
247.232	1159
247.295	3871
247.359	1963
247.423	473
247.486	1090
247.550	1500
247.614	436
247.677	506
247.741	457
247.804	346
247.868	2040
247.932	1164
247.995	4365
248.059	817
248.122	60
248.186	1378
248.249	1053
248.313	5971
248.376	6585
248.440	3755
248.503	496
248.567	2699
248.630	471
248.694	1346
248.757	3889
248.821	7106
248.884	5438
248.948	2639
249.011	5722
249.075	7546
249.138	7494
249.202	2832
249.265	1247
249.328	2027
249.392	1674
249.455	2373
249.519	1669
249.582	1267
249.645	2841
249.709	2177
249.772	1100
249.835	946
249.899	1630
249.962	1512
250.025	873
250.089	2664
250.152	4187
250.215	1577
250.279	829
250.342	2622
250.405	2491
250.468	2332
250.532	2028
250.595	5034
250.658	13760
250.721	29277
250.785	10051
250.848	5472
250.911	2213
250.974	4083
251.038	2083
251.101	5222
251.164	2446
251.227	3553
251.290	3302
251.354	5030
251.417	20380
251.480	24182
251.543	15940
251.606	41466
251.669	34660
251.732	12111
251.795	8903
251.859	9581
251.922	24695
251.985	16821
252.048	7201
252.111	4891
252.174	2426
252.237	4036
252.300	8943
252.363	11582
252.426	32200
252.489	13819
252.552	4732
252.615	2902
252.678	4125
252.741	6740
252.804	11978
252.867	34166
252.930	17957
252.993	7946
253.056	4923
253.119	2883
253.182	2106
253.245	4407
253.308	3477
253.371	1338
253.434	2183
253.497	1756
253.559	4212
253.622	2865
253.685	1371
253.748	2062
253.811	543
253.874	2334
253.937	317
254.000	1254
254.062	2161
254.125	3412
254.188	4997
254.251	2799
254.314	1486
254.376	968
254.439	2040
254.502	736
254.565	1713
254.628	4780
254.690	1895
254.753	140
254.816	631
254.878	1687
254.941	2861
255.004	3190
255.067	796
255.129	66
255.192	353
255.255	265
255.317	1470
255.380	729
255.443	-396
255.505	207
255.568	-430
255.631	840
255.693	1459
255.756	739
255.819	1850
255.881	742
255.944	430
256.006	100
256.069	458
256.132	1033
256.194	656
256.257	1538
256.319	1126
256.382	799
256.444	2362
256.507	2191
256.569	1558
256.632	1727
256.694	1263
256.757	6866
256.819	23612
256.882	10023
256.944	3370
257.007	2746
257.069	1531
257.132	1697
257.194	1959
257.257	2157
257.319	996
257.381	1488
257.444	4693
257.506	23529
257.569	28419
257.631	8888
257.693	4330
257.756	2431
257.818	1007
257.880	1227
257.943	1928
258.005	553
258.067	949
258.130	1206
258.192	528
258.254	732
258.317	915
258.379	1432
258.441	1009
258.503	2943
258.566	854
258.628	2228
258.690	-12
258.753	1925
258.815	1615
258.877	821
258.939	792
259.001	1461
259.064	868
259.126	284
259.188	1434
259.250	1597
259.312	1662
259.375	3040
259.437	1243
259.499	1324
259.561	1018
259.623	1993
259.685	1006
259.747	748
259.809	1968
259.872	2868
259.934	4449
259.996	8999
260.058	3942
260.120	1057
260.182	1088
260.244	549
260.306	900
260.368	788
260.430	506
260.492	3802
260.554	5612
260.616	2513
260.678	2627
260.740	3316
260.802	1039
260.864	1770
260.926	-305
260.988	2162
261.050	1499
261.112	4318
261.174	10610
261.236	4470
261.298	1318
261.359	2459
261.421	2617
261.483	382
261.545	1738
261.607	-795
261.669	1216
261.731	1670
261.793	2024
261.854	650
261.916	1437
261.978	1203
262.040	2046
262.102	1958
262.164	347
262.225	1523
262.287	760
262.349	1667
262.411	1820
262.472	1129
262.534	1013
262.596	1343
262.658	1021
262.719	-131
262.781	1588
262.843	578
262.904	520
262.966	2240
263.028	1577
263.090	6332
263.151	22824
263.213	8874
263.275	4038
263.336	1697
263.398	1631
263.459	-133
263.521	1249
263.583	1673
263.644	1973
263.706	798
263.767	-430
263.829	1333
263.891	673
263.952	365
264.014	647
264.075	3014
264.137	8806
264.198	2613
264.260	666
264.321	1154
264.383	1686
264.444	10840
264.506	4499
264.567	2605
264.629	3979
264.690	9917
264.752	4530
264.813	1725
264.875	701
264.936	2122
264.998	1135
265.059	1685
265.120	2650
265.182	1952
265.243	10052
265.305	12987
265.366	4099
265.427	1897
265.489	2122
265.550	678
265.611	1619
265.673	800
265.734	1288
265.795	914
265.857	1224
265.918	245
265.979	2510
266.040	18054
266.102	18284
266.163	5020
266.224	3473
266.286	1738
266.347	377
266.408	688
266.469	1411
266.530	1295
266.592	1012
266.653	2087
266.714	1284
266.775	1951
266.836	900
266.898	717
266.959	2305
267.020	2080
267.081	2095
267.142	1485
267.203	699
267.264	-11
267.326	1763
267.387	676
267.448	736
267.509	1130
267.570	676
267.631	794
267.692	122
267.753	1427
267.814	794
267.875	2022
267.936	3175
267.997	3218
268.058	1820
268.119	1747
268.180	828
268.241	727
268.302	415
268.363	562
268.424	791
268.485	136
268.546	238
268.607	1002
268.668	239
268.729	519
268.790	478
268.851	1023
268.912	1939
268.972	1826
269.033	1551
269.094	91
269.155	-43
269.216	846
269.277	663
269.338	520
269.398	1271
269.459	714
269.520	667
269.581	605
269.642	1149
269.702	904
269.763	1363
269.824	459
269.885	813
269.945	1747
270.006	186
270.067	553
270.128	383
270.188	1120
270.249	479
270.310	412
270.370	675
270.431	418
270.492	-280
270.553	947
270.613	1219
270.674	1131
270.734	862
270.795	827
270.856	1004
270.916	1146
270.977	1502
271.038	985
271.098	1113
271.159	618
271.219	906
271.280	798
271.340	1236
271.401	216
271.462	787
271.522	1310
271.583	1325
271.643	1061
271.704	832
271.764	1057
271.825	1645
271.885	5892
271.946	9384
272.006	2577
272.066	3274
272.127	7890
272.187	6824
272.248	3426
272.308	1860
272.369	5197
272.429	3384
272.489	2456
272.550	2756
272.610	2431
272.671	1281
272.731	2302
272.791	1728
272.852	772
272.912	1358
272.972	1510
273.033	351
273.093	868
273.153	2681
273.214	2286
273.274	2576
273.334	5510
273.394	9247
273.455	4220
273.515	3664
273.575	7552
273.635	4091
273.696	3667
273.756	5919
273.816	3508
273.876	3026
273.936	3419
273.997	4752
274.057	1658
274.117	1694
274.177	2233
274.237	8313
274.297	8276
274.358	2900
274.418	4936
274.478	3564
274.538	1305
274.598	1091
274.658	2119
274.718	3086
274.778	2086
274.838	1127
274.898	2019
274.958	3326
275.018	5891
275.078	3674
275.138	1443
275.198	548
275.258	932
275.318	1647
275.378	1968
275.438	1318
275.498	383
275.558	1430
275.618	3922
275.678	4582
275.738	2599
275.798	2923
275.858	3129
275.918	1324
275.978	1867
276.038	1376
276.098	1535
276.157	813
276.217	3985
276.277	1985
276.337	1030
276.397	862
276.457	1611
276.517	1546
276.576	1042
276.636	551
276.696	976
276.756	2349
276.815	1954
276.875	1213
276.935	824
276.995	254
277.055	1763
277.114	1088
277.174	2405
277.234	3586
277.293	1790
277.353	822
277.413	1559
277.472	569
277.532	1323
277.592	2297
277.651	7375
277.711	17776
277.771	5426
277.830	16603
277.890	15452
277.950	8455
278.009	27438
278.069	11994
278.128	11177
278.188	18242
278.248	7409
278.307	18817
278.367	13542
278.426	4501
278.486	2699
278.545	2062
278.605	1582
278.664	2040
278.724	1809
278.783	2986
278.843	8195
278.902	2933
278.962	1594
279.021	1844
279.081	3945
279.140	3659
279.199	3268
279.259	3610
279.318	4721
279.378	6595
279.437	7548
279.496	22837
279.556	96111
279.615	77095
279.675	18924
279.734	10145
279.793	9236
279.853	13609
279.912	7185
279.971	4928
280.031	4925
280.090	6997
280.149	11065
280.208	11583
280.268	65844
280.327	67706
280.386	16090
280.445	7578
280.505	6002
280.564	4290
280.623	3944
280.682	4242
280.742	5372
280.801	2071
280.860	1998
280.919	1440
280.978	2753
281.037	2105
281.097	1241
281.156	1964
281.215	1134
281.274	1655
281.333	5510
281.392	4039
281.451	1269
281.510	1505
281.569	1779
281.628	1844
281.688	1855
281.747	1535
281.806	1540
281.865	1603
281.924	1012
281.983	1665
282.042	1004
282.101	1028
282.160	1030
282.219	561
282.278	1104
282.337	2224
282.396	1781
282.454	1160
282.513	1667
282.572	2869
282.631	2304
282.690	1132
282.749	942
282.808	1024
282.867	1488
282.926	1988
282.985	2012
283.043	945
283.102	956
283.161	1661
283.220	2437
283.279	5862
283.338	2073
283.396	1903
283.455	1579
283.514	1264
283.573	2370
283.631	1685
283.690	2530
283.749	1605
283.808	3005
283.866	3073
283.925	1892
283.984	2366
284.043	2115
284.101	2267
284.160	3374
284.219	3587
284.277	3482
284.336	3646
284.395	7020
284.453	6536
284.512	4254
284.570	5499
284.629	6810
284.688	6569
284.746	8809
284.805	9980
284.863	13255
284.922	14653
284.981	20202
285.039	28308
285.098	44572
285.156	71800
285.215	71967
285.273	64620
285.332	76886
285.390	55688
285.449	36422
285.507	24813
285.566	17991
285.624	14775
285.683	11729
285.741	8555
285.799	7712
285.858	6282
285.916	5758
285.975	5026
286.033	4566
286.091	3491
286.150	3448
286.208	3479
286.267	4050
286.325	4016
286.383	3347
286.442	3223
286.500	2245
286.558	2963
286.616	2650
286.675	2348
286.733	2734
286.791	1738
286.850	2389
286.908	2582
286.966	2444
287.024	1893
287.083	1829
287.141	1270
287.199	1879
287.257	2491
287.315	2800
287.374	1836
287.432	2598
287.490	2746
287.548	1371
287.606	1895
287.664	2312
287.723	2026
287.781	2987
287.839	2753
287.897	2323
287.955	3690
288.013	5117
288.071	9261
288.129	30757
288.187	89503
288.245	48056
288.303	15347
288.361	8309
288.419	5847
288.477	5082
288.535	4005
288.593	3364
288.651	2302
288.709	2439
288.767	2259
288.825	1957
288.883	980
288.941	1282
288.999	1186
289.057	1472
289.115	1534
289.173	1299
289.231	1454
289.289	1056
289.346	1089
289.404	1705
289.462	2207
289.520	2547
289.578	1371
289.636	1520
289.694	1320
289.751	1455
289.809	385
289.867	1661
289.925	2189
289.983	1766
290.040	1030
290.098	1461
290.156	926
290.214	1633
290.271	1064
290.329	1968
290.387	1669
290.444	1419
290.502	1351
290.560	1504
290.617	1063
290.675	683
290.733	1640
290.790	866
290.848	1401
290.906	1223
290.963	836
291.021	1412
291.078	1192
291.136	1267
291.194	4101
291.251	9575
291.309	3080
291.366	1722
291.424	1133
291.481	1939
291.539	1646
291.596	1508
291.654	895
291.711	1289
291.769	424
291.826	1783
291.884	1151
291.941	1518
291.999	721
292.056	1209
292.114	121
292.171	1303
292.228	991
292.286	1749
292.343	2338
292.401	2079
292.458	1374
292.515	897
292.573	1952
292.630	1945
292.687	1709
292.745	1169
292.802	1901
292.859	7141
292.917	6553
292.974	3359
293.031	2039
293.089	2022
293.146	1139
293.203	1844
293.260	917
293.318	1490
293.375	3416
293.432	1714
293.489	2203
293.546	1970
293.604	1462
293.661	3420
293.718	10520
293.775	7155
293.832	3784
293.889	3731
293.947	3031
294.004	1687
294.061	1233
294.118	2404
294.175	7785
294.232	18008
294.289	8225
294.346	3139
294.403	2639
294.460	1365
294.517	2062
294.574	1815
294.631	1773
294.688	2207
294.745	2882
294.802	12102
294.859	20885
294.916	7753
294.973	3025
295.030	2587
295.087	2361
295.144	1059
295.201	2021
295.258	1233
295.315	1715
295.372	3113
295.429	7479
295.486	4677
295.542	3238
295.599	9664
295.656	20392
295.713	10040
295.770	8860
295.827	4056
295.883	2047
295.940	2201
295.997	2698
296.054	1995
296.111	1585
296.167	1667
296.224	1396
296.281	1780
296.338	1429
296.394	1084
296.451	2205
296.508	3866
296.564	7489
296.621	5090
296.678	7291
296.734	13726
296.791	5116
296.848	3249
296.904	1608
296.961	3720
297.018	7925
297.074	7406
297.131	3666
297.187	2829
297.244	2325
297.301	5744
297.357	14467
297.414	5835
297.470	3126
297.527	2639
297.583	883
297.640	2826
297.696	1568
297.753	1549
297.809	978
297.866	1051
297.922	1620
297.979	1241
298.035	887
298.092	1218
298.148	5123
298.204	4322
298.261	2299
298.317	3930
298.374	10711
298.430	5828
298.486	3250
298.543	3042
298.599	1915
298.656	2350
298.712	3435
298.768	10736
298.824	9467
298.881	3054
298.937	2040
298.993	1644
299.050	1765
299.106	2539
299.162	982
299.218	2169
299.275	1935
299.331	2134
299.387	3503
299.443	9561
299.500	17194
299.556	13339
299.612	5088
299.668	4389
299.724	11597
299.780	16359
299.837	5236
299.893	4888
299.949	11412
300.005	17573
300.061	12756
300.117	22645
300.173	10725
300.229	4801
300.285	3662
300.341	4217
300.397	1971
300.453	1704
300.510	1517
300.566	2968
300.622	4701
300.678	17754
300.734	26963
300.790	12988
300.845	11592
300.901	11479
300.957	19103
301.013	10575
301.069	3408
301.125	3255
301.181	2582
301.237	2617
301.293	1923
301.349	2233
301.405	1671
301.461	1897
301.516	1800
301.572	1740
301.628	1721
301.684	1654
301.740	2527
301.796	4519
301.851	3060
301.907	3825
301.963	3750
302.019	6123
302.074	19715
302.130	20072
302.186	9088
302.242	3887
302.297	3532
302.353	3144
302.409	4830
302.464	3953
302.520	2933
302.576	5967
302.631	9047
302.687	4432
302.743	2302
302.798	1783
302.854	2135
302.910	2526
302.965	2512
303.021	3220
303.076	3285
303.132	2668
303.187	3388
303.243	1439
303.299	1969
303.354	1546
303.410	1714
303.465	868
303.521	1435
303.576	1440
303.632	2352
303.687	2827
303.743	8024
303.798	7105
303.853	2795
303.909	1955
303.964	1312
304.020	1986
304.075	2164
304.130	2348
304.186	2476
304.241	4591
304.297	3226
304.352	2978
304.358	2833
304.407	1658
304.449	1138
304.463	963
304.518	1721
304.539	1551
304.573	1270
304.629	2541
304.630	2535
304.684	2445
304.720	4478
304.739	5462
304.794	8059
304.811	7152
304.850	4968
304.902	2986
304.905	2863
304.960	1865
304.992	1576
305.015	1369
305.071	2246
305.083	2206
305.126	1995
305.173	1281
305.181	1180
305.236	1276
305.264	1594
305.292	1864
305.347	1729
305.354	1789
305.402	2305
305.445	2130
305.457	2037
305.512	2061
305.535	2246
305.567	2569
305.622	1800
305.626	1901
305.678	4008
305.716	6222
305.733	6944
305.788	7938
305.807	7005
305.843	5486
305.897	7528
305.898	7549
305.953	8158
305.988	5795
306.008	4526
306.063	2606
306.078	2341
306.118	1795
306.168	1630
306.173	1612
306.228	1806
306.259	1716
306.283	1747
306.338	2138
306.349	2010
306.393	1444
306.440	2604
306.448	2811
306.503	2980
306.530	2933
306.558	3111
306.613	5165
306.620	5488
306.668	7489
306.711	7506
306.723	7221
306.778	6318
306.801	4896
306.833	3432
306.888	1996
306.892	2001
306.943	2035
306.982	1769
306.997	1800
307.052	2114
307.072	2172
307.107	2190
307.162	2982
307.163	2994
307.217	4498
307.253	4950
307.272	4903
307.327	5516
307.343	4967
307.381	4220
307.434	3874
307.436	3900
307.491	5497
307.524	8136
307.546	9145
307.600	7792
307.614	6986
307.655	4544
307.704	3316
307.710	3309
307.765	3642
307.795	4495
307.819	5348
307.874	9429
307.885	9410
307.929	8275
307.975	7023
307.984	7170
308.038	9561
308.065	11159
308.093	18726
308.148	38549
308.156	43271
308.202	68155
308.246	85220
308.257	82768
308.312	43527
308.336	28262
308.366	20097
308.421	11330
308.426	10693
308.475	7922
308.517	6652
308.530	6403
308.585	5766
308.607	5483
308.639	5437
308.694	6092
308.697	6134
308.748	8357
308.787	11727
308.803	12185
308.857	10695
308.877	9576
308.912	8681
308.967	9007
308.967	9013
309.021	12610
309.058	15909
309.076	19228
309.130	30482
309.148	34740
309.185	60153
309.238	103899
309.239	104290
309.293	116347
309.328	111035
309.348	97559
309.402	52084
309.418	40402
309.457	29476
309.508	19183
309.511	19072
309.566	19513
309.598	20691
309.620	24815
309.674	36990
309.688	40294
309.729	39504
309.778	34326
309.783	33488
309.837	22063
309.868	16130
309.892	14922
309.946	13166
309.959	12995
310.001	13663
310.049	14471
310.055	14088
310.109	9751
310.139	7192
310.163	6281
310.218	4968
310.229	4701
310.272	4463
310.319	4430
310.326	4344
310.381	3667
310.409	3282
310.435	3223
310.489	3208
310.499	3216
310.543	3070
310.589	2989
310.598	3034
310.652	3324
310.679	3372
310.706	3326
310.760	3078
310.769	3076
310.814	3431
310.859	3595
310.868	3454
310.923	2705
310.948	2388
310.977	2671
311.031	3262
311.038	3339
311.085	3174
311.128	2874
311.139	2984
311.193	3688
311.218	3930
311.247	3562
311.301	2956
311.308	2871
311.356	3201
311.398	3593
311.410	3528
311.464	3004
311.488	2787
311.518	2876
311.572	3129
311.578	3144
311.626	3043
311.668	2914
311.680	3050
311.734	3726
311.758	4008
311.788	3997
311.842	3900
311.847	3890
311.896	4865
311.937	5687
311.950	5484
312.004	4582
312.027	4160
312.058	4139
312.112	4129
312.117	4124
312.165	4056
312.207	3994
312.297	4442
312.386	3932
312.476	3028
312.566	3215
312.656	3607
312.745	2872
312.835	3816
312.925	3213
313.015	3659
313.104	3723
313.194	3789
313.284	3514
313.374	3659
313.463	4306
313.553	4309
313.643	4142
313.732	4454
313.822	4440
313.912	5019
314.001	5734
314.091	5870
314.180	5627
314.270	5932
314.360	4744
314.449	5526
314.539	4530
314.628	5217
314.718	5571
314.808	5813
314.897	5407
314.987	5543
315.076	5204
315.166	6830
315.255	5770
315.345	5156
315.434	5156
315.524	5737
315.613	4918
315.703	6978
315.792	14200
315.881	45857
315.971	14309
316.060	7288
316.150	8401
316.239	8968
316.328	5953
316.418	5403
316.507	5437
316.597	7135
316.686	6414
316.775	7199
316.865	8813
316.954	5090
317.043	5174
317.133	4013
317.222	4464
317.311	4340
317.400	2205
317.490	4785
317.579	4443
317.668	5460
317.757	7468
317.847	22983
317.936	70956
318.025	21648
318.114	16327
318.203	9465
318.293	6286
318.382	9686
318.471	10658
318.560	13088
318.649	23718
318.738	7154
318.828	4943
318.917	4718
319.006	5366
319.095	9644
319.184	26263
319.273	11650
319.362	5273
319.451	3323
319.540	3062
319.629	4961
319.718	5802
319.807	5710
319.896	9807
319.985	32466
320.074	9739
320.163	4969
320.252	5559
320.341	7073
320.430	5706
320.519	5728
320.608	5179
320.697	6842
320.786	5892
320.875	7918
320.964	7409
321.053	8533
321.142	9788
321.230	11728
321.319	11784
321.408	16688
321.497	12783
321.586	11128
321.675	12026
321.764	12034
321.852	9903
321.941	10974
322.030	8878
322.119	11248
322.207	15450
322.296	17450
322.385	14746
322.474	15973
322.562	18945
322.651	14950
322.740	10873
322.829	11521
322.917	11654
323.006	8427
323.095	8019
323.183	7073
323.272	7920
323.361	10286
323.449	21982
323.538	10052
323.626	16787
323.715	10571
323.804	6696
323.892	15196
323.981	7645
324.069	5963
324.158	9701
324.246	8720
324.335	5733
324.424	6035
324.512	3790
324.601	5454
324.689	6357
324.778	11802
324.866	7291
324.954	4634
325.043	3673
325.131	5513
325.220	7594
325.308	9053
325.397	5816
325.485	5826
325.574	3322
325.662	3741
325.750	3385
325.839	4407
325.927	3739
326.015	5197
326.104	3678
326.192	5021
326.280	3635
326.369	4070
326.457	3723
326.545	4257
326.634	2651
326.722	4062
326.810	3782
326.898	5049
326.987	4384
327.075	5214
327.163	5423
327.251	4242
327.340	5328
327.428	9402
327.516	5756
327.604	5877
327.692	4616
327.781	4319
327.869	4711
327.957	3502
328.045	3914
328.133	3642
328.221	2621
328.309	3632
328.397	2995
328.485	4502
328.574	5750
328.662	10533
328.750	7394
328.838	5340
328.926	4625
329.014	3598
329.102	4065
329.190	7842
329.278	4677
329.366	3003
329.454	3179
329.542	3987
329.630	3159
329.718	4309
329.806	3781
329.893	4010
329.981	3802
330.069	5469
330.157	15596
330.245	42018
330.333	20540
330.421	5761
330.509	3839
330.597	7702
330.684	5817
330.772	4246
330.860	5843
330.948	8440
331.036	4416
331.123	3403
331.211	2960
331.299	3690
331.387	6968
331.475	9818
331.562	3933
331.650	3994
331.738	3197
331.825	4517
331.913	3220
332.001	3432
332.089	3651
332.176	6136
332.264	8624
332.352	7327
332.439	4472
332.527	4852
332.614	2899
332.702	4445
332.790	3400
332.877	6147
332.965	11735
333.052	7018
333.140	7575
333.228	17838
333.315	6238
333.403	5670
333.490	8190
333.578	8768
333.665	24598
333.753	11952
333.840	5513
333.928	6369
334.015	9553
334.103	14408
334.190	37061
334.278	17428
334.365	17173
334.452	16590
334.540	12689
334.627	12921
334.715	15611
334.802	23164
334.889	50669
334.977	55140
335.064	26159
335.151	15029
335.239	11509
335.326	11051
335.413	22915
335.501	28428
335.588	10457
335.675	12312
335.762	13488
335.850	21001
335.937	25944
336.024	43829
336.111	76961
336.199	54337
336.286	25324
336.373	15499
336.460	10024
336.547	9418
336.635	7604
336.722	6977
336.809	5841
336.896	6369
336.983	12456
337.070	25680
337.157	35590
337.245	21896
337.332	14015
337.419	5913
337.506	5485
337.593	6013
337.680	11553
337.767	27288
337.854	8501
337.941	9773
338.028	8613
338.115	4903
338.202	6948
338.289	8342
338.376	17040
338.463	8838
338.550	15948
338.637	16315
338.724	6288
338.811	8247
338.898	4114
338.984	3923
339.071	3936
339.158	4862
339.245	5668
339.332	4837
339.419	6316
339.506	6642
339.593	2751
339.679	4511
339.766	3439
339.853	3818
339.940	4916
340.027	3348
340.113	2642
340.200	4025
340.287	3684
340.374	3686
340.460	4441
340.547	3485
340.634	3367
340.720	7279
340.807	4746
340.894	5035
340.980	4046
341.067	3418
341.154	3128
341.240	4283
341.327	4323
341.414	3900
341.500	3239
341.587	4753
341.674	3550
341.760	4491
341.847	4812
341.933	4027
342.020	2557
342.106	3933
342.193	3209
342.279	4022
342.366	4141
342.452	3923
342.539	2812
342.625	5262
342.712	6398
342.798	5036
342.885	3376
342.971	3014
343.058	2896
343.144	3367
343.230	3224
343.317	4080
343.403	3117
343.490	3052
343.576	2429
343.662	3210
343.749	3092
343.835	3405
343.921	4889
344.008	17945
344.094	39023
344.180	10031
344.267	4729
344.353	10742
344.439	11551
344.525	5675
344.612	8680
344.698	10444
344.784	5441
344.870	4566
344.957	2821
345.043	4585
345.129	2843
345.215	4772
345.301	3433
345.387	3644
345.474	2366
345.560	3077
345.646	3043
345.732	3684
345.818	2608
345.904	3947
345.990	3509
346.076	3662
346.162	3765
346.249	3967
346.335	3187
346.421	3620
346.507	6301
346.593	15631
346.679	4125
346.765	5050
346.851	6526
346.937	5272
347.023	4950
347.108	4735
347.194	3635
347.280	3841
347.366	5911
347.452	12986
347.538	26354
347.624	17034
347.710	11376
347.796	4772
347.882	3600
347.967	4492
348.053	4637
348.139	4648
348.225	3122
348.311	3143
348.397	3483
348.482	5210
348.568	4020
348.654	6019
348.740	15534
348.825	17291
348.911	8905
348.997	11655
349.083	19532
349.168	5165
349.254	3677
349.340	4629
349.425	3140
349.511	4213
349.597	3671
349.682	4590
349.768	9925
349.854	7116
349.939	4106
350.025	2900
350.110	4367
350.196	3678
350.282	2286
350.367	4690
350.453	4386
350.538	3998
350.624	3531
350.709	5195
350.795	2413
350.880	2579
350.966	4590
351.051	3896
351.137	3417
351.222	3291
351.308	4322
351.393	8380
351.479	3347
351.564	3562
351.649	3093
351.735	3837
351.820	2829
351.906	3257
351.991	4050
352.076	6106
352.162	7615
352.247	3985
352.332	3129
352.418	3998
352.503	3510
352.588	11229
352.673	7144
352.759	4128
352.844	2828
352.929	3459
353.014	2227
353.100	4101
353.185	3659
353.270	3783
353.355	4101
353.441	4012
353.526	3522
353.611	3762
353.696	3512
353.781	4372
353.866	2140
353.952	3791
354.037	3579
354.122	6101
354.207	4604
354.292	4183
354.377	3340
354.462	3802
354.547	3519
354.632	4772
354.717	4498
354.802	4287
354.887	3178
354.972	4259
355.057	2855
355.142	3564
355.227	3221
355.312	3587
355.397	3484
355.482	7203
355.567	4065
355.652	5118
355.737	5109
355.822	10601
355.907	8126
355.991	4705
356.076	2984
356.161	4216
356.246	3298
356.331	4676
356.416	4495
356.501	20168
356.585	18949
356.670	4466
356.755	5991
356.840	5295
356.924	12729
357.009	40392
357.094	15375
357.179	5930
357.263	4371
357.348	5558
357.433	4275
357.517	4120
357.602	4261
357.687	4678
357.771	4769
357.856	6866
357.941	6146
358.025	10926
358.110	43208
358.195	20490
358.279	5438
358.364	5476
358.448	7778
358.533	16565
358.617	11686
358.702	14034
358.787	6362
358.871	5441
358.956	4545
359.040	3323
359.125	3708
359.209	4097
359.294	5378
359.378	8317
359.462	6198
359.547	5163
359.631	3470
359.716	3205
359.800	3577
359.885	6079
359.969	2383
360.053	3868
360.138	3343
360.222	5000
360.306	4685
360.391	4795
360.475	4553
360.559	8306
360.644	7732
360.728	5857
360.812	12108
360.896	28449
360.981	11976
361.065	7296
361.149	5284
361.233	5219
361.318	4248
361.402	5061
361.486	5346
361.570	4725
361.654	4945
361.739	7065
361.823	18699
361.907	31055
361.991	9617
362.075	9819
362.159	12106
362.243	21338
362.327	45846
362.411	64873
362.495	27130
362.580	13636
362.664	12681
362.748	15155
362.832	23060
362.916	45080
363.000	116844
363.084	162387
363.168	82239
363.252	25077
363.336	14360
363.420	13677
363.503	29005
363.587	30747
363.671	9779
363.755	9168
363.839	11253
363.923	10768
364.007	13724
364.091	19475
364.175	30874
364.258	86143
364.342	145853
364.426	231450
364.510	122637
364.594	42575
364.677	22655
364.761	32849
364.845	23108
364.929	10709
365.013	7556
365.096	7521
365.180	7298
365.264	13680
365.347	40789
365.431	19243
365.515	6807
365.598	4917
365.682	6069
365.766	7741
365.849	7839
365.933	5882
366.017	7895
366.100	6199
366.184	4609
366.267	5596
366.351	4551
366.435	3968
366.518	3972
366.602	5636
366.685	5344
366.769	5630
366.852	7096
366.936	7347
367.019	5836
367.103	5146
367.186	9583
367.270	5539
367.353	4382
367.436	5842
367.520	5285
367.603	6204
367.687	3875
367.770	5717
367.853	6005
367.937	11252
368.020	13470
368.104	5005
368.187	5839
368.270	5945
368.353	5343
368.437	6677
368.520	11975
368.603	8316
368.687	8079
368.770	14145
368.853	4453
368.936	7788
369.020	7615
369.103	4247
369.186	3465
369.269	4297
369.352	4837
369.436	5430
369.519	5026
369.602	2896
369.685	5632
369.768	3351
369.851	4296
369.934	4324
370.018	4194
370.101	3163
370.184	7237
370.267	6018
370.350	5673
370.433	7449
370.516	16893
370.599	32220
370.682	11338
370.765	10549
370.848	11313
370.931	18090
371.014	10848
371.097	4164
371.180	4789
371.263	6209
371.346	3530
371.429	4929
371.511	4545
371.594	5121
371.677	8217
371.760	10156
371.843	6766
371.926	19523
372.009	39794
372.091	19026
372.174	11663
372.257	24580
372.340	12736
372.423	11893
372.505	13858
372.588	7070
372.671	8906
372.754	18052
372.836	11450
372.919	14737
373.002	24736
373.085	8537
373.167	7651
373.250	10484
373.332	19203
373.415	25903
373.498	49103
373.580	22215
373.663	46692
373.746	52856
373.828	10929
373.911	8292
373.993	7727
374.076	23838
374.159	21247
374.241	8690
374.324	15003
374.406	12780
374.489	16192
374.571	42974
374.654	17627
374.736	11445
374.819	26951
374.901	38379
374.983	38449
375.066	10524
375.148	7499
375.231	21658
375.313	35040
375.395	15236
375.478	6698
375.560	7139
375.643	6649
375.725	11238
375.807	32696
375.890	28199
375.972	11218
376.054	9505
376.136	11756
376.219	7237
376.301	11647
376.383	26517
376.465	10810
376.548	6679
376.630	9078
376.712	22600
376.794	9961
376.877	5107
376.959	2741
377.041	5107
377.123	7655
377.205	8771
377.287	3397
377.369	5169
377.452	4068
377.534	4926
377.616	3388
377.698	4980
377.780	3187
377.862	3803
377.944	5212
378.026	3371
378.108	5227
378.190	4125
378.272	4244
378.354	4284
378.436	2598
378.518	5056
378.600	9837
378.682	8519
378.764	10552
378.846	10238
378.928	4747
379.010	5354
379.091	4301
379.173	4578
379.255	3112
379.337	4103
379.419	5760
379.501	15374
379.583	7586
379.664	5709
379.746	4491
379.828	12094
379.910	12179
379.991	11899
380.073	4034
380.155	5515
380.237	4080
380.318	3732
380.400	3780
380.482	5759
380.564	4887
380.645	5513
380.727	4931
380.809	5976
380.890	4558
380.972	3257
381.053	4305
381.135	6242
381.217	5589
381.298	12640
381.380	7236
381.461	7917
381.543	20152
381.624	26204
381.706	7305
381.787	7194
381.869	6931
381.951	11808
382.032	38876
382.113	27648
382.195	8002
382.276	9543
382.358	10920
382.439	24753
382.521	27807
382.602	42009
382.684	24476
382.765	41038
382.846	79234
382.928	166476
383.009	96733
383.090	74911
383.172	219363
383.253	289840
383.334	99389
383.416	54832
383.497	35777
383.578	34610
383.659	64040
383.741	194747
383.822	382865
383.903	206949
383.984	60921
384.066	50075
384.147	31129
384.228	16405
384.309	13067
384.390	12701
384.471	11008
384.553	11033
384.634	10152
384.715	10390
384.796	8646
384.877	9691
384.958	15182
385.039	14335
385.120	9229
385.201	9329
385.282	8972
385.363	10827
385.444	10739
385.525	11560
385.606	22026
385.687	19827
385.768	10753
385.849	9988
385.930	24151
386.011	37314
386.092	14215
386.173	9592
386.254	8560
386.335	9546
386.416	7660
386.496	11134
386.577	13774
386.658	10327
386.739	7717
386.820	10317
386.901	8853
386.981	10761
387.062	9916
387.143	10534
387.224	16463
387.304	17962
387.385	12690
387.466	11572
387.547	14144
387.627	12652
387.708	13705
387.789	25629
387.869	28094
387.950	14869
388.031	9149
388.111	8199
388.192	14035
388.273	16938
388.353	10851
388.434	7871
388.514	8008
388.595	22739
388.676	25513
388.756	12954
388.837	11394
388.917	8605
388.998	5265
389.078	6942
389.159	5773
389.239	4707
389.320	7393
389.400	5294
389.480	9544
389.561	14109
389.641	9795
389.722	6962
389.802	6367
389.883	9543
389.963	17777
390.043	12339
390.124	7149
390.204	7124
390.284	11951
390.365	10174
390.445	18379
390.525	41526
390.605	34974
390.686	9980
390.766	7490
390.846	7856
390.927	5133
391.007	5296
391.087	7536
391.167	6519
391.247	4896
391.328	8784
391.408	9702
391.488	8700
391.568	5775
391.648	6804
391.728	7348
391.808	8764
391.888	8353
391.969	12133
392.049	14957
392.129	13689
392.209	12290
392.289	21221
392.369	16465
392.449	18903
392.529	15525
392.609	16312
392.689	17474
392.769	27498
392.849	29661
392.929	34956
393.009	52739
393.089	65674
393.169	109248
393.248	258592
393.328	514792
393.408	514404
393.488	258891
393.568	109397
393.648	57300
393.728	36617
393.807	25370
393.887	22516
393.967	18350
394.047	16372
394.127	14545
394.206	18579
394.286	40213
394.366	156333
394.446	172404
394.525	44085
394.605	15216
394.685	13660
394.764	21774
394.844	36153
394.924	34587
395.003	14479
395.083	8975
395.163	9042
395.242	8488
395.322	8795
395.402	6125
395.481	10500
395.561	15888
395.640	45630
395.720	68584
395.799	53572
395.879	30960
395.958	21871
396.038	57076
396.117	200840
396.197	223680
396.276	74900
396.356	31304
396.435	28854
396.515	30450
396.594	41999
396.673	84486
396.753	234093
396.832	471223
396.912	361845
396.991	127240
397.070	52506
397.150	30144
397.229	26522
397.308	45872
397.388	88875
397.467	43627
397.546	15692
397.625	9029
397.705	11685
397.784	8693
397.863	7882
397.942	7752
398.022	8176
398.101	11987
398.180	28234
398.259	16147
398.338	8857
398.417	5505
398.497	5531
398.576	6177
398.655	4539
398.734	4584
398.813	5711
398.892	10532
398.971	29080
399.050	14439
399.129	4681
399.208	4362
399.287	5072
399.366	3867
399.445	4788
399.524	4300
399.603	3217
399.682	4492
399.761	8889
399.840	28178
399.919	23756
399.998	5638
400.077	2752
400.156	2656
400.235	5862
400.313	2849
400.392	4018
400.471	6804
400.550	8660
400.629	3794
400.708	4526
400.786	3277
400.865	7125
400.944	7517
401.023	7049
401.102	2443
401.180	3538
401.259	2709
401.338	3804
401.416	3239
401.495	3433
401.574	3610
401.652	3026
401.731	3750
401.810	2540
401.888	3231
401.967	3012
402.046	2580
402.124	3884
402.203	3077
402.281	3891
402.360	3641
402.438	9386
402.517	5890
402.596	3941
402.674	3106
402.753	3600
402.831	3279
402.910	4639
402.988	5133
403.066	12891
403.145	9088
403.223	6508
403.302	9791
403.380	9473
403.459	8078
403.537	5642
403.615	4088
403.694	2948
403.772	4085
403.850	4261
403.929	3340
404.007	3125
404.085	4630
404.164	3471
404.242	5418
404.320	14752
404.398	43359
404.477	39776
404.555	33487
404.633	31235
404.711	31596
404.789	23548
404.868	6096
404.946	2553
405.024	2959
405.102	3075
405.180	1529
405.258	1777
405.336	3006
405.415	2390
405.493	3954
405.571	4091
405.649	2547
405.727	2050
405.805	4826
405.883	3683
405.961	4262
406.039	3758
406.117	1343
406.195	3898
406.273	5332
406.351	19784
406.429	13093
406.507	4809
406.585	1764
406.663	2897
406.740	1950
406.818	2191
406.896	1425
406.974	3474
407.052	1942
407.130	12021
407.208	15842
407.285	5221
407.363	2140
407.441	3110
407.519	1858
407.596	3520
407.674	6991
407.752	26890
407.830	24077
407.907	7408
407.985	1867
408.063	2409
408.141	1758
408.218	4365
408.296	2189
408.373	3500
408.451	3294
408.529	3075
408.606	2341
408.684	3402
408.762	3390
408.839	3834
408.917	3853
408.994	4307
409.072	3918
409.149	6158
409.227	9080
409.304	12754
409.382	15684
409.459	17336
409.537	21196
409.614	21445
409.692	16672
409.769	16362
409.846	21767
409.924	27864
410.001	20905
410.079	15982
410.156	12192
410.233	10106
410.311	6498
410.388	6332
410.465	5742
410.543	5093
410.620	6102
410.697	5831
410.775	4885
410.852	3881
410.929	5674
411.006	6780
411.083	4569
411.161	5640
411.238	5961
411.315	5359
411.392	4209
411.469	5532
411.547	3731
411.624	1626
411.701	2380
411.778	4043
411.855	3747
411.932	2981
412.009	1915
412.086	3212
412.163	3427
412.240	3133
412.317	3831
412.394	3745
412.471	3055
412.548	2511
412.625	1970
412.702	2805
412.779	3741
412.856	3668
412.933	2040
413.010	2914
413.087	3126
413.164	5155
413.241	6819
413.318	2685
413.395	3003
413.471	2836
413.548	2164
413.625	2821
413.702	1375
413.779	2989
413.855	1901
413.932	1428
414.009	930
414.086	2462
414.162	2071
414.239	2822
414.316	4606
414.393	10022
414.469	2695
414.546	1984
414.623	1846
414.699	2395
414.776	1541
414.853	2033
414.929	2366
415.006	2105
415.082	2771
415.159	2737
415.236	1762
415.312	2742
415.389	2244
415.465	1787
415.542	1581
415.618	1599
415.695	1928
415.771	1705
415.848	1980
415.924	2772
416.000	1659
416.077	2915
416.153	842
416.230	1286
416.306	1679
416.383	2076
416.459	2576
416.535	1675
416.612	524
416.688	1872
416.764	2023
416.841	1619
416.917	1098
416.993	2117
417.069	1908
417.146	2395
417.222	2090
417.298	2219
417.374	2020
417.451	2146
417.527	570
417.603	1576
417.679	1309
417.755	3019
417.831	991
417.908	1497
417.984	1351
418.060	1866
418.136	2319
418.212	2440
418.288	1471
418.364	2592
418.440	1553
418.516	3493
418.592	2797
418.668	4296
418.744	3428
418.820	3345
418.896	1862
418.972	991
419.048	2116
419.124	3198
419.200	1846
419.276	2514
419.352	1498
419.428	3095
419.504	1000
419.579	2248
419.655	2357
419.731	3243
419.807	3271
419.883	4923
419.959	3664
420.034	3693
420.110	4316
420.186	7478
420.262	7232
420.337	4407
420.413	3130
420.489	4306
420.565	5137
420.640	4443
420.716	5820
420.792	4350
420.867	5714
420.943	5656
421.019	5415
421.094	6567
421.170	7131
421.245	6522
421.321	7501
421.397	8797
421.472	13246
421.548	21972
421.623	18070
421.699	13676
421.774	15522
421.850	16134
421.925	19814
422.001	23261
422.076	28873
422.152	35604
422.227	46081
422.302	67013
422.378	95919
422.453	154057
422.529	239868
422.604	268704
422.679	202418
422.755	257587
422.830	255526
422.905	167709
422.981	108161
423.056	75108
423.131	54759
423.207	40413
423.282	32580
423.357	27454
423.432	22751
423.508	19296
423.583	17165
423.658	15085
423.733	13474
423.808	12978
423.883	12123
423.959	11886
424.034	13724
424.109	13364
424.184	9780
424.259	7905
424.334	6948
424.409	5879
424.484	6251
424.559	5367
424.634	4691
424.709	5406
424.784	5131
424.859	4712
424.934	3535
425.009	6393
425.084	7931
425.159	4798
425.234	4190
425.309	3896
425.384	4157
425.459	3757
425.534	3013
425.609	3500
425.683	2815
425.758	2993
425.833	2305
425.908	3897
425.983	3791
426.058	7043
426.132	4171
426.207	2843
426.282	4583
426.357	3151
426.431	1957
426.506	3031
426.581	2398
426.655	3324
426.730	2072
426.805	2747
426.879	1922
426.954	2659
427.029	2078
427.103	7501
427.178	15160
427.253	7821
427.327	3181
427.402	3142
427.476	4586
427.551	3478
427.625	2913
427.700	2570
427.774	1573
427.849	3648
427.923	1137
427.998	2576
428.072	3323
428.147	8620
428.221	35464
428.296	107597
428.370	59528
428.444	10701
428.519	5517
428.593	8167
428.667	7438
428.742	9647
428.816	15666
428.890	67117
428.965	102241
429.039	29296
429.113	10480
429.188	4649
429.262	2812
429.336	3082
429.410	4652
429.485	4449
429.559	6794
429.633	6069
429.707	4498
429.781	13065
429.855	66249
429.930	95394
430.004	33193
430.078	34931
430.152	52839
430.226	136899
430.300	133896
430.374	33516
430.448	11122
430.522	12921
430.596	27061
430.670	27832
430.744	85212
430.818	94254
430.892	18211
430.966	3776
431.040	2650
431.114	2411
431.188	1433
431.262	2095
431.336	1420
431.410	4357
431.484	6105
431.557	5354
431.631	2073
431.705	6156
431.779	26144
431.853	101138
431.927	68310
432.000	10425
432.074	2590
432.148	2657
432.222	1440
432.295	1336
432.369	450
432.443	905
432.516	6434
432.590	15492
432.664	6215
432.737	1212
432.811	230
432.885	727
432.958	1338
433.032	912
433.106	239
433.179	1224
433.253	195
433.326	239
433.400	233
433.473	1053
433.547	391
433.620	747
433.694	603
433.767	2121
433.841	618
433.914	938
433.988	234
434.061	1173
434.134	1679
434.208	732
434.281	103
434.355	-42
434.428	677
434.501	956
434.575	511
434.648	512
434.721	555
434.795	596
434.868	148
434.941	980
435.014	694
435.088	2094
435.161	1601
435.234	2814
435.307	3333
435.381	4620
435.454	5578
435.527	8465
435.600	10520
435.673	9859
435.746	6908
435.819	5700
435.892	4191
435.966	3427
436.039	2304
436.112	2893
436.185	1144
436.258	1123
436.331	600
436.404	1157
436.477	211
436.550	1689
436.623	1187
436.696	1064
436.769	170
436.842	816
436.915	448
436.987	1339
437.060	319
437.133	-38
437.206	-91
437.279	1547
437.352	-344
437.425	600
437.498	545
437.570	1735
437.643	-185
437.716	278
437.789	-412
437.861	565
437.934	1328
438.007	1443
438.080	-481
438.152	1273
438.225	1285
438.298	8711
438.370	22792
438.443	8669
438.516	1149
438.588	457
438.661	-148
438.734	386
438.806	-201
438.879	1034
438.951	283
439.024	635
439.096	1183
439.169	655
439.241	78
439.314	435
439.386	758
439.459	1914
439.531	715
439.604	1081
439.676	711
439.749	397
439.821	23
439.893	602
439.966	82
440.038	394
440.110	341
440.183	409
440.255	-238
440.327	1625
440.400	3427
440.472	13124
440.544	6648
440.617	1170
440.689	2024
440.761	1392
440.833	1024
440.905	1672
440.978	458
441.050	264
441.122	1119
441.194	691
441.266	730
441.338	1056
441.411	637
441.483	3531
441.555	4892
441.627	1435
441.699	1198
441.771	2509
441.843	735
441.915	1478
441.987	1271
442.059	1752
442.131	2440
442.203	3673
442.275	4601
442.347	8044
442.419	17795
442.491	81064
442.563	162819
442.635	65408
442.706	17380
442.778	10085
442.850	3521
442.922	2871
442.994	3747
443.066	4641
443.137	5639
443.209	8170
443.281	11882
443.353	27499
443.425	91177
443.496	236450
443.568	245493
443.640	104649
443.711	23133
443.783	9808
443.855	5794
443.926	5212
443.998	3193
444.070	4123
444.141	2870
444.213	3949
444.285	3291
444.356	3078
444.428	2936
444.499	2479
444.571	1479
444.642	2558
444.714	2147
444.785	3079
444.857	3642
444.928	6924
445.000	5592
445.071	8330
445.143	8711
445.214	12906
445.285	22482
445.357	57429
445.428	162946
445.500	271159
445.571	228508
445.642	148121
445.714	50385
445.785	21628
445.856	8469
445.928	5060
445.999	3894
446.070	3056
446.141	3112
446.213	2982
446.284	1499
446.355	1928
446.426	1493
446.497	857
446.569	1464
446.640	1684
446.711	750
446.782	1594
446.853	495
446.924	1152
446.995	329
447.066	613
447.138	1146
447.209	1203
447.280	-785
447.351	314
447.422	-95
447.493	803
447.564	57
447.635	-19
447.706	-387
447.777	144
447.847	-170
447.918	-556
447.989	144
448.060	718
448.131	2485
448.202	2167
448.273	-258
448.344	218
448.414	-262
448.485	-126
448.556	16
448.627	-384
448.698	673
448.768	308
448.839	-385
448.910	1390
448.981	393
449.051	602
449.122	-338
449.193	88
449.263	-571
449.334	-37
449.405	-616
449.475	-123
449.546	467
449.616	1582
449.687	1736
449.758	639
449.828	-355
449.899	-287
449.969	-1226
450.040	-106
450.110	-57
450.181	416
450.251	168
450.322	280
450.392	92
450.463	625
450.533	-792
450.604	265
450.674	-465
450.744	501
450.815	514
450.885	891
450.955	313
451.026	-70
451.096	187
451.166	474
451.237	2220
451.307	5948
451.377	2150
451.447	575
451.518	-522
451.588	419
451.658	-49
451.728	900
451.799	4601
451.869	5545
451.939	163
452.009	-39
452.079	59
452.149	887
452.219	1075
452.289	6907
452.360	3802
452.430	1736
452.500	1707
452.570	3042
452.640	7959
452.710	22033
452.780	24231
452.850	12011
452.920	4195
452.990	3385
453.060	1351
453.129	767
453.199	1113
453.269	7184
453.339	13056
453.409	18976
453.479	20092
453.549	29540
453.619	30971
453.688	10348
453.758	1511
453.828	1074
453.898	-162
453.968	315
454.037	-687
454.087	-59
454.107	185
454.168	-170
454.177	-237
454.247	-495
454.249	-467
454.316	-108
454.330	12
454.386	385
454.411	996
454.456	1811
454.492	2882
454.525	3830
454.574	1891
454.595	1048
454.655	259
454.665	143
454.734	174
454.736	236
454.804	1650
454.817	2332
454.873	4472
454.898	4830
454.943	5390
454.979	3042
455.013	1011
455.060	634
455.082	579
455.141	855
455.152	842
455.221	4183
455.222	4288
455.291	8356
455.303	8543
455.360	8962
455.384	12748
455.430	19492
455.465	14034
455.499	8616
455.546	6142
455.569	4893
455.627	2796
455.638	2445
455.707	515
455.708	525
455.777	596
455.789	546
455.846	148
455.869	234
455.916	503
455.950	438
455.985	323
456.031	760
456.054	894
456.112	317
456.124	247
456.193	502
456.193	488
456.262	430
456.274	631
456.332	1532
456.355	1076
456.401	111
456.436	528
456.470	838
456.516	602
456.540	519
456.597	308
456.609	271
456.678	88
456.678	78
456.747	500
456.759	469
456.817	166
456.840	41
456.886	-141
456.920	334
456.955	810
457.001	1059
457.024	1221
457.082	695
457.093	565
457.162	1860
457.163	1876
457.232	1425
457.243	1424
457.301	1501
457.324	1261
457.370	1040
457.405	1501
457.439	1941
457.485	1390
457.508	1076
457.566	2216
457.577	2496
457.646	3126
457.647	3156
457.715	7933
457.727	9068
457.784	15358
457.808	21670
457.853	30997
457.889	36966
457.922	38710
457.969	24972
457.991	22528
458.050	24561
458.060	25028
458.129	47377
458.130	47979
458.198	57830
458.211	51959
458.267	26332
458.292	18315
458.336	10771
458.372	10596
458.405	13677
458.453	19275
458.474	23553
458.533	43892
458.543	45777
458.611	81988
458.614	82203
458.680	56892
458.694	46062
458.749	18307
458.775	12977
458.818	7128
458.855	5474
458.887	4448
458.936	3364
458.955	3005
459.016	2475
459.024	2391
459.093	2884
459.097	2852
459.162	2140
459.177	2083
459.230	2003
459.257	1970
459.299	2009
459.338	2459
459.368	2393
459.418	1609
459.437	1442
459.499	1694
459.505	1765
459.574	1218
459.579	1282
459.643	1642
459.659	1609
459.711	1652
459.740	1679
459.780	1851
459.820	2051
459.849	1911
459.900	1950
459.917	2088
459.981	2554
459.986	2547
460.054	2326
460.061	2254
460.123	1720
460.141	1697
460.191	2067
460.222	2384
460.260	2384
460.302	2668
460.328	2728
460.382	2209
460.397	2171
460.462	2080
460.465	2147
460.534	4177
460.543	4447
460.602	11914
460.623	14904
460.671	21571
460.703	30283
460.739	31368
460.783	26124
460.808	22503
460.864	5869
460.876	3991
460.944	2198
460.945	2179
461.013	2255
461.024	2249
461.081	1746
461.104	1708
461.150	1747
461.184	1449
461.218	1671
461.264	2231
461.286	2228
461.345	2193
461.355	2200
461.423	2377
461.425	2375
461.491	2161
461.505	2270
461.559	4758
461.585	5539
461.628	8039
461.665	11025
461.696	11888
461.745	13597
461.764	11801
461.825	3662
461.832	3562
461.901	2770
461.905	2812
461.969	1957
461.985	1594
462.037	2383
462.065	3057
462.105	3389
462.145	3560
462.173	4576
462.225	6486
462.241	6970
462.305	9075
462.310	8796
462.378	5225
462.385	4593
462.446	2688
462.465	2381
462.514	2818
462.545	3089
462.582	2969
462.625	2773
462.650	2657
462.705	2585
462.718	2648
462.785	2989
462.786	3017
462.854	4376
462.865	4666
462.922	5268
462.945	5363
462.990	4201
463.025	3235
463.058	2799
463.104	2321
463.126	2374
463.184	2585
463.194	2688
463.262	2737
463.264	2771
463.330	3915
463.344	4028
463.398	4070
463.424	4206
463.466	3619
463.504	3056
463.533	3363
463.583	3673
463.601	3633
463.663	3636
463.669	3706
463.737	4703
463.743	4749
463.805	7010
463.823	7787
463.873	11344
463.903	13522
463.940	14159
463.982	14908
464.008	12034
464.062	5339
464.076	5089
464.142	3761
464.144	3750
464.211	3403
464.221	3393
464.279	3177
464.301	3032
464.347	3343
464.381	3585
464.414	3907
464.461	4349
464.482	4489
464.540	4945
464.550	4753
464.617	3106
464.620	3049
464.685	2707
464.699	2602
464.753	3571
464.779	4094
464.820	4435
464.859	4732
464.888	4804
464.938	5007
464.956	5295
465.018	5966
465.023	5895
465.091	4998
465.098	4897
465.158	4364
465.177	4211
465.226	4726
465.257	5002
465.293	4575
465.336	4160
465.361	4762
465.416	5831
465.428	6147
465.495	8109
465.496	8160
465.563	13713
465.575	14733
465.631	17676
465.654	18917
465.698	12171
465.734	6200
465.765	5013
465.813	3230
465.833	3229
465.893	3507
465.900	3615
465.968	4529
465.972	4582
466.035	4183
466.052	4047
466.102	3783
466.131	3657
466.170	3540
466.210	3293
466.237	3527
466.290	4150
466.304	4293
466.369	4746
466.372	4752
466.439	4704
466.449	4680
466.506	5270
466.528	5492
466.573	7887
466.607	9669
466.641	13813
466.687	19511
466.708	21110
466.766	25478
466.775	23382
466.842	7261
466.845	6480
466.909	5574
466.925	5384
466.977	5336
467.004	5285
467.044	5599
467.083	5934
467.111	6083
467.163	6287
467.178	6433
467.242	7002
467.245	6993
467.312	6524
467.321	6450
467.379	6353
467.400	6299
467.446	7386
467.480	8150
467.559	7115
467.638	6404
467.717	5167
467.796	6519
467.875	5598
467.955	6935
468.034	11367
468.113	24117
468.192	35024
468.271	12083
468.350	11145
468.429	14433
468.508	14552
468.588	11372
468.667	10861
468.746	13229
468.825	10746
468.904	6435
468.983	7316
469.062	9684
469.141	12152
469.220	6522
469.299	5622
469.378	6109
469.456	6707
469.535	7025
469.614	6550
469.693	6551
469.772	9188
469.851	12658
469.930	7381
470.009	5659
470.088	5682
470.166	6982
470.245	8643
470.324	10034
470.403	8246
470.482	6732
470.560	5848
470.639	6199
470.718	5499
470.797	6437
470.875	7701
470.954	11997
471.033	12650
471.111	5298
471.190	4777
471.269	5538
471.347	5637
471.426	5193
471.505	6449
471.583	5943
471.662	6124
471.740	5820
471.819	5040
471.898	5496
471.976	5262
472.055	5417
472.133	6406
472.212	8306
472.290	8076
472.369	5602
472.447	5401
472.526	5068
472.604	5270
472.683	5657
472.761	4969
472.839	4958
472.918	5634
472.996	6111
473.075	6081
473.153	6493
473.231	6217
473.310	6497
473.388	5855
473.466	5864
473.545	5331
473.623	5787
473.701	5860
473.780	6946
473.858	6386
473.936	11837
474.014	6811
474.093	5519
474.171	9241
474.249	12225
474.327	7738
474.405	5503
474.484	4873
474.562	5187
474.640	4873
474.718	5125
474.796	5635
474.874	5916
474.952	4326
475.030	4949
475.108	5116
475.187	5032
475.265	5680
475.343	6057
475.421	5652
475.499	6124
475.577	6563
475.655	7938
475.733	13659
475.811	23182
475.889	20150
475.966	13705
476.044	5193
476.122	5737
476.200	5436
476.278	5360
476.356	4992
476.434	5705
476.512	5428
476.590	6250
476.667	6319
476.745	5397
476.823	5382
476.901	5759
476.979	6367
477.056	5854
477.134	6108
477.212	8649
477.290	6318
477.367	4849
477.445	5147
477.523	5380
477.601	4810
477.678	5711
477.756	6561
477.834	7258
477.911	4899
477.989	6298
478.066	4493
478.144	6426
478.222	5654
478.299	5635
478.377	6594
478.454	6284
478.532	3978
478.609	5317
478.687	5912
478.764	4871
478.842	6385
478.919	5029
478.997	5340
479.074	4906
479.152	5970
479.229	8539
479.307	5509
479.384	5211
479.461	4609
479.539	5925
479.616	5434
479.694	5162
479.771	6373
479.848	5722
479.926	7204
480.003	9129
480.080	5438
480.157	5157
480.235	3967
480.312	5336
480.389	5538
480.467	8996
480.544	11898
480.621	7620
480.698	6343
480.775	6912
480.853	6889
480.930	6296
481.007	6201
481.084	8032
481.161	8122
481.238	8619
481.315	6071
481.392	6392
481.470	7514
481.547	9465
481.624	6698
481.701	6781
481.778	5562
481.855	7434
481.932	10292
482.009	15319
482.086	9757
482.163	7666
482.240	7466
482.317	8799
482.393	7379
482.470	7415
482.547	7421
482.624	6490
482.701	7051
482.778	6380
482.855	5626
482.932	5847
483.009	5451
483.085	7539
483.162	7523
483.239	9111
483.316	6412
483.393	7150
483.469	6809
483.546	7877
483.623	7761
483.699	6320
483.776	6611
483.853	7491
483.930	9001
484.006	20627
484.083	34165
484.160	14868
484.236	15686
484.313	13084
484.389	9922
484.466	11644
484.543	10360
484.619	13157
484.696	15029
484.772	12918
484.849	12924
484.925	10323
485.002	10467
485.078	10416
485.155	9880
485.231	9442
485.308	9059
485.384	9634
485.461	12220
485.537	18467
485.614	21585
485.690	10603
485.766	8416
485.843	8280
485.919	8487
485.995	9214
486.072	7302
486.148	8551
486.224	8722
486.301	9048
486.377	9789
486.453	7587
486.530	9201
486.606	12339
486.682	12399
486.758	17793
486.835	18199
486.911	13948
486.987	23365
487.063	16951
487.139	13076
487.215	13143
487.292	12763
487.368	12800
487.444	13921
487.520	18148
487.596	23436
487.672	52659
487.748	156402
487.824	244261
487.900	97394
487.976	27631
488.052	16474
488.128	15820
488.204	11373
488.280	12295
488.356	13418
488.432	24075
488.508	34158
488.584	11328
488.660	7462
488.736	8183
488.812	7020
488.888	8893
488.964	8814
489.039	10367
489.115	12076
489.191	10874
489.267	8648
489.343	9709
489.418	6800
489.494	7752
489.570	5827
489.646	10196
489.722	7365
489.797	9117
489.873	12542
489.949	26278
490.024	20778
490.100	7963
490.176	6267
490.251	7791
490.327	7591
490.403	6498
490.478	6242
490.554	6722
490.629	6267
490.705	6622
490.781	7027
490.856	7565
490.932	7029
491.007	7442
491.083	6490
491.158	6877
491.234	10448
491.309	21241
491.385	19811
491.460	7495
491.536	8452
491.611	6032
491.686	6497
491.762	6754
491.837	8719
491.913	12380
491.988	14556
492.063	13550
492.139	13507
492.214	9386
492.289	5991
492.365	5417
492.440	5991
492.515	7315
492.590	6591
492.666	6490
492.741	7749
492.816	12961
492.891	7534
492.967	6550
493.042	6530
493.117	5670
493.192	6943
493.267	11008
493.342	29582
493.418	40107
493.493	8965
493.568	7356
493.643	4872
493.718	7322
493.793	9259
493.868	7895
493.943	5509
494.018	6357
494.093	5447
494.168	6963
494.243	5684
494.318	5258
494.393	5924
494.468	5929
494.543	5574
494.618	6018
494.693	6603
494.768	5001
494.842	6447
494.917	5529
494.992	5182
495.067	5229
495.142	5223
495.217	5197
495.292	6173
495.366	6910
495.441	6331
495.516	7652
495.591	7027
495.665	11699
495.740	18546
495.815	12851
495.890	7665
495.964	6586
496.039	8211
496.114	7566
496.188	8154
496.263	9127
496.338	6818
496.412	7626
496.487	8409
496.561	7389
496.636	7647
496.710	7941
496.785	8518
496.860	7802
496.934	7514
497.009	7618
497.083	6900
497.158	7848
497.232	7969
497.307	10299
497.381	8630
497.455	10687
497.530	12508
497.604	9359
497.679	9730
497.753	13686
497.827	15098
497.902	12011
497.976	16322
498.050	41643
498.125	149894
498.199	140250
498.273	17589
498.348	10627
498.422	9853
498.496	9726
498.570	10431
498.645	10445
498.719	8300
498.793	11721
498.867	16717
498.941	22608
499.016	65266
499.090	166011
499.164	54477
499.238	10208
499.312	7691
499.386	9789
499.460	9043
499.534	10564
499.609	11484
499.683	15880
499.757	14353
499.831	30955
499.905	114494
499.979	102376
500.053	17835
500.127	13812
500.201	7998
500.275	8749
500.349	8166
500.422	9263
500.496	10712
500.570	18619
500.644	62821
500.718	118637
500.792	26199
500.866	10097
500.940	10996
501.013	9617
501.087	8083
501.161	10594
501.235	14723
501.309	41510
501.382	112307
501.456	88692
501.530	20820
501.603	37786
501.677	14046
501.751	5709
501.825	9604
501.898	17411
501.972	46410
502.046	26714
502.119	8619
502.193	20356
502.266	48368
502.340	23542
502.413	23196
502.487	42447
502.561	22843
502.634	8903
502.708	6668
502.781	5115
502.855	6596
502.928	5174
503.002	6253
503.075	5076
503.149	6936
503.222	7186
503.295	6478
503.369	8078
503.442	12136
503.516	36156
503.589	85077
503.662	54397
503.736	19966
503.809	42367
503.882	36792
503.956	57420
504.029	62098
504.102	92882
504.175	139413
504.249	62426
504.322	24827
504.395	15697
504.468	10485
504.542	9573
504.615	6878
504.688	6945
504.761	4034
504.834	8514
504.907	5240
504.980	6101
505.053	5024
505.127	3157
505.200	9157
505.273	7940
505.346	5630
505.419	4435
505.492	6253
505.565	4243
505.638	4993
505.711	5009
505.784	3789
505.857	4737
505.930	6115
506.003	3909
506.076	5655
506.149	5587
506.221	5881
506.294	7615
506.367	17623
506.440	60181
506.513	29325
506.586	8036
506.659	4770
506.731	4354
506.804	4228
506.877	5393
506.950	4855
507.022	5367
507.095	5133
507.168	6474
507.241	4890
507.313	3541
507.386	2418
507.459	5715
507.531	3656
507.604	3385
507.677	4942
507.749	2047
507.822	5874
507.894	6297
507.967	7770
508.040	5573
508.112	5808
508.185	5306
508.257	3319
508.330	7118
508.402	3786
508.475	6006
508.547	6537
508.620	5882
508.692	8728
508.765	6250
508.837	3819
508.909	4687
508.982	4998
509.054	4958
509.127	3887
509.199	4038
509.271	3639
509.344	3950
509.416	4849
509.488	4944
509.560	4605
509.633	4502
509.705	4989
509.777	4867
509.849	5960
509.922	4353
509.994	5640
510.066	6514
510.138	3809
510.210	9337
510.283	6234
510.355	6486
510.427	6021
510.499	6212
510.571	5486
510.643	4134
510.715	6314
510.787	3913
510.859	6629
510.931	5374
511.003	5755
511.076	7540
511.148	4259
511.219	5232
511.291	10337
511.363	11007
511.435	6288
511.507	5187
511.579	6769
511.651	6153
511.723	4890
511.795	4590
511.867	3470
511.939	7420
512.010	11904
512.082	9577
512.154	3998
512.226	4610
512.298	6960
512.369	7896
512.441	7217
512.513	6101
512.585	3522
512.656	6140
512.728	4913
512.800	4540
512.871	6057
512.943	5617
513.015	4030
513.086	5039
513.158	5264
513.230	4276
513.301	5199
513.373	6250
513.444	4249
513.516	5269
513.588	4136
513.659	4302
513.731	4942
513.802	4221
513.874	7173
513.945	6047
514.016	4717
514.088	4452
514.159	3932
514.231	5668
514.302	6688
514.374	6863
514.445	5355
514.516	15183
514.588	9176
514.659	6645
514.730	11423
514.802	8473
514.873	2858
514.944	7735
515.016	5897
515.087	5925
515.158	8060
515.229	13028
515.301	5607
515.372	6558
515.443	4589
515.514	5762
515.585	4186
515.656	5272
515.728	4991
515.799	4554
515.870	5082
515.941	5454
516.012	4941
516.083	7588
516.154	5181
516.225	7961
516.296	8202
516.367	6794
516.438	8589
516.509	10331
516.580	14486
516.651	48972
516.722	155981
516.793	80150
516.864	15364
516.935	16305
517.006	16941
517.077	21716
517.148	45688
517.219	193748
517.289	334053
517.360	106273
517.431	30276
517.502	10514
517.573	11141
517.643	10097
517.714	9643
517.785	11197
517.856	10856
517.926	15792
517.997	16156
518.068	17226
518.138	24064
518.209	35496
518.280	131282
518.350	445035
518.421	220754
518.492	33987
518.562	23907
518.633	26399
518.703	32353
518.774	72226
518.845	179627
518.915	184026
518.986	58808
519.056	26108
519.127	20086
519.197	25224
519.268	63459
519.338	42795
519.408	12245
519.479	9494
519.549	7643
519.620	8567
519.690	6960
519.760	6841
519.831	5986
519.901	6232
519.971	6170
520.042	7502
520.112	7184
520.182	6878
520.253	6296
520.323	5634
520.393	5980
520.463	8996
520.534	4444
520.604	12936
520.674	8134
520.744	7405
520.814	9177
520.885	11650
520.955	22675
521.025	76616
521.095	28616
521.165	8259
521.235	5040
521.305	6029
521.375	6229
521.445	6529
521.515	5131
521.585	7137
521.655	3636
521.725	6621
521.795	7146
521.865	4007
521.935	10594
522.005	7537
522.075	5246
522.145	6903
522.215	5788
522.285	9044
522.355	10851
522.424	21699
522.494	17442
522.564	7712
522.634	7090
522.704	11627
522.774	6574
522.843	6624
522.913	5360
522.983	5456
523.053	4532
523.122	5717
523.192	4947
523.262	7393
523.331	7147
523.401	6698
523.471	4547
523.540	5898
523.610	3809
523.680	5744
523.749	5555
523.819	7397
523.888	6964
523.958	5390
524.027	6574
524.097	6552
524.166	6211
524.236	4532
524.305	7314
524.375	4897
524.444	4331
524.514	7711
524.583	5882
524.653	7540
524.722	8037
524.791	4582
524.861	7326
524.930	5394
524.999	5072
525.069	7530
525.138	6855
525.207	8318
525.277	6359
525.346	6861
525.415	8760
525.484	7862
525.554	9257
525.623	11235
525.692	11665
525.761	13259
525.830	15922
525.900	20727
525.969	31343
526.038	60084
526.107	122717
526.176	363312
526.245	314590
526.314	89821
526.383	173698
526.452	265378
526.522	350380
526.591	366165
526.660	62719
526.729	31945
526.797	34143
526.867	49201
526.935	153312
527.004	530980
527.073	385682
527.142	52788
527.211	21065
527.280	15059
527.349	10465
527.418	8821
527.487	9442
527.555	6139
527.624	6302
527.693	5360
527.762	7702
527.831	4613
527.899	6504
527.968	6479
528.037	4399
528.106	6902
528.174	7829
528.243	7588
528.312	9760
528.380	8603
528.449	5239
528.518	5696
528.586	3895
528.655	6791
528.723	4931
528.792	4924
528.861	5121
528.929	4447
528.998	6701
529.066	6321
529.135	7903
529.203	7599
529.272	9277
529.340	11770
529.409	11886
529.477	10178
529.545	11300
529.614	13317
529.682	11760
529.751	15728
529.819	17194
529.887	15695
529.956	14115
530.024	14225
530.092	12298
530.161	14111
530.229	12867
530.297	14146
530.365	13584
530.434	13927
530.502	13859
530.570	13997
530.638	11090
530.707	11519
530.775	12348
530.843	11026
530.911	13093
530.979	13178
531.047	13754
531.115	13980
531.183	12162
531.252	12887
531.320	11575
531.388	10690
531.456	14235
531.524	11462
531.592	13573
531.660	16859
531.728	13286
531.796	12697
531.864	14115
531.932	14431
532.000	12471
532.067	14816
532.135	15803
532.203	17479
532.271	16869
532.339	19807
532.407	18618
532.475	17905
532.542	15904
532.610	16468
532.678	15640
532.746	22570
532.814	32153
532.881	21415
532.949	16776
533.017	16426
533.084	14891
533.152	15275
533.220	14290
533.287	13675
533.355	14700
533.423	17100
533.490	15116
533.558	15702
533.625	15004
533.693	14703
533.761	14893
533.828	15469
533.896	13833
533.963	19271
534.031	19617
534.098	20705
534.166	19443
534.233	17909
534.300	19519
534.368	19188
534.435	18132
534.503	18252
534.570	19300
534.637	19462
534.705	20734
534.772	25581
534.840	40317
534.907	162853
534.974	227769
535.041	37269
535.109	19256
535.176	15670
535.243	15967
535.310	16204
535.378	13952
535.445	14565
535.512	14206
535.579	14219
535.646	12240
535.714	13247
535.781	14548
535.848	16004
535.915	16743
535.982	17778
536.049	17146
536.116	16985
536.183	14136
536.250	13698
536.317	13433
536.384	14296
536.451	13968
536.518	14849
536.585	12295
536.652	15142
536.719	14870
536.786	12139
536.853	12384
536.920	15309
536.987	14452
537.053	12968
537.120	19403
537.187	19868
537.254	13483
537.321	13081
537.388	14424
537.454	12517
537.521	12850
537.588	12191
537.654	13664
537.721	13409
537.788	14332
537.855	12671
537.921	14004
537.988	13195
538.055	12939
538.121	12011
538.188	11231
538.254	11653
538.321	12870
538.388	12938
538.454	13491
538.521	13881
538.587	12656
538.654	12751
538.720	11857
538.787	11961
538.853	13018
538.920	12941
538.986	12407
539.053	12024
539.119	12525
539.185	12186
539.252	13589
539.318	12654
539.385	15457
539.451	13092
539.517	13868
539.583	13798
539.650	14816
539.716	18519
539.782	13025
539.849	11888
539.915	12098
539.981	11638
540.047	11722
540.114	12987
540.180	12866
540.246	11374
540.312	13743
540.378	14411
540.444	15672
540.510	14123
540.576	18134
540.643	13686
540.709	10861
540.775	12542
540.841	11811
540.907	12882
540.973	15174
541.039	13188
541.105	13534
541.171	12210
541.237	12491
541.303	13473
541.369	14457
541.435	13168
541.500	13506
541.566	10910
541.632	10938
541.698	11487
541.764	13328
541.830	11358
541.896	11112
541.961	12629
542.027	11693
542.093	12221
542.159	14232
542.224	11269
542.290	12989
542.356	12894
542.421	13554
542.487	12738
542.553	10526
542.618	12695
542.684	11323
542.750	11488
542.815	13715
542.881	13362
542.947	16777
543.012	18066
543.078	11740
543.143	10784
543.209	12282
543.274	11733
543.340	12383
543.405	13876
543.471	14877
543.536	12902
543.602	13103
543.667	11779
543.732	13490
543.798	12699
543.863	13137
543.928	12876
543.994	11684
544.059	13354
544.124	13179
544.190	12943
544.255	13772
544.320	13414
544.386	12217
544.451	13850
544.516	13058
544.581	13198
544.646	16668
544.712	19854
544.777	14845
544.842	15437
544.907	16020
544.972	14586
545.037	15443
545.102	16265
545.168	15316
545.233	16925
545.298	17402
545.363	17113
545.428	17819
545.493	19400
545.558	18223
545.623	18950
545.688	17064
545.753	18380
545.818	17724
545.883	19071
545.947	18888
546.012	21904
546.077	20926
546.142	21805
546.207	20983
546.272	24122
546.337	23580
546.401	24014
546.466	24794
546.531	25336
546.596	28268
546.661	27337
546.725	30449
546.790	31140
546.855	34192
546.919	36229
546.984	41366
547.049	43780
547.113	49920
547.178	55042
547.243	60946
547.307	69780
547.372	78914
547.436	81023
547.501	82889
547.565	89298
547.630	82323
547.695	79089
547.759	82307
547.823	81278
547.888	80686
547.952	83625
548.017	84632
548.081	91350
548.146	90107
548.210	93093
548.274	96131
548.339	97285
548.403	87500
548.468	81175
548.532	81323
548.596	83195
548.660	83658
548.725	91453
548.789	98500
548.853	99012
548.917	91605
548.982	93039
549.046	83526
549.110	73515
549.174	75247
549.238	86428
549.303	94461
549.367	100377
549.431	93972
549.495	89109
549.559	86544
549.623	99372
549.687	112853
549.751	110235
549.815	129873
549.879	134045
549.943	127602
550.007	133458
550.071	131461
550.135	119695
550.199	110775
550.263	109769
550.327	104980
550.391	107474
550.455	117450
550.519	124963
550.582	132962
550.646	149449
550.710	152448
550.774	148631
550.838	150556
550.901	153725
550.965	165477
551.029	169297
551.093	183264
551.156	197072
551.220	223133
551.284	233565
551.347	188713
551.411	179336
551.475	172188
551.538	163540
551.602	152903
551.666	143513
551.729	133679
551.793	132100
551.856	128909
551.920	126944
551.983	126438
552.047	123672
552.110	124475
552.174	127020
552.237	130013
552.301	122180
552.364	114826
552.428	111922
552.491	114587
552.554	118006
552.618	116824
552.681	120598
552.745	115471
552.808	123716
552.871	135069
552.934	125318
552.998	120275
553.061	116400
553.124	111729
553.187	109220
553.251	113244
553.314	114512
553.377	115076
553.440	126684
553.503	153145
553.567	177345
553.630	129729
553.693	122512
553.756	124498
553.819	119418
553.882	113999
553.945	115987
554.008	116314
554.071	115350
554.134	118137
554.197	109945
554.260	107199
554.323	109758
554.386	109467
554.449	115444
554.512	116019
554.575	110370
554.638	110534
554.701	107528
554.764	107364
554.827	104089
554.889	100067
554.952	94268
555.015	92099
555.078	95152
555.141	95829
555.203	93236
555.266	91243
555.329	92336
555.391	89080
555.454	87204
555.517	85472
555.580	81372
555.642	79083
555.705	76604
555.768	77040
555.830	75060
555.893	70697
555.955	71028
556.018	66520
556.080	67738
556.143	69704
556.206	68604
556.268	67741
556.330	66789
556.393	65020
556.455	62874
556.518	63015
556.580	61712
556.643	57077
556.705	56412
556.767	53776
556.830	55460
556.892	54294
556.955	52843
557.017	52329
557.079	52143
557.142	49982
557.204	50004
557.266	49761
557.328	47985
557.391	43816
557.453	42760
557.515	43448
557.577	44467
557.639	43307
557.701	44010
557.764	43332
557.826	43928
557.888	46786
557.950	46095
558.012	51125
558.074	62276
558.136	124150
558.198	292156
558.260	125080
558.322	49100
558.384	48113
558.446	48912
558.508	52801
558.570	58106
558.632	67386
558.694	83970
558.756	134764
558.818	355706
558.880	766331
558.942	344384
559.003	309267
559.065	166361
559.127	61377
559.189	58498
559.251	63786
559.312	89944
559.374	196477
559.436	569921
559.498	327805
559.559	74410
559.621	58472
559.683	66771
559.744	105425
559.806	302165
559.868	466839
559.929	117762
559.991	66758
560.052	99564
560.114	270808
560.176	194587
560.237	156713
560.299	265047
560.360	69931
560.422	29045
560.483	25403
560.545	23364
560.606	22547
560.667	22972
560.729	20167
560.790	21610
560.852	18795
560.913	19608
560.974	18973
561.036	18787
561.097	18553
561.158	17928
561.220	18022
561.281	17280
561.342	17161
561.403	18468
561.465	17580
561.526	19448
561.587	20071
561.648	16688
561.709	16402
561.771	16995
561.832	15824
561.893	16254
561.954	15756
562.015	15286
562.076	14433
562.137	15680
562.198	14891
562.259	14964
562.320	14347
562.381	14885
562.442	15399
562.503	15270
562.564	14651
562.625	14404
562.686	14145
562.747	14291
562.808	14956
562.869	14544
562.930	15627
562.991	15133
563.051	13674
563.112	13729
563.173	13426
563.234	13001
563.294	13469
563.355	12903
563.416	14407
563.477	13359
563.537	12237
563.598	13882
563.659	14851
563.720	13833
563.780	12985
563.841	12880
563.901	13636
563.962	13936
564.023	12345
564.083	13303
564.144	13038
564.204	12572
564.265	13226
564.325	14314
564.386	18560
564.446	17113
564.507	11465
564.567	12150
564.628	11808
564.688	11782
564.749	11608
564.809	13309
564.869	14224
564.930	12246
564.990	11186
565.050	11389
565.111	11923
565.171	12772
565.231	12435
565.292	11956
565.352	10883
565.412	12008
565.472	11764
565.532	12176
565.593	11431
565.653	11177
565.713	12028
565.773	12558
565.833	12387
565.893	13041
565.953	10921
566.013	11562
566.074	12174
566.134	13602
566.194	16216
566.254	15053
566.314	12401
566.374	11386
566.434	12061
566.494	12465
566.554	11434
566.614	11762
566.673	11713
566.733	12754
566.793	13368
566.853	12572
566.913	13323
566.973	12144
567.033	13772
567.092	12206
567.152	12404
567.212	12614
567.272	13033
567.331	14072
567.391	13297
567.451	14202
567.511	15342
567.570	15486
567.630	13071
567.690	12775
567.749	12372
567.809	12385
567.868	12778
567.928	12546
567.988	13316
568.047	13699
568.107	13382
568.166	15940
568.226	17763
568.285	22537
568.345	21834
568.404	19200
568.464	17618
568.523	16543
568.582	17097
568.642	17055
568.701	18287
568.761	22736
568.820	27856
568.879	28718
568.939	26085
568.998	21834
569.057	17278
569.116	16083
569.176	15471
569.235	14055
569.294	13347
569.353	12930
569.413	12906
569.472	12577
569.531	11292
569.590	11194
569.649	11920
569.708	10948
569.767	12575
569.827	12318
569.886	10801
569.945	11014
570.004	12264
570.063	11156
570.122	10357
570.181	12666
570.240	11947
570.299	12417
570.358	11306
570.417	11083
570.475	10647
570.534	12192
570.593	11504
570.652	12072
570.711	11637
570.770	11365
570.829	11670
570.887	11273
570.946	11119
571.005	11493
571.064	11739
571.122	12059
571.181	12405
571.240	10936
571.299	10548
571.357	11048
571.416	10623
571.475	11567
571.533	11941
571.592	11953
571.650	12252
571.709	11701
571.768	12198
571.826	13105
571.885	11499
571.943	11536
572.002	10945
572.060	10974
572.119	9930
572.177	10843
572.236	10020
572.294	10914
572.352	11108
572.411	11359
572.469	10254
572.528	9856
572.586	8979
572.644	10654
572.703	10205
572.761	10050
572.819	9795
572.877	10469
572.936	9237
572.994	9887
573.052	9341
573.110	9894
573.169	9880
573.227	9839
573.285	10352
573.343	9766
573.401	10040
573.459	10715
573.517	9906
573.576	10783
573.634	9193
573.692	9286
573.750	10146
573.808	9469
573.866	9846
573.924	11479
573.982	10293
574.040	9534
574.098	10043
574.155	10261
574.213	9735
574.271	9387
574.329	9412
574.387	9180
574.445	8367
574.503	8895
574.560	7700
574.618	9499
574.676	8043
574.734	8224
574.792	8794
574.849	9804
574.907	7334
574.965	7411
575.022	6241
575.080	7809
575.138	7512
575.195	7784
575.253	7438
575.311	8063
575.368	6834
575.426	6893
575.483	7659
575.541	8537
575.598	7453
575.656	7718
575.713	7804
575.771	7740
575.828	7546
575.886	7079
575.943	8130
576.001	7291
576.058	6479
576.115	7180
576.173	7656
576.230	8584
576.287	7719
576.345	8728
576.402	7781
576.459	7606
576.517	7073
576.574	7856
576.631	8540
576.688	7698
576.746	6892
576.803	7010
576.860	7192
576.917	7460
576.974	6409
577.031	7666
577.089	7262
577.146	7770
577.203	7170
577.260	8182
577.317	7746
577.374	7947
577.431	7167
577.488	7372
577.545	6789
577.602	7119
577.659	7551
577.716	8206
577.773	8489
577.830	7474
577.886	7682
577.943	7302
578.000	6212
578.057	8207
578.114	8448
578.171	10513
578.227	13209
578.284	12875
578.341	10122
578.398	9310
578.454	8798
578.511	8281
578.568	8656
578.625	7816
578.681	7371
578.738	6967
578.794	7262
578.851	7693
578.908	7563
578.964	7614
579.021	7788
579.077	7346
579.134	6916
579.190	6494
579.247	8268
579.303	6726
579.360	6422
579.416	6972
579.473	6716
579.529	7664
579.586	6977
579.642	7490
579.698	7841
579.755	8950
579.811	8664
579.867	8483
579.924	8406
579.980	8468
580.036	9652
580.093	12777
580.149	17790
580.205	20579
580.261	15827
580.317	12612
580.374	9840
580.430	9805
580.486	8836
580.542	9329
580.598	9006
580.619	8866
580.654	8632
580.692	8318
580.710	8172
580.765	8917
580.767	8949
580.823	8701
580.838	8741
580.879	8853
580.911	8530
580.935	8331
580.984	8291
580.991	8289
581.047	9106
581.057	9132
581.103	9325
581.130	9677
581.159	10024
581.203	10824
581.215	11055
581.270	9861
581.276	9869
581.326	9981
581.349	9626
581.382	9156
581.422	9162
581.438	9152
581.494	8145
581.494	8141
581.550	8344
581.567	8499
581.606	8802
581.640	8393
581.661	8165
581.713	8769
581.717	8816
581.773	8180
581.786	8263
581.829	8632
581.859	9200
581.885	9733
581.932	8877
581.940	8697
581.996	8873
582.004	8948
582.052	9372
582.077	9306
582.107	9276
582.150	8653
582.163	8477
582.219	9221
582.223	9181
582.274	8780
582.296	9141
582.330	9631
582.368	8851
582.386	8591
582.441	9439
582.441	9441
582.497	8691
582.514	9093
582.552	10096
582.587	9847
582.608	9647
582.659	9397
582.663	9380
582.719	9951
582.732	9975
582.774	10037
582.805	9840
582.830	9805
582.877	10338
582.885	10401
582.941	10136
582.950	10394
582.996	11775
583.023	12185
583.052	12702
583.095	14060
583.107	14457
583.162	15408
583.168	15526
583.218	16001
583.240	15003
583.273	13603
583.313	12359
583.328	11911
583.384	11372
583.385	11320
583.439	9706
583.458	9833
583.494	10110
583.531	9743
583.549	9661
583.603	10308
583.605	10321
583.660	9472
583.676	9473
583.715	9522
583.748	9828
583.770	10035
583.820	9224
583.825	9145
583.881	10548
583.893	10335
583.936	9374
583.965	8988
583.991	8869
584.038	9575
584.046	9691
584.101	9950
584.110	9871
584.156	9327
584.183	9471
584.211	9692
584.255	10362
584.266	10533
584.321	10547
584.328	10508
584.376	10090
584.400	10332
584.431	10875
584.472	11091
584.486	10965
584.541	10979
584.545	10958
584.596	11157
584.617	11199
584.651	11347
584.689	11548
584.706	11581
584.761	12575
584.762	12578
584.816	12653
584.834	12616
584.871	12864
584.906	12953
584.926	12750
584.978	12774
584.980	12815
585.035	14721
585.051	15024
585.090	15302
585.123	15985
585.145	16613
585.195	17578
585.200	17749
585.254	19978
585.267	20807
585.309	23442
585.340	25374
585.364	26902
585.412	29498
585.419	29984
585.473	36298
585.484	38060
585.528	48553
585.556	59476
585.583	80167
585.628	128369
585.637	145408
585.692	290345
585.700	316373
585.747	413167
585.772	363081
585.801	241654
585.845	96340
585.856	76168
585.910	38746
585.917	35183
585.965	27083
585.989	24288
586.019	22485
586.061	20623
586.074	20227
586.128	19215
586.133	19105
586.183	18343
586.205	18109
586.237	17940
586.277	17732
586.292	17544
586.346	16772
586.349	16755
586.401	16732
586.421	16442
586.455	16367
586.493	17431
586.509	17966
586.564	18124
586.565	18203
586.618	23030
586.637	23310
586.672	22871
586.709	22307
586.727	22176
586.781	23517
586.781	23525
586.835	20349
586.853	19484
586.889	18184
586.925	17206
586.944	17053
586.996	16787
586.998	16789
587.052	16714
587.068	16864
587.106	17426
587.140	17185
587.161	17187
587.212	17904
587.215	17936
587.269	18432
587.284	18436
587.323	18745
587.356	19034
587.377	19099
587.427	19898
587.431	20001
587.485	21015
587.499	21068
587.539	21123
587.571	21509
587.593	21951
587.643	23454
587.648	23621
587.702	24730
587.715	24840
587.755	25056
587.786	25837
587.810	26318
587.858	26388
587.864	26506
587.917	28182
587.930	28454
587.971	29889
588.001	31166
588.025	32001
588.073	33486
588.079	33781
588.133	36208
588.145	36805
588.187	39625
588.217	41566
588.241	43460
588.288	47337
588.295	48064
588.348	54297
588.360	55555
588.402	60833
588.431	64529
588.456	68532
588.503	77398
588.510	79105
588.564	92675
588.575	95822
588.617	112457
588.646	124956
588.671	140754
588.718	174611
588.725	184235
588.778	265255
588.789	284146
588.832	409223
588.861	502875
588.886	590983
588.932	752887
588.939	757826
588.993	725046
589.004	719429
589.047	636016
589.075	552292
589.100	451880
589.147	277422
589.154	265930
589.207	195005
589.218	181942
589.261	169322
589.290	163665
589.314	170649
589.361	188596
589.368	197331
589.421	275771
589.433	294550
589.475	434186
589.504	540984
589.528	605817
589.576	698422
589.582	687075
589.635	545851
589.647	508468
589.689	329195
589.718	213731
589.742	176136
589.790	112807
589.795	109706
589.849	83868
589.861	78191
589.902	69124
589.932	62214
589.955	57985
590.004	49328
590.009	48960
590.062	45391
590.075	44378
590.115	41430
590.146	39365
590.168	38415
590.218	35747
590.222	35696
590.275	34884
590.289	34640
590.328	34125
590.360	33590
590.381	33130
590.431	31751
590.435	31752
590.488	31485
590.503	31167
590.541	30413
590.574	29951
590.594	30009
590.645	30197
590.647	30243
590.700	30186
590.716	30108
590.753	30632
590.787	31042
590.806	30844
590.859	30201
590.859	30251
590.912	30642
590.930	30647
590.965	30660
591.001	30674
591.018	30660
591.071	30456
591.072	30406
591.124	29816
591.143	29503
591.177	29367
591.214	29272
591.230	29352
591.283	29328
591.285	29283
591.336	29303
591.356	29260
591.389	29021
591.427	28598
591.442	28656
591.495	28770
591.498	28740
591.547	28748
591.569	28588
591.600	28863
591.640	29279
591.653	29336
591.706	29262
591.711	29219
591.759	30122
591.782	30499
591.811	31135
591.853	31941
591.864	32020
591.917	32079
591.924	32039
591.969	31389
591.995	30933
592.022	31685
592.066	32820
592.075	32842
592.127	32621
592.137	32535
592.180	33352
592.208	33766
592.233	33582
592.279	33133
592.285	33374
592.338	34950
592.350	35264
592.390	34523
592.421	33846
592.443	34326
592.491	35222
592.495	35340
592.548	36184
592.562	36358
592.600	35722
592.633	35076
592.653	35144
592.704	34998
592.705	35209
592.775	35774
592.846	36967
592.916	38035
592.987	37390
593.058	38621
593.128	38638
593.199	38198
593.270	38385
593.341	38936
593.411	39713
593.482	42163
593.553	42466
593.623	42581
593.694	44308
593.764	45771
593.835	43388
593.906	45349
593.976	45537
594.047	45850
594.117	50459
594.188	50774
594.258	48919
594.329	49351
594.399	51501
594.470	52743
594.540	54269
594.611	54016
594.681	53730
594.751	54210
594.822	55791
594.892	59206
594.963	59718
595.033	61274
595.103	62927
595.174	64362
595.244	67326
595.314	69415
595.384	68508
595.455	71065
595.525	71711
595.595	75722
595.665	75295
595.736	73555
595.806	75014
595.876	75806
595.946	76998
596.016	80672
596.087	81287
596.157	82105
596.227	82528
596.297	87411
596.367	93022
596.437	97820
596.507	98471
596.577	100431
596.647	102686
596.717	105558
596.787	107457
596.857	107772
596.927	107141
596.997	109305
597.067	111321
597.137	112460
597.207	113841
597.277	114488
597.347	107495
597.417	106247
597.487	106360
597.557	108088
597.626	111940
597.696	113277
597.766	112327
597.836	106700
597.906	100342
597.975	100192
598.045	100135
598.115	105749
598.185	111563
598.254	126523
598.324	136779
598.394	138410
598.464	135472
598.533	131822
598.603	122400
598.672	119793
598.742	122601
598.812	123385
598.881	126680
598.951	126182
599.020	127077
599.090	132495
599.159	135226
599.229	129571
599.299	128390
599.368	132658
599.437	130222
599.507	121815
599.576	117158
599.646	116441
599.715	115552
599.785	113530
599.854	110667
599.924	109485
599.993	109474
600.062	111809
600.132	114941
600.201	120027
600.270	139262
600.340	147289
600.409	145368
600.478	143335
600.547	146789
600.617	134869
600.686	108749
600.755	101908
600.824	96734
600.894	96000
600.963	95468
601.032	96031
601.101	92639
601.170	89543
601.239	87944
601.308	89776
601.378	88859
601.447	91685
601.516	91115
601.585	93344
601.654	94087
601.723	96251
601.792	99094
601.861	103426
601.930	107088
601.999	109499
602.068	107113
602.137	107759
602.206	110759
602.275	113107
602.343	111712
602.412	112593
602.481	114459
602.550	117263
602.619	118382
602.688	119451
602.756	119944
602.825	123917
602.894	125119
602.963	126753
603.032	128366
603.100	129429
603.169	126713
603.238	130816
603.307	128651
603.375	130353
603.444	133022
603.513	131509
603.581	135032
603.650	137617
603.719	127283
603.787	127858
603.856	133148
603.924	136556
603.993	140237
604.061	146613
604.130	151610
604.198	154342
604.267	158034
604.335	160303
604.404	162159
604.472	165169
604.541	165904
604.609	169934
604.678	171593
604.746	172700
604.815	178025
604.883	178236
604.951	176601
605.020	181770
605.088	180488
605.156	180501
605.225	182261
605.293	183186
605.361	182836
605.429	185473
605.498	188910
605.566	193739
605.634	202773
605.702	207077
605.771	212234
605.839	213625
605.907	208488
605.975	204949
606.043	200068
606.111	197031
606.180	200871
606.248	197886
606.316	196394
606.384	196851
606.452	188286
606.520	186981
606.588	190761
606.656	193844
606.724	190376
606.792	178690
606.860	162030
606.928	147024
606.996	139929
607.064	138705
607.132	143655
607.200	151301
607.267	156812
607.335	159228
607.403	163556
607.471	158549
607.539	151396
607.607	153617
607.674	135667
607.742	135252
607.810	133358
607.878	131904
607.946	136891
608.013	144651
608.081	145907
608.149	147820
608.216	153708
608.284	158519
608.352	157123
608.419	155110
608.487	153450
608.555	149999
608.622	155392
608.690	165126
608.757	181106
608.825	184517
608.893	179148
608.960	166967
609.028	160193
609.095	163071
609.163	161649
609.230	141856
609.298	131494
609.365	138333
609.432	151874
609.500	163201
609.567	186714
609.635	215661
609.702	224810
609.769	212778
609.837	162386
609.904	143784
609.971	146148
610.039	161692
610.106	202839
610.173	346844
610.241	677924
610.308	426057
610.375	189347
610.442	157959
610.509	149599
610.577	148913
610.644	150245
610.711	155761
610.778	160666
610.845	166964
610.912	176535
610.980	184605
611.047	188740
611.114	182451
611.181	174674
611.248	174232
611.315	185740
611.382	190578
611.449	196323
611.516	199748
611.583	196276
611.650	198532
611.717	201373
611.784	204998
611.851	209932
611.918	223055
611.984	252145
612.051	328940
612.118	547137
612.185	1015430
612.252	740538
612.319	325523
612.386	267575
612.452	241299
612.519	228439
612.586	223576
612.653	222618
612.719	232860
612.786	223122
612.853	207428
612.919	202010
612.986	203600
613.053	193099
613.120	181847
613.186	173198
613.253	177976
613.319	176081
613.386	179516
613.453	179456
613.519	181444
613.586	178539
613.652	180145
613.719	178615
613.785	182292
613.852	183080
613.918	182237
613.985	185827
614.051	196815
614.118	206088
614.184	195501
614.250	182415
614.317	186508
614.383	182279
614.449	186982
614.516	186590
614.582	187433
614.648	182433
614.715	181537
614.781	176923
614.847	179174
614.914	175789
614.980	171139
615.046	171472
615.112	177813
615.179	177568
615.245	181259
615.311	179686
615.377	183378
615.443	184108
615.509	185811
615.575	190830
615.642	187694
615.708	193155
615.774	202824
615.840	212711
615.906	225165
615.972	263109
616.038	363690
616.104	634608
616.170	1100785
616.236	958417
616.302	436787
616.368	333709
616.434	254670
616.500	231449
616.565	249616
616.631	297782
616.697	261433
616.763	263706
616.829	366218
616.895	594174
616.961	574883
617.026	291301
617.092	209694
617.158	193373
617.224	186610
617.289	173574
617.355	166302
617.421	162406
617.487	162505
617.552	153208
617.618	153130
617.684	152344
617.749	154107
617.815	145875
617.880	144669
617.946	143181
618.012	145465
618.077	148355
618.143	143954
618.208	143415
618.274	155238
618.339	154324
618.405	126945
618.470	129122
618.536	127224
618.601	126147
618.667	116381
618.732	111027
618.798	109987
618.863	108711
618.928	108037
618.994	108951
619.059	108698
619.124	109310
619.190	108965
619.255	107634
619.320	107621
619.386	107209
619.451	107610
619.516	103453
619.581	105517
619.647	108965
619.712	107793
619.777	103127
619.842	103626
619.907	106107
619.972	108108
620.038	106889
620.103	103383
620.168	102870
620.233	106122
620.298	106753
620.363	109466
620.428	109941
620.493	113307
620.558	113916
620.623	117214
620.688	116519
620.753	114605
620.818	118401
620.883	118500
620.948	117317
621.013	114160
621.078	112768
621.143	115386
621.207	117525
621.272	114965
621.337	111089
621.402	111457
621.467	110260
621.532	109334
621.596	108941
621.661	106383
621.726	105957
621.791	106664
621.855	105114
621.920	105018
621.985	107487
622.049	110907
622.114	108037
622.179	112025
622.243	113532
622.308	118145
622.373	122581
622.437	119333
622.502	110895
622.566	112173
622.631	110074
622.695	114969
622.760	111100
622.824	111896
622.889	111996
622.953	113523
623.018	119861
623.082	121151
623.147	118962
623.211	116907
623.276	116154
623.340	111197
623.404	108498
623.469	109117
623.533	110590
623.597	106924
623.662	107736
623.726	100096
623.790	93025
623.854	90335
623.919	91979
623.983	94064
624.047	95302
624.111	96398
624.176	97662
624.240	97180
624.304	100802
624.368	97679
624.432	96500
624.496	99905
624.560	105368
624.625	104464
624.689	106922
624.753	110195
624.817	104004
624.881	102791
624.945	93108
625.009	90230
625.073	90928
625.137	93340
625.201	98498
625.265	98245
625.329	95434
625.393	97111
625.456	96970
625.520	101053
625.584	101707
625.648	105528
625.712	108725
625.776	111927
625.839	109265
625.903	87515
625.967	78618
626.031	89502
626.095	105126
626.158	93367
626.222	73525
626.286	68135
626.349	64052
626.413	60736
626.477	61142
626.540	61230
626.604	60173
626.668	60261
626.731	59565
626.795	58959
626.858	58464
626.922	57677
626.986	58385
627.049	56186
627.113	61685
627.176	59544
627.240	57838
627.303	58514
627.366	55544
627.430	58447
627.493	56982
627.557	54669
627.620	57300
627.684	60237
627.747	59738
627.810	53957
627.874	48592
627.937	46718
628.000	50592
628.064	47977
628.127	42488
628.190	42012
628.253	41318
628.317	39444
628.380	37837
628.443	35612
628.506	35897
628.569	35661
628.632	32867
628.696	32973
628.759	32889
628.822	31373
628.885	30547
628.948	30413
629.011	31610
629.074	29875
629.137	28258
629.200	27207
629.263	28304
629.326	26008
629.389	27196
629.452	26479
629.515	26331
629.578	26124
629.641	28720
629.704	27796
629.767	26460
629.830	26186
629.892	24628
629.955	24880
630.018	28068
630.081	24972
630.144	26629
630.207	24006
630.269	26447
630.332	24352
630.395	25298
630.458	24000
630.520	21854
630.583	24619
630.646	24214
630.708	24172
630.771	23506
630.834	26483
630.896	24492
630.959	25174
631.021	23994
631.084	24799
631.146	25227
631.209	26264
631.272	24757
631.334	26514
631.397	25537
631.459	25494
631.522	26080
631.584	28000
631.646	29126
631.709	28975
631.771	29291
631.834	29015
631.896	26947
631.958	25197
632.021	26195
632.083	22484
632.145	24294
632.208	22959
632.270	24537
632.332	23052
632.395	22410
632.457	24553
632.519	22980
632.581	23686
632.643	23037
632.706	23155
632.768	21248
632.830	23219
632.892	23843
632.954	23541
633.016	24165
633.078	23385
633.141	22856
633.203	23343
633.265	23807
633.327	24042
633.389	22525
633.451	25075
633.513	22450
633.575	23502
633.637	23554
633.698	24472
633.760	24858
633.822	26570
633.884	26539
633.946	28014
634.008	27887
634.070	29501
634.132	31813
634.193	31950
634.255	35247
634.317	34775
634.379	34433
634.441	30590
634.502	28346
634.564	26768
634.626	24627
634.687	23870
634.749	22869
634.811	24244
634.873	21869
634.934	21761
634.996	23464
635.057	21586
635.119	22353
635.181	24976
635.242	24304
635.304	22020
635.365	26072
635.427	23102
635.488	23292
635.550	22391
635.611	23479
635.673	21196
635.734	25218
635.796	26511
635.857	28518
635.918	29553
635.980	34206
636.041	33398
636.102	36388
636.164	35789
636.225	35424
636.286	29136
636.348	27939
636.409	24903
636.470	23557
636.531	23518
636.593	21259
636.654	22815
636.715	21207
636.776	20976
636.838	18815
636.899	21593
636.960	18700
637.021	18384
637.082	18478
637.143	18296
637.204	17689
637.265	18481
637.326	18528
637.387	18404
637.448	17856
637.509	18847
637.570	18327
637.631	18824
637.692	16285
637.753	17021
637.814	17786
637.875	16967
637.936	17257
637.997	16224
638.058	16164
638.119	18749
638.179	16559
638.240	16430
638.301	16863
638.362	16215
638.423	15476
638.483	16852
638.544	14448
638.605	17089
638.666	15377
638.726	16547
638.787	17280
638.848	15961
638.908	16154
638.969	15654
639.030	13119
639.090	14826
639.151	14497
639.211	15372
639.272	14983
639.332	16426
639.393	16304
639.453	16332
639.514	16942
639.574	15936
639.635	15069
639.695	15032
639.756	12823
639.816	14893
639.877	13840
639.937	15063
639.997	13746
640.058	12605
640.118	12652
640.178	15236
640.239	13430
640.299	14224
640.359	13763
640.420	15606
640.480	17280
640.540	19395
640.600	18338
640.661	17641
640.721	14901
640.781	17269
640.841	13773
640.901	14936
640.961	14120
641.021	15310
641.082	15324
641.142	13676
641.202	15067
641.262	11196
641.322	13898
641.382	12813
641.442	12148
641.502	12484
641.562	13954
641.622	14156
641.682	15130
641.742	16562
641.802	15689
641.861	14054
641.921	13123
641.981	13469
642.041	12657
642.101	12065
642.161	10589
642.221	12709
642.280	12742
642.340	12163
642.400	11255
642.460	13336
642.519	11438
642.579	13408
642.639	13471
642.698	9838
642.758	14689
642.818	13272
642.877	11542
642.937	13178
642.997	12589
643.056	13284
643.116	11888
643.175	15028
643.235	13420
643.294	13410
643.354	14736
643.414	16616
643.473	18347
643.532	20902
643.592	28864
643.651	45774
643.711	75035
643.770	143608
643.830	323690
643.889	548249
643.948	173770
644.008	45072
644.067	26280
644.126	20061
644.186	17125
644.245	16477
644.304	12684
644.363	15474
644.423	11899
644.482	13619
644.541	15045
644.600	13346
644.659	18709
644.719	23142
644.778	34008
644.837	58462
644.896	121989
644.955	252753
645.014	84374
645.073	24670
645.132	15897
645.191	15488
645.250	13927
645.309	16674
645.368	17970
645.427	24599
645.486	41608
645.545	67529
645.604	20222
645.663	14341
645.722	12891
645.781	14209
645.840	16364
645.898	20135
645.957	28969
646.016	40677
646.075	71761
646.134	139811
646.192	336404
646.251	426185
646.310	91863
646.369	31951
646.427	25895
646.486	19200
646.545	15288
646.603	13765
646.662	12161
646.721	13098
646.779	11655
646.838	12853
646.896	16758
646.955	22547
647.014	36909
647.072	70569
647.131	179386
647.189	82164
647.248	15497
647.306	12707
647.365	11521
647.423	8588
647.481	10650
647.540	8320
647.598	9079
647.657	10111
647.715	9579
647.773	8695
647.832	9306
647.890	6750
647.948	7996
648.007	8498
648.065	7831
648.123	7482
648.181	9501
648.240	9818
648.298	8057
648.356	7215
648.414	7150
648.472	6941
648.531	6947
648.589	6649
648.647	7076
648.705	7589
648.763	7454
648.821	8119
648.879	8454
648.937	9521
648.995	10864
649.053	13806
649.111	20770
649.169	35281
649.227	61718
649.285	128454
649.343	322800
649.401	151450
649.459	26144
649.516	16921
649.574	13122
649.632	20774
649.690	22575
649.748	19666
649.806	28681
649.863	55683
649.921	135720
649.979	81732
650.037	12688
650.094	6967
650.152	7828
650.210	6695
650.268	6598
650.325	7076
650.383	6688
650.440	4729
650.498	5359
650.556	5764
650.613	5066
650.671	5592
650.728	5857
650.786	6369
650.843	9051
650.901	6384
650.958	5075
651.016	4498
651.073	4818
651.131	4302
651.188	3587
651.246	4617
651.303	3826
651.360	4453
651.418	3529
651.475	4493
651.532	3488
651.590	4962
651.647	3936
651.704	4611
651.762	4042
651.819	4744
651.876	2704
651.933	3971
651.990	4568
652.048	2967
652.105	3532
652.162	4519
652.219	2905
652.276	4705
652.333	3677
652.390	2867
652.448	4052
652.505	3691
652.562	3465
652.619	4792
652.676	6313
652.733	7505
652.790	3532
652.847	2795
652.904	4112
652.961	3193
653.017	2303
653.074	4586
653.131	3864
653.188	3387
653.245	2729
653.302	3765
653.359	3756
653.415	2973
653.472	2935
653.529	3851
653.586	2457
653.642	3330
653.699	3934
653.756	3292
653.813	2733
653.869	3680
653.926	2827
653.983	2842
654.039	4077
654.096	3450
654.152	3702
654.209	2547
654.266	3969
654.322	1664
654.379	3680
654.435	3696
654.492	2604
654.548	3447
654.605	3460
654.661	3692
654.717	3077
654.774	4211
654.830	3672
654.887	3165
654.943	3156
655.000	3967
655.056	3350
655.112	3066
655.168	2434
655.225	3685
655.281	2900
655.337	3501
655.394	3265
655.450	3562
655.506	2824
655.562	3366
655.618	4436
655.675	2685
655.731	3065
655.787	2953
655.843	3769
655.899	2766
655.955	3259
656.011	3401
656.067	3260
656.123	4372
656.179	2840
656.235	5190
656.291	2164
656.347	3824
656.403	2586
656.459	4089
656.515	3153
656.571	2883
656.627	3587
656.683	2648
656.739	3162
656.795	2977
656.850	3093
656.906	2931
656.962	4314
657.018	3373
657.074	3441
657.129	5947
657.185	9539
657.241	23342
657.297	10805
657.352	4203
657.408	2324
657.464	3614
657.519	2411
657.575	2142
657.630	2499
657.686	2665
657.742	1496
657.797	2015
657.853	2155
657.908	3299
657.964	2194
658.019	2176
658.075	1352
658.130	2875
658.186	1776
658.241	2952
658.297	1037
658.352	1553
658.407	1589
658.463	2027
658.518	2351
658.573	2616
658.629	1295
658.684	2045
658.739	2255
658.795	2142
658.850	2424
658.905	2370
658.960	1529
659.016	1944
659.071	1397
659.126	2049
659.181	1560
659.236	3477
659.291	2694
659.346	1959
659.401	2631
659.457	3648
659.512	3671
659.567	3145
659.622	1648
659.677	1706
659.732	1323
659.787	1767
659.842	2017
659.897	2810
659.952	1982
660.007	2069
660.061	1646
660.116	2045
660.171	744
660.226	1788
660.281	2190
660.336	1488
660.391	1893
660.445	1472
660.500	1926
660.555	1789
660.610	1355
660.664	2808
660.719	885
660.774	2200
660.828	1999
660.883	1871
660.938	2405
660.992	1403
661.047	2408
661.101	1489
661.156	1534
661.211	1116
661.265	1417
661.320	1807
661.374	1994
661.429	764
661.483	1666
661.538	1708
661.592	1176
661.647	2276
661.701	2275
661.755	2242
661.810	1346
661.864	1142
661.919	1259
661.973	1989
662.027	684
662.081	1230
662.136	1848
662.190	1970
662.244	2484
662.299	1310
662.353	2090
662.407	1298
662.461	935
662.515	2279
662.569	597
662.624	1863
662.678	800
662.732	1284
662.786	1111
662.840	1922
662.894	842
662.948	2046
663.002	661
663.056	1637
663.110	1602
663.164	1719
663.218	1449
663.272	2079
663.326	1566
663.380	2016
663.434	1373
663.488	1116
663.542	1553
663.595	2066
663.649	844
663.703	1559
663.757	1720
663.811	1554
663.864	768
663.918	1785
663.972	711
664.026	2076
664.079	1425
664.133	1949
664.187	930
664.240	1749
664.294	1411
664.348	2300
664.401	2537
664.455	2391
664.508	1344
664.562	1519
664.615	1471
664.669	1020
664.722	578
664.776	1541
664.829	1149
664.883	1760
664.936	1199
664.990	1216
665.043	1116
665.097	1505
665.150	2108
665.203	1312
665.257	1609
665.310	2676
665.363	1139
665.417	1720
665.470	1675
665.523	1722
665.576	1085
665.630	1664
665.683	1369
665.736	1932
665.789	1509
665.842	1720
665.895	1420
665.949	1974
666.002	1630
666.055	1228
666.108	2727
666.161	2163
666.214	1857
666.267	2148
666.320	1739
666.373	2520
666.426	1781
666.479	1780
666.532	1712
666.585	2043
666.638	2482
666.691	1213
666.744	2780
666.796	2331
666.849	2136
666.902	1993
666.955	1728
667.008	1797
667.060	1337
667.113	1793
667.166	2615
667.219	2360
667.271	1952
667.324	1707
667.377	2278
667.430	2195
667.482	2485
667.535	2215
667.587	2706
667.640	1747
667.693	1617
667.745	2408
667.798	2097
667.850	1667
667.903	1748
667.955	1865
668.008	2016
668.060	1965
668.113	1610
668.165	2211
668.218	2125
668.270	2389
668.322	1037
668.375	1881
668.427	1768
668.479	1828
668.532	1955
668.584	1659
668.636	1119
668.689	1735
668.741	1634
668.793	1878
668.845	1069
668.898	2250
668.950	1715
669.002	2072
669.054	1327
669.106	1270
669.158	2280
669.211	1267
669.263	1968
669.315	2291
669.367	2011
669.419	717
669.471	1647
669.523	2442
669.575	1982
669.627	391
669.679	1651
669.731	1779
669.783	2016
669.835	2058
669.886	838
669.938	1827
669.990	1301
670.042	1120
670.094	2280
670.146	1879
670.197	1460
670.249	2259
670.301	1739
670.353	3226
670.404	3673
670.456	4509
670.508	6765
670.560	10881
670.611	16881
670.663	29831
670.715	72218
670.766	103422
670.818	28104
670.869	5149
670.921	3630
670.972	3009
671.024	2420
671.075	2005
671.127	2390
671.178	2450
671.230	2214
671.281	2274
671.333	2709
671.384	3627
671.436	4905
671.487	7516
671.538	10909
671.590	16536
671.641	28882
671.692	51338
671.744	89515
671.795	64000
671.846	24174
671.897	11191
671.949	6114
672.000	4679
672.051	3739
672.102	3725
672.153	1552
672.204	1433
672.256	1792
672.307	2062
672.358	1558
672.409	2220
672.460	1494
672.511	1955
672.562	1328
672.613	1169
672.664	1211
672.715	1963
672.766	1059
672.817	997
672.868	448
672.919	1426
672.970	185
673.021	370
673.071	883
673.122	2535
673.173	1367
673.224	1367
673.275	558
673.326	1150
673.376	1500
673.427	-20
673.478	768
673.528	1152
673.579	825
673.630	397
673.680	1867
673.731	611
673.782	175
673.832	917
673.883	435
673.934	658
673.984	576
674.035	1161
674.085	5
674.136	504
674.186	530
674.237	164
674.287	894
674.338	1512
674.388	-144
674.438	1005
674.489	898
674.539	550
674.589	1379
674.640	1512
674.690	1440
674.740	947
674.791	1518
674.841	1150
674.891	279
674.942	812
674.992	249
675.042	-91
675.092	522
675.142	654
675.193	790
675.243	574
675.293	128
675.343	481
675.393	477
675.443	1546
675.493	287
675.543	-163
675.593	607
675.643	472
675.693	287
675.743	1278
675.793	667
675.843	306
675.893	579
675.943	876
675.993	23
676.043	188
676.093	1126
676.142	134
676.192	863
676.242	-69
676.292	854
676.341	-86
676.391	-157
676.441	569
676.491	362
676.540	684
676.590	327
676.640	128
676.689	22
676.739	-77
676.789	573
676.838	881
676.888	194
676.937	-1067
676.987	-248
677.037	701
677.086	-1028
677.136	-159
677.185	-415
677.235	749
677.284	150
677.333	-95
677.383	-779
677.432	-331
677.482	-741
677.531	123
677.580	-17
677.630	405
677.679	-541
677.728	282
677.778	-319
677.827	92
677.876	-212
677.925	419
677.975	-174
678.024	304
678.073	286
678.122	937
678.171	-586
678.220	133
678.269	617
678.319	1067
678.368	-64
678.417	568
678.466	-257
678.515	209
678.564	-143
678.613	938
678.662	-431
678.711	-176
678.760	217
678.809	-185
678.857	161
678.906	-29
678.955	-685
679.004	444
679.053	175
679.102	-62
679.151	-430
679.199	-361
679.248	-639
679.297	-193
679.346	-391
679.394	-743
679.443	-718
679.492	713
679.540	-317
679.589	-443
679.638	-626
679.686	147
679.735	-373
679.784	721
679.832	974
679.881	594
679.929	-178
679.978	-296
680.026	121
680.075	521
680.123	-687
680.172	-167
680.220	-483
680.268	-70
680.317	-484
680.365	-377
680.414	-1095
680.462	354
680.510	-446
680.559	-444
680.607	-337
680.655	247
680.703	-638
680.752	1000
680.800	-351
680.848	-361
680.896	-852
680.945	-37
680.993	-634
681.041	250
681.089	78
681.137	489
681.185	-264
681.233	-260
681.258	-304
681.281	-357
681.329	-614
681.377	-332
681.380	-314
681.425	-227
681.473	-89
681.502	-11
681.521	13
681.569	-34
681.617	430
681.624	421
681.665	290
681.713	161
681.745	-30
681.761	-142
681.809	90
681.857	323
681.867	351
681.904	408
681.952	597
681.989	380
682.000	301
682.048	-117
682.096	-460
682.111	-365
682.143	-179
682.191	747
682.233	425
682.239	358
682.286	375
682.334	778
682.354	209
682.382	-599
682.430	143
682.476	651
682.477	653
682.525	341
682.572	893
682.598	152
682.620	-488
682.667	569
682.715	520
682.720	520
682.763	277
682.810	953
682.841	73
682.857	-364
682.905	386
682.952	437
682.963	456
683.000	470
683.047	356
683.085	1296
683.095	1542
683.142	-37
683.190	83
683.206	51
683.237	-18
683.284	894
683.328	1517
683.332	1550
683.379	130
683.426	1006
683.449	230
683.473	-505
683.521	915
683.568	650
683.571	671
683.615	743
683.662	614
683.693	685
683.709	702
683.757	-363
683.804	954
683.814	943
683.851	880
683.898	391
683.936	504
683.945	542
683.992	1105
684.039	542
684.057	786
684.086	1097
684.133	1115
684.179	380
684.180	351
684.227	1402
684.274	1743
684.300	1429
684.321	1173
684.368	587
684.415	755
684.422	843
684.462	1279
684.509	910
684.543	1276
684.556	1398
684.603	466
684.649	835
684.665	889
684.696	994
684.743	1565
684.786	1442
684.790	1426
684.837	1234
684.883	676
684.908	1114
684.930	1513
684.977	1582
685.023	1679
685.029	1585
685.070	836
685.117	1872
685.150	1505
685.164	1343
685.210	1295
685.257	2317
685.272	2057
685.303	1416
685.350	1121
685.393	742
685.396	716
685.443	1551
685.490	1598
685.514	1744
685.536	1864
685.583	1826
685.629	1687
685.636	1733
685.675	1961
685.722	1017
685.757	1390
685.768	1496
685.815	1633
685.861	2077
685.878	1947
685.908	1796
685.954	1678
686.000	1180
686.000	1167
686.047	1984
686.093	2460
686.121	2293
686.139	2187
686.185	1737
686.232	2322
686.242	2190
686.278	1806
686.324	2801
686.363	2212
686.370	2088
686.416	1674
686.463	2255
686.484	2422
686.509	2638
686.555	2318
686.601	2478
686.606	2506
686.647	2545
686.693	2448
686.727	1883
686.739	1746
686.785	2194
686.831	2634
686.848	2665
686.877	2593
686.923	2135
686.969	2346
686.969	2347
687.015	1759
687.061	2540
687.090	2179
687.107	1924
687.153	2029
687.199	2479
687.211	2494
687.245	2669
687.291	2554
687.332	2981
687.336	3008
687.382	2543
687.428	2552
687.453	2440
687.474	2332
687.520	3274
687.565	2276
687.574	2320
687.611	2676
687.657	2975
687.695	3421
687.702	3514
687.748	3054
687.794	3992
687.816	3595
687.839	2977
687.885	3346
687.931	2873
687.937	2901
687.976	3347
688.022	3231
688.058	3117
688.067	3031
688.113	2671
688.158	2685
688.179	2590
688.204	2670
688.249	3331
688.295	3080
688.300	3119
688.340	3297
688.386	3378
688.421	3237
688.431	3190
688.477	2980
688.522	3242
688.542	3266
688.567	3406
688.613	3345
688.658	3842
688.663	3805
688.703	3426
688.749	3246
688.784	3430
688.794	3458
688.839	3293
688.884	3476
688.905	3210
688.930	2997
688.975	3846
689.020	2942
689.026	2990
689.065	3323
689.110	3301
689.146	3212
689.155	3217
689.201	3625
689.246	4070
689.267	4012
689.291	3787
689.336	3963
689.381	3080
689.388	3142
689.426	3776
689.471	3431
689.509	3604
689.516	3633
689.561	4234
689.606	3335
689.630	3653
689.651	3943
689.696	3396
689.741	3851
689.750	3917
689.785	4092
689.830	3964
689.871	3807
689.875	3795
689.920	3558
689.965	3754
689.992	3525
690.010	3428
690.054	3316
690.099	3744
690.112	3826
690.144	4122
690.189	3812
690.233	3838
690.233	3846
690.278	3928
690.323	4528
690.354	4302
690.367	4240
690.412	4758
690.457	4466
690.474	4756
690.501	4997
690.546	4647
690.590	4764
690.595	4703
690.635	4721
690.680	5302
690.716	5429
690.724	5530
690.769	6525
690.813	7578
690.836	7762
690.857	8874
690.902	11438
690.946	15137
690.957	15864
690.991	21328
691.035	29731
691.077	36932
691.080	36866
691.124	31914
691.168	27069
691.198	24836
691.213	22922
691.257	16314
691.301	10241
691.318	8006
691.346	7595
691.390	6487
691.434	5997
691.439	5879
691.478	5415
691.522	5173
691.559	4610
691.567	4602
691.611	4891
691.655	4741
691.680	4796
691.699	4771
691.743	4891
691.787	4810
691.800	4769
691.831	4747
691.875	4872
691.919	4852
691.921	4846
691.964	4749
692.008	4553
692.041	3945
692.052	3922
692.096	4313
692.139	4915
692.162	5081
692.183	5003
692.227	4567
692.271	4387
692.282	4360
692.315	4525
692.359	4394
692.402	4739
692.403	4753
692.447	4987
692.490	4945
692.523	4932
692.534	4898
692.578	5078
692.622	4955
692.643	4816
692.666	4611
692.709	4671
692.753	4171
692.763	4112
692.797	4257
692.840	4465
692.884	4689
692.884	4703
692.928	4804
692.971	5095
693.004	5046
693.015	5028
693.059	5225
693.102	5004
693.124	5329
693.146	5720
693.189	5544
693.233	5887
693.245	5916
693.276	6189
693.320	6830
693.363	6786
693.365	6795
693.407	7861
693.450	8527
693.485	9230
693.493	9691
693.537	11782
693.580	14278
693.605	15532
693.624	18005
693.667	23873
693.710	30353
693.725	32594
693.753	44038
693.797	62575
693.840	81103
693.845	82881
693.883	73845
693.926	62854
693.966	53591
693.970	52326
694.013	38912
694.056	25221
694.086	15868
694.099	15099
694.142	12557
694.185	10262
694.206	9017
694.229	8608
694.272	8049
694.315	7522
694.326	7241
694.358	6838
694.401	6604
694.444	6598
694.446	6563
694.487	6347
694.530	6187
694.566	6106
694.573	6080
694.616	5834
694.659	5422
694.686	5182
694.702	5207
694.745	5507
694.787	5636
694.806	5596
694.830	5574
694.873	5886
694.916	5655
694.926	5687
694.959	5836
695.002	5916
695.044	5876
695.046	5867
695.087	5930
695.130	5747
695.166	5656
695.172	5674
695.215	5526
695.258	5651
695.286	5644
695.301	5791
695.343	6198
695.386	6703
695.406	6787
695.428	6706
695.471	6657
695.514	6793
695.526	6740
695.556	6906
695.599	7367
695.641	7641
695.646	7632
695.684	7207
695.726	7007
695.766	6604
695.769	6626
695.811	6902
695.854	7021
695.886	7125
695.896	7165
695.938	7193
695.981	7187
696.005	7288
696.023	7491
696.065	7647
696.108	8017
696.125	8113
696.150	8289
696.192	8572
696.235	8798
696.245	8816
696.277	8698
696.319	8678
696.361	8625
696.365	8597
696.404	8761
696.446	8842
696.485	8895
696.488	8931
696.530	9088
696.572	9248
696.604	9327
696.614	9262
696.656	8908
696.698	8526
696.724	8361
696.740	8429
696.783	8326
696.825	8354
696.844	8313
696.867	8387
696.909	8550
696.951	8584
696.964	8606
696.992	8476
697.034	8153
697.076	7896
697.083	7835
697.118	8330
697.160	8908
697.202	9397
697.203	9385
697.244	9097
697.286	8836
697.323	8454
697.327	8508
697.369	8941
697.411	9304
697.442	9514
697.453	9458
697.494	9129
697.536	8855
697.562	8618
697.578	8594
697.620	8576
697.661	8479
697.682	8374
697.703	8572
697.744	9089
697.786	9484
697.801	9602
697.828	9679
697.869	9727
697.911	9820
697.921	9822
697.952	9818
697.994	9748
698.035	9658
698.040	9626
698.077	9669
698.118	9629
698.160	9623
698.160	9596
698.201	9806
698.243	9991
698.279	10116
698.284	10178
698.325	10507
698.367	10869
698.399	11087
698.408	11058
698.449	10781
698.491	10539
698.518	10330
698.532	10550
698.573	11158
698.614	11735
698.638	12059
698.656	11927
698.697	11495
698.738	11097
698.757	10870
698.779	10872
698.820	10827
698.862	10774
698.877	10734
698.903	10851
698.944	10969
698.985	11095
698.996	11102
699.026	10881
699.067	10532
699.116	10090
699.235	11403
699.354	11283
699.474	10034
699.593	10869
699.713	10827
699.832	10868
699.951	11292
700.070	11808
700.190	10653
700.309	10062
700.428	9173
700.547	9442
700.667	8946
700.786	9139
700.905	9153
701.024	9584
701.143	8688
701.262	9818
701.381	10339
701.500	8548
701.619	9626
701.738	9595
701.857	9888
701.976	9233
702.095	8295
702.214	10884
702.333	9057
702.452	9868
702.571	8812
702.690	10121
702.809	8950
702.928	9310
703.047	8552
703.165	9055
703.284	8891
703.403	8610
703.522	8524
703.640	9448
703.759	7984
703.878	9483
703.997	8536
704.115	9394
704.234	8551
704.353	9056
704.471	7871
704.590	8017
704.708	8103
704.827	7712
704.946	7657
705.064	8897
705.183	7327
705.301	8832
705.420	9131
705.538	8800
705.656	8998
705.775	7851
705.893	14434
706.012	15954
706.130	7718
706.249	8975
706.367	7767
706.485	8785
706.604	7287
706.722	8304
706.840	8275
706.958	10708
707.077	7978
707.195	7916
707.313	7480
707.431	8017
707.549	6423
707.668	7260
707.786	8072
707.904	8063
708.022	7455
708.140	7367
708.258	6919
708.376	8368
708.494	7593
708.612	7902
708.730	8338
708.848	8255
708.966	8460
709.084	6967
709.202	8215
709.320	6755
709.438	7543
709.556	7909
709.674	7535
709.791	7781
709.909	6621
710.027	7041
710.145	6602
710.263	6704
710.380	6938
710.498	7174
710.616	7326
710.733	5855
710.851	6979
710.969	6783
711.086	6303
711.204	6927
711.322	6615
711.439	7268
711.557	6249
711.674	6239
711.792	5971
711.909	6991
712.027	7831
712.144	7238
712.262	6407
712.379	6774
712.497	7681
712.614	6796
712.732	7008
712.849	6813
712.966	7814
713.084	7644
713.201	6389
713.318	7297
713.436	6392
713.553	6487
713.670	8093
713.787	8184
713.905	7169
714.022	7809
714.139	6709
714.256	9394
714.373	12302
714.490	22972
714.608	64421
714.725	264371
714.842	226237
714.959	20931
715.076	9984
715.193	7959
715.310	7913
715.427	6886
715.544	7473
715.661	7000
715.778	5765
715.895	6925
716.011	6037
716.128	6360
716.245	5531
716.362	5490
716.479	6013
716.596	5894
716.713	6432
716.829	5523
716.946	6090
717.063	5531
717.180	5268
717.296	5391
717.413	5270
717.530	6632
717.646	5278
717.763	5626
717.880	5003
717.996	5108
718.113	4881
718.229	4835
718.346	5080
718.462	5016
718.579	5372
718.695	5945
718.812	5445
718.928	5049
719.045	5096
719.161	4835
719.277	5183
719.394	5116
719.510	6165
719.626	6353
719.743	7038
719.859	11899
719.975	23004
720.092	91822
720.208	179170
720.324	20058
720.440	6714
720.557	5618
720.673	6016
720.789	6522
720.905	8511
721.021	5639
721.137	5014
721.253	4991
721.369	4424
721.486	5029
721.602	5420
721.718	4622
721.834	4075
721.950	4818
722.066	3859
722.181	4716
722.297	4399
722.413	3408
722.529	5040
722.645	4462
722.761	4318
722.877	4218
722.993	4331
723.108	5644
723.224	4949
723.340	5034
723.456	4074
723.571	4917
723.687	4219
723.803	4750
723.918	3998
724.034	3485
724.150	3098
724.265	3738
724.381	4695
724.497	5110
724.612	2946
724.728	3987
724.843	4212
724.959	3737
725.074	4591
725.190	4453
725.305	4037
725.421	4292
725.536	3618
725.651	3938
725.767	3408
725.882	3583
725.997	3595
726.113	4374
726.228	3166
726.343	3866
726.459	3436
726.574	3692
726.689	3061
726.804	3516
726.920	3071
727.035	3576
727.150	3975
727.265	3596
727.380	3997
727.495	3485
727.610	3309
727.725	3439
727.841	4867
727.956	7945
728.071	5884
728.186	2889
728.301	2069
728.416	3465
728.531	3596
728.645	2828
728.760	3214
728.875	4217
728.990	3373
729.105	3116
729.220	3672
729.335	3720
729.449	2944
729.564	3441
729.679	2660
729.794	2987
729.908	3084
730.023	3444
730.138	2932
730.253	3388
730.367	3561
730.482	3718
730.596	3102
730.711	4012
730.826	4935
730.940	5063
731.055	3208
731.169	4485
731.284	4114
731.398	4441
731.513	4142
731.627	5050
731.742	5396
731.856	6479
731.970	6245
732.085	7685
732.199	10287
732.313	17635
732.428	48176
732.542	135884
732.656	67480
732.771	14534
732.885	8986
732.999	8526
733.113	8305
733.227	8503
733.342	7650
733.456	7971
733.570	6599
733.684	7880
733.798	6348
733.912	7039
734.026	6804
734.140	7158
734.254	6830
734.368	8059
734.482	6838
734.596	6233
734.710	5903
734.824	6322
734.938	5552
735.052	6755
735.166	6336
735.280	7310
735.393	5645
735.507	7020
735.621	6606
735.735	6305
735.849	6803
735.962	6184
736.076	6995
736.190	6098
736.303	6326
736.417	6954
736.531	5769
736.644	5710
736.758	5600
736.872	5755
736.985	6063
737.099	5765
737.212	5369
737.326	6266
737.439	5642
737.553	5634
737.666	6097
737.780	4976
737.893	6075
738.007	5276
738.120	5277
738.233	6508
738.347	5590
738.460	5472
738.573	5187
738.687	5447
738.800	5883
738.913	5795
739.026	5292
739.140	5692
739.253	5159
739.366	5414
739.479	4096
739.592	4865
739.705	4941
739.818	5577
739.932	5026
740.045	5447
740.158	4672
740.271	5280
740.384	4412
740.497	4239
740.610	5106
740.723	4665
740.836	4041
740.949	5233
741.062	4682
741.174	5533
741.287	4334
741.400	4210
741.513	4724
741.626	5261
741.739	5229
741.851	4290
741.964	3847
742.077	4490
742.189	4074
742.302	5153
742.415	4396
742.527	4866
742.640	4150
742.753	4622
742.865	4462
742.978	4665
743.090	4027
743.203	4893
743.316	3961
743.428	4741
743.541	4528
743.653	4912
743.766	4174
743.878	4308
743.990	4372
744.103	5597
744.215	4820
744.327	4836
744.440	4483
744.552	5153
744.664	3327
744.777	4690
744.889	3979
745.001	4994
745.113	3938
745.226	3996
745.338	3687
745.450	5461
745.562	3850
745.674	3921
745.786	4471
745.898	4174
746.010	4118
746.122	4247
746.234	4150
746.347	4418
746.459	3467
746.570	3323
746.682	5137
746.794	5458
746.906	4049
747.018	3669
747.130	4702
747.242	4363
747.354	3859
747.466	3621
747.577	3725
747.689	4125
747.801	4524
747.913	3533
748.024	2953
748.136	3794
748.248	2903
748.359	3906
748.471	3026
748.583	3634
748.694	4201
748.806	4708
748.918	2797
749.029	3177
749.141	3386
749.252	4331
749.364	3763
749.475	4076
749.587	2773
749.698	4518
749.809	3745
749.921	3975
750.032	3641
750.144	3350
750.255	3444
750.366	2808
750.478	3079
750.589	3844
750.700	3519
750.811	4379
750.923	3767
751.034	3643
751.145	4116
751.256	3490
751.367	3306
751.479	3150
751.590	3107
751.701	3114
751.812	2703
751.923	3758
752.034	3231
752.145	3747
752.256	3122
752.367	4038
752.478	3544
752.589	3733
752.700	3026
752.811	3701
752.922	2688
753.032	3724
753.143	3392
753.254	3922
753.365	4002
753.476	4408
753.586	3952
753.697	3575
753.808	3622
753.919	3354
754.029	3394
754.140	3830
754.251	3614
754.361	4163
754.472	4560
754.582	3122
754.693	3611
754.804	4631
754.914	2656
755.025	3243
755.135	3861
755.246	4987
755.356	2826
755.466	3948
755.577	3742
755.687	4022
755.798	3621
755.908	4384
756.018	3931
756.129	4407
756.239	3909
756.349	4264
756.460	3612
756.570	4632
756.680	3765
756.790	3863
756.900	4041
757.011	3448
757.121	4001
757.231	4705
757.341	4497
757.451	4106
757.561	3299
757.671	4563
757.781	4206
757.891	4461
758.001	3920
758.111	4882
758.221	4574
758.331	4496
758.441	4458
758.551	3856
758.661	4274
758.771	4431
758.880	5200
758.990	5271
759.100	4726
759.210	4941
759.320	4870
759.429	5325
759.539	4761
759.649	5882
759.758	5502
759.868	6541
759.978	4953
760.087	6296
760.197	6915
760.307	6292
760.416	5546
760.526	5316
760.635	5568
760.745	7880
760.854	6395
760.964	7218
761.073	7457
761.182	7449
761.292	6791
761.401	7271
761.511	6220
761.620	6691
761.729	7046
761.839	7349
761.948	7447
762.057	7250
762.166	7924
762.276	6980
762.385	8464
762.494	8338
762.603	8057
762.712	8893
762.822	9159
762.931	9705
763.040	9131
763.149	9984
763.258	10216
763.367	11508
763.476	10540
763.585	12112
763.694	12192
763.803	13256
763.912	15204
764.021	15428
764.130	15024
764.238	16937
764.347	17907
764.456	20066
764.565	20706
764.674	22609
764.783	24711
764.891	26644
765.000	32374
765.109	37043
765.217	41050
765.326	49508
765.435	57615
765.543	72977
765.652	90178
765.761	119061
765.869	158911
765.978	226406
766.086	330107
766.195	477316
766.303	574607
766.412	410076
766.520	492293
766.629	529787
766.737	387668
766.846	268142
766.954	188194
767.062	141154
767.171	105262
767.279	85470
767.387	68500
767.496	58234
767.604	48847
767.712	43150
767.820	37747
767.928	35265
768.037	31713
768.145	30646
768.253	29373
768.361	27590
768.469	27435
768.577	28201
768.685	29924
768.793	32607
768.901	34242
769.009	42366
769.117	51113
769.225	67041
769.333	95110
769.441	143764
769.549	231947
769.657	392764
769.765	507185
769.873	424458
769.981	459164
770.088	307634
770.196	187936
770.304	126234
770.412	90428
770.519	68899
770.627	54977
770.735	44519
770.842	37934
770.950	32596
771.058	28785
771.165	28146
771.273	23526
771.380	22386
771.488	21631
771.595	20157
771.703	17419
771.810	17525
771.918	15681
772.025	17184
772.133	15770
772.240	14365
772.348	15117
772.455	14531
772.562	13415
772.670	13428
772.777	12543
772.884	12475
772.991	11760
773.099	11591
773.206	10578
773.313	10583
773.420	10931
773.528	9344
773.635	8803
773.742	11107
773.849	9286
773.956	8995
774.063	9144
774.170	8342
774.277	8777
774.384	8313
774.491	8212
774.598	8468
774.705	7092
774.812	7685
774.919	7361
775.026	7767
775.133	7909
775.239	6956
775.346	6887
775.453	6862
775.560	5880
775.667	7101
775.773	6209
775.880	7032
775.987	6673
776.093	6676
776.200	6289
776.307	5946
776.413	6366
776.520	7144
776.627	6021
776.733	6187
776.840	4285
776.946	8375
777.053	7850
777.159	9347
777.266	6486
777.372	9319
777.478	7183
777.585	5909
777.691	4571
777.798	5007
777.904	5065
778.010	5994
778.117	4966
778.223	4820
778.329	4685
778.435	4835
778.542	5918
778.648	4293
778.754	4683
778.860	4927
778.966	4708
779.072	5065
779.178	4558
779.284	4400
779.391	4194
779.497	3946
779.603	7410
779.708	6745
779.815	13907
779.920	48833
780.026	57907
780.132	8948
780.238	3993
780.344	4795
780.450	5002
780.556	4215
780.661	3806
780.767	4665
780.873	3221
780.979	4874
781.085	3209
781.190	3071
781.296	3562
781.402	3344
781.507	3772
781.613	3978
781.719	3336
781.824	4766
781.930	3317
782.035	3369
782.141	4116
782.246	3053
782.352	3097
782.457	3917
782.563	3285
782.668	3042
782.773	3673
782.879	2768
782.984	3580
783.090	3305
783.195	3139
783.300	3906
783.405	2989
783.511	2792
783.616	2611
783.721	3257
783.826	2864
783.932	3168
784.037	2347
784.142	3108
784.247	2240
784.352	3429
784.457	1647
784.562	2956
784.667	2461
784.772	1723
784.877	1699
784.982	4105
785.087	2619
785.192	3419
785.297	2739
785.402	2722
785.507	2952
785.611	2368
785.716	2397
785.821	3085
785.926	2296
786.031	2516
786.135	2081
786.240	2687
786.345	853
786.450	2758
786.554	2195
786.659	1890
786.763	1526
786.868	2986
786.973	2593
787.077	2816
787.182	2328
787.286	2016
787.391	2013
787.495	1132
787.600	1655
787.704	1479
787.809	2020
787.913	1701
788.017	2158
788.122	3067
788.226	1629
788.330	565
788.435	1597
788.539	3007
788.643	1286
788.747	1669
788.852	2033
788.956	1457
789.060	2311
789.164	2563
789.268	1254
789.372	2064
789.476	1743
789.580	1439
789.684	1916
789.788	2600
789.892	2670
789.996	1652
790.100	1039
790.204	1780
790.308	1090
790.412	1565
790.516	1637
790.620	1515
790.724	2113
790.828	2354
790.931	756
791.035	1678
791.139	1267
791.242	2053
791.346	2215
791.450	1686
791.554	1196
791.657	799
791.761	1819
791.864	2817
791.968	1307
792.072	1361
792.175	858
792.279	962
792.382	1230
792.486	1744
792.589	1473
792.693	2496
792.796	544
792.899	2533
793.003	2063
793.106	-179
793.209	1192
793.313	1927
793.416	-162
793.519	2225
793.623	2344
793.726	1467
793.829	564
793.932	1028
794.035	678
794.138	2279
794.242	1837
794.345	754
794.448	1834
794.551	4891
794.654	24188
794.757	31642
794.860	4160
794.963	1240
795.066	721
795.169	2600
795.272	910
795.375	1399
795.477	628
795.580	1914
795.683	596
795.786	1207
795.889	214
795.991	2087
796.094	1316
796.197	258
796.300	1788
796.402	1155
796.505	228
796.608	1180
796.710	1776
796.813	1516
796.915	661
797.018	1194
797.120	830
797.223	30
797.326	1458
797.428	1558
797.530	1627
797.633	352
797.735	1877
797.838	984
797.940	1906
798.042	-469
798.145	859
798.247	1829
798.349	-568
798.452	2032
798.554	52
798.656	129
798.758	2133
798.860	488
798.962	1096
799.065	456
799.167	-238
799.269	2140
799.371	865
799.473	2091
799.575	-101
799.677	538
799.779	2064
799.881	-582
799.983	416
800.085	331
800.187	1289
800.289	-256
800.390	-138
800.492	1523
800.594	1130
800.696	-165
800.798	1642
800.899	877
801.001	170
801.103	616
801.205	358
801.306	627
801.408	-5
801.509	1828
801.611	964
801.713	373
801.814	12
801.916	161
802.017	-62
802.119	195
802.220	811
802.322	-559
802.423	1818
802.525	296
802.626	1226
802.727	1780
802.829	759
802.930	-1431
803.031	2192
803.133	847
803.234	-118
803.335	982
803.436	-700
803.538	869
803.639	-710
803.740	1576
803.841	-684
803.942	964
804.043	291
804.144	175
804.245	552
804.346	987
804.447	-137
804.548	997
804.649	1268
804.750	485
804.851	-228
804.952	392
805.053	146
805.154	-939
805.255	1187
805.355	450
805.456	240
805.557	1078
805.658	-28
805.758	1287
805.859	195
805.960	228
806.061	382
806.161	-532
806.262	288
806.362	-39
806.463	-133
806.564	1348
806.664	301
806.765	959
806.865	1072
806.966	-146
807.066	-158
807.166	1122
807.267	440
807.367	969
807.468	412
807.568	-894
807.668	628
807.769	681
807.869	151
807.969	991
808.069	306
808.170	848
808.270	90
808.370	995
808.470	475
808.570	-305
808.670	296
808.770	370
808.870	-375
808.970	138
809.070	223
809.170	-187
809.271	944
809.370	406
809.470	-155
809.570	-115
809.670	-427
809.770	322
809.870	1156
809.970	-43
810.070	-304
810.169	1003
810.269	-536
810.369	1799
810.469	262
810.568	281
810.668	-394
810.768	273
810.867	424
810.967	-709
811.066	-301
811.166	-12
811.265	1142
811.365	-438
811.464	-43
811.564	857
811.663	-65
811.763	-241
811.862	220
811.962	1465
812.061	-354
812.160	146
812.260	-157
812.359	-399
812.458	-558
812.557	1647
812.657	-426
812.756	953
812.855	256
812.954	-801
813.053	460
813.153	493
813.252	-987
813.351	1178
813.450	810
813.549	97
813.648	162
813.747	-301
813.846	220
813.945	286
814.044	102
814.143	626
814.242	628
814.341	-234
814.439	-43
814.538	1543
814.637	871
814.736	-246
814.835	1282
814.933	607
815.032	622
815.131	1375
815.229	1894
815.328	3409
815.427	1961
815.525	2282
815.624	2008
815.722	1940
815.821	2595
815.919	2629
816.018	1758
816.116	3172
816.215	1118
816.313	2662
816.412	3027
816.510	2600
816.609	4482
816.707	4033
816.805	2874
816.904	2101
817.002	2244
817.100	4228
817.198	3849
817.296	3107
817.395	3010
817.493	4095
817.591	2273
817.689	3588
817.787	3544
817.885	4615
817.983	5522
818.081	10483
818.179	22449
818.277	55441
818.375	43042
818.473	11124
818.571	5268
818.669	4484
818.767	4293
818.865	4910
818.963	4331
819.061	6089
819.158	9472
819.256	21068
819.354	42955
819.452	94085
819.549	49849
819.647	13956
819.745	5039
819.842	4148
819.940	3574
820.038	3366
820.135	2833
820.233	3567
820.330	1845
820.428	2111
820.525	3816
820.623	2409
820.720	1934
820.818	2816
820.915	1958
821.012	2364
821.110	740
821.207	3832
821.304	1293
821.402	2463
821.499	2969
821.596	3717
821.693	2472
821.791	2903
821.888	2337
821.985	1917
822.082	1179
822.179	2289
822.276	1348
822.373	1977
822.470	1806
822.567	2086
822.664	1078
822.761	2304
822.858	582
822.955	2034
823.052	1310
823.149	2028
823.246	1521
823.343	960
823.440	1816
823.536	1843
823.633	686
823.730	1362
823.827	1768
823.923	2674
824.020	2267
824.117	1649
824.213	517
824.310	2118
824.407	644
824.503	1594
824.600	866
824.696	1384
824.793	1520
824.889	402
824.986	897
825.082	1034
825.179	1181
825.275	1364
825.371	1350
825.468	1456
825.564	919
825.660	1922
825.757	1383
825.853	1914
825.949	-620
826.045	1830
826.142	1174
826.238	833
826.334	2328
826.430	715
826.526	642
826.622	529
826.718	1655
826.814	1424
826.910	1879
827.006	400
827.102	164
827.198	1378
827.294	1182
827.390	2065
827.486	1891
827.582	547
827.678	-72
827.774	1456
827.869	-266
827.965	1141
828.061	251
828.157	1953
828.252	1329
828.348	31
828.444	1557
828.539	303
828.635	174
828.731	1809
828.826	-1063
828.922	750
829.017	1013
829.113	1541
829.208	733
829.304	-245
829.399	2265
829.495	553
829.590	876
829.685	861
829.781	1108
829.876	951
829.971	542
830.066	-457
830.162	198
830.257	817
830.352	-283
830.447	756
830.543	-43
830.638	-550
830.733	1478
830.828	1220
830.923	1585
831.018	1382
831.113	365
831.208	26
831.303	4
831.398	784
831.493	105
831.588	1320
831.683	-1212
831.778	208
831.873	314
831.967	1207
832.062	588
832.157	-503
832.252	1096
832.346	299
832.441	487
832.536	1260
832.631	1491
832.725	641
832.820	-291
832.914	61
833.009	-148
833.104	1058
833.198	782
833.293	769
833.387	609
833.482	307
833.576	-432
833.670	1706
833.765	-47
833.859	1169
833.954	267
834.048	-209
834.142	951
834.237	-645
834.331	-882
834.425	1051
834.519	-373
834.613	540
834.708	157
834.802	230
834.896	144
834.990	606
835.084	766
835.178	401
835.272	328
835.366	643
835.460	848
835.554	425
835.648	-264
835.742	-179
835.836	253
835.930	-809
836.024	598
836.117	1320
836.211	-943
836.305	386
836.399	864
836.493	-810
836.586	1273
836.680	400
836.774	-1061
836.867	1351
836.961	-677
837.055	165
837.148	-217
837.242	275
837.335	-343
837.429	745
837.522	-46
837.616	529
837.709	494
837.803	-393
837.896	131
837.989	35
838.083	394
838.176	199
838.269	-165
838.363	456
838.456	-1079
838.549	665
838.642	-928
838.735	596
838.829	420
838.922	-480
839.015	422
839.108	-422
839.201	-21
839.294	448
839.387	283
839.480	-354
839.573	-236
839.666	748
839.759	-110
839.852	-549
839.945	145
840.038	-143
840.131	92
840.223	394
840.316	799
840.409	92
840.502	107
840.594	938
840.687	-683
840.780	-481
840.873	-168
840.965	388
841.058	781
841.150	786
841.243	-996
841.336	714
841.428	-900
841.521	337
841.613	-599
841.706	819
841.798	559
841.890	845
841.983	-1024
842.075	735
842.167	-6
842.260	73
842.352	577
842.444	254
842.537	-356
842.629	1265
842.721	-138
842.813	1368
842.905	-831
842.997	957
843.090	-495
843.182	-298
843.274	-1215
843.366	1547
843.458	695
843.550	1853
843.642	-204
843.734	473
843.826	-441
843.918	454
844.009	-100
844.101	-800
844.193	-170
844.285	-335
844.377	33
844.469	454
844.560	272
844.652	-6
844.744	185
844.835	-468
844.927	-967
845.019	-51
845.110	494
845.202	-163
845.293	555
845.385	-692
845.476	282
845.568	476
845.659	-930
845.751	772
845.842	-711
845.934	-400
846.025	-766
846.116	567
846.208	-339
846.299	-83
846.390	-190
846.482	-348
846.573	-196
846.664	117
846.755	-650
846.846	496
846.937	-1270
847.029	-340
847.120	-153
847.211	-1170
847.302	381
847.393	-648
847.484	-16
847.575	-13
847.666	-1471
847.757	-838
847.847	318
847.938	402
848.029	-625
848.120	-1470
848.211	-298
848.302	-1041
848.392	-660
848.483	123
848.574	-1450
848.664	-447
848.755	-27
848.846	-182
848.936	-510
849.027	-496
849.118	-426
849.208	-528
849.299	-136
849.389	1421
849.480	1357
849.570	4138
849.661	8890
849.751	15534
849.841	4632
849.932	267
850.022	216
850.112	402
850.203	-541
850.293	142
850.383	-681
850.474	-635
850.564	-530
850.654	-495
850.744	-435
850.834	158
850.924	-116
851.014	5
851.104	-1039
851.194	-136
851.284	-783
851.374	457
851.464	-808
851.554	324
851.644	-806
851.734	-177
851.824	-465
851.914	-91
852.004	-177
852.094	150
852.183	-51
852.273	222
852.363	-1128
852.452	194
852.542	-327
852.632	-560
852.721	-405
852.811	-768
852.901	-466
852.990	-104
853.080	-596
853.169	-6
853.259	-631
853.348	-206
853.438	-17
853.527	1121
853.617	-18
853.706	3551
853.795	4810
853.885	13497
853.974	24365
854.063	46521
854.152	66479
854.242	23459
854.331	3257
854.420	1591
854.509	958
854.598	584
854.687	36
854.777	75
854.866	-779
854.955	853
855.044	265
855.133	-384
855.222	-308
855.311	-428
855.400	-924
855.488	-498
855.577	-49
855.666	-18
855.755	-136
855.844	-283
855.933	-833
856.021	43
856.110	-413
856.199	-770
856.288	-743
856.376	-754
856.465	-1030
856.554	99
856.642	-1214
856.731	199
856.819	-754
856.908	-431
856.996	97
857.085	-435
857.173	-870
857.262	311
857.350	-475
857.438	-522
857.527	-546
857.615	288
857.703	-43
857.792	-480
857.880	-184
857.968	-703
858.056	-513
858.145	-355
858.233	-569
858.321	-165
858.409	-91
858.497	-746
858.585	-629
858.673	-295
858.761	-1912
858.849	-571
858.937	-1011
859.025	39
859.113	-140
859.201	92
859.289	495
859.377	-368
859.465	-746
859.552	-831
859.640	-1204
859.728	-724
859.816	-379
859.903	54
859.991	-538
860.079	-297
860.166	-571
860.254	-920
860.342	-99
860.429	-843
860.517	-1399
860.604	-216
860.692	-691
860.779	-282
860.867	-381
860.954	-769
861.042	-440
861.129	87
861.216	-971
861.304	-754
861.391	-1041
861.478	-142
861.565	-599
861.653	906
861.740	-789
861.827	-832
861.914	-297
862.001	-368
862.089	-110
862.176	120
862.263	-647
862.350	-288
862.437	-1532
862.524	-311
862.611	-589
862.698	565
862.785	-460
862.871	388
862.958	-623
863.045	54
863.132	-1151
863.219	216
863.306	-1813
863.392	-139
863.479	-424
863.566	365
863.652	42
863.739	53
863.826	152
863.912	-917
863.999	-1123
864.086	-83
864.172	-872
864.259	-12
864.345	-765
864.432	-116
864.518	-420
864.604	95
864.691	-670
864.777	-81
864.863	273
864.950	608
865.036	492
865.122	3271
865.209	2824
865.295	2100
865.381	1819
865.467	2228
865.553	2708
865.639	2707
865.726	4636
865.812	7677
865.898	13805
865.984	20285
866.070	35756
866.156	36353
866.242	10069
866.328	3706
866.414	1797
866.499	1872
866.585	1553
866.671	1173
866.757	2231
866.843	1724
866.928	562
867.014	1220
867.100	2061
867.186	1172
867.271	1799
867.357	2052
867.442	1097
867.528	2644
867.614	783
867.699	1643
867.785	2031
867.870	1971
867.956	1638
868.041	2014
868.127	1109
868.212	1840
868.297	1661
868.383	2145
868.468	1404
868.553	1930
868.639	1066
868.724	713
868.809	1384
868.894	1409
868.979	1296
869.065	1880
869.150	1126
869.235	1161
869.320	1020
869.405	1527
869.490	1450
869.575	984
869.660	632
869.745	1598
869.830	310
869.915	765
870.000	825
870.085	1642
870.169	2080
870.254	1510
870.339	-69
870.424	917
870.509	712
870.593	1347
870.678	781
870.763	359
870.847	518
870.932	896
871.016	1366
871.101	525
871.186	1193
871.270	1893
871.355	560
871.439	1956
871.523	1354
871.608	484
871.692	289
871.777	1707
871.861	210
871.945	778
872.030	1052
872.114	1261
872.198	794
872.282	757
872.367	823
872.451	1158
872.535	539
872.619	827
872.703	894
872.787	523
872.871	824
872.955	377
873.039	608
873.123	105
873.207	704
873.291	289
873.375	140
873.459	1174
873.543	-56
873.627	61
873.711	415
873.794	1371
873.878	-218
873.962	503
874.045	127
874.129	1547
874.137	1379
874.213	-297
874.245	-207
874.296	-64
874.352	123
874.380	212
874.460	287
874.464	289
874.547	-288
874.568	-7
874.631	823
874.676	513
874.714	257
874.784	1139
874.798	1311
874.881	1140
874.892	984
874.965	-42
874.999	485
875.048	1167
875.107	246
875.131	-109
875.215	-346
875.215	-345
875.298	91
875.323	-5
875.381	-183
875.430	313
875.465	637
875.538	175
875.548	113
875.631	-183
875.646	-312
875.714	-943
875.753	-149
875.798	764
875.861	435
875.881	338
875.964	400
875.968	399
876.047	448
876.076	418
876.130	312
876.183	191
876.213	134
876.291	865
876.296	908
876.379	236
876.398	303
876.462	613
876.506	32
876.545	-493
876.613	116
876.628	241
876.711	132
876.721	239
876.794	1130
876.828	648
876.877	-138
876.935	-51
876.960	28
877.043	626
877.043	624
877.125	396
877.150	349
877.208	-31
877.258	-41
877.291	42
877.365	185
877.374	212
877.456	547
877.472	534
877.539	273
877.579	359
877.622	531
877.687	608
877.704	683
877.787	494
877.794	504
877.869	272
877.901	580
877.952	1149
878.008	710
878.034	466
878.115	-137
878.117	-143
878.199	-187
878.222	108
878.282	846
878.329	779
878.364	646
878.437	502
878.447	476
878.529	-545
878.544	-445
878.611	233
878.651	250
878.694	335
878.758	1017
878.776	1119
878.858	403
878.865	395
878.941	497
878.972	317
879.023	-25
879.078	99
879.105	232
879.185	941
879.187	956
879.269	683
879.292	587
879.351	148
879.399	-164
879.433	-260
879.506	567
879.516	662
879.598	531
879.613	545
879.680	494
879.720	411
879.762	489
879.827	273
879.844	164
879.926	606
879.933	554
880.007	390
880.040	548
880.089	501
880.147	574
880.171	728
880.253	833
880.254	834
880.335	1358
880.360	1459
880.417	1863
880.467	2468
880.499	2693
880.574	2467
880.580	2421
880.662	1224
880.680	1096
880.744	805
880.787	571
880.825	417
880.893	644
880.907	693
880.989	645
881.000	625
881.070	681
881.106	679
881.152	646
881.213	814
881.233	772
881.315	-22
881.319	-30
881.396	568
881.426	645
881.478	384
881.532	538
881.559	789
881.639	524
881.641	516
881.722	612
881.745	629
881.803	718
881.852	732
881.885	661
881.958	444
881.966	435
882.047	466
882.064	488
882.129	725
882.171	694
882.210	407
882.277	91
882.291	119
882.372	615
882.383	555
882.454	502
882.489	927
882.535	1124
882.596	1013
882.616	1072
882.697	1010
882.702	1017
882.778	483
882.808	270
882.859	474
882.914	989
882.940	977
883.020	327
883.021	330
883.102	389
883.127	542
883.183	689
883.233	541
883.264	583
883.339	1055
883.345	1057
883.426	377
883.445	310
883.507	443
883.551	550
883.587	635
883.657	781
883.668	840
883.749	1219
883.763	1267
883.830	564
883.869	296
883.910	506
883.975	589
883.991	649
884.072	820
884.081	884
884.152	1094
884.187	868
884.233	873
884.292	1416
884.314	1354
884.394	558
884.398	524
884.475	283
884.504	230
884.555	376
884.610	421
884.636	436
884.716	769
884.716	778
884.797	1452
884.821	1657
884.877	1355
884.927	1019
884.958	903
885.033	590
885.038	594
885.118	688
885.139	667
885.199	394
885.244	396
885.279	730
885.350	1210
885.359	1205
885.439	1393
885.456	1276
885.520	868
885.561	907
885.600	783
885.667	367
885.680	446
885.760	1003
885.773	1071
885.840	773
885.878	675
885.920	929
885.984	1100
886.000	1002
886.080	786
886.089	751
886.160	907
886.195	890
886.240	603
886.300	252
886.320	338
886.400	807
886.406	836
886.480	536
886.511	365
886.560	778
886.616	1241
886.640	1248
886.720	1422
886.722	1412
886.800	741
886.827	669
886.879	791
886.932	681
886.959	903
887.038	1811
887.039	1809
887.119	959
887.143	706
887.198	1361
887.248	1962
887.278	1642
887.354	656
887.358	699
887.437	1624
887.459	1878
887.517	1666
887.564	1409
887.596	1091
887.669	386
887.676	386
887.755	333
887.774	317
887.835	818
887.880	1245
887.914	1164
887.985	891
887.994	993
888.073	1861
888.090	2043
888.153	1835
888.195	1665
888.232	1403
888.300	936
888.311	926
888.391	863
888.405	831
888.470	1080
888.510	1192
888.549	1012
888.615	859
888.628	979
888.708	1622
888.720	1712
888.787	1553
888.825	1436
888.866	1325
888.930	1192
888.945	1216
889.024	1299
889.035	1312
889.103	1874
889.140	2114
889.182	1459
889.245	561
889.261	702
889.340	1305
889.349	1379
889.419	1229
889.454	1121
889.498	1232
889.559	1397
889.577	1386
889.656	1332
889.664	1326
889.735	1788
889.768	2004
889.814	1862
889.873	1662
889.978	1188
890.083	775
890.187	1734
890.292	1493
890.397	1209
890.501	681
890.606	464
890.710	1486
890.815	2515
890.919	774
891.024	1544
891.128	1014
891.233	1214
891.337	1101
891.442	1832
891.546	1860
891.650	1044
891.755	1312
891.859	2137
891.963	1689
892.068	1715
892.172	1085
892.276	414
892.380	763
892.484	1669
892.589	2208
892.693	1779
892.797	432
892.901	652
893.005	680
893.109	2135
893.213	1729
893.317	679
893.421	832
893.525	809
893.629	742
893.733	1793
893.837	585
893.941	412
894.045	729
894.148	454
894.252	1216
894.356	2488
894.460	1453
894.564	690
894.667	735
894.771	1391
894.875	629
894.978	591
895.082	736
895.186	2305
895.289	1410
895.393	882
895.496	944
895.600	580
895.703	416
895.807	705
895.910	790
896.014	912
896.117	917
896.221	1693
896.324	569
896.427	1834
896.531	467
896.634	1008
896.737	644
896.840	1627
896.944	1380
897.047	1181
897.150	52
897.253	365
897.356	590
897.460	339
897.563	316
897.666	393
897.769	1456
897.872	1103
897.975	655
898.078	332
898.181	793
898.284	395
898.387	1101
898.490	2078
898.593	824
898.695	968
898.798	441
898.901	834
899.004	879
899.107	455
899.209	1045
899.312	1866
899.415	1186
899.518	950
899.620	850
899.723	704
899.826	318
899.928	864
900.031	738
900.133	842
900.236	619
900.338	791
900.441	61
900.543	1091
900.646	882
900.748	1614
900.851	1146
900.953	532
901.055	142
901.158	1061
901.260	488
901.362	655
901.465	810
901.567	720
901.669	1284
901.771	690
901.873	461
901.976	777
902.078	513
902.180	293
902.282	-251
902.384	765
902.486	720
902.588	570
902.690	58
902.792	183
902.894	-388
902.996	1622
903.098	202
903.200	-151
903.302	-159
903.404	670
903.505	195
903.607	42
903.709	1484
903.811	609
903.913	52
904.014	527
904.116	162
904.218	448
904.319	586
904.421	2159
904.523	833
904.624	1149
904.726	498
904.827	730
904.929	424
905.030	938
905.132	991
905.233	319
905.335	440
905.436	916
905.537	266
905.639	671
905.740	443
905.841	214
905.943	979
906.044	733
906.145	471
906.247	580
906.348	330
906.449	529
906.550	408
906.651	620
906.752	700
906.854	658
906.955	-424
907.056	292
907.157	1080
907.258	977
907.359	-164
907.460	546
907.561	315
907.662	350
907.762	330
907.863	-166
907.964	1022
908.065	1325
908.166	143
908.267	491
908.367	-894
908.468	386
908.569	780
908.670	1397
908.770	1077
908.871	625
908.971	902
909.072	-351
909.173	375
909.273	-379
909.374	15
909.474	564
909.575	1059
909.675	29
909.776	225
909.876	33
909.977	635
910.077	52
910.177	565
910.278	580
910.378	-34
910.478	258
910.579	366
910.679	-256
910.779	646
910.879	624
910.980	1040
911.080	490
911.180	-352
911.280	641
911.380	659
911.480	-176
911.580	97
911.680	572
911.780	1349
911.880	259
911.980	112
912.080	-319
912.180	405
912.280	490
912.380	15
912.480	1058
912.580	677
912.679	376
912.779	805
912.879	377
912.979	-373
913.078	591
913.178	169
913.278	461
913.377	33
913.477	-290
913.577	910
913.676	661
913.776	393
913.875	904
913.975	110
914.074	89
914.174	137
914.273	255
914.373	617
914.472	615
914.572	-379
914.671	-70
914.770	324
914.870	-414
914.969	-60
915.068	87
915.167	194
915.267	853
915.366	513
915.465	315
915.564	657
915.663	410
915.763	38
915.862	-175
915.961	524
916.060	135
916.159	26
916.258	-261
916.357	-44
916.456	526
916.555	883
916.654	381
916.752	283
916.851	228
916.950	352
917.049	102
917.148	593
917.247	-84
917.345	263
917.444	-56
917.543	441
917.642	512
917.740	865
917.839	870
917.937	1094
918.036	831
918.135	-149
918.233	-120
918.332	754
918.430	-418
918.529	310
918.627	509
918.726	377
918.824	876
918.923	110
919.021	1132
919.119	-142
919.218	-122
919.316	336
919.414	467
919.512	236
919.611	926
919.709	378
919.807	782
919.905	94
920.003	1036
920.102	169
920.200	719
920.298	840
920.396	667
920.494	214
920.592	598
920.690	1061
920.788	686
920.886	94
920.984	533
921.082	734
921.180	1064
921.277	1245
921.375	1405
921.473	1831
921.571	1644
921.669	1457
921.766	975
921.864	1486
921.962	1661
922.060	1001
922.157	1005
922.255	1300
922.352	1806
922.450	1511
922.548	1233
922.645	2012
922.743	2629
922.840	3791
922.938	4977
923.035	4335
923.133	4863
923.230	4745
923.327	6263
923.425	5373
923.522	5526
923.619	4700
923.717	3854
923.814	5119
923.911	4623
924.008	5131
924.106	4029
924.203	4481
924.300	4600
924.397	4448
924.494	4866
924.591	4287
924.688	4022
924.786	4465
924.883	4131
924.979	3025
925.077	4546
925.173	3395
925.270	3953
925.367	3957
925.464	4013
925.561	5267
925.658	4178
925.755	4102
925.852	4758
925.948	3518
926.045	4904
926.142	4074
926.239	5015
926.335	2993
926.432	4780
926.529	5168
926.625	5208
926.722	2760
926.818	4071
926.915	4194
927.011	3709
927.108	3470
927.204	3710
927.301	3499
927.397	2897
927.494	4730
927.590	2665
927.687	3857
927.783	4834
927.879	3866
927.976	4254
928.072	3373
928.168	3625
928.264	4005
928.361	3604
928.457	4208
928.553	3409
928.649	3070
928.745	3094
928.841	2369
928.937	3576
929.033	3195
929.129	3842
929.225	3702
929.321	3867
929.417	3423
929.513	2850
929.609	3495
929.705	3265
929.801	2831
929.897	2979
929.993	2780
930.089	3352
930.184	2810
930.280	3802
930.376	4310
930.471	3026
930.567	3330
930.663	2771
930.758	2421
930.854	3291
930.950	2709
931.045	2781
931.141	3194
931.236	4644
931.332	3187
931.427	2747
931.523	3350
931.618	3193
931.714	1849
931.809	2987
931.905	3626
932.000	2453
932.095	1906
932.191	3844
932.286	3318
932.381	3599
932.476	2547
932.572	2473
932.667	2793
932.762	2992
932.857	3036
932.952	3072
933.047	2383
933.142	2693
933.237	2216
933.332	2546
933.427	2653
933.522	3048
933.617	1563
933.712	2201
933.807	3089
933.902	2768
933.997	3604
934.092	1869
934.187	1752
934.282	2919
934.376	2542
934.471	2112
934.566	1702
934.661	2660
934.755	2799
934.850	3410
934.945	2548
935.039	2284
935.134	2186
935.228	2302
935.323	2909
935.417	2346
935.512	1511
935.606	2097
935.701	2560
935.795	3191
935.890	2504
935.984	1956
936.079	1466
936.173	3249
936.267	2235
936.362	1572
936.456	1538
936.550	2955
936.644	2314
936.738	1427
936.833	1214
936.927	1477
937.021	1713
937.115	1572
937.209	2147
937.303	2481
937.397	1072
937.491	2297
937.585	3000
937.679	2621
937.773	1909
937.867	1681
937.961	2878
938.055	2885
938.149	1950
938.243	1944
938.337	1628
938.430	2123
938.524	2830
938.618	2405
938.712	1025
938.805	1670
938.899	2520
938.993	2716
939.086	1823
939.180	1667
939.274	2671
939.367	2031
939.461	1985
939.554	1553
939.648	1854
939.741	1164
939.835	1939
939.928	2776
940.022	2652
940.115	1475
940.208	1902
940.302	2713
940.395	2252
940.488	1364
940.582	1925
940.675	658
940.768	1779
940.861	2135
940.954	2226
941.048	890
941.141	1718
941.234	810
941.327	2234
941.420	2109
941.513	2433
941.606	1397
941.699	1560
941.792	1866
941.885	1333
941.978	2219
942.071	1937
942.164	367
942.257	1031
942.349	1956
942.442	992
942.535	727
942.628	981
942.721	1817
942.813	590
942.906	1397
942.999	1371
943.091	410
943.184	1456
943.277	1283
943.369	1477
943.462	272
943.554	1602
943.647	1306
943.739	2056
943.832	1580
943.924	155
944.017	870
944.109	860
944.201	1349
944.294	1437
944.386	1856
944.478	1166
944.571	827
944.663	982
944.755	1702
944.847	2192
944.940	1455
945.032	525
945.124	575
945.216	1606
945.308	1485
945.400	1816
945.492	1097
945.584	1258
945.676	1636
945.768	731
945.860	2265
945.952	832
946.044	1209
946.136	1197
946.228	1341
946.320	1712
946.412	861
946.503	1526
946.595	1707
946.687	665
946.779	349
946.870	612
946.962	220
947.054	1102
947.145	1884
947.237	1022
947.329	967
947.420	974
947.512	1632
947.603	-170
947.695	781
947.786	521
947.878	760
947.969	187
948.061	1069
948.152	605
948.243	452
948.335	944
948.426	-205
948.517	952
948.609	1128
948.700	1141
948.791	1826
948.882	1082
948.973	102
949.065	508
949.156	1459
949.247	-323
949.338	1700
949.429	363
949.520	961
949.611	-168
949.702	1670
949.793	760
949.884	1213
949.975	545
950.066	739
950.157	-464
950.247	254
950.338	602
950.429	251
950.520	453
950.611	601
950.701	535
950.792	1961
950.883	619
950.973	912
951.064	841
951.155	614
951.245	1244
951.336	1313
951.427	993
951.517	1821
951.608	655
951.698	452
951.788	84
951.879	304
951.969	794
952.060	816
952.150	430
952.240	1746
952.331	-612
952.421	2188
952.511	4
952.602	832
952.692	155
952.782	-139
952.872	417
952.962	912
953.052	185
953.143	308
953.233	1005
953.323	1209
953.413	294
953.503	1730
953.593	633
953.683	600
953.773	-866
953.863	664
953.953	-347
954.042	705
954.132	147
954.222	775
954.312	93
954.402	805
954.492	727
954.581	1553
954.671	256
954.761	128
954.850	1050
954.940	364
955.030	-41
955.119	-292
955.209	-250
955.298	-203
955.388	351
955.477	988
955.567	-1013
955.656	639
955.746	991
955.835	404
955.925	-572
956.014	-4
956.103	526
956.193	325
956.282	681
956.371	801
956.461	1047
956.550	-189
956.639	-132
956.728	70
956.817	980
956.906	363
956.995	558
957.085	-199
957.174	761
957.263	-395
957.352	298
957.441	597
957.530	11
957.619	63
957.708	-270
957.796	224
957.885	168
957.974	362
958.063	953
958.152	-620
958.241	32
958.329	178
958.418	-181
958.507	-133
958.596	1380
958.684	-88
958.773	642
958.861	1082
958.950	569
959.039	800
959.127	949
959.216	804
959.304	284
959.393	859
959.481	849
959.570	1326
959.658	-744
959.746	260
959.835	582
959.923	401
960.011	352
960.100	469
960.188	815
960.276	528
960.365	106
960.453	-228
960.541	-319
960.629	718
960.717	-888
960.805	-251
960.893	594
960.981	-997
961.069	1312
961.158	432
961.245	2025
961.333	151
961.421	-604
961.509	641
961.597	448
961.685	22
961.773	-301
961.861	272
961.949	609
962.036	-124
962.124	637
962.212	-33
962.299	-1166
962.387	520
962.475	680
962.562	-537
962.650	727
962.738	109
962.825	153
962.913	362
963.000	-398
963.088	-417
963.175	215
963.263	168
963.350	499
963.438	-51
963.525	8
963.612	1183
963.700	545
963.787	4613
963.874	1550
963.962	344
964.049	-380
964.136	-265
964.223	-925
964.310	-102
964.398	420
964.485	18
964.572	-112
964.659	1208
964.746	-3
964.833	376
964.920	-618
965.007	-75
965.094	676
965.181	659
965.268	-47
965.355	41
965.441	-543
965.528	-725
965.615	495
965.702	-56
965.789	122
965.875	786
965.962	794
966.049	-790
966.136	-714
966.222	777
966.309	332
966.395	-2
966.482	5
966.569	-413
966.655	-364
966.742	-499
966.828	-215
966.915	-19
967.001	3
967.087	-926
967.174	213
967.260	754
967.347	659
967.433	659
967.519	3511
967.605	504
967.692	326
967.778	690
967.864	-403
967.950	-1139
968.036	-483
968.123	178
968.209	-477
968.295	-1243
968.381	373
968.467	610
968.553	-1747
968.639	183
968.725	-449
968.811	758
968.897	1009
968.983	170
969.069	-407
969.154	6
969.240	-286
969.326	-587
969.412	-394
969.497	-670
969.583	-822
969.669	860
969.755	-120
969.840	-234
969.926	876
970.012	1188
970.097	2573
970.183	843
970.268	44
970.354	474
970.439	-431
970.525	2431
970.610	6
970.696	1452
970.781	-83
970.866	0
970.952	494
971.037	-614
971.122	-363
971.208	335
971.293	-159
971.378	-1253
971.463	478
971.549	-57
971.634	-343
971.719	-239
971.804	-93
971.889	293
971.974	-322
972.059	-66
972.144	1129
972.229	-652
972.314	-723
972.399	234
972.484	-801
972.569	-360
972.654	-985
972.739	1133
972.824	513
972.908	-260
972.993	-434
973.078	-6
973.163	176
973.247	127
973.332	-1404
973.417	501
973.501	-1157
973.586	912
973.671	239
973.755	1021
973.840	-446
973.924	1102
974.009	463
974.093	-251
974.178	656
974.262	1162
974.346	-82
974.431	-88
974.515	-778
974.600	85
974.684	-212
974.768	-52
974.852	348
974.937	-542
975.021	-509
975.105	152
975.189	-407
975.273	106
975.358	-1009
975.442	-223
975.526	549
975.610	-1417
975.694	-441
975.778	1306
975.862	177
975.946	-1256
976.030	1225
976.114	-340
976.198	-128
976.281	-61
976.365	405
976.449	-950
976.533	-195
976.617	-1257
976.700	-204
976.784	251
976.868	402
976.951	59
977.035	-326
977.119	-532
977.202	-398
977.286	103
977.369	-66
977.453	887
977.536	137
977.620	-514
977.703	219
977.787	-116
977.870	260
977.953	230
978.037	-1589
978.120	109
978.203	-548
978.287	727
978.370	315
978.453	-825
978.536	-567
978.620	565
978.703	-76
978.786	-512
978.869	-272
978.952	-809
979.035	946
979.118	-184
979.201	-639
979.284	286
979.367	-447
979.450	499
979.533	-527
979.616	144
979.699	-633
979.782	890
979.865	-94
979.948	-362
980.030	-591
980.113	21
980.196	-1649
980.279	612
980.361	-363
980.444	-417
980.526	530
980.609	782
980.692	324
980.774	1126
980.857	-743
980.939	849
981.022	907
981.104	-239
981.187	318
981.269	1273
981.352	-142
981.434	-528
981.516	-851
981.599	1074
981.681	-73
981.763	-316
981.846	-70
981.928	-186
982.010	-964
982.092	-140
982.174	227
982.256	-869
982.339	-13
982.421	-802
982.503	-374
982.585	-1047
982.667	406
982.749	-302
982.831	-186
982.913	-891
982.995	302
983.077	-745
983.158	686
983.240	-511
983.322	517
983.404	787
983.486	124
983.568	410
983.649	185
983.731	404
983.813	-225
983.894	405
983.976	-148
984.058	14
984.139	626
984.221	-808
984.302	844
984.384	177
984.465	-935
984.547	293
984.628	-1208
984.710	926
984.791	741
984.872	272
984.954	-174
985.035	956
985.116	53
985.198	-74
985.279	1400
985.360	-442
985.441	-51
985.522	859
985.604	16
985.685	-1507
985.766	529
985.847	674
985.928	-498
986.009	397
986.090	-281
986.171	446
986.252	268
986.333	500
986.414	634
986.495	632
986.576	-229
986.656	609
986.737	759
986.818	282
986.899	-468
986.980	79
987.060	851
987.141	-78
987.222	222
987.302	278
987.383	1109
987.464	225
987.544	759
987.625	7
987.705	920
987.786	1031
987.866	560
987.947	267
988.027	1190
988.108	1224
988.188	745
988.268	-49
988.349	372
988.429	708
988.509	70
988.589	204
988.670	-906
988.750	69
988.830	-44
988.910	589
988.990	-388
989.070	350
989.151	486
989.231	12
989.311	488
989.391	257
989.471	-464
989.551	519
989.631	-478
989.711	1014
989.791	348
989.870	-579
989.950	835
990.030	-96
990.110	397
990.190	-852
990.269	16
990.349	-185
990.429	-203
990.509	748
990.588	-1105
990.668	304
990.747	-94
990.827	153
990.907	506
990.986	-197
991.066	-281
991.145	30
991.225	855
991.304	-90
991.383	-10
991.463	-15
991.542	458
991.622	-324
991.701	-534
991.780	-139
991.859	-169
991.939	-310
992.018	41
992.097	513
992.176	446
992.256	59
992.335	-717
992.414	144
992.493	-781
992.572	-419
992.651	171
992.730	-1030
992.809	507
992.888	-871
992.967	-347
993.046	568
993.125	-849
993.203	-405
993.282	-549
993.361	-481
993.440	-1072
993.519	-1222
993.597	-10
993.676	41
993.755	-461
993.834	-53
993.912	-789
993.991	81
994.069	-1047
994.148	-291
994.226	47
994.305	-759
994.384	-760
994.462	344
994.540	-567
994.619	-675
994.697	-262
994.776	-636
994.854	-771
994.932	-439
995.011	-646
995.089	-1563
995.167	-484
995.245	-10
995.324	-994
995.402	500
995.480	-572
995.558	290
995.636	-1137
995.714	-1461
995.792	181
995.870	-1331
995.948	-111
996.026	-283
996.104	-1142
996.182	-264
996.260	-979
996.338	0
996.416	-1893
996.494	-662
996.572	-73
996.649	-1402
996.727	-1399
996.805	-467
996.883	-484
996.960	-1153
997.038	-484
997.116	93
997.193	-1691
997.271	-441
997.348	-900
997.426	-706
997.504	-396
997.581	557
997.658	31
997.736	-1561
997.813	-1580
997.891	262
997.968	-673
998.046	-1175
998.123	-990
998.200	-542
998.277	-1246
998.355	-284
998.432	-2874
998.509	-921
998.586	-301
998.663	-91
998.741	-592
998.818	-502
998.895	-791
998.972	-820
999.049	-920
999.126	-1316
999.203	-584
999.280	-834
999.357	-880
999.434	-778
999.511	360
999.587	-164
999.664	-1747
999.741	-988
999.818	-621
999.895	-1018
999.971	-2178
1000.048	-233
1000.125	-113
1000.202	-1422
1000.278	-956
1000.355	-1522
1000.431	-1488
1000.508	-1838
1000.584	-1141
1000.661	-373
1000.738	-1215
1000.814	-374
1000.890	-471
1000.967	-1677
1001.043	-885
1001.120	-2269
1001.196	-1441
1001.272	-1001
1001.349	-1226
1001.425	-1059
1001.501	-600
1001.577	-1546
1001.654	-1237
1001.730	-1189
1001.806	-1054
1001.882	-1351
1001.958	-1158
1002.034	-916
1002.110	-939
1002.186	-1837
1002.262	-524
1002.338	-1648
1002.414	-1192
1002.490	-350
1002.566	-1399
1002.642	-1133
1002.718	-910
1002.794	-355
1002.870	-849
1002.945	-1139
1003.021	-1090
1003.097	-929
1003.173	-1364
1003.248	-1635
1003.324	-1583
1003.400	-898
1003.475	-1529
1003.551	-1039
1003.626	-1338
1003.702	-649
1003.777	-1159
1003.853	-880
1003.928	-1555
1004.004	-918
1004.079	-370
1004.155	-961
1004.230	-2186
1004.305	78
1004.381	-1223
1004.456	-901
1004.531	-1199
1004.607	-1222
1004.682	-1042
1004.757	-1041
1004.832	-1736
1004.907	-1058
1004.982	-817
1005.057	-669
1005.133	-821
1005.208	-1275
1005.283	-1267
1005.358	-577
1005.433	-1357
1005.508	-1193
1005.583	-1541
1005.657	-1650
1005.732	-781
1005.807	-1317
1005.882	-1641
1005.957	-1555
1006.032	-1033
1006.106	-1428
1006.181	-1120
1006.256	-1032
1006.331	-2262
1006.405	-1693
1006.480	-1293
1006.554	-1431
1006.629	-1189
1006.704	-1698
1006.778	-702
1006.853	-1103
1006.927	-1919
1007.002	-1465
1007.076	-783
1007.150	-1221
1007.225	-1587
1007.299	-1704
1007.373	-1305
1007.448	-937
1007.522	-622
1007.596	-171
1007.671	-1233
1007.745	-1814
1007.819	-1746
1007.893	-1492
1007.967	-939
1008.041	-2114
1008.115	-990
1008.190	-1676
1008.264	-907
1008.338	-2480
1008.412	-1666
1008.486	-1029
1008.560	-1160
1008.633	-1638
1008.707	-953
1008.781	-1007
1008.855	-1663
1008.929	-1596
1009.003	-1745
1009.076	-1043
1009.150	-1211
1009.224	-1005
1009.298	-1557
1009.371	-1323
1009.445	-968
1009.519	-1396
1009.592	-1812
1009.666	-1237
1009.739	-873
1009.813	-2354
1009.886	-1028
1009.960	-1715
1010.033	-587
1010.107	-1625
1010.180	-2301
1010.253	-423
1010.327	-1289
1010.400	-1100
1010.473	-1720
1010.547	260
1010.620	-1437
1010.693	-1909
1010.766	-1650
1010.840	-827
1010.913	-501
1010.986	-1213
1011.059	-1014
1011.132	-1684
1011.205	-246
1011.278	-1142
1011.351	-1944
1011.424	-1339
1011.497	-1808
1011.570	-745
1011.643	-1470
1011.716	-1024
1011.789	-1663
1011.862	-1129
1011.934	-1089
1012.007	-1896
1012.080	-1276
1012.153	-1568
1012.225	-228
1012.298	-2258
1012.371	-605
1012.443	-1195
1012.516	-2211
1012.588	-822
1012.661	-994
1012.733	-2014
1012.806	-840
1012.879	-1183
1012.951	-919
1013.023	-1324
1013.096	-1553
1013.168	-1596
1013.241	-1078
1013.313	-931
1013.385	-1181
1013.458	-1692
1013.530	-972
1013.602	-1684
1013.674	-1226
1013.746	-1432
1013.819	-1477
1013.891	-1003
1013.963	-1522
1014.035	-1098
1014.107	-1744
1014.179	-938
1014.251	-2134
1014.323	-866
1014.395	-1301
1014.467	-1020
1014.539	-1562
1014.611	-1413
1014.683	-1329
1014.754	-862
1014.826	-1943
1014.898	-1677
1014.970	-1504
1015.042	-79
1015.113	-1232
1015.185	-1012
1015.257	-1633
1015.328	-741
1015.400	-1728
1015.471	-1094
1015.543	-2077
1015.615	-1200
1015.686	-1956
1015.757	-819
1015.829	-1491
1015.901	-1267
1015.972	-1036
1016.043	-1537
1016.115	-1059
1016.186	-1597
1016.257	-1584
1016.328	-1365
1016.400	-565
1016.471	-2281
1016.542	-1949
1016.613	-971
1016.685	-1504
1016.756	-395
1016.827	-1643
1016.898	-1406
1016.969	-685
1017.040	-1364
1017.111	-1895
1017.182	-1443
1017.253	-1205
1017.324	-1337
1017.395	-1568
1017.466	-590
1017.537	-1276
1017.608	-1395
1017.678	-1079
1017.749	-1460
1017.820	-2156
1017.891	-2111
1017.961	-1589
1018.032	-1620
1018.103	-1125
1018.173	-853
1018.244	-1678
1018.315	-673
1018.385	-721
1018.456	-947
1018.526	-2121
1018.597	-1000
1018.667	-1636
1018.738	-1985
1018.808	-1484
1018.878	-1221
1018.949	-2142
1019.019	-808
1019.089	-1248
1019.160	-470
1019.230	-1892
1019.300	-2033
1019.371	-2266
1019.441	-823
1019.511	-1118
1019.581	-1375
1019.651	-1495
1019.721	-721
1019.791	-1565
1019.861	-767
1019.931	-1679
1020.001	-1780
1020.071	-693
1020.141	-1378
1020.211	-1344
1020.281	-1249
1020.351	-1397
1020.421	-954
1020.491	-730
1020.560	-1815
1020.630	-972
1020.700	-1315
1020.770	-1535
1020.839	-1036
1020.909	-1105
1020.979	-2054
1021.048	-1542
1021.118	-2870
1021.187	-1201
1021.257	-1034
1021.326	-869
1021.396	-1037
1021.465	-1433
1021.535	-1086
1021.604	-1935
1021.674	-1262
1021.743	-1633
1021.812	-1995
1021.882	-1264
1021.951	-1387
1022.020	-1144
1022.089	-1447
1022.159	-1565
1022.228	-496
1022.297	-1989
1022.366	-1161
1022.435	-487
1022.504	-1042
1022.573	-1941
1022.642	-1790
1022.711	-1892
1022.781	-1385
1022.849	-978
1022.918	-1049
1022.987	-1068
1023.056	-1320
1023.125	-1537
1023.194	-1488
1023.263	-1732
1023.331	-1409
1023.400	-1619
1023.469	-1639
1023.538	-1360
1023.606	-1822
1023.675	-1619
1023.744	-1629
1023.812	-2475
1023.881	-1209
1023.949	-1238
1024.018	-1320
1024.086	-1593
1024.155	-1548
1024.223	-2033
1024.292	-1269
1024.360	-453
1024.429	-1186
1024.497	-2910
1024.565	-1681
1024.634	-1831
1024.702	-1295
1024.770	-1885
1024.838	-1521
1024.907	-1290
1024.975	-1726
1025.043	-1724
1025.111	-1360
1025.179	-1311
1025.247	-914
1025.315	-2184
1025.383	-1541
1025.451	-2004
1025.519	-1326
1025.587	-1755
1025.655	-821
1025.723	-1614
1025.791	-2033
1025.859	-1482
1025.927	-1152
1025.995	-2282
1026.062	-1707
1026.130	-2518
1026.198	-1766
1026.266	-2233
1026.333	-1097
1026.401	-1788
1026.469	-1772
1026.536	-1664
1026.604	-1911
1026.671	-1520
1026.739	-1519
1026.806	-1549
1026.874	-1303
1026.941	-1027
1027.009	-1733
1027.076	-1421
1027.144	-1594
1027.211	-1951
1027.278	-1789
1027.345	-1602
1027.413	-1369
1027.480	-1684
1027.547	-1176
1027.614	-1813
1027.682	-1773
1027.749	-1681
1027.816	-1576
1027.883	-1469
1027.950	-1856
1028.017	-2012
1028.084	-1876
1028.151	-2599
1028.218	-1616
1028.285	-1585
1028.352	-1566
1028.419	-2491
1028.486	-2137
1028.553	-1761
1028.619	-2416
1028.686	-1339
1028.753	-2675
1028.820	-1933
1028.886	-1449
1028.953	-1636
1029.020	-1549
1029.086	-1939
1029.153	-1818
1029.220	-928
1029.286	-1984
1029.353	-1499
1029.419	-2206
1029.486	-2087
1029.552	-2576
1029.619	-1712
1029.685	-1903
1029.751	-1642
1029.818	-738
1029.884	-1786
1029.951	-615
1030.017	-2290
1030.083	-1344
1030.149	-1159
1030.216	-1749
1030.282	-1622
1030.348	-1899
1030.414	-2518
1030.480	-2327
1030.546	-1265
1030.612	-1591
1030.678	-1728
1030.744	-1836
1030.810	-1860
1030.876	-2005
1030.942	-2386
1031.008	-2328
1031.074	-1341
1031.140	-2391
1031.206	-1539
1031.272	-2259
1031.337	-2642
1031.403	-1970
1031.469	-1875
1031.534	-1583
1031.600	-2091
1031.666	-2230
1031.731	-1831
1031.797	-1417
1031.863	-1804
1031.928	-2430
1031.994	-1687
1032.059	-1618
1032.125	-2936
1032.190	-2162
1032.256	-1660
1032.321	-2020
1032.386	-2677
1032.452	-1779
1032.517	-1933
1032.582	-1828
1032.647	-2480
1032.713	-2463
1032.778	-1700
1032.843	-2364
1032.908	-2157
1032.974	-1812
1033.039	-2368
1033.104	-860
1033.169	-1761
1033.234	-2319
1033.299	-1863
1033.364	-1378
1033.429	-2143
1033.494	-2451
1033.559	-2459
1033.624	-2436
1033.688	-1529
1033.753	-2273
1033.818	-2114
1033.883	-2002
1033.948	-1292
1034.013	-1762
1034.077	-1534
1034.142	-1305
1034.207	-1097
1034.271	-281
1034.336	-263
1034.400	-865
1034.465	-1307
1034.530	-896
1034.594	-2100
1034.658	-2160
1034.723	-2392
1034.787	-1630
1034.852	-1517
1034.916	-2055
1034.981	-1520
1035.045	-1500
1035.109	-1691
1035.173	-1427
1035.238	-2587
1035.302	-2940
1035.366	-2294
1035.430	-1827
1035.495	-1967
1035.559	-2366
1035.623	-2450
1035.687	-2550
1035.751	-2307
1035.815	-1239
1035.879	-2045
1035.943	-1792
1036.007	-2298
1036.071	-2082
1036.135	-2555
1036.198	-2077
1036.262	-2728
1036.326	-1436
1036.390	-1809
1036.454	-1524
1036.517	-1871
1036.581	-2148
1036.645	-1876
1036.709	-1884
1036.772	-1722
1036.836	-1645
1036.900	-1870
1036.963	-2023
1037.026	-1554
1037.090	-2068
1037.154	-2520
1037.217	-1582
1037.280	-1976
1037.344	-1896
1037.407	-2346
1037.471	-1936
1037.534	-2126
1037.597	-1790
1037.661	-1971
1037.724	-2178
1037.787	-2317
1037.850	-1793
1037.913	-2112
1037.977	-1768
1038.040	-2255
1038.103	-2402
1038.166	-2073
1038.229	-2394
1038.292	-2265
1038.355	-2456
1038.418	-2164
1038.481	-2081
1038.544	-2148
1038.607	-1271
1038.670	-1417
1038.732	-2139
1038.795	-2185
1038.858	-2245
1038.921	-1665
1038.984	-2045
1039.046	-2596
1039.109	-2299
1039.172	-1576
1039.234	-2229
1039.297	-1709
1039.360	-2892
1039.422	-2113
1039.485	-2013
1039.547	-2632
1039.610	-1676
1039.672	-1278
1039.734	-1736
1039.797	-2361
1039.859	-2485
1039.922	-1175
1039.984	-1594
1040.046	-2607
1040.109	-956
1040.171	-1615
1040.233	-2215
1040.295	-2567
1040.358	-2697
1040.420	-2084
1040.482	-2527
1040.544	-1900
1040.606	-2176
1040.668	-2355
1040.730	-1623
1040.792	-2333
1040.854	-1803
1040.916	-2761
1040.978	-1644
1041.040	-2160
1041.102	-2587
1041.164	-2224
1041.225	-2480
1041.287	-2902
1041.349	-2194
1041.411	-2443
1041.472	-2038
1041.534	-2058
1041.596	-2427
1041.657	-1754
1041.719	-1467
1041.781	-2450
1041.842	-2119
1041.904	-1854
1041.965	-2109
1042.027	-2747
1042.088	-2344
1042.150	-1038
1042.211	-1077
1042.272	-1393
1042.334	-2512
1042.395	-2134
1042.456	-2607
1042.518	-1203
1042.579	-1475
1042.640	-2034
1042.701	-1381
1042.763	-1838
1042.824	-1553
1042.885	-1529
1042.946	-1309
1043.007	-2307
1043.068	-1406
1043.129	-1866
1043.190	-1980
1043.251	-1952
1043.312	-2282
1043.373	-1199
1043.434	-2027
1043.495	-1706
1043.556	-1661
1043.616	-2022
1043.677	-2181
1043.738	-1792
1043.799	-1887
1043.859	-1600
1043.920	-1406
1043.981	-1768
1044.041	-2317
1044.102	-2656
1044.162	-2290
1044.223	-2429
1044.284	-2494
1044.344	-1789
1044.405	-1698
1044.465	-1898
1044.525	-2230
1044.586	-1989
1044.646	-1257
1044.707	-1834
1044.767	-1854
1044.827	-1335
1044.887	-2301
1044.948	-1632
1045.008	-1734
1045.068	-2160
1045.128	-1480
1045.188	-2768
1045.249	-443
1045.309	-1652
1045.369	-1536
1045.429	-2573
1045.489	-1971
1045.549	-1825
1045.609	-1705
1045.669	-1920
1045.729	-1878
1045.789	-2145
1045.848	-1232
1045.908	-1212
1045.968	-1858
1046.028	-1613
1046.088	-1536
1046.147	-1273
1046.207	-2040
1046.267	-417
1046.326	-1298
1046.386	-1670
1046.446	-615
1046.505	-1301
1046.565	-1038
1046.624	-681
1046.684	-483
1046.743	-539
1046.803	-1108
1046.862	-448
1046.922	0
