'Start Wavelength	183.907
'End Wavelength	1046.922
'Gate Delay	5.000
'Gate Width (ms)	1.050
'Laser Output Level	0.000
'X Position	0.000
'Y Position	0.000
'Z Position	0.000
'Grid Point Number	1.000
'Shot Number	100.000
183.907	111.000
183.977	556.000
184.047	105
184.116	1042
184.186	730
184.256	668
184.325	-169
184.395	-251
184.465	614
184.534	-39
184.604	-639
184.674	105
184.743	-201
184.813	629
184.883	-800
184.952	187
185.022	279
185.092	157
185.161	11
185.231	-442
185.301	-73
185.370	146
185.440	-425
185.509	-245
185.579	226
185.649	205
185.718	339
185.788	341
185.857	358
185.927	91
185.996	-195
186.066	186
186.136	-483
186.205	-359
186.275	-151
186.344	564
186.414	206
186.483	-840
186.553	243
186.622	743
186.692	-401
186.761	93
186.831	203
186.900	-557
186.970	208
187.039	-560
187.109	339
187.178	-16
187.248	-65
187.317	621
187.387	-8
187.456	434
187.526	191
187.595	-258
187.664	-547
187.734	-172
187.803	568
187.873	-73
187.942	-102
188.012	333
188.081	74
188.150	-223
188.220	180
188.289	670
188.358	-373
188.428	386
188.497	-616
188.567	-137
188.636	-119
188.705	-514
188.775	226
188.844	-338
188.913	291
188.983	-527
189.052	327
189.121	-102
189.191	-762
189.260	83
189.329	299
189.399	-210
189.468	381
189.537	43
189.606	740
189.676	-147
189.745	-94
189.814	1102
189.883	-301
189.953	226
190.022	47
190.091	16
190.161	640
190.230	240
190.299	182
190.368	-43
190.437	-270
190.507	-257
190.576	-156
190.645	471
190.714	-252
190.783	386
190.853	318
190.922	376
190.991	-31
191.060	172
191.129	13
191.198	-248
191.268	340
191.337	904
191.406	335
191.475	-4
191.544	-648
191.613	-35
191.682	-299
191.752	-309
191.821	163
191.890	41
191.959	183
192.028	127
192.097	1280
192.166	-301
192.235	-448
192.304	866
192.373	-366
192.442	-164
192.511	600
192.580	4
192.650	-378
192.719	355
192.788	373
192.857	413
192.926	-488
192.995	-42
193.064	453
193.133	90
193.202	484
193.271	139
193.340	61
193.409	-676
193.478	279
193.547	296
193.615	1048
193.684	1040
193.753	330
193.822	1060
193.891	352
193.960	692
194.029	-213
194.098	454
194.167	-327
194.236	775
194.305	-156
194.374	579
194.443	-292
194.512	753
194.580	207
194.649	608
194.718	115
194.787	-122
194.856	-616
194.925	206
194.994	-647
195.062	99
195.131	-15
195.200	339
195.269	-307
195.338	840
195.407	-51
195.475	-560
195.544	-630
195.613	24
195.682	468
195.751	-204
195.819	729
195.888	146
195.957	688
196.026	769
196.094	475
196.163	-212
196.232	65
196.301	-111
196.369	439
196.438	-25
196.507	-310
196.576	-183
196.644	610
196.713	-660
196.782	341
196.850	127
196.919	543
196.988	-449
197.056	479
197.125	331
197.194	-171
197.262	286
197.331	-168
197.400	340
197.468	-97
197.537	-504
197.606	-58
197.674	-18
197.743	-559
197.812	-534
197.880	798
197.949	-266
198.017	510
198.086	484
198.155	-302
198.223	212
198.292	511
198.360	-617
198.429	-284
198.497	596
198.566	-201
198.635	0
198.703	1191
198.772	179
198.840	254
198.909	263
198.977	-48
199.046	242
199.114	327
199.183	255
199.251	-54
199.320	-100
199.388	-129
199.457	149
199.525	-519
199.594	-184
199.662	-123
199.731	132
199.799	396
199.867	-315
199.936	-17
200.004	-559
200.073	39
200.141	-190
200.210	62
200.278	-788
200.346	283
200.415	384
200.483	482
200.552	682
200.620	451
200.688	149
200.757	319
200.825	653
200.893	-115
200.962	-11
201.030	94
201.098	-883
201.167	815
201.235	87
201.303	-265
201.372	576
201.440	-368
201.508	499
201.577	-111
201.645	189
201.713	422
201.781	-103
201.850	756
201.918	668
201.986	153
202.055	-295
202.123	-308
202.191	329
202.259	492
202.327	12
202.396	447
202.464	274
202.532	-146
202.600	1026
202.669	629
202.737	663
202.805	245
202.873	-17
202.941	180
203.009	-506
203.078	20
203.146	237
203.214	132
203.282	-790
203.350	266
203.418	-552
203.487	501
203.555	-101
203.623	113
203.691	14
203.759	-546
203.827	60
203.895	51
203.963	-490
204.031	-567
204.099	75
204.168	-858
204.236	263
204.304	308
204.372	4
204.440	132
204.508	-11
204.576	-418
204.644	149
204.712	-149
204.780	-746
204.848	544
204.916	-196
204.984	-634
205.052	839
205.120	44
205.188	155
205.256	-134
205.324	433
205.392	74
205.460	960
205.528	-442
205.596	712
205.664	171
205.732	668
205.799	1002
205.867	934
205.935	-312
206.003	465
206.071	363
206.139	-279
206.207	595
206.275	716
206.343	124
206.411	371
206.478	-25
206.546	-259
206.614	147
206.682	709
206.750	602
206.818	45
206.885	600
206.953	-770
207.021	960
207.089	862
207.157	122
207.225	248
207.292	-103
207.360	129
207.428	433
207.496	-775
207.563	-68
207.631	783
207.699	-227
207.767	465
207.834	-96
207.902	672
207.970	-328
208.038	23
208.105	-427
208.173	110
208.241	374
208.309	312
208.376	-204
208.444	492
208.512	-402
208.579	-78
208.647	1287
208.715	374
208.782	818
208.850	845
208.918	126
208.985	428
209.053	342
209.120	362
209.188	-513
209.256	1045
209.323	-344
209.391	105
209.459	1210
209.526	647
209.594	50
209.661	-388
209.729	-184
209.796	327
209.864	205
209.932	-408
209.999	1141
210.067	116
210.134	418
210.202	46
210.269	845
210.337	1246
210.404	-239
210.472	1052
210.539	324
210.607	-284
210.674	206
210.742	583
210.809	-439
210.877	586
210.944	776
211.012	-955
211.079	1852
211.146	-174
211.214	-276
211.281	1001
211.349	668
211.416	962
211.484	-325
211.551	-339
211.618	529
211.686	59
211.753	-264
211.821	632
211.888	-280
211.955	819
212.023	579
212.090	681
212.157	235
212.225	-229
212.292	858
212.359	1144
212.427	2950
212.494	1390
212.561	269
212.629	184
212.696	-200
212.763	443
212.831	141
212.898	352
212.965	227
213.032	283
213.100	-388
213.167	-516
213.234	406
213.301	635
213.369	1040
213.436	-321
213.503	148
213.570	993
213.638	269
213.705	390
213.772	-648
213.839	269
213.906	932
213.973	222
214.041	120
214.108	526
214.175	117
214.242	484
214.309	-102
214.376	800
214.444	-463
214.511	-98
214.578	183
214.645	669
214.712	-102
214.779	-163
214.846	557
214.913	1605
214.980	1250
215.048	1011
215.115	1115
215.182	18
215.249	410
215.316	808
215.383	647
215.450	552
215.517	778
215.584	-44
215.651	-242
215.718	-546
215.785	939
215.852	871
215.919	362
215.986	-248
216.053	582
216.120	-214
216.187	213
216.254	566
216.321	-69
216.388	-317
216.455	480
216.522	796
216.589	595
216.656	1222
216.722	458
216.789	745
216.856	448
216.923	686
216.990	657
217.057	673
217.124	869
217.191	696
217.258	1464
217.324	901
217.391	141
217.458	613
217.525	804
217.592	1566
217.659	-532
217.725	892
217.792	22
217.859	920
217.926	-311
217.993	663
218.059	365
218.126	286
218.193	399
218.260	182
218.327	165
218.393	-338
218.460	-9
218.527	-257
218.594	4
218.660	231
218.727	1682
218.794	-142
218.860	848
218.927	-185
218.994	-100
219.061	-309
219.127	218
219.194	1006
219.261	693
219.327	640
219.394	734
219.461	-115
219.527	654
219.594	413
219.661	417
219.727	-683
219.794	746
219.860	73
219.927	518
219.994	1174
220.060	597
220.127	2276
220.193	1602
220.260	686
220.326	786
220.393	1969
220.460	2849
220.526	1257
220.593	486
220.659	1466
220.726	235
220.792	2486
220.859	1849
220.925	2976
220.992	3453
221.058	3003
221.125	2865
221.191	1661
221.258	326
221.324	1348
221.391	498
221.457	370
221.524	801
221.590	86
221.657	2369
221.723	1115
221.789	1081
221.856	1175
221.922	-276
221.989	1713
222.055	420
222.121	-249
222.188	1479
222.254	380
222.321	678
222.387	57
222.453	36
222.520	516
222.586	-80
222.652	138
222.719	-466
222.785	603
222.851	60
222.918	-100
222.984	254
223.050	-36
223.116	-936
223.183	570
223.249	-92
223.315	-362
223.382	422
223.448	520
223.514	-716
223.580	-793
223.647	-593
223.713	486
223.779	-78
223.845	334
223.911	7
223.978	-274
224.044	268
224.110	-56
224.176	-405
224.242	763
224.309	-475
224.375	84
224.441	288
224.507	-988
224.573	-873
224.639	604
224.705	135
224.772	470
224.838	-49
224.904	666
224.970	79
225.036	413
225.102	-580
225.168	24
225.234	-56
225.300	-11
225.366	64
225.432	376
225.499	727
225.565	-177
225.631	-132
225.697	-521
225.763	896
225.829	811
225.895	990
225.961	969
226.027	432
226.093	352
226.159	1692
226.225	2141
226.291	3360
226.357	6033
226.423	3720
226.489	1700
226.554	525
226.620	1629
226.686	1076
226.752	2499
226.818	3589
226.884	7596
226.950	7155
227.016	2997
227.082	2919
227.148	1156
227.214	398
227.279	635
227.345	304
227.411	1023
227.477	1136
227.543	2836
227.609	3034
227.674	2827
227.740	983
227.806	177
227.872	584
227.938	418
228.003	1263
228.069	565
228.135	-215
228.201	536
228.267	-573
228.332	108
228.398	-1063
228.464	496
228.530	-334
228.595	-335
228.661	-636
228.727	-222
228.792	1235
228.858	785
228.924	-1184
228.990	1548
229.055	-808
229.121	375
229.187	296
229.252	-359
229.318	-74
229.384	363
229.449	-405
229.515	-1231
229.581	-1160
229.646	1807
229.712	733
229.777	339
229.843	-126
229.909	1077
229.974	1039
230.040	894
230.105	-393
230.171	-142
230.236	745
230.302	1707
230.368	-269
230.433	-183
230.499	196
230.564	1511
230.630	-565
230.695	229
230.761	102
230.826	-823
230.892	1607
230.957	-663
231.023	212
231.088	92
231.154	603
231.219	845
231.284	128
231.350	638
231.415	-963
231.481	100
231.546	-93
231.612	51
231.677	-10
231.742	-1360
231.808	1238
231.873	-10
231.939	-1042
232.004	1166
232.069	1223
232.135	-267
232.200	88
232.265	390
232.331	-415
232.396	-571
232.461	-682
232.527	-315
232.592	-361
232.657	757
232.723	-711
232.788	-361
232.853	503
232.918	146
232.984	-950
233.049	-376
233.114	127
233.179	1063
233.245	652
233.310	652
233.375	-901
233.440	-258
233.506	-890
233.571	-619
233.636	991
233.701	5
233.766	437
233.832	445
233.897	-613
233.962	-914
234.027	869
234.092	1053
234.157	49
234.222	-88
234.288	345
234.353	1671
234.418	1062
234.483	613
234.548	646
234.613	989
234.678	1215
234.743	17
234.808	2339
234.873	698
234.938	1271
235.004	98
235.069	540
235.134	-129
235.199	769
235.264	462
235.329	-1023
235.394	885
235.459	759
235.524	-512
235.589	998
235.654	375
235.719	-857
235.784	930
235.849	-259
235.913	520
235.978	270
236.043	985
236.108	105
236.173	-635
236.238	1567
236.303	203
236.368	-329
236.433	881
236.498	55
236.563	1510
236.627	2772
236.692	10096
236.757	9527
236.822	3256
236.887	1770
236.952	1915
237.017	38
237.081	1706
237.146	1562
237.211	4874
237.276	9937
237.341	15283
237.405	6955
237.470	3092
237.535	1448
237.600	1587
237.664	1543
237.729	496
237.794	763
237.859	3512
237.923	877
237.988	725
238.053	1808
238.118	1071
238.182	1378
238.247	2940
238.312	-337
238.376	670
238.441	-219
238.506	1170
238.570	-632
238.635	2288
238.700	220
238.764	-295
238.829	-228
238.893	-413
238.958	608
239.023	552
239.087	374
239.152	318
239.216	-559
239.281	1161
239.346	244
239.410	-20
239.475	349
239.539	2576
239.604	774
239.668	1540
239.733	-11
239.797	2580
239.862	6062
239.926	4941
239.991	2201
240.055	1355
240.120	-291
240.184	1459
240.249	-75
240.313	-305
240.378	196
240.442	1600
240.507	1974
240.571	914
240.635	-540
240.700	445
240.764	-151
240.829	53
240.893	-635
240.957	932
241.022	487
241.086	2311
241.151	-116
241.215	-590
241.279	1165
241.344	-164
241.408	680
241.472	-553
241.537	1801
241.601	280
241.665	-369
241.730	-486
241.794	1188
241.858	335
241.922	724
241.987	198
242.051	-285
242.115	-627
242.179	352
242.244	179
242.308	1489
242.372	563
242.436	291
242.501	200
242.565	-103
242.629	-219
242.693	501
242.757	-218
242.822	-33
242.886	1294
242.950	888
243.014	-86
243.078	-75
243.142	485
243.206	363
243.271	1408
243.335	-593
243.399	1544
243.463	2803
243.527	11347
243.591	3569
243.655	1214
243.719	709
243.783	1613
243.847	1225
243.911	2347
243.975	643
244.040	298
244.104	2106
244.168	-75
244.232	287
244.296	1061
244.360	1997
244.424	385
244.488	468
244.552	631
244.615	-338
244.679	849
244.743	-337
244.807	-187
244.871	920
244.935	1182
244.999	-892
245.063	339
245.127	759
245.191	906
245.255	424
245.319	36
245.383	-745
245.446	1703
245.510	-544
245.574	508
245.638	866
245.702	-689
245.766	1543
245.829	1428
245.893	-702
245.957	38
246.021	268
246.085	159
246.149	137
246.212	1803
246.276	1388
246.340	87
246.404	932
246.467	1899
246.531	-696
246.595	1866
246.659	258
246.722	-459
246.786	398
246.850	807
246.913	1031
246.977	-975
247.041	544
247.104	109
247.168	494
247.232	1934
247.295	3326
247.359	1297
247.423	-67
247.486	1265
247.550	1104
247.614	-333
247.677	650
247.741	520
247.804	330
247.868	1113
247.932	256
247.995	4252
248.059	872
248.122	-31
248.186	1407
248.249	1093
248.313	5599
248.376	6623
248.440	3542
248.503	480
248.567	2362
248.630	906
248.694	2828
248.757	3475
248.821	5274
248.884	4659
248.948	2442
249.011	4578
249.075	6826
249.138	7012
249.202	2076
249.265	1163
249.328	2561
249.392	382
249.455	2468
249.519	885
249.582	872
249.645	1993
249.709	1207
249.772	1010
249.835	1340
249.899	915
249.962	1708
250.025	1030
250.089	1961
250.152	3749
250.215	1111
250.279	909
250.342	1154
250.405	1778
250.468	364
250.532	1562
250.595	2761
250.658	8241
250.721	17984
250.785	6234
250.848	3468
250.911	1408
250.974	2533
251.038	2469
251.101	4289
251.164	2854
251.227	2312
251.290	1282
251.354	3515
251.417	13706
251.480	15411
251.543	9489
251.606	25058
251.669	21102
251.732	8158
251.795	6631
251.859	6870
251.922	16252
251.985	10772
252.048	4335
252.111	2539
252.174	1211
252.237	3722
252.300	7508
252.363	8794
252.426	21833
252.489	8368
252.552	4141
252.615	1404
252.678	3587
252.741	6750
252.804	8006
252.867	21936
252.930	12138
252.993	5339
253.056	3277
253.119	3340
253.182	1433
253.245	3303
253.308	3382
253.371	1516
253.434	2077
253.497	1888
253.559	4015
253.622	2152
253.685	1869
253.748	1800
253.811	1413
253.874	2191
253.937	1019
254.000	1138
254.062	1479
254.125	2806
254.188	4132
254.251	2530
254.314	958
254.376	1706
254.439	2467
254.502	2373
254.565	698
254.628	3995
254.690	1748
254.753	-80
254.816	892
254.878	1451
254.941	2685
255.004	2812
255.067	1329
255.129	934
255.192	1119
255.255	-195
255.317	873
255.380	756
255.443	498
255.505	-492
255.568	334
255.631	-606
255.693	852
255.756	27
255.819	1289
255.881	-160
255.944	812
256.006	-115
256.069	209
256.132	-3
256.194	1175
256.257	638
256.319	697
256.382	333
256.444	2128
256.507	860
256.569	763
256.632	601
256.694	1279
256.757	5274
256.819	17983
256.882	7724
256.944	2386
257.007	1907
257.069	1358
257.132	780
257.194	1265
257.257	461
257.319	-61
257.381	1219
257.444	4465
257.506	18948
257.569	22294
257.631	7474
257.693	4442
257.756	1563
257.818	660
257.880	940
257.943	912
258.005	554
258.067	723
258.130	980
258.192	316
258.254	696
258.317	1910
258.379	1019
258.441	1984
258.503	2345
258.566	1700
258.628	3190
258.690	-31
258.753	1377
258.815	1550
258.877	-162
258.939	839
259.001	1040
259.064	1158
259.126	-352
259.188	1412
259.250	915
259.312	791
259.375	761
259.437	1271
259.499	459
259.561	654
259.623	1210
259.685	128
259.747	392
259.809	1974
259.872	3600
259.934	5879
259.996	7811
260.058	2446
260.120	184
260.182	1078
260.244	434
260.306	-136
260.368	1315
260.430	456
260.492	1968
260.554	3130
260.616	840
260.678	3555
260.740	3800
260.802	260
260.864	1037
260.926	-387
260.988	854
261.050	1041
261.112	1997
261.174	6284
261.236	3761
261.298	1169
261.359	1526
261.421	3482
261.483	-140
261.545	1585
261.607	-621
261.669	1282
261.731	220
261.793	2940
261.854	139
261.916	1473
261.978	467
262.040	1175
262.102	839
262.164	876
262.225	983
262.287	573
262.349	1331
262.411	886
262.472	1505
262.534	324
262.596	2461
262.658	1230
262.719	-1003
262.781	1329
262.843	826
262.904	1491
262.966	1100
263.028	720
263.090	5214
263.151	14459
263.213	4688
263.275	2625
263.336	484
263.398	914
263.459	-623
263.521	793
263.583	1365
263.644	854
263.706	-416
263.767	311
263.829	991
263.891	-203
263.952	102
264.014	-169
264.075	1076
264.137	4500
264.198	2065
264.260	186
264.321	168
264.383	1208
264.444	5682
264.506	2109
264.567	615
264.629	2637
264.690	4274
264.752	1704
264.813	253
264.875	-481
264.936	286
264.998	-217
265.059	1014
265.120	1222
265.182	1558
265.243	8235
265.305	11088
265.366	2846
265.427	942
265.489	1402
265.550	-337
265.611	448
265.673	439
265.734	367
265.795	1073
265.857	327
265.918	-638
265.979	2629
266.040	13804
266.102	14805
266.163	3799
266.224	1593
266.286	789
266.347	-352
266.408	294
266.469	1272
266.530	50
266.592	505
266.653	1041
266.714	1566
266.775	538
266.836	-162
266.898	-264
266.959	804
267.020	998
267.081	1960
267.142	692
267.203	630
267.264	-356
267.326	562
267.387	-112
267.448	187
267.509	379
267.570	149
267.631	547
267.692	-707
267.753	304
267.814	15
267.875	955
267.936	1949
267.997	1718
268.058	424
268.119	242
268.180	-325
268.241	-973
268.302	362
268.363	-285
268.424	-148
268.485	87
268.546	-240
268.607	-679
268.668	172
268.729	-683
268.790	863
268.851	818
268.912	1563
268.972	1475
269.033	1278
269.094	-232
269.155	472
269.216	83
269.277	-485
269.338	186
269.398	83
269.459	-94
269.520	821
269.581	452
269.642	1652
269.702	41
269.763	531
269.824	-96
269.885	75
269.945	1076
270.006	-419
270.067	-146
270.128	296
270.188	-339
270.249	-554
270.310	-257
270.370	492
270.431	-158
270.492	-407
270.553	-140
270.613	849
270.674	2619
270.734	1092
270.795	130
270.856	399
270.916	18
270.977	1140
271.038	549
271.098	-265
271.159	627
271.219	838
271.280	232
271.340	463
271.401	-32
271.462	826
271.522	491
271.583	740
271.643	332
271.704	-185
271.764	493
271.825	1816
271.885	5701
271.946	8669
272.006	3015
272.066	3552
272.127	7768
272.187	3472
272.248	1329
272.308	1358
272.369	4423
272.429	2183
272.489	2010
272.550	1807
272.610	1170
272.671	1368
272.731	1479
272.791	1502
272.852	733
272.912	298
272.972	489
273.033	530
273.093	962
273.153	1648
273.214	1011
273.274	804
273.334	2832
273.394	7785
273.455	2906
273.515	2999
273.575	6956
273.635	3418
273.696	3186
273.756	5524
273.816	3153
273.876	1470
273.936	2498
273.997	4966
274.057	789
274.117	266
274.177	1334
274.237	8089
274.297	7368
274.358	3993
274.418	5235
274.478	3817
274.538	1230
274.598	594
274.658	3507
274.718	3426
274.778	1979
274.838	839
274.898	1010
274.958	5336
275.018	6142
275.078	3964
275.138	1692
275.198	974
275.258	725
275.318	805
275.378	880
275.438	1214
275.498	1439
275.558	1814
275.618	5931
275.678	5221
275.738	2971
275.798	2895
275.858	848
275.918	137
275.978	1591
276.038	1404
276.098	608
276.157	1436
276.217	4805
276.277	2251
276.337	1734
276.397	850
276.457	1457
276.517	44
276.576	1216
276.636	253
276.696	1353
276.756	2259
276.815	2015
276.875	1232
276.935	894
276.995	894
277.055	710
277.114	468
277.174	1022
277.234	3246
277.293	1623
277.353	1002
277.413	1284
277.472	893
277.532	278
277.592	1659
277.651	5077
277.711	13979
277.771	4551
277.830	13600
277.890	13515
277.950	7354
278.009	22958
278.069	10839
278.128	8939
278.188	14847
278.248	5568
278.307	15033
278.367	10345
278.426	3412
278.486	2177
278.545	1572
278.605	1366
278.664	494
278.724	1319
278.783	2402
278.843	7501
278.902	2157
278.962	1841
279.021	1991
279.081	3203
279.140	2885
279.199	2231
279.259	2189
279.318	3433
279.378	4112
279.437	5874
279.496	15669
279.556	54564
279.615	53770
279.675	14729
279.734	7942
279.793	7941
279.853	10299
279.912	5031
279.971	3269
280.031	2788
280.090	4330
280.149	8434
280.208	8584
280.268	38472
280.327	47280
280.386	12371
280.445	6790
280.505	5163
280.564	2890
280.623	3085
280.682	2795
280.742	4546
280.801	1080
280.860	923
280.919	1512
280.978	1435
281.037	1270
281.097	848
281.156	1580
281.215	1194
281.274	882
281.333	4608
281.392	4835
281.451	838
281.510	1638
281.569	927
281.628	836
281.688	1182
281.747	1294
281.806	1228
281.865	565
281.924	326
281.983	1396
282.042	163
282.101	971
282.160	693
282.219	670
282.278	820
282.337	2077
282.396	1641
282.454	1439
282.513	227
282.572	3984
282.631	2907
282.690	1017
282.749	461
282.808	1640
282.867	1675
282.926	1078
282.985	169
283.043	381
283.102	1179
283.161	655
283.220	2149
283.279	6234
283.338	2273
283.396	981
283.455	1506
283.514	1721
283.573	1524
283.631	2092
283.690	1838
283.749	1283
283.808	2147
283.866	3363
283.925	1761
283.984	1604
284.043	1706
284.101	1617
284.160	1295
284.219	3795
284.277	2782
284.336	3140
284.395	7484
284.453	7610
284.512	4351
284.570	5505
284.629	5419
284.688	5702
284.746	6765
284.805	7758
284.863	9582
284.922	13792
284.981	17288
285.039	22661
285.098	34206
285.156	52921
285.215	49023
285.273	43027
285.332	54914
285.390	44044
285.449	30100
285.507	20821
285.566	16308
285.624	12383
285.683	9616
285.741	7648
285.799	6682
285.858	5275
285.916	4516
285.975	4633
286.033	3365
286.091	3395
286.150	2907
286.208	3315
286.267	2119
286.325	2871
286.383	3119
286.442	2545
286.500	1355
286.558	2011
286.616	1712
286.675	1823
286.733	1866
286.791	1337
286.850	1787
286.908	2077
286.966	2408
287.024	1664
287.083	1596
287.141	1183
287.199	1675
287.257	1703
287.315	2173
287.374	1133
287.432	2855
287.490	2554
287.548	2007
287.606	1150
287.664	1163
287.723	1192
287.781	2699
287.839	1204
287.897	1138
287.955	2710
288.013	3132
288.071	6623
288.129	23803
288.187	73333
288.245	41368
288.303	12307
288.361	6144
288.419	3729
288.477	3282
288.535	2727
288.593	2453
288.651	2434
288.709	1529
288.767	1353
288.825	653
288.883	1367
288.941	1170
288.999	1267
289.057	826
289.115	1019
289.173	-121
289.231	1175
289.289	969
289.346	1141
289.404	978
289.462	1609
289.520	1544
289.578	1228
289.636	236
289.694	839
289.751	230
289.809	427
289.867	321
289.925	1280
289.983	689
290.040	218
290.098	750
290.156	448
290.214	268
290.271	486
290.329	222
290.387	967
290.444	37
290.502	-7
290.560	-11
290.617	710
290.675	678
290.733	154
290.790	688
290.848	1230
290.906	364
290.963	561
291.021	799
291.078	-59
291.136	673
291.194	2340
291.251	7665
291.309	2727
291.366	841
291.424	1009
291.481	641
291.539	600
291.596	1335
291.654	115
291.711	1158
291.769	561
291.826	1599
291.884	605
291.941	336
291.999	787
292.056	1229
292.114	1308
292.171	707
292.228	1221
292.286	760
292.343	1869
292.401	2407
292.458	1187
292.515	1327
292.573	1256
292.630	1644
292.687	788
292.745	455
292.802	165
292.859	4841
292.917	7184
292.974	3305
293.031	1922
293.089	437
293.146	1021
293.203	734
293.260	776
293.318	947
293.375	2512
293.432	1009
293.489	1318
293.546	811
293.604	1288
293.661	3347
293.718	10235
293.775	5749
293.832	2665
293.889	2912
293.947	2159
294.004	1514
294.061	1363
294.118	2712
294.175	7191
294.232	12939
294.289	6395
294.346	2386
294.403	2106
294.460	2043
294.517	1531
294.574	1357
294.631	1812
294.688	1200
294.745	2635
294.802	11780
294.859	17897
294.916	6302
294.973	2546
295.030	1896
295.087	1738
295.144	1540
295.201	2158
295.258	1278
295.315	179
295.372	4106
295.429	8055
295.486	5381
295.542	2017
295.599	7008
295.656	14971
295.713	7873
295.770	8139
295.827	3610
295.883	2539
295.940	1978
295.997	2368
296.054	2547
296.111	1049
296.167	1642
296.224	1038
296.281	412
296.338	660
296.394	849
296.451	1284
296.508	3375
296.564	7579
296.621	5429
296.678	7757
296.734	13059
296.791	6349
296.848	3314
296.904	2510
296.961	5827
297.018	8819
297.074	7732
297.131	3606
297.187	1388
297.244	2380
297.301	7207
297.357	15785
297.414	6315
297.470	2779
297.527	546
297.583	1180
297.640	1268
297.696	1390
297.753	1716
297.809	458
297.866	764
297.922	1216
297.979	557
298.035	860
298.092	1514
298.148	4961
298.204	5269
298.261	2855
298.317	3849
298.374	10767
298.430	7372
298.486	3566
298.543	2644
298.599	2043
298.656	2280
298.712	3710
298.768	9652
298.824	8937
298.881	3366
298.937	1612
298.993	1327
299.050	992
299.106	1973
299.162	900
299.218	1120
299.275	1078
299.331	1437
299.387	3022
299.443	7936
299.500	16029
299.556	12131
299.612	4460
299.668	3510
299.724	8369
299.780	12114
299.837	4729
299.893	4049
299.949	12372
300.005	18214
300.061	13123
300.117	20525
300.173	12014
300.229	4573
300.285	3578
300.341	4116
300.397	3227
300.453	1757
300.510	1611
300.566	2142
300.622	3888
300.678	14585
300.734	24280
300.790	14376
300.845	12394
300.901	11262
300.957	16826
301.013	11477
301.069	4371
301.125	3493
301.181	1426
301.237	2230
301.293	2002
301.349	2496
301.405	1440
301.461	1331
301.516	2503
301.572	1135
301.628	2378
301.684	1984
301.740	4019
301.796	6244
301.851	4481
301.907	6033
301.963	6674
302.019	7487
302.074	24143
302.130	27523
302.186	13982
302.242	5666
302.297	3923
302.353	3724
302.409	5345
302.464	5678
302.520	3897
302.576	8975
302.631	11994
302.687	7390
302.743	3013
302.798	2370
302.854	2165
302.910	1830
302.965	2644
303.021	4181
303.076	3933
303.132	4147
303.187	5376
303.243	3139
303.299	1770
303.354	1194
303.410	2173
303.465	1262
303.521	852
303.576	1831
303.632	1845
303.687	2888
303.743	8475
303.798	8207
303.853	3784
303.909	1836
303.964	1684
304.020	2639
304.075	3379
304.130	3056
304.186	5480
304.241	7087
304.297	5559
304.352	3330
304.358	3204
304.407	2185
304.449	2348
304.463	2405
304.518	1939
304.539	1914
304.573	1868
304.629	1822
304.630	1824
304.684	2042
304.720	4764
304.739	6113
304.794	10388
304.811	9157
304.850	6221
304.902	2723
304.905	2500
304.960	2671
304.992	2457
305.015	2271
305.071	2466
305.083	2279
305.126	1588
305.173	2138
305.181	2245
305.236	554
305.264	1029
305.292	1473
305.347	2123
305.354	2228
305.402	3013
305.445	2508
305.457	2312
305.512	2934
305.535	2841
305.567	2818
305.622	2511
305.626	2565
305.678	3914
305.716	8080
305.733	9624
305.788	12665
305.807	11041
305.843	8177
305.897	8731
305.898	8728
305.953	9136
305.988	6815
306.008	5587
306.063	2978
306.078	2864
306.118	2659
306.168	1593
306.173	1497
306.228	1703
306.259	1735
306.283	1781
306.338	1360
306.349	1468
306.393	1860
306.440	1816
306.448	1836
306.503	3111
306.530	2867
306.558	2829
306.613	5063
306.620	5435
306.668	7940
306.711	9844
306.723	9956
306.778	8466
306.801	6742
306.833	4885
306.888	2655
306.892	2597
306.943	2273
306.982	2039
306.997	1923
307.052	2182
307.072	1906
307.107	1560
307.162	2461
307.163	2469
307.217	3433
307.253	4289
307.272	4558
307.327	5376
307.343	4865
307.381	3715
307.434	3009
307.436	3047
307.491	5859
307.524	8105
307.546	8768
307.600	9662
307.614	8766
307.655	5969
307.704	3978
307.710	3892
307.765	3902
307.795	4757
307.819	5438
307.874	8496
307.885	8536
307.929	7930
307.975	7518
307.984	7744
308.038	9966
308.065	11930
308.093	19071
308.148	39385
308.156	44108
308.202	66768
308.246	82816
308.257	81966
308.312	50178
308.336	35777
308.366	25833
308.421	15130
308.426	14371
308.475	9564
308.517	7600
308.530	7088
308.585	6258
308.607	5820
308.639	5506
308.694	5514
308.697	5592
308.748	8448
308.787	11405
308.803	11609
308.857	9897
308.877	8923
308.912	8263
308.967	8671
308.967	8690
309.021	11544
309.058	14692
309.076	17835
309.130	29730
309.148	34377
309.185	56143
309.238	94500
309.239	94748
309.293	104666
309.328	100283
309.348	90464
309.402	50978
309.418	40622
309.457	28999
309.508	18742
309.511	18396
309.566	16415
309.598	16802
309.620	18807
309.674	26141
309.688	28411
309.729	28389
309.778	23928
309.783	23386
309.837	16070
309.868	12486
309.892	12247
309.946	13094
309.959	13708
310.001	14884
310.049	16011
310.055	15579
310.109	10548
310.139	7530
310.163	6144
310.218	4178
310.229	3767
310.272	3275
310.319	3225
310.326	3185
310.381	2819
310.409	2939
310.435	2793
310.489	2184
310.499	2112
310.543	2313
310.589	2306
310.598	2287
310.652	2534
310.679	2561
310.706	2306
310.760	1746
310.769	1674
310.814	2012
310.859	2302
310.868	2256
310.923	2031
310.948	1952
310.977	1995
311.031	2185
311.038	2208
311.085	1924
311.128	1407
311.139	1407
311.193	1774
311.218	1850
311.247	1892
311.301	2028
311.308	2041
311.356	1744
311.398	1487
311.410	1463
311.464	1430
311.488	1382
311.518	1422
311.572	1474
311.578	1494
311.626	1919
311.668	2205
311.680	2284
311.734	2722
311.758	2882
311.788	2721
311.842	2434
311.847	2410
311.896	3003
311.937	3518
311.950	3381
312.004	2788
312.027	2526
312.058	2283
312.112	1878
312.117	1845
312.165	2065
312.207	2271
312.297	2896
312.386	2491
312.476	2191
312.566	3053
312.656	2411
312.745	1927
312.835	1622
312.925	1934
313.015	2171
313.104	2425
313.194	2453
313.284	1493
313.374	3192
313.463	2210
313.553	2114
313.643	1827
313.732	1678
313.822	1560
313.912	2357
314.001	2342
314.091	3153
314.180	3044
314.270	2945
314.360	3248
314.449	3326
314.539	1584
314.628	2034
314.718	2339
314.808	3693
314.897	2560
314.987	2632
315.076	2846
315.166	3105
315.255	3757
315.345	3213
315.434	1708
315.524	3013
315.613	3110
315.703	3428
315.792	8245
315.881	23908
315.971	7959
316.060	5169
316.150	5588
316.239	5845
316.328	3322
316.418	2698
316.507	2660
316.597	2972
316.686	2646
316.775	3277
316.865	5873
316.954	2535
317.043	2410
317.133	1947
317.222	2008
317.311	1461
317.400	1454
317.490	3358
317.579	2160
317.668	3312
317.757	5271
317.847	14114
317.936	38974
318.025	11792
318.114	7945
318.203	4754
318.293	5764
318.382	8154
318.471	6322
318.560	9384
318.649	19739
318.738	4761
318.828	2930
318.917	2805
319.006	3162
319.095	8318
319.184	24474
319.273	10803
319.362	4262
319.451	2386
319.540	2656
319.629	4536
319.718	5256
319.807	4086
319.896	8497
319.985	29423
320.074	9122
320.163	3214
320.252	4279
320.341	5043
320.430	3733
320.519	4250
320.608	2318
320.697	3419
320.786	4037
320.875	3892
320.964	3556
321.053	5686
321.142	5820
321.230	6197
321.319	6363
321.408	10708
321.497	6148
321.586	6630
321.675	6181
321.764	6708
321.852	6098
321.941	7163
322.030	4453
322.119	6227
322.207	10387
322.296	9785
322.385	6146
322.474	7625
322.562	12470
322.651	8210
322.740	5646
322.829	6874
322.917	7218
323.006	5151
323.095	4379
323.183	4209
323.272	4902
323.361	8088
323.449	21316
323.538	7249
323.626	14324
323.715	8542
323.804	4775
323.892	11910
323.981	6956
324.069	3597
324.158	8049
324.246	7122
324.335	3320
324.424	3596
324.512	2632
324.601	2916
324.689	5074
324.778	7444
324.866	5521
324.954	3089
325.043	1952
325.131	3177
325.220	6132
325.308	5891
325.397	4820
325.485	3385
325.574	1991
325.662	1804
325.750	1543
325.839	1898
325.927	1637
326.015	2856
326.104	2162
326.192	3810
326.280	2486
326.369	1847
326.457	2143
326.545	3366
326.634	2713
326.722	2372
326.810	1144
326.898	2077
326.987	2999
327.075	3710
327.163	4306
327.251	2629
327.340	2906
327.428	5493
327.516	2399
327.604	2398
327.692	2235
327.781	1917
327.869	2828
327.957	2781
328.045	1757
328.133	2183
328.221	2063
328.309	1491
328.397	2600
328.485	2268
328.574	2231
328.662	7709
328.750	4763
328.838	2644
328.926	2702
329.014	2394
329.102	2060
329.190	5990
329.278	2331
329.366	2173
329.454	1301
329.542	1900
329.630	1219
329.718	1516
329.806	1815
329.893	2400
329.981	1369
330.069	1693
330.157	2647
330.245	5336
330.333	2998
330.421	1651
330.509	2461
330.597	6281
330.684	4072
330.772	2397
330.860	3428
330.948	5323
331.036	2305
331.123	2580
331.211	1646
331.299	2153
331.387	5354
331.475	7113
331.562	2359
331.650	2691
331.738	1826
331.825	2509
331.913	1568
332.001	2024
332.089	2058
332.176	3479
332.264	6434
332.352	4876
332.439	2396
332.527	2355
332.614	1590
332.702	2772
332.790	2252
332.877	3895
332.965	7489
333.052	3864
333.140	4132
333.228	8992
333.315	3565
333.403	1183
333.490	5685
333.578	5309
333.665	12140
333.753	5664
333.840	2714
333.928	3412
334.015	5658
334.103	11211
334.190	30205
334.278	9280
334.365	6994
334.452	6073
334.540	3939
334.627	5018
334.715	6426
334.802	11381
334.889	33784
334.977	32896
335.064	9678
335.151	5033
335.239	5062
335.326	5273
335.413	18672
335.501	20922
335.588	4474
335.675	4375
335.762	6110
335.850	8516
335.937	9495
336.024	17691
336.111	43140
336.199	23004
336.286	8802
336.373	4518
336.460	3712
336.547	2660
336.635	2826
336.722	2374
336.809	2031
336.896	3820
336.983	9086
337.070	21769
337.157	30465
337.245	17215
337.332	10424
337.419	2386
337.506	2272
337.593	3259
337.680	7715
337.767	21272
337.854	5511
337.941	6271
338.028	5907
338.115	2291
338.202	3492
338.289	5444
338.376	15551
338.463	6650
338.550	12827
338.637	12780
338.724	3836
338.811	5428
338.898	2031
338.984	2230
339.071	1286
339.158	1987
339.245	3734
339.332	3583
339.419	3858
339.506	4087
339.593	1252
339.679	2074
339.766	1017
339.853	2262
339.940	2464
340.027	2020
340.113	2476
340.200	2319
340.287	1419
340.374	1614
340.460	2168
340.547	1263
340.634	2353
340.720	6863
340.807	3606
340.894	1982
340.980	1041
341.067	1602
341.154	2161
341.240	2471
341.327	3366
341.414	2121
341.500	988
341.587	2498
341.674	1701
341.760	2976
341.847	2091
341.933	1431
342.020	991
342.106	1815
342.193	1308
342.279	3210
342.366	2120
342.452	2760
342.539	1802
342.625	3377
342.712	7084
342.798	3533
342.885	2021
342.971	970
343.058	980
343.144	1370
343.230	1731
343.317	1586
343.403	1654
343.490	1222
343.576	467
343.662	1672
343.749	1422
343.835	2286
343.921	2614
344.008	17924
344.094	34942
344.180	7285
344.267	2486
344.353	10134
344.439	9247
344.525	4017
344.612	5663
344.698	5595
344.784	2837
344.870	2152
344.957	1422
345.043	3191
345.129	1548
345.215	2868
345.301	2083
345.387	1595
345.474	1468
345.560	1364
345.646	653
345.732	2189
345.818	2203
345.904	1844
345.990	1321
346.076	2381
346.162	2579
346.249	2028
346.335	1583
346.421	2437
346.507	5624
346.593	14608
346.679	2645
346.765	2525
346.851	2030
346.937	1372
347.023	2471
347.108	1394
347.194	1449
347.280	1885
347.366	2157
347.452	7291
347.538	20011
347.624	14341
347.710	8910
347.796	2449
347.882	2535
347.967	1876
348.053	1998
348.139	1949
348.225	1983
348.311	1690
348.397	1721
348.482	2481
348.568	2101
348.654	1379
348.740	5145
348.825	5175
348.911	3689
348.997	9368
349.083	16084
349.168	3662
349.254	1488
349.340	2156
349.425	1463
349.511	1436
349.597	2038
349.682	3130
349.768	10727
349.854	4280
349.939	2532
350.025	856
350.110	2126
350.196	1680
350.282	-573
350.367	2864
350.453	1790
350.538	1822
350.624	1095
350.709	2046
350.795	829
350.880	1251
350.966	2584
351.051	2457
351.137	1581
351.222	2214
351.308	3040
351.393	8136
351.479	1997
351.564	1721
351.649	2218
351.735	1068
351.820	945
351.906	1593
351.991	1457
352.076	5830
352.162	8172
352.247	1854
352.332	1071
352.418	1629
352.503	3118
352.588	11680
352.673	6884
352.759	2558
352.844	1323
352.929	2560
353.014	1619
353.100	2102
353.185	2088
353.270	2095
353.355	2706
353.441	1559
353.526	1449
353.611	2117
353.696	2369
353.781	2743
353.866	244
353.952	2543
354.037	2202
354.122	5399
354.207	3652
354.292	2369
354.377	1617
354.462	1199
354.547	1304
354.632	2118
354.717	2296
354.802	1768
354.887	1604
354.972	1249
355.057	1647
355.142	1096
355.227	1611
355.312	1917
355.397	3475
355.482	7151
355.567	2959
355.652	3782
355.737	3850
355.822	11384
355.907	8152
355.991	2789
356.076	2056
356.161	2461
356.246	1455
356.331	2391
356.416	3076
356.501	22201
356.585	19572
356.670	2206
356.755	4075
356.840	3595
356.924	13556
357.009	42568
357.094	15089
357.179	3972
357.263	2212
357.348	3436
357.433	3327
357.517	2347
357.602	2180
357.687	2963
357.771	3719
357.856	9431
357.941	5697
358.025	12537
358.110	45401
358.195	19563
358.279	3946
358.364	3528
358.448	7800
358.533	18938
358.617	13129
358.702	13805
358.787	5517
358.871	3217
358.956	3099
359.040	2514
359.125	1033
359.209	2309
359.294	4486
359.378	7509
359.462	3647
359.547	1860
359.631	1923
359.716	1463
359.800	1587
359.885	2860
359.969	1047
360.053	2518
360.138	2082
360.222	2111
360.306	2312
360.391	3112
360.475	4704
360.559	9095
360.644	6752
360.728	4522
360.812	12139
360.896	30585
360.981	10769
361.065	5578
361.149	2449
361.233	2672
361.318	1567
361.402	2076
361.486	2805
361.570	2068
361.654	2638
361.739	4523
361.823	19973
361.907	30453
361.991	5371
362.075	4058
362.159	6007
362.243	9280
362.327	16132
362.411	23365
362.495	9301
362.580	5906
362.664	4403
362.748	5293
362.832	7902
362.916	16147
363.000	44243
363.084	67135
363.168	47138
363.252	11977
363.336	6056
363.420	7593
363.503	24397
363.587	25938
363.671	5092
363.755	3489
363.839	5465
363.923	3249
364.007	6419
364.091	8097
364.175	14859
364.258	53378
364.342	61562
364.426	88386
364.510	43541
364.594	15914
364.677	10839
364.761	28192
364.845	18345
364.929	6675
365.013	5252
365.096	4558
365.180	4652
365.264	11361
365.347	37469
365.431	14752
365.515	3514
365.598	2180
365.682	3576
365.766	3953
365.849	4267
365.933	2754
366.017	4483
366.100	2563
366.184	1296
366.267	2733
366.351	2440
366.435	1750
366.518	1004
366.602	1907
366.685	1818
366.769	2746
366.852	3325
366.936	4147
367.019	2584
367.103	2553
367.186	6640
367.270	2694
367.353	776
367.436	2013
367.520	1055
367.603	2671
367.687	1060
367.770	3404
367.853	3565
367.937	9304
368.020	12643
368.104	3122
368.187	3110
368.270	3846
368.353	3910
368.437	4575
368.520	10105
368.603	6536
368.687	7385
368.770	14627
368.853	3749
368.936	5422
369.020	4950
369.103	2146
369.186	1720
369.269	1855
369.352	2878
369.436	3215
369.519	2790
369.602	-107
369.685	3281
369.768	1412
369.851	2452
369.934	2037
370.018	1915
370.101	2351
370.184	4577
370.267	3107
370.350	3954
370.433	4842
370.516	15243
370.599	21720
370.682	5338
370.765	9075
370.848	11678
370.931	19443
371.014	8343
371.097	2555
371.180	2587
371.263	2691
371.346	750
371.429	2683
371.511	2275
371.594	2690
371.677	4610
371.760	6578
371.843	4112
371.926	18325
372.009	35617
372.091	14118
372.174	8150
372.257	22117
372.340	8659
372.423	8112
372.505	9369
372.588	3902
372.671	7631
372.754	18617
372.836	9831
372.919	11425
373.002	20751
373.085	5106
373.167	4582
373.250	8604
373.332	19191
373.415	28122
373.498	50054
373.580	19141
373.663	33371
373.746	38669
373.828	7448
373.911	5326
373.993	4992
374.076	19998
374.159	16768
374.241	6218
374.324	15199
374.406	10791
374.489	17046
374.571	42420
374.654	15402
374.736	8866
374.819	26083
374.901	38841
374.983	37406
375.066	7539
375.148	4888
375.231	17376
375.313	30665
375.395	9446
375.478	2676
375.560	3315
375.643	3120
375.725	8789
375.807	34014
375.890	25476
375.972	8987
376.054	6246
376.136	8730
376.219	4591
376.301	11223
376.383	28607
376.465	10048
376.548	5238
376.630	7360
376.712	24841
376.794	9795
376.877	2428
376.959	866
377.041	2536
377.123	4419
377.205	5598
377.287	1407
377.369	2246
377.452	1735
377.534	2473
377.616	1086
377.698	1982
377.780	333
377.862	2458
377.944	2533
378.026	1744
378.108	1898
378.190	1747
378.272	2020
378.354	1627
378.436	508
378.518	2333
378.600	6640
378.682	6138
378.764	9686
378.846	8715
378.928	2816
379.010	3052
379.091	2568
379.173	2265
379.255	712
379.337	2536
379.419	5795
379.501	15385
379.583	5647
379.664	2170
379.746	3188
379.828	10915
379.910	13137
379.991	12782
380.073	1901
380.155	2637
380.237	2204
380.318	1345
380.400	2238
380.482	3818
380.564	3172
380.645	3693
380.727	3307
380.809	4112
380.890	1338
380.972	1351
381.053	2005
381.135	2752
381.217	3717
381.298	11775
381.380	5408
381.461	5869
381.543	23638
381.624	27032
381.706	5558
381.787	3380
381.869	4613
381.951	12594
382.032	38795
382.113	25162
382.195	4978
382.276	6284
382.358	8152
382.439	21549
382.521	26660
382.602	41446
382.684	19454
382.765	35120
382.846	52578
382.928	94156
383.009	49497
383.090	43972
383.172	135681
383.253	181416
383.334	57116
383.416	42924
383.497	23918
383.578	18296
383.659	35806
383.741	123612
383.822	260498
383.903	125489
383.984	37455
384.066	43413
384.147	23957
384.228	9583
384.309	6027
384.390	5636
384.471	4786
384.553	5766
384.634	5197
384.715	5244
384.796	3408
384.877	4640
384.958	12264
385.039	12491
385.120	5091
385.201	5395
385.282	4223
385.363	6408
385.444	4519
385.525	8542
385.606	18275
385.687	16105
385.768	5166
385.849	5861
385.930	21201
386.011	31678
386.092	8139
386.173	3749
386.254	3442
386.335	4133
386.416	4002
386.496	8574
386.577	11421
386.658	5281
386.739	3135
386.820	4969
386.901	3684
386.981	4579
387.062	3351
387.143	3579
387.224	11669
387.304	12137
387.385	6866
387.466	4252
387.547	6115
387.627	4962
387.708	7047
387.789	21592
387.869	24467
387.950	9640
388.031	2681
388.111	2442
388.192	7024
388.273	9490
388.353	6047
388.434	3785
388.514	5618
388.595	21318
388.676	22780
388.756	10530
388.837	9345
388.917	5691
388.998	459
389.078	4234
389.159	2592
389.239	893
389.320	3499
389.400	1252
389.480	6618
389.561	12329
389.641	6848
389.722	3603
389.802	3182
389.883	6565
389.963	15399
390.043	9393
390.124	3244
390.204	5821
390.284	11229
390.365	7999
390.445	13156
390.525	26690
390.605	19700
390.686	6729
390.766	3508
390.846	3931
390.927	2052
391.007	1554
391.087	4114
391.167	2816
391.247	1654
391.328	4400
391.408	5153
391.488	4919
391.568	1722
391.648	3061
391.728	3873
391.808	4587
391.888	3528
391.969	9080
392.049	10571
392.129	7793
392.209	7600
392.289	17071
392.369	9970
392.449	11331
392.529	7497
392.609	7771
392.689	8760
392.769	18318
392.849	17794
392.929	19512
393.009	32505
393.089	33816
393.169	52280
393.248	144543
393.328	375911
393.408	369650
393.488	134353
393.568	46347
393.648	24388
393.728	15229
393.807	9381
393.887	10035
393.967	8345
394.047	7202
394.127	6832
394.206	13011
394.286	37851
394.366	141351
394.446	140568
394.525	34877
394.605	11158
394.685	8898
394.764	15060
394.844	25290
394.924	18453
395.003	6112
395.083	4378
395.163	4352
395.242	3519
395.322	4268
395.402	2675
395.481	6224
395.561	10979
395.640	30223
395.720	32993
395.799	35111
395.879	23740
395.958	16320
396.038	56158
396.117	183595
396.197	185684
396.276	59150
396.356	21748
396.435	17670
396.515	16230
396.594	19478
396.673	41908
396.753	139998
396.832	335399
396.912	236031
396.991	60754
397.070	22448
397.150	11656
397.229	11203
397.308	18030
397.388	32806
397.467	16734
397.546	6840
397.625	2330
397.705	6403
397.784	3784
397.863	3509
397.942	2993
398.022	3096
398.101	8816
398.180	23508
398.259	10887
398.338	4814
398.417	2235
398.497	1212
398.576	2862
398.655	1223
398.734	1927
398.813	2223
398.892	8668
398.971	25583
399.050	11269
399.129	1806
399.208	1720
399.287	2734
399.366	1041
399.445	1867
399.524	729
399.603	23
399.682	2085
399.761	6362
399.840	27206
399.919	20807
399.998	2832
400.077	630
400.156	-112
400.235	3455
400.313	1421
400.392	632
400.471	5112
400.550	9085
400.629	1918
400.708	1958
400.786	1443
400.865	5276
400.944	4384
401.023	3557
401.102	1076
401.180	1169
401.259	1086
401.338	1114
401.416	983
401.495	989
401.574	1954
401.652	356
401.731	1783
401.810	274
401.888	232
401.967	-187
402.046	460
402.124	2322
402.203	1398
402.281	1372
402.360	1769
402.438	6552
402.517	3895
402.596	1082
402.674	801
402.753	496
402.831	1391
402.910	1507
402.988	1520
403.066	6406
403.145	3529
403.223	3771
403.302	4181
403.380	3497
403.459	3037
403.537	1678
403.615	1035
403.694	-1018
403.772	1511
403.850	498
403.929	1022
404.007	22
404.085	2690
404.164	1368
404.242	2134
404.320	10431
404.398	27700
404.477	24931
404.555	35848
404.633	30480
404.711	21111
404.789	13691
404.868	2149
404.946	1211
405.024	1708
405.102	94
405.180	331
405.258	-803
405.336	1225
405.415	-27
405.493	1586
405.571	1815
405.649	235
405.727	-227
405.805	1997
405.883	1158
405.961	1039
406.039	1737
406.117	-747
406.195	747
406.273	6260
406.351	23472
406.429	13713
406.507	2267
406.585	772
406.663	834
406.740	1478
406.818	39
406.896	-225
406.974	1251
407.052	416
407.130	13240
407.208	18336
407.285	4492
407.363	-737
407.441	833
407.519	413
407.596	1395
407.674	2695
407.752	10988
407.830	10056
407.907	3620
407.985	-672
408.063	481
408.141	327
408.218	2125
408.296	33
408.373	629
408.451	1136
408.529	25
408.606	850
408.684	81
408.762	744
408.839	755
408.917	796
408.994	1758
409.072	302
409.149	1715
409.227	3164
409.304	5266
409.382	4195
409.459	5603
409.537	7384
409.614	7063
409.692	5237
409.769	4715
409.846	7244
409.924	9821
410.001	5719
410.079	4820
410.156	4220
410.233	2714
410.311	1142
410.388	1709
410.465	1602
410.543	889
410.620	1998
410.697	1270
410.775	1614
410.852	627
410.929	2255
411.006	2120
411.083	207
411.161	2065
411.238	3077
411.315	1592
411.392	739
411.469	1263
411.547	1410
411.624	88
411.701	713
411.778	1364
411.855	330
411.932	1013
412.009	113
412.086	1237
412.163	1153
412.240	1071
412.317	972
412.394	562
412.471	470
412.548	583
412.625	468
412.702	518
412.779	1383
412.856	1284
412.933	184
413.010	293
413.087	365
413.164	4126
413.241	6067
413.318	295
413.395	1483
413.471	1126
413.548	-53
413.625	1416
413.702	-434
413.779	795
413.855	19
413.932	-168
414.009	-1630
414.086	831
414.162	922
414.239	463
414.316	3563
414.393	10274
414.469	2099
414.546	-272
414.623	-21
414.699	518
414.776	-304
414.853	-206
414.929	595
415.006	290
415.082	694
415.159	665
415.236	259
415.312	553
415.389	99
415.465	858
415.542	654
415.618	188
415.695	1096
415.771	320
415.848	195
415.924	657
416.000	469
416.077	1190
416.153	-427
416.230	-805
416.306	-192
416.383	-75
416.459	695
416.535	-115
416.612	-680
416.688	400
416.764	697
416.841	-46
416.917	178
416.993	689
417.069	713
417.146	1017
417.222	942
417.298	591
417.374	-427
417.451	224
417.527	-418
417.603	549
417.679	414
417.755	589
417.831	-549
417.908	460
417.984	175
418.060	-838
418.136	377
418.212	855
418.288	366
418.364	1227
418.440	-269
418.516	588
418.592	827
418.668	2104
418.744	1978
418.820	1855
418.896	456
418.972	-228
419.048	-85
419.124	2204
419.200	1022
419.276	524
419.352	-321
419.428	701
419.504	-647
419.579	920
419.655	455
419.731	777
419.807	1056
419.883	2872
419.959	1353
420.034	1010
420.110	2089
420.186	6286
420.262	4391
420.337	1095
420.413	1589
420.489	768
420.565	2413
420.640	1198
420.716	981
420.792	610
420.867	2425
420.943	889
421.019	2040
421.094	1441
421.170	2046
421.245	647
421.321	2593
421.397	2596
421.472	4251
421.548	8181
421.623	5927
421.699	4752
421.774	3876
421.850	4399
421.925	6056
422.001	7194
422.076	8282
422.152	10641
422.227	15361
422.302	22085
422.378	33568
422.453	57793
422.529	114880
422.604	195402
422.679	209781
422.755	186250
422.830	112900
422.905	58239
422.981	34883
423.056	23498
423.131	16907
423.207	12724
423.282	8722
423.357	9507
423.432	6876
423.508	6390
423.583	6243
423.658	6238
423.733	4782
423.808	4603
423.883	4370
423.959	4119
424.034	4042
424.109	3966
424.184	1950
424.259	2990
424.334	1657
424.409	1834
424.484	799
424.559	1040
424.634	388
424.709	1320
424.784	1597
424.859	1109
424.934	963
425.009	4506
425.084	7121
425.159	2482
425.234	2117
425.309	608
425.384	2811
425.459	3636
425.534	2041
425.609	369
425.683	62
425.758	494
425.833	370
425.908	1048
425.983	1588
426.058	6928
426.132	3048
426.207	1039
426.282	2977
426.357	1243
426.431	224
426.506	779
426.581	644
426.655	1499
426.730	-307
426.805	-301
426.879	898
426.954	817
427.029	802
427.103	7861
427.178	19806
427.253	8176
427.327	539
427.402	1945
427.476	4700
427.551	1282
427.625	827
427.700	1588
427.774	219
427.849	1021
427.923	-252
427.998	493
428.072	692
428.147	4474
428.221	22614
428.296	67957
428.370	33373
428.444	4567
428.519	2456
428.593	4716
428.667	4182
428.742	6203
428.816	9982
428.890	44828
428.965	63809
429.039	16171
429.113	6287
429.188	2833
429.262	885
429.336	1608
429.410	3174
429.485	3454
429.559	4185
429.633	3256
429.707	1552
429.781	7746
429.855	45094
429.930	59633
430.004	20984
430.078	26231
430.152	36006
430.226	90057
430.300	81380
430.374	15135
430.448	5579
430.522	9744
430.596	23175
430.670	21745
430.744	58232
430.818	65200
430.892	11237
430.966	1689
431.040	1240
431.114	-385
431.188	230
431.262	718
431.336	-317
431.410	2049
431.484	4861
431.557	3215
431.631	467
431.705	1701
431.779	16326
431.853	64551
431.927	39640
432.000	4425
432.074	1333
432.148	546
432.222	301
432.295	12
432.369	-289
432.443	495
432.516	8325
432.590	20253
432.664	7205
432.737	532
432.811	-602
432.885	506
432.958	415
433.032	-769
433.106	-684
433.179	-834
433.253	49
433.326	112
433.400	-356
433.473	568
433.547	-486
433.620	-677
433.694	-61
433.767	370
433.841	-535
433.914	-347
433.988	-692
434.061	-336
434.134	16
434.208	-496
434.281	-543
434.355	-287
434.428	-524
434.501	-197
434.575	-634
434.648	-363
434.721	-595
434.795	87
434.868	-473
434.941	162
435.014	-757
435.088	173
435.161	339
435.234	981
435.307	1288
435.381	1790
435.454	1313
435.527	2850
435.600	3225
435.673	3155
435.746	1644
435.819	1214
435.892	814
435.966	643
436.039	259
436.112	370
436.185	-306
436.258	-261
436.331	-1335
436.404	-401
436.477	-255
436.550	-237
436.623	239
436.696	-24
436.769	-384
436.842	42
436.915	-762
436.987	-83
437.060	-251
437.133	-606
437.206	-932
437.279	-230
437.352	-955
437.425	-245
437.498	-292
437.570	715
437.643	144
437.716	142
437.789	-460
437.861	-524
437.934	1832
438.007	467
438.080	-471
438.152	-390
438.225	1297
438.298	12605
438.370	32864
438.443	12043
438.516	1731
438.588	179
438.661	-368
438.734	-42
438.806	-572
438.879	169
438.951	-96
439.024	323
439.096	-683
439.169	-130
439.241	-80
439.314	128
439.386	-746
439.459	1096
439.531	721
439.604	-683
439.676	-674
439.749	-1034
439.821	-853
439.893	178
439.966	-483
440.038	-1170
440.110	-253
440.183	-1093
440.255	-1692
440.327	909
440.400	5090
440.472	18303
440.544	10403
440.617	717
440.689	1245
440.761	1022
440.833	1666
440.905	1071
440.978	-677
441.050	-616
441.122	-436
441.194	-365
441.266	-335
441.338	-255
441.411	569
441.483	4896
441.555	5696
441.627	1201
441.699	1078
441.771	868
441.843	-303
441.915	460
441.987	-324
442.059	-145
442.131	35
442.203	1847
442.275	1961
442.347	3457
442.419	8848
442.491	46390
442.563	98876
442.635	38112
442.706	9796
442.778	5444
442.850	1280
442.922	1311
442.994	1161
443.066	2527
443.137	1728
443.209	3134
443.281	5009
443.353	14156
443.425	55987
443.496	163346
443.568	157077
443.640	60074
443.711	12408
443.783	4853
443.855	1807
443.926	2044
443.998	1272
444.070	1969
444.141	1656
444.213	726
444.285	941
444.356	910
444.428	1335
444.499	765
444.571	358
444.642	793
444.714	-20
444.785	1881
444.857	1841
444.928	4932
445.000	2860
445.071	4665
445.143	5208
445.214	5961
445.285	11169
445.357	33160
445.428	112176
445.500	205494
445.571	145116
445.642	86486
445.714	28459
445.785	13432
445.856	4471
445.928	3182
445.999	1968
446.070	1582
446.141	671
446.213	1996
446.284	174
446.355	1327
446.426	-231
446.497	142
446.569	594
446.640	1414
446.711	331
446.782	-83
446.853	689
446.924	366
446.995	-184
447.066	693
447.138	849
447.209	478
447.280	-1268
447.351	-642
447.422	-464
447.493	573
447.564	189
447.635	-49
447.706	-628
447.777	-96
447.847	-347
447.918	-604
447.989	-316
448.060	1010
448.131	1810
448.202	1237
448.273	278
448.344	-203
448.414	598
448.485	-185
448.556	-756
448.627	-320
448.698	436
448.768	-598
448.839	-362
448.910	507
448.981	1179
449.051	47
449.122	-850
449.193	-375
449.263	-32
449.334	-559
449.405	-1081
449.475	1390
449.546	733
449.616	1867
449.687	1225
449.758	193
449.828	-889
449.899	-577
449.969	-1238
450.040	-815
450.110	252
450.181	612
450.251	-1226
450.322	-270
450.392	-231
450.463	313
450.533	-618
450.604	161
450.674	-932
450.744	-502
450.815	-360
450.885	619
450.955	-45
451.026	-492
451.096	-257
451.166	312
451.237	2094
451.307	4984
451.377	861
451.447	-300
451.518	28
451.588	-600
451.658	-382
451.728	796
451.799	5836
451.869	5558
451.939	474
452.009	555
452.079	-445
452.149	478
452.219	368
452.289	6462
452.360	3956
452.430	839
452.500	194
452.570	1596
452.640	4629
452.710	11025
452.780	15309
452.850	8087
452.920	4324
452.990	2016
453.060	1289
453.129	973
453.199	993
453.269	8600
453.339	16461
453.409	24372
453.479	25521
453.549	35237
453.619	35424
453.688	12428
453.758	1154
453.828	715
453.898	583
453.968	567
454.037	185
454.087	437
454.107	526
454.168	-790
454.177	-1008
454.247	-346
454.249	-334
454.316	-554
454.330	-310
454.386	483
454.411	1521
454.456	2943
454.492	3741
454.525	4459
454.574	2393
454.595	1496
454.655	519
454.665	370
454.734	1390
454.736	1463
454.804	2639
454.817	3499
454.873	6063
454.898	6276
454.943	6458
454.979	3940
455.013	1825
455.060	1176
455.082	1061
455.141	2113
455.152	2246
455.221	6989
455.222	7121
455.291	10131
455.303	10269
455.360	10285
455.384	12714
455.430	15499
455.465	11783
455.499	8569
455.546	7606
455.569	6907
455.627	4085
455.638	3687
455.707	789
455.708	811
455.777	994
455.789	995
455.846	957
455.869	936
455.916	868
455.950	809
455.985	648
456.031	746
456.054	781
456.112	1019
456.124	1078
456.193	1189
456.193	1167
456.262	1381
456.274	1469
456.332	1743
456.355	1965
456.401	2179
456.436	1808
456.470	1376
456.516	942
456.540	786
456.597	762
456.609	739
456.678	1094
456.678	1077
456.747	1143
456.759	1051
456.817	616
456.840	723
456.886	956
456.920	1160
456.955	1304
457.001	1833
457.024	2169
457.082	1902
457.093	1759
457.162	3331
457.163	3352
457.232	2991
457.243	2915
457.301	2426
457.324	2288
457.370	2088
457.405	2022
457.439	2084
457.485	2147
457.508	2190
457.566	3358
457.577	3718
457.646	5715
457.647	5762
457.715	12192
457.727	13778
457.784	23637
457.808	29658
457.853	35549
457.889	39779
457.922	37169
457.969	26351
457.991	28347
458.050	36439
458.060	38207
458.129	63052
458.130	63801
458.198	53867
458.211	48439
458.267	27325
458.292	18333
458.336	13646
458.372	13317
458.405	19285
458.453	30292
458.474	38633
458.533	67565
458.543	69298
458.611	95652
458.614	96237
458.680	53555
458.694	41393
458.749	20587
458.775	14125
458.818	8466
458.855	6519
458.887	5408
458.936	4651
458.955	4528
459.016	3855
459.024	3805
459.093	4407
459.097	4394
459.162	3703
459.177	3892
459.230	4333
459.257	4192
459.299	4307
459.338	4653
459.368	4528
459.418	4156
459.437	3980
459.499	3608
459.505	3621
459.574	3814
459.579	3824
459.643	3469
459.659	3346
459.711	3564
459.740	3789
459.780	3835
459.820	4339
459.849	4546
459.900	4808
459.917	4978
459.981	4050
459.986	3912
460.054	4065
460.061	4057
460.123	4838
460.141	4951
460.191	4869
460.222	5031
460.260	5435
460.302	5843
460.328	5840
460.382	5436
460.397	5349
460.462	5424
460.465	5574
460.534	9034
460.543	9475
460.602	21462
460.623	26183
460.671	40162
460.703	51994
460.739	43911
460.783	30462
460.808	25468
460.864	7897
460.876	6629
460.944	4537
460.945	4508
461.013	4157
461.024	4068
461.081	4134
461.104	4342
461.150	4469
461.184	4254
461.218	4070
461.264	3958
461.286	3918
461.345	3769
461.355	3728
461.423	3749
461.425	3745
461.491	4631
461.505	4897
461.559	7537
461.585	8692
461.628	13093
461.665	17435
461.696	18293
461.745	20645
461.764	18120
461.825	6226
461.832	6019
461.901	5052
461.905	5051
461.969	4103
461.985	3823
462.037	4306
462.065	4749
462.105	5214
462.145	5698
462.173	7502
462.225	10722
462.241	11452
462.305	15183
462.310	14780
462.378	7660
462.385	6752
462.446	5192
462.465	4944
462.514	4824
462.545	4748
462.582	4557
462.625	4472
462.650	4749
462.705	5081
462.718	5081
462.785	5302
462.786	5335
462.854	7096
462.865	7398
462.922	8242
462.945	8629
462.990	6951
463.025	5383
463.058	5090
463.104	4517
463.126	4313
463.184	4440
463.194	4625
463.262	5318
463.264	5350
463.330	5270
463.344	5196
463.398	5719
463.424	6049
463.466	5768
463.504	5543
463.533	5831
463.583	6113
463.601	6000
463.663	5406
463.669	5547
463.737	7512
463.743	7680
463.805	10890
463.823	11804
463.873	17165
463.903	20699
463.940	21351
463.982	21980
464.008	17829
464.062	7991
464.076	7547
464.142	5511
464.144	5498
464.211	5093
464.221	5087
464.279	5656
464.301	5799
464.347	6123
464.381	6346
464.414	6701
464.461	7286
464.482	7519
464.540	8093
464.550	7937
464.617	6620
464.620	6565
464.685	6664
464.699	6673
464.753	8220
464.779	9028
464.820	9916
464.859	10723
464.888	10086
464.938	8931
464.956	9320
465.018	10528
465.023	10454
465.091	9271
465.098	9128
465.158	8300
465.177	8126
465.226	8438
465.257	8514
465.293	8598
465.336	8619
465.361	9179
465.416	10528
465.428	10902
465.495	12740
465.496	12818
465.563	21804
465.575	23415
465.631	26352
465.654	27491
465.698	17934
465.734	9719
465.765	9031
465.813	7942
465.833	7963
465.893	8258
465.900	8193
465.968	7443
465.972	7383
466.035	7156
466.052	7089
466.102	7677
466.131	7945
466.170	7716
466.210	7466
466.237	7601
466.290	7854
466.304	7943
466.369	8246
466.372	8263
466.439	8278
466.449	8259
466.506	8321
466.528	8360
466.573	12233
466.607	15082
466.641	21263
466.687	29826
466.708	32209
466.766	38733
466.775	35734
466.842	12524
466.845	11397
466.909	9321
466.925	8863
466.977	8485
467.004	8285
467.044	9453
467.083	10566
467.111	11524
467.163	13296
467.178	13486
467.242	14127
467.245	14087
467.312	12714
467.321	12510
467.379	12236
467.400	12096
467.446	13164
467.480	13896
467.559	12552
467.638	12075
467.717	11027
467.796	12666
467.875	13558
467.955	14386
468.034	21079
468.113	40027
468.192	53105
468.271	19743
468.350	20411
468.429	26322
468.508	25080
468.588	18266
468.667	15029
468.746	14921
468.825	13234
468.904	10974
468.983	12958
469.062	17489
469.141	19390
469.220	11213
469.299	10416
469.378	11038
469.456	15086
469.535	12639
469.614	11190
469.693	12144
469.772	15492
469.851	19810
469.930	14494
470.009	11515
470.088	12735
470.166	15860
470.245	21562
470.324	25520
470.403	17664
470.482	13516
470.560	11073
470.639	11856
470.718	12420
470.797	10918
470.875	12827
470.954	15616
471.033	16392
471.111	9911
471.190	9264
471.269	10198
471.347	9901
471.426	10073
471.505	11736
471.583	12235
471.662	11659
471.740	10824
471.819	10886
471.898	10341
471.976	10966
472.055	9616
472.133	11735
472.212	14529
472.290	13250
472.369	10543
472.447	10259
472.526	9078
472.604	10516
472.683	9703
472.761	10525
472.839	10429
472.918	10073
472.996	9809
473.075	11211
473.153	11646
473.231	10231
473.310	11373
473.388	11509
473.466	10597
473.545	10686
473.623	12109
473.701	11925
473.780	10197
473.858	9529
473.936	11774
474.014	10371
474.093	11667
474.171	16047
474.249	19079
474.327	11948
474.405	8447
474.484	8978
474.562	8764
474.640	9139
474.718	9705
474.796	9219
474.874	8724
474.952	7543
475.030	8949
475.108	8328
475.187	8641
475.265	9230
475.343	9733
475.421	10567
475.499	8642
475.577	10741
475.655	12530
475.733	20627
475.811	32599
475.889	29728
475.966	19231
476.044	8998
476.122	9629
476.200	9264
476.278	9397
476.356	8393
476.434	10170
476.512	9758
476.590	10618
476.667	10165
476.745	8313
476.823	9823
476.901	9007
476.979	8978
477.056	8960
477.134	9793
477.212	9931
477.290	8347
477.367	8274
477.445	9358
477.523	8409
477.601	8169
477.678	8379
477.756	10278
477.834	10892
477.911	9020
477.989	9074
478.066	8077
478.144	9715
478.222	9628
478.299	9312
478.377	9036
478.454	8856
478.532	8072
478.609	7885
478.687	8028
478.764	7592
478.842	8667
478.919	8178
478.997	8952
479.074	7526
479.152	9628
479.229	11331
479.307	7510
479.384	7862
479.461	7408
479.539	7972
479.616	9610
479.694	7853
479.771	9282
479.848	9098
479.926	11707
480.003	12102
480.080	7798
480.157	8707
480.235	7459
480.312	8584
480.389	9447
480.467	13277
480.544	15405
480.621	10179
480.698	9055
480.775	10260
480.853	10557
480.930	8850
481.007	9567
481.084	10817
481.161	12098
481.238	10491
481.315	7609
481.392	7608
481.470	9275
481.547	8331
481.624	8603
481.701	8881
481.778	8569
481.855	9431
481.932	13702
482.009	21063
482.086	13845
482.163	10159
482.240	11930
482.317	12241
482.393	11487
482.470	10836
482.547	10461
482.624	8642
482.701	9386
482.778	9473
482.855	8185
482.932	9183
483.009	9393
483.085	10797
483.162	11521
483.239	11677
483.316	11366
483.393	11327
483.469	9983
483.546	11225
483.623	10252
483.699	10031
483.776	8993
483.853	9392
483.930	13478
484.006	29609
484.083	47477
484.160	26431
484.236	37539
484.313	28208
484.389	22677
484.466	22139
484.543	22376
484.619	24450
484.696	26373
484.772	24293
484.849	22417
484.925	20059
485.002	19298
485.078	20161
485.155	19617
485.231	18012
485.308	17450
485.384	17999
485.461	21293
485.537	31423
485.614	34846
485.690	17037
485.766	16374
485.843	16698
485.919	18809
485.995	19622
486.072	15333
486.148	15779
486.224	16279
486.301	15634
486.377	18707
486.453	16754
486.530	19462
486.606	24941
486.682	25080
486.758	28329
486.835	31579
486.911	26305
486.987	39096
487.063	32359
487.139	33520
487.215	27428
487.292	23128
487.368	22911
487.444	27110
487.520	32649
487.596	41643
487.672	87699
487.748	244394
487.824	351571
487.900	113980
487.976	39938
488.052	28263
488.128	25802
488.204	20287
488.280	19781
488.356	21023
488.432	36790
488.508	48993
488.584	18940
488.660	15640
488.736	16359
488.812	15368
488.888	18195
488.964	19592
489.039	28878
489.115	37701
489.191	24604
489.267	15499
489.343	15172
489.418	13942
489.494	14259
489.570	12504
489.646	14537
489.722	14265
489.797	13783
489.873	21268
489.949	38873
490.024	29870
490.100	13746
490.176	13423
490.251	13802
490.327	15907
490.403	11667
490.478	13601
490.554	11882
490.629	13010
490.705	11743
490.781	13003
490.856	12251
490.932	13008
491.007	12472
491.083	12589
491.158	12095
491.234	16953
491.309	30922
491.385	28025
491.460	11302
491.536	12670
491.611	10307
491.686	11514
491.762	13139
491.837	20553
491.913	29495
491.988	38820
492.063	40477
492.139	19738
492.214	15102
492.289	10000
492.365	9937
492.440	11714
492.515	11684
492.590	11832
492.666	9840
492.741	13827
492.816	19018
492.891	11248
492.967	11018
493.042	10627
493.117	10920
493.192	10703
493.267	18407
493.342	50011
493.418	59294
493.493	12199
493.568	9252
493.643	9032
493.718	11467
493.793	14568
493.868	13913
493.943	10558
494.018	9238
494.093	9069
494.168	9645
494.243	9500
494.318	8849
494.393	9182
494.468	9155
494.543	9223
494.618	9104
494.693	9296
494.768	9617
494.842	9764
494.917	8851
494.992	9380
495.067	8336
495.142	9703
495.217	9266
495.292	8879
495.366	9903
495.441	10659
495.516	13772
495.591	15190
495.665	34721
495.740	66227
495.815	27814
495.890	11581
495.964	8257
496.039	12796
496.114	11336
496.188	13473
496.263	11147
496.338	10254
496.412	11365
496.487	12943
496.561	12056
496.636	12568
496.710	10675
496.785	12215
496.860	13277
496.934	10684
497.009	10841
497.083	10676
497.158	12238
497.232	13252
497.307	13817
497.381	11844
497.455	13939
497.530	16887
497.604	11919
497.679	12843
497.753	19160
497.827	20557
497.902	16014
497.976	23179
498.050	67229
498.125	250589
498.199	201091
498.273	21526
498.348	14185
498.422	14022
498.496	15242
498.570	14262
498.645	11771
498.719	11694
498.793	16093
498.867	23404
498.941	33030
499.016	105929
499.090	259274
499.164	67881
499.238	12166
499.312	11313
499.386	13326
499.460	13921
499.534	14456
499.609	17418
499.683	20975
499.757	19934
499.831	49205
499.905	179020
499.979	133565
500.053	23568
500.127	21223
500.201	13320
500.275	11898
500.349	12233
500.422	13826
500.496	17382
500.570	32839
500.644	97709
500.718	167017
500.792	29612
500.866	13230
500.940	15666
501.013	13226
501.087	13408
501.161	17086
501.235	21447
501.309	60597
501.382	156163
501.456	108666
501.530	27868
501.603	48972
501.677	16420
501.751	8784
501.825	13144
501.898	23517
501.972	61757
502.046	31325
502.119	11839
502.193	27691
502.266	64056
502.340	26290
502.413	31062
502.487	53622
502.561	27894
502.634	11463
502.708	9093
502.781	8137
502.855	9396
502.928	7570
503.002	7996
503.075	7710
503.149	7948
503.222	9658
503.295	10225
503.369	11389
503.442	16309
503.516	49790
503.589	113004
503.662	63182
503.736	26755
503.809	58589
503.882	45760
503.956	76826
504.029	80350
504.102	129223
504.175	171027
504.249	64516
504.322	28490
504.395	18648
504.468	12360
504.542	10198
504.615	8780
504.688	8711
504.761	6377
504.834	10057
504.907	8846
504.980	10808
505.053	7892
505.127	6514
505.200	11664
505.273	11424
505.346	8318
505.419	6252
505.492	7849
505.565	6180
505.638	5188
505.711	5514
505.784	6558
505.857	5033
505.930	7472
506.003	5320
506.076	8437
506.149	8577
506.221	8457
506.294	10968
506.367	25082
506.440	80858
506.513	31656
506.586	11042
506.659	6818
506.731	6613
506.804	6509
506.877	7373
506.950	7435
507.022	6927
507.095	7078
507.168	8245
507.241	6021
507.313	5600
507.386	5875
507.459	7494
507.531	6029
507.604	4373
507.677	6765
507.749	3998
507.822	7314
507.894	12362
507.967	14690
508.040	9156
508.112	8971
508.185	8467
508.257	7621
508.330	10802
508.402	8046
508.475	8730
508.547	8471
508.620	9281
508.692	12958
508.765	8537
508.837	7057
508.909	7303
508.982	7307
509.054	8672
509.127	6074
509.199	7119
509.271	6100
509.344	6826
509.416	6398
509.488	7768
509.560	8249
509.633	6897
509.705	9114
509.777	8760
509.849	10642
509.922	7838
509.994	7744
510.066	9220
510.138	8224
510.210	17052
510.283	13153
510.355	12019
510.427	10367
510.499	8900
510.571	9837
510.643	8526
510.715	12346
510.787	9347
510.859	10541
510.931	10267
511.003	11958
511.076	11047
511.148	8466
511.219	9434
511.291	15341
511.363	15316
511.435	9716
511.507	8211
511.579	9471
511.651	10023
511.723	7965
511.795	7891
511.867	7754
511.939	10242
512.010	16332
512.082	11722
512.154	6363
512.226	8336
512.298	12355
512.369	14537
512.441	12184
512.513	11320
512.585	8714
512.656	9889
512.728	9908
512.800	8733
512.871	8753
512.943	8431
513.015	6209
513.086	9871
513.158	8650
513.230	8536
513.301	10123
513.373	10287
513.444	8154
513.516	8878
513.588	6792
513.659	8183
513.731	9000
513.802	7703
513.874	13994
513.945	16207
514.016	8075
514.088	7884
514.159	7738
514.231	10746
514.302	12147
514.374	11408
514.445	9127
514.516	20850
514.588	12133
514.659	10113
514.730	17206
514.802	12064
514.873	6539
514.944	10462
515.016	8527
515.087	9828
515.158	13554
515.229	17230
515.301	8593
515.372	9424
515.443	6858
515.514	8780
515.585	7431
515.656	9377
515.728	8806
515.799	8728
515.870	10188
515.941	9729
516.012	10162
516.083	13346
516.154	12282
516.225	14397
516.296	15473
516.367	14630
516.438	17287
516.509	20543
516.580	33410
516.651	112134
516.722	335563
516.793	106702
516.864	28618
516.935	27193
517.006	32183
517.077	43706
517.148	106642
517.219	454160
517.289	564051
517.360	129020
517.431	37204
517.502	18164
517.573	17611
517.643	16483
517.714	17526
517.785	18524
517.856	19788
517.926	25675
517.997	29765
518.068	34553
518.138	47169
518.209	78858
518.280	301561
518.350	917105
518.421	280255
518.492	48259
518.562	35268
518.633	37031
518.703	47622
518.774	99826
518.845	230756
518.915	186201
518.986	58117
519.056	31120
519.127	30166
519.197	39370
519.268	89191
519.338	47824
519.408	17702
519.479	16098
519.549	12400
519.620	12688
519.690	9119
519.760	10460
519.831	10215
519.901	9587
519.971	10180
520.042	11033
520.112	10784
520.182	11681
520.253	12132
520.323	10083
520.393	12096
520.463	16616
520.534	11642
520.604	22177
520.674	13868
520.744	13220
520.814	22340
520.885	20987
520.955	33041
521.025	101498
521.095	30041
521.165	10877
521.235	9212
521.305	9025
521.375	8494
521.445	9431
521.515	9911
521.585	11201
521.655	8422
521.725	9552
521.795	10974
521.865	6744
521.935	13212
522.005	9511
522.075	8532
522.145	9982
522.215	8517
522.285	12697
522.355	16804
522.424	27428
522.494	20128
522.564	11017
522.634	16013
522.704	32999
522.774	12963
522.843	8995
522.913	7784
522.983	9496
523.053	8163
523.122	9346
523.192	8912
523.262	19754
523.331	16382
523.401	9049
523.471	7349
523.540	8412
523.610	5917
523.680	7543
523.749	8147
523.819	9428
523.888	9469
523.958	6830
524.027	8342
524.097	7722
524.166	6848
524.236	7412
524.305	9249
524.375	6811
524.444	6806
524.514	10412
524.583	8691
524.653	8841
524.722	11749
524.791	7472
524.861	9639
524.930	7298
524.999	7234
525.069	9885
525.138	8621
525.207	11059
525.277	9480
525.346	9822
525.415	11249
525.484	10900
525.554	12913
525.623	14884
525.692	15503
525.761	18283
525.830	21688
525.900	26780
525.969	42545
526.038	78166
526.107	178151
526.176	460380
526.245	319478
526.314	101640
526.383	243615
526.452	295274
526.522	500545
526.591	382519
526.660	67648
526.729	42480
526.797	49802
526.867	83944
526.935	280061
527.004	809495
527.073	394548
527.142	49186
527.211	22480
527.280	17819
527.349	15123
527.418	10844
527.487	11659
527.555	8755
527.624	8656
527.693	7188
527.762	9999
527.831	6686
527.899	9204
527.968	7197
528.037	5720
528.106	8531
528.174	10783
528.243	10280
528.312	12460
528.380	12769
528.449	6282
528.518	7576
528.586	5987
528.655	6806
528.723	6476
528.792	6594
528.861	7118
528.929	6675
528.998	9671
529.066	14305
529.135	22485
529.203	19658
529.272	27871
529.340	33167
529.409	31525
529.477	27765
529.545	29163
529.614	31994
529.682	38029
529.751	40409
529.819	43048
529.887	46305
529.956	40779
530.024	40413
530.092	35767
530.161	37081
530.229	39567
530.297	42076
530.365	40639
530.434	43194
530.502	44324
530.570	37758
530.638	33405
530.707	32600
530.775	31971
530.843	32783
530.911	36654
530.979	36513
531.047	42279
531.115	39548
531.183	35119
531.252	34777
531.320	33409
531.388	32779
531.456	38629
531.524	38884
531.592	41927
531.660	48311
531.728	41697
531.796	39658
531.864	40431
531.932	39010
532.000	39153
532.067	44304
532.135	45464
532.203	48777
532.271	51246
532.339	51023
532.407	55701
532.475	47817
532.542	45405
532.610	46341
532.678	49779
532.746	72069
532.814	98852
532.881	57697
532.949	46471
533.017	44274
533.084	42349
533.152	41391
533.220	40870
533.287	41946
533.355	43817
533.423	44958
533.490	44016
533.558	41980
533.625	39895
533.693	38683
533.761	39179
533.828	38438
533.896	37883
533.963	46458
534.031	48089
534.098	49447
534.166	43377
534.233	39191
534.300	41412
534.368	40145
534.435	37799
534.503	38105
534.570	40889
534.637	40851
534.705	42907
534.772	47698
534.840	69803
534.907	234253
534.974	231243
535.041	45550
535.109	32954
535.176	30838
535.243	30678
535.310	29754
535.378	30481
535.445	26946
535.512	26542
535.579	26973
535.646	24480
535.714	24989
535.781	26438
535.848	27665
535.915	29289
535.982	31744
536.049	30063
536.116	27983
536.183	24285
536.250	22726
536.317	22755
536.384	23677
536.451	23682
536.518	23984
536.585	22352
536.652	25376
536.719	25239
536.786	20631
536.853	20800
536.920	22747
536.987	24667
537.053	22283
537.120	45763
537.187	36740
537.254	19884
537.321	19816
537.388	19841
537.454	16609
537.521	16881
537.588	15911
537.654	18706
537.721	18244
537.788	18445
537.855	16973
537.921	17907
537.988	17350
538.055	17686
538.121	15359
538.188	14514
538.254	16772
538.321	19689
538.388	16535
538.454	15287
538.521	15354
538.587	16009
538.654	16040
538.720	15126
538.787	15046
538.853	15032
538.920	14530
538.986	15316
539.053	13333
539.119	13862
539.185	13494
539.252	15815
539.318	16530
539.385	16620
539.451	14250
539.517	16126
539.583	16787
539.650	20547
539.716	30379
539.782	14809
539.849	12558
539.915	13824
539.981	13194
540.047	13361
540.114	13818
540.180	14523
540.246	12284
540.312	14493
540.378	16715
540.444	16923
540.510	18968
540.576	31889
540.643	14987
540.709	10841
540.775	12049
540.841	12379
540.907	13666
540.973	17073
541.039	13860
541.105	14932
541.171	12576
541.237	11941
541.303	12956
541.369	14258
541.435	14054
541.500	15718
541.566	11723
541.632	10952
541.698	10670
541.764	12464
541.830	10429
541.896	10306
541.961	11614
542.027	9643
542.093	11611
542.159	12526
542.224	10963
542.290	14185
542.356	14266
542.421	14091
542.487	11822
542.553	10725
542.618	11750
542.684	10516
542.750	10823
542.815	12447
542.881	14756
542.947	28965
543.012	20608
543.078	10155
543.143	9957
543.209	11152
543.274	9828
543.340	10701
543.405	15795
543.471	18353
543.536	11156
543.602	11265
543.667	9661
543.732	11449
543.798	9915
543.863	10513
543.928	10768
543.994	9928
544.059	10770
544.124	10709
544.190	10403
544.255	10882
544.320	11395
544.386	10675
544.451	12462
544.516	12598
544.581	13115
544.646	22535
544.712	25804
544.777	12943
544.842	12706
544.907	12980
544.972	12416
545.037	12615
545.102	13235
545.168	13230
545.233	13401
545.298	14177
545.363	13482
545.428	14052
545.493	19350
545.558	24318
545.623	14664
545.688	13091
545.753	13983
545.818	12583
545.883	14417
545.947	14526
546.012	16023
546.077	15768
546.142	16905
546.207	16411
546.272	17574
546.337	15907
546.401	18458
546.466	17426
546.531	18214
546.596	19317
546.661	19923
546.725	21507
546.790	21355
546.855	23010
546.919	23850
546.984	26623
547.049	29573
547.113	33622
547.178	34922
547.243	40470
547.307	45609
547.372	50086
547.436	50929
547.501	51812
547.565	55026
547.630	50857
547.695	49137
547.759	51993
547.823	50300
547.888	50243
547.952	50890
548.017	54150
548.081	56292
548.146	58756
548.210	58151
548.274	60406
548.339	57496
548.403	54065
548.468	50038
548.532	49369
548.596	51680
548.660	50662
548.725	56040
548.789	63041
548.853	60694
548.917	56356
548.982	57273
549.046	52301
549.110	45108
549.174	47110
549.238	53986
549.303	57821
549.367	59364
549.431	56053
549.495	52608
549.559	54309
549.623	64074
549.687	69219
549.751	68775
549.815	80423
549.879	78373
549.943	77204
550.007	81910
550.071	77751
550.135	71546
550.199	68070
550.263	66711
550.327	64419
550.391	69333
550.455	74564
550.519	76665
550.582	81712
550.646	92022
550.710	92814
550.774	91699
550.838	94080
550.901	96218
550.965	101724
551.029	108936
551.093	119338
551.156	135523
551.220	161634
551.284	165727
551.347	125464
551.411	120518
551.475	115089
551.538	100647
551.602	91499
551.666	87269
551.729	81808
551.793	80716
551.856	79002
551.920	78459
551.983	77360
552.047	76953
552.110	78048
552.174	78194
552.237	79971
552.301	74257
552.364	71408
552.428	70183
552.491	72393
552.554	73268
552.618	72761
552.681	76120
552.745	75242
552.808	86215
552.871	95779
552.934	81676
552.998	74672
553.061	72989
553.124	71516
553.187	70490
553.251	72686
553.314	71982
553.377	74671
553.440	84108
553.503	113674
553.567	126313
553.630	82139
553.693	78164
553.756	77477
553.819	75391
553.882	72649
553.945	71921
554.008	72103
554.071	73474
554.134	75813
554.197	69573
554.260	69570
554.323	71529
554.386	72866
554.449	74533
554.512	74405
554.575	69857
554.638	70702
554.701	69733
554.764	68430
554.827	67105
554.889	65199
554.952	60395
555.015	59944
555.078	59447
555.141	61655
555.203	59897
555.266	60140
555.329	58739
555.391	57933
555.454	57488
555.517	55015
555.580	52189
555.642	51205
555.705	49693
555.768	49914
555.830	48982
555.893	45719
555.955	45532
556.018	44014
556.080	44461
556.143	46560
556.206	44150
556.268	43945
556.330	43308
556.393	43790
556.455	41147
556.518	43063
556.580	42554
556.643	37264
556.705	37037
556.767	35281
556.830	36097
556.892	35985
556.955	36399
557.017	34534
557.079	33661
557.142	33546
557.204	32422
557.266	36241
557.328	33703
557.391	29073
557.453	28575
557.515	29579
557.577	31011
557.639	30835
557.701	31041
557.764	30185
557.826	31019
557.888	33602
557.950	36221
558.012	41764
558.074	59059
558.136	137896
558.198	278018
558.260	84109
558.322	39807
558.384	40138
558.446	42431
558.508	47294
558.570	54809
558.632	68871
558.694	92766
558.756	162256
558.818	474321
558.880	883245
558.942	301701
559.003	302947
559.065	121177
559.127	54415
559.189	54653
559.251	64888
559.312	101113
559.374	251288
559.436	673150
559.498	268422
559.559	61905
559.621	55741
559.683	69238
559.744	121641
559.806	376041
559.868	450502
559.929	85608
559.991	63361
560.052	109621
560.114	285054
560.176	156803
560.237	172842
560.299	234500
560.360	45225
560.422	21547
560.483	19373
560.545	18373
560.606	18576
560.667	16181
560.729	15614
560.790	14729
560.852	15390
560.913	15260
560.974	14220
561.036	13531
561.097	14653
561.158	13491
561.220	13455
561.281	12132
561.342	13581
561.403	15098
561.465	13985
561.526	19009
561.587	20488
561.648	13779
561.709	12573
561.771	13004
561.832	11596
561.893	11967
561.954	11792
562.015	11517
562.076	12022
562.137	10902
562.198	11822
562.259	12379
562.320	11048
562.381	12204
562.442	12356
562.503	11448
562.564	11403
562.625	10474
562.686	10815
562.747	11050
562.808	11314
562.869	11421
562.930	11341
562.991	10999
563.051	11485
563.112	10881
563.173	10760
563.234	10141
563.294	10271
563.355	9690
563.416	10854
563.477	10357
563.537	10426
563.598	11196
563.659	10723
563.720	9415
563.780	10534
563.841	10091
563.901	10764
563.962	10277
564.023	10072
564.083	10748
564.144	10977
564.204	9865
564.265	10094
564.325	11214
564.386	16243
564.446	14373
564.507	9874
564.567	9263
564.628	9853
564.688	9991
564.749	9422
564.809	9771
564.869	11211
564.930	9491
564.990	10121
565.050	8488
565.111	8837
565.171	9071
565.231	9332
565.292	9910
565.352	9472
565.412	9657
565.472	8851
565.532	10342
565.593	9355
565.653	9348
565.713	9031
565.773	9926
565.833	9647
565.893	11263
565.953	9199
566.013	9124
566.074	10030
566.134	10683
566.194	14735
566.254	13426
566.314	10503
566.374	8872
566.434	9197
566.494	9779
566.554	8251
566.614	8620
566.673	8908
566.733	9662
566.793	9870
566.853	9619
566.913	9485
566.973	9676
567.033	10576
567.092	10416
567.152	9880
567.212	10237
567.272	9986
567.331	9654
567.391	9360
567.451	10833
567.511	13088
567.570	12025
567.630	9765
567.690	9336
567.749	9410
567.809	9061
567.868	9144
567.928	10370
567.988	10112
568.047	10272
568.107	9993
568.166	10396
568.226	9854
568.285	10885
568.345	11364
568.404	11128
568.464	10855
568.523	10002
568.582	9743
568.642	10097
568.701	10292
568.761	11204
568.820	12009
568.879	12478
568.939	14197
568.998	11407
569.057	10638
569.116	10671
569.176	9567
569.235	9775
569.294	9050
569.353	8197
569.413	9544
569.472	8671
569.531	8743
569.590	9295
569.649	7877
569.708	8987
569.767	9701
569.827	9773
569.886	9204
569.945	8291
570.004	8431
570.063	8590
570.122	8903
570.181	10023
570.240	9572
570.299	9649
570.358	9753
570.417	9139
570.475	9401
570.534	9596
570.593	9626
570.652	10085
570.711	10186
570.770	9636
570.829	10113
570.887	9172
570.946	9357
571.005	9839
571.064	9593
571.122	10505
571.181	10042
571.240	9809
571.299	8943
571.357	10693
571.416	9241
571.475	11117
571.533	10079
571.592	9931
571.650	10183
571.709	9498
571.768	10681
571.826	10650
571.885	9608
571.943	9787
572.002	9459
572.060	9755
572.119	8139
572.177	9191
572.236	9058
572.294	8777
572.352	9880
572.411	9025
572.469	9618
572.528	9035
572.586	8473
572.644	9346
572.703	9745
572.761	8541
572.819	8613
572.877	7205
572.936	7811
572.994	8518
573.052	7719
573.110	7858
573.169	9027
573.227	8441
573.285	8468
573.343	7950
573.401	8129
573.459	8651
573.517	8530
573.576	9305
573.634	8642
573.692	8924
573.750	8344
573.808	9012
573.866	8997
573.924	10495
573.982	8619
574.040	8707
574.098	8852
574.155	8137
574.213	8799
574.271	7588
574.329	8681
574.387	7492
574.445	7948
574.503	7401
574.560	6681
574.618	7236
574.676	8255
574.734	7236
574.792	6927
574.849	7771
574.907	6592
574.965	6583
575.022	6994
575.080	6931
575.138	6900
575.195	6738
575.253	6600
575.311	7307
575.368	7184
575.426	6667
575.483	7537
575.541	7221
575.598	7331
575.656	7310
575.713	7369
575.771	7779
575.828	7866
575.886	6705
575.943	6821
576.001	7484
576.058	5844
576.115	6871
576.173	7277
576.230	8265
576.287	8246
576.345	7924
576.402	7348
576.459	8107
576.517	7460
576.574	7686
576.631	8175
576.688	8048
576.746	6801
576.803	6086
576.860	6331
576.917	7244
576.974	7471
577.031	7019
577.089	7133
577.146	7213
577.203	6827
577.260	7583
577.317	6934
577.374	7777
577.431	8240
577.488	6150
577.545	7116
577.602	8428
577.659	6782
577.716	7396
577.773	8079
577.830	7347
577.886	7635
577.943	7451
578.000	8402
578.057	9416
578.114	10874
578.171	13360
578.227	17758
578.284	16419
578.341	13514
578.398	11021
578.454	9463
578.511	10573
578.568	9782
578.625	8575
578.681	8032
578.738	8345
578.794	7768
578.851	7369
578.908	7795
578.964	8083
579.021	8128
579.077	7918
579.134	7478
579.190	8199
579.247	8384
579.303	7654
579.360	8170
579.416	7925
579.473	7131
579.529	6990
579.586	8549
579.642	8892
579.698	9087
579.755	9146
579.811	9956
579.867	10363
579.924	10818
579.980	12626
580.036	15484
580.093	17704
580.149	27053
580.205	29792
580.261	22802
580.317	16906
580.374	15114
580.430	14482
580.486	13337
580.542	11135
580.598	11434
580.619	11718
580.654	12222
580.692	11078
580.710	10530
580.765	11781
580.767	11832
580.823	12113
580.838	12181
580.879	12416
580.911	12146
580.935	11954
580.984	11819
580.991	11822
581.047	12789
581.057	12862
581.103	13230
581.130	14321
581.159	15478
581.203	16097
581.215	16274
581.270	16112
581.276	15964
581.326	14673
581.349	14007
581.382	13066
581.422	13153
581.438	13201
581.494	13625
581.494	13610
581.550	12966
581.567	13062
581.606	13302
581.640	12923
581.661	12703
581.713	13790
581.717	13893
581.773	14113
581.786	14112
581.829	14022
581.859	14234
581.885	14469
581.932	13745
581.940	13612
581.996	15001
582.004	14988
582.052	14976
582.077	14983
582.107	14958
582.150	15399
582.163	15572
582.219	15258
582.223	15292
582.274	15776
582.296	16109
582.330	16679
582.368	16484
582.386	16405
582.441	16195
582.441	16199
582.497	17078
582.514	17087
582.552	17247
582.587	17807
582.608	18128
582.659	18413
582.663	18442
582.719	18757
582.732	18867
582.774	19234
582.805	19948
582.830	20648
582.877	21821
582.885	22033
582.941	23905
582.950	24430
582.996	26981
583.023	29264
583.052	31962
583.095	33047
583.107	33252
583.162	33762
583.168	33681
583.218	32451
583.240	30788
583.273	28268
583.313	26185
583.328	25477
583.384	22602
583.385	22565
583.439	21475
583.458	21013
583.494	20326
583.531	19526
583.549	19038
583.603	18865
583.605	18861
583.660	17605
583.676	17801
583.715	18482
583.748	18045
583.770	17722
583.820	18376
583.825	18424
583.881	18639
583.893	18245
583.936	17121
583.965	17465
583.991	17636
584.038	18443
584.046	18605
584.101	18012
584.110	17999
584.156	17850
584.183	18114
584.211	18315
584.255	18225
584.266	18309
584.321	19918
584.328	20005
584.376	20483
584.400	20492
584.431	20409
584.472	20088
584.486	19981
584.541	21018
584.545	21083
584.596	22018
584.617	21588
584.651	21258
584.689	21956
584.706	22030
584.761	22158
584.762	22165
584.816	22714
584.834	22717
584.871	22572
584.906	22423
584.926	22470
584.978	22800
584.980	22830
585.035	23893
585.051	24427
585.090	25136
585.123	25187
585.145	25402
585.195	26136
585.200	26235
585.254	28186
585.267	28683
585.309	30323
585.340	32559
585.364	34407
585.412	37492
585.419	38001
585.473	44192
585.484	46343
585.528	57493
585.556	69545
585.583	88706
585.628	136136
585.637	151450
585.692	295277
585.700	318855
585.747	411526
585.772	345304
585.801	218776
585.845	91468
585.856	73048
585.910	43697
585.917	41131
585.965	35064
585.989	32741
586.019	30575
586.061	28982
586.074	28637
586.128	26997
586.133	26849
586.183	24899
586.205	24280
586.237	23890
586.277	23386
586.292	23100
586.346	21852
586.349	21813
586.401	21418
586.421	21306
586.455	21005
586.493	20839
586.509	21237
586.564	22855
586.565	22964
586.618	28675
586.637	28898
586.672	26797
586.709	24435
586.727	23555
586.781	22944
586.781	22937
586.835	19935
586.853	19185
586.889	17637
586.925	16569
586.944	16386
586.996	16900
586.998	16910
587.052	16353
587.068	16273
587.106	16210
587.140	16258
587.161	16207
587.212	16525
587.215	16579
587.269	16684
587.284	16812
587.323	16276
587.356	16021
587.377	16294
587.427	16952
587.431	16947
587.485	16494
587.499	16321
587.539	16405
587.571	16872
587.593	17052
587.643	17326
587.648	17407
587.702	18068
587.715	18246
587.755	17944
587.786	17676
587.810	17873
587.858	18269
587.864	18332
587.917	19116
587.930	19371
587.971	20099
588.001	20259
588.025	20053
588.073	19349
588.079	19376
588.133	20492
588.145	20738
588.187	21670
588.217	22087
588.241	22756
588.288	24858
588.295	25083
588.348	26345
588.360	26771
588.402	29169
588.431	30748
588.456	32021
588.503	34702
588.510	35192
588.564	39509
588.575	40601
588.617	44765
588.646	48275
588.671	52868
588.718	63690
588.725	66365
588.778	91301
588.789	98174
588.832	154973
588.861	200664
588.886	273131
588.932	433689
588.939	446528
588.993	507732
589.004	501084
589.047	309948
589.075	193566
589.100	142038
589.147	75804
589.154	72948
589.207	57608
589.218	55189
589.261	54141
589.290	54402
589.314	57044
589.361	64614
589.368	67804
589.421	98661
589.433	106873
589.475	184832
589.504	249522
589.528	316441
589.576	445363
589.582	434249
589.635	250954
589.647	213810
589.689	113619
589.718	58248
589.742	49327
589.790	35021
589.795	34549
589.849	31416
589.861	31008
589.902	29910
589.932	28183
589.955	26471
590.004	23080
590.009	22858
590.062	21292
590.075	20809
590.115	19766
590.146	19061
590.168	19053
590.218	19187
590.222	19185
590.275	19176
590.289	19016
590.328	19400
590.360	19939
590.381	19573
590.431	18573
590.435	18556
590.488	18198
590.503	18120
590.541	18631
590.574	18981
590.594	18924
590.645	18905
590.647	18938
590.700	19435
590.716	19599
590.753	19506
590.787	19502
590.806	19616
590.859	19871
590.859	19877
590.912	19547
590.930	19446
590.965	20287
591.001	21186
591.018	20938
591.071	19915
591.072	19896
591.124	20283
591.143	20364
591.177	20242
591.214	20109
591.230	20290
591.283	21036
591.285	21047
591.336	20425
591.356	20125
591.389	20406
591.427	20757
591.442	20573
591.495	19744
591.498	19673
591.547	19814
591.569	19949
591.600	20513
591.640	21161
591.653	21148
591.706	21012
591.711	20996
591.759	21575
591.782	21855
591.811	22688
591.853	23812
591.864	23750
591.917	23251
591.924	23175
591.969	22477
591.995	22034
592.022	22401
592.066	23052
592.075	23150
592.127	23665
592.137	23743
592.180	25099
592.208	25934
592.233	25509
592.279	24654
592.285	24680
592.338	24812
592.350	24824
592.390	24022
592.421	23396
592.443	23863
592.491	24882
592.495	24902
592.548	24996
592.562	25018
592.600	24672
592.633	24359
592.653	24617
592.704	25149
592.705	25294
592.775	25417
592.846	25777
592.916	25999
592.987	27252
593.058	25985
593.128	26969
593.199	26877
593.270	27087
593.341	27259
593.411	27848
593.482	27389
593.553	30204
593.623	28919
593.694	29844
593.764	31694
593.835	29916
593.906	30482
593.976	31713
594.047	31712
594.117	35303
594.188	35331
594.258	34413
594.329	33013
594.399	35499
594.470	35114
594.540	37022
594.611	36909
594.681	36855
594.751	36844
594.822	39995
594.892	41427
594.963	41272
595.033	41461
595.103	43422
595.174	43342
595.244	49118
595.314	51359
595.384	47710
595.455	49075
595.525	50402
595.595	51989
595.665	53208
595.736	50685
595.806	52258
595.876	53667
595.946	53941
596.016	55046
596.087	58498
596.157	57921
596.227	57876
596.297	60557
596.367	64521
596.437	68067
596.507	71431
596.577	72269
596.647	71938
596.717	72241
596.787	74690
596.857	73302
596.927	76951
596.997	76188
597.067	76748
597.137	79210
597.207	82028
597.277	79842
597.347	77820
597.417	76758
597.487	78397
597.557	79209
597.626	81628
597.696	82327
597.766	85013
597.836	84422
597.906	79457
597.975	77386
598.045	77985
598.115	81745
598.185	87866
598.254	96843
598.324	101722
598.394	105159
598.464	101673
598.533	100829
598.603	98099
598.672	97614
598.742	99833
598.812	99913
598.881	102759
598.951	102655
599.020	105588
599.090	107518
599.159	112445
599.229	109267
599.299	110437
599.368	112393
599.437	112063
599.507	108486
599.576	108850
599.646	110963
599.715	111065
599.785	110569
599.854	110522
599.924	112052
599.993	113259
600.062	115416
600.132	118757
600.201	123136
600.270	135803
600.340	139419
600.409	140014
600.478	142309
600.547	146916
600.617	141878
600.686	130555
600.755	128428
600.824	127648
600.894	129341
600.963	132477
601.032	135360
601.101	137376
601.170	135981
601.239	138070
601.308	141466
601.378	144978
601.447	145706
601.516	151203
601.585	153577
601.654	160496
601.723	160828
601.792	166990
601.861	173249
601.930	180255
601.999	188031
602.068	184790
602.137	184737
602.206	187597
602.275	189903
602.343	191381
602.412	192393
602.481	194578
602.550	195431
602.619	200836
602.688	198205
602.756	201897
602.825	197983
602.894	206244
602.963	201467
603.032	207288
603.100	207416
603.169	200833
603.238	211802
603.307	200312
603.375	201204
603.444	212582
603.513	193566
603.581	203204
603.650	212079
603.719	176591
603.787	170210
603.856	171421
603.924	174553
603.993	179652
604.061	183223
604.130	189694
604.198	195324
604.267	195803
604.335	201778
604.404	201372
604.472	207885
604.541	206708
604.609	215783
604.678	220041
604.746	222933
604.815	235837
604.883	225704
604.951	218123
605.020	225815
605.088	206527
605.156	193360
605.225	195356
605.293	193957
605.361	196823
605.429	193139
605.498	200895
605.566	194541
605.634	204900
605.702	201541
605.771	204563
605.839	208423
605.907	193751
605.975	203579
606.043	192433
606.111	186738
606.180	204759
606.248	182468
606.316	179459
606.384	196988
606.452	150989
606.520	122209
606.588	124524
606.656	124442
606.724	122148
606.792	115035
606.860	105224
606.928	97074
606.996	93819
607.064	93333
607.132	93662
607.200	100179
607.267	103963
607.335	105352
607.403	108779
607.471	104081
607.539	103707
607.607	102278
607.674	91483
607.742	92334
607.810	91666
607.878	89920
607.946	92170
608.013	94339
608.081	96697
608.149	97324
608.216	99008
608.284	103104
608.352	101091
608.419	99469
608.487	99981
608.555	95160
608.622	96509
608.690	100587
608.757	107913
608.825	110975
608.893	106323
608.960	101721
609.028	99668
609.095	99352
609.163	96081
609.230	85366
609.298	78967
609.365	82822
609.432	90377
609.500	97500
609.567	112754
609.635	127079
609.702	134016
609.769	127242
609.837	99550
609.904	88198
609.971	92734
610.039	106726
610.106	140601
610.173	261231
610.241	575218
610.308	383705
610.375	163471
610.442	105747
610.509	92858
610.577	92994
610.644	92695
610.711	93903
610.778	97422
610.845	99754
610.912	107660
610.980	113052
611.047	114931
611.114	111043
611.181	106457
611.248	104661
611.315	111416
611.382	113291
611.449	117291
611.516	120479
611.583	118614
611.650	119498
611.717	120877
611.784	124597
611.851	129709
611.918	137962
611.984	163984
612.051	230686
612.118	440273
612.185	960954
612.252	641337
612.319	210336
612.386	164790
612.452	145959
612.519	138826
612.586	135892
612.653	137866
612.719	140347
612.786	134162
612.853	124115
612.919	121673
612.986	123938
613.053	115136
613.120	107756
613.186	105709
613.253	106116
613.319	107182
613.386	107400
613.453	109220
613.519	109202
613.586	108344
613.652	111767
613.719	108840
613.785	110360
613.852	110547
613.918	109405
613.985	111129
614.051	119027
614.118	126594
614.184	121254
614.250	110443
614.317	112384
614.383	110473
614.449	112057
614.516	112362
614.582	113814
614.648	111364
614.715	109541
614.781	107209
614.847	107892
614.914	106521
614.980	103827
615.046	105085
615.112	107678
615.179	106827
615.245	108813
615.311	109065
615.377	110056
615.443	111176
615.509	112897
615.575	117356
615.642	115900
615.708	119577
615.774	124835
615.840	133172
615.906	144017
615.972	176291
616.038	261754
616.104	517362
616.170	1091366
616.236	923566
616.302	305921
616.368	216993
616.434	161731
616.500	146032
616.565	157606
616.631	194765
616.697	165273
616.763	166676
616.829	239216
616.895	410734
616.961	395675
617.026	191451
617.092	131425
617.158	121807
617.224	115432
617.289	107273
617.355	103093
617.421	100247
617.487	100963
617.552	96544
617.618	95826
617.684	95119
617.749	97856
617.815	92598
617.880	90436
617.946	90322
618.012	92102
618.077	94367
618.143	91240
618.208	90897
618.274	97580
618.339	98460
618.405	82450
618.470	83884
618.536	82780
618.601	81797
618.667	77492
618.732	73565
618.798	73431
618.863	72340
618.928	72415
618.994	74464
619.059	73932
619.124	75451
619.190	72645
619.255	72307
619.320	72514
619.386	72947
619.451	71021
619.516	70934
619.581	71897
619.647	73718
619.712	73874
619.777	71891
619.842	71930
619.907	74379
619.972	73879
620.038	72596
620.103	72451
620.168	71522
620.233	73469
620.298	72929
620.363	73321
620.428	76602
620.493	77805
620.558	79793
620.623	79922
620.688	79566
620.753	79970
620.818	80933
620.883	80755
620.948	81167
621.013	79055
621.078	80058
621.143	78955
621.207	83225
621.272	79143
621.337	77900
621.402	78211
621.467	79005
621.532	80549
621.596	77784
621.661	77466
621.726	75483
621.791	75498
621.855	78200
621.920	76021
621.985	78033
622.049	80237
622.114	80706
622.179	79704
622.243	82506
622.308	83952
622.373	87404
622.437	85229
622.502	80980
622.566	77379
622.631	78923
622.695	82558
622.760	82202
622.824	80623
622.889	80431
622.953	81202
623.018	88072
623.082	88316
623.147	85073
623.211	83543
623.276	83023
623.340	79513
623.404	77614
623.469	78050
623.533	80514
623.597	77088
623.662	76552
623.726	72919
623.790	67735
623.854	66804
623.919	69793
623.983	68308
624.047	69829
624.111	70965
624.176	73216
624.240	72565
624.304	74660
624.368	71123
624.432	71642
624.496	72540
624.560	75096
624.625	76182
624.689	76306
624.753	78269
624.817	73892
624.881	72004
624.945	67436
625.009	66151
625.073	67333
625.137	65850
625.201	69794
625.265	69917
625.329	67971
625.393	67594
625.456	68276
625.520	69809
625.584	72017
625.648	75051
625.712	79912
625.776	94582
625.839	92840
625.903	64457
625.967	56442
626.031	66625
626.095	80041
626.158	64596
626.222	51055
626.286	48953
626.349	47642
626.413	43912
626.477	45132
626.540	44969
626.604	44442
626.668	44901
626.731	42094
626.795	43507
626.858	42226
626.922	39449
626.986	42300
627.049	39426
627.113	44112
627.176	42086
627.240	40494
627.303	39608
627.366	39729
627.430	39526
627.493	40005
627.557	38657
627.620	41481
627.684	39789
627.747	40787
627.810	36004
627.874	34970
627.937	32598
628.000	37261
628.064	33732
628.127	29432
628.190	29934
628.253	29330
628.317	27644
628.380	27556
628.443	25685
628.506	26680
628.569	25453
628.632	23199
628.696	23783
628.759	23652
628.822	21615
628.885	21350
628.948	21989
629.011	22568
629.074	21847
629.137	19375
629.200	19362
629.263	21172
629.326	18558
629.389	19518
629.452	18911
629.515	19379
629.578	19202
629.641	19785
629.704	19081
629.767	19569
629.830	19034
629.892	18553
629.955	17676
630.018	20253
630.081	17524
630.144	19978
630.207	17003
630.269	19270
630.332	17786
630.395	17650
630.458	17314
630.520	15671
630.583	17711
630.646	17314
630.708	16682
630.771	16329
630.834	18380
630.896	17936
630.959	17579
631.021	16911
631.084	16669
631.146	17730
631.209	18392
631.272	16951
631.334	16842
631.397	17806
631.459	17418
631.522	18611
631.584	18443
631.646	20833
631.709	20977
631.771	21754
631.834	19985
631.896	19306
631.958	17456
632.021	17993
632.083	16900
632.145	17213
632.208	16061
632.270	17443
632.332	14477
632.395	15200
632.457	17416
632.519	16100
632.581	17924
632.643	15575
632.706	16905
632.768	15025
632.830	17384
632.892	16810
632.954	16200
633.016	17086
633.078	16473
633.141	16226
633.203	15571
633.265	16404
633.327	16093
633.389	15729
633.451	16159
633.513	15790
633.575	17239
633.637	15578
633.698	16355
633.760	18326
633.822	18134
633.884	19974
633.946	18757
634.008	19284
634.070	20116
634.132	22208
634.193	23096
634.255	24608
634.317	22844
634.379	25493
634.441	21574
634.502	19345
634.564	18696
634.626	17614
634.687	16876
634.749	16777
634.811	16382
634.873	15750
634.934	15429
634.996	16202
635.057	14586
635.119	15562
635.181	16539
635.242	17434
635.304	13766
635.365	18711
635.427	15607
635.488	16446
635.550	15629
635.611	17159
635.673	14073
635.734	19422
635.796	18369
635.857	21532
635.918	20518
635.980	24019
636.041	23674
636.102	25790
636.164	26023
636.225	25989
636.286	20243
636.348	20227
636.409	18205
636.470	17002
636.531	17036
636.593	16321
636.654	17207
636.715	15183
636.776	15584
636.838	13805
636.899	15061
636.960	14213
637.021	13396
637.082	13812
637.143	14283
637.204	12458
637.265	12451
637.326	13343
637.387	13435
637.448	12393
637.509	13645
637.570	13802
637.631	14164
637.692	12379
637.753	10889
637.814	13342
637.875	12568
637.936	14059
637.997	11590
638.058	12338
638.119	13720
638.179	13251
638.240	11541
638.301	12858
638.362	11216
638.423	11798
638.483	13203
638.544	11579
638.605	12754
638.666	11531
638.726	12232
638.787	12927
638.848	11243
638.908	12636
638.969	11522
639.030	10967
639.090	9612
639.151	10821
639.211	11924
639.272	13117
639.332	13307
639.393	12663
639.453	11522
639.514	13562
639.574	12142
639.635	10947
639.695	11714
639.756	9780
639.816	11512
639.877	11098
639.937	13605
639.997	12803
640.058	10454
640.118	11092
640.178	10965
640.239	10241
640.299	10674
640.359	10049
640.420	11795
640.480	12982
640.540	14212
640.600	14510
640.661	13405
640.721	11634
640.781	13720
640.841	10694
640.901	12326
640.961	12048
641.021	11795
641.082	12115
641.142	11734
641.202	11745
641.262	8672
641.322	11522
641.382	9233
641.442	11630
641.502	9881
641.562	11304
641.622	10717
641.682	11057
641.742	12829
641.802	11967
641.861	11146
641.921	9400
641.981	9560
642.041	9687
642.101	9525
642.161	8022
642.221	8543
642.280	9947
642.340	8316
642.400	8988
642.460	10225
642.519	9805
642.579	9840
642.639	10761
642.698	7827
642.758	12381
642.818	9720
642.877	9040
642.937	10146
642.997	10849
643.056	10142
643.116	9217
643.175	11532
643.235	11144
643.294	10634
643.354	11988
643.414	12850
643.473	15715
643.532	17525
643.592	24945
643.651	38807
643.711	68334
643.770	136551
643.830	322320
643.889	606025
643.948	155267
644.008	35349
644.067	21622
644.126	15716
644.186	13918
644.245	13214
644.304	10014
644.363	12249
644.423	9560
644.482	10474
644.541	12243
644.600	9382
644.659	14801
644.719	17427
644.778	27298
644.837	46290
644.896	97996
644.955	214981
645.014	67310
645.073	18253
645.132	13316
645.191	11598
645.250	11195
645.309	12006
645.368	12296
645.427	17232
645.486	29384
645.545	48649
645.604	15083
645.663	10690
645.722	9867
645.781	10847
645.840	14187
645.898	15963
645.957	24012
646.016	34805
646.075	66911
646.134	128146
646.192	340942
646.251	449664
646.310	76627
646.369	24514
646.427	19496
646.486	13625
646.545	12293
646.603	10959
646.662	10069
646.721	9346
646.779	9375
646.838	8934
646.896	13804
646.955	16403
647.014	27409
647.072	54339
647.131	144494
647.189	63835
647.248	11960
647.306	9487
647.365	8787
647.423	5665
647.481	8904
647.540	5790
647.598	7080
647.657	6887
647.715	7539
647.773	5531
647.832	7030
647.890	5122
647.948	5791
648.007	6512
648.065	5121
648.123	5518
648.181	7983
648.240	7207
648.298	6310
648.356	6018
648.414	5588
648.472	5787
648.531	6340
648.589	5638
648.647	6533
648.705	5312
648.763	6052
648.821	6278
648.879	6154
648.937	7026
648.995	9220
649.053	11360
649.111	18986
649.169	29458
649.227	56055
649.285	117933
649.343	317704
649.401	140470
649.459	23002
649.516	14303
649.574	10673
649.632	15660
649.690	18000
649.748	15274
649.806	21993
649.863	39721
649.921	104505
649.979	62789
650.037	10131
650.094	5668
650.152	6509
650.210	4345
650.268	6043
650.325	5377
650.383	5471
650.440	3733
650.498	5356
650.556	4058
650.613	3881
650.671	4102
650.728	4434
650.786	5038
650.843	6786
650.901	3287
650.958	4504
651.016	3904
651.073	4434
651.131	3778
651.188	3568
651.246	3663
651.303	2943
651.360	3950
651.418	3389
651.475	4157
651.532	3180
651.590	3863
651.647	3269
651.704	3619
651.762	3392
651.819	3560
651.876	3531
651.933	3037
651.990	3545
652.048	1884
652.105	2363
652.162	3518
652.219	3415
652.276	3593
652.333	3994
652.390	2363
652.448	2657
652.505	2856
652.562	3430
652.619	3423
652.676	5025
652.733	5531
652.790	2789
652.847	1273
652.904	2641
652.961	2010
653.017	1768
653.074	3080
653.131	3555
653.188	2114
653.245	2760
653.302	2954
653.359	2215
653.415	2682
653.472	2296
653.529	2639
653.586	2387
653.642	2505
653.699	3127
653.756	1705
653.813	2296
653.869	3687
653.926	1600
653.983	2404
654.039	3173
654.096	1897
654.152	3573
654.209	928
654.266	2680
654.322	1454
654.379	3314
654.435	3267
654.492	3209
654.548	2800
654.605	3874
654.661	3507
654.717	2393
654.774	2315
654.830	2306
654.887	2322
654.943	3453
655.000	3457
655.056	3460
655.112	2083
655.168	2158
655.225	2519
655.281	3185
655.337	3712
655.394	3950
655.450	3606
655.506	2996
655.562	3782
655.618	4995
655.675	2096
655.731	3284
655.787	1951
655.843	2404
655.899	1825
655.955	2434
656.011	2360
656.067	2096
656.123	2258
656.179	2319
656.235	2926
656.291	1051
656.347	3247
656.403	1712
656.459	2392
656.515	2569
656.571	2491
656.627	2626
656.683	2336
656.739	2089
656.795	2565
656.850	2476
656.906	2007
656.962	2595
657.018	2345
657.074	2945
657.129	4368
657.185	7092
657.241	13923
657.297	7372
657.352	3105
657.408	2566
657.464	3097
657.519	1688
657.575	1637
657.630	1915
657.686	2070
657.742	2127
657.797	1010
657.853	2047
657.908	2080
657.964	1035
658.019	2062
658.075	1761
658.130	1329
658.186	661
658.241	2190
658.297	767
658.352	1396
658.407	2714
658.463	1621
658.518	2541
658.573	1826
658.629	900
658.684	1108
658.739	2748
658.795	1254
658.850	2001
658.905	1429
658.960	1655
659.016	1256
659.071	1932
659.126	2196
659.181	1896
659.236	3472
659.291	2110
659.346	1503
659.401	2460
659.457	2660
659.512	2957
659.567	2724
659.622	2081
659.677	1695
659.732	972
659.787	1141
659.842	938
659.897	2418
659.952	1871
660.007	1227
660.061	1816
660.116	576
660.171	1528
660.226	1510
660.281	1704
660.336	1360
660.391	2199
660.445	1317
660.500	1843
660.555	1754
660.610	161
660.664	2201
660.719	2067
660.774	1503
660.828	1454
660.883	865
660.938	2053
660.992	-49
661.047	1560
661.101	1227
661.156	1335
661.211	500
661.265	1511
661.320	1660
661.374	1882
661.429	-187
661.483	1987
661.538	971
661.592	1836
661.647	1116
661.701	1434
661.755	1708
661.810	1681
661.864	1003
661.919	1118
661.973	1915
662.027	1504
662.081	1309
662.136	1255
662.190	2012
662.244	1676
662.299	725
662.353	2287
662.407	955
662.461	1967
662.515	1396
662.569	1191
662.624	2161
662.678	1766
662.732	1626
662.786	1798
662.840	1032
662.894	1616
662.948	1173
663.002	1620
663.056	1558
663.110	323
663.164	1513
663.218	2086
663.272	1818
663.326	1669
663.380	1161
663.434	1830
663.488	533
663.542	1684
663.595	998
663.649	949
663.703	1842
663.757	979
663.811	1111
663.864	1243
663.918	1424
663.972	1612
664.026	1475
664.079	1673
664.133	1556
664.187	1633
664.240	1287
664.294	2069
664.348	1830
664.401	2171
664.455	1412
664.508	1235
664.562	1250
664.615	1725
664.669	1035
664.722	1146
664.776	593
664.829	1813
664.883	925
664.936	1730
664.990	1091
665.043	1710
665.097	1722
665.150	2780
665.203	937
665.257	772
665.310	1537
665.363	1367
665.417	1355
665.470	2122
665.523	1498
665.576	1679
665.630	1908
665.683	1720
665.736	1850
665.789	2440
665.842	1227
665.895	2133
665.949	1443
666.002	2093
666.055	1902
666.108	3026
666.161	1359
666.214	2068
666.267	1801
666.320	2606
666.373	848
666.426	2101
666.479	1624
666.532	1793
666.585	1298
666.638	1872
666.691	1928
666.744	2175
666.796	1741
666.849	1593
666.902	2022
666.955	2037
667.008	812
667.060	1400
667.113	86
667.166	1639
667.219	910
667.271	1808
667.324	1579
667.377	1655
667.430	1452
667.482	2132
667.535	1627
667.587	1881
667.640	1315
667.693	1918
667.745	2642
667.798	2759
667.850	1718
667.903	1392
667.955	1884
668.008	1426
668.060	1836
668.113	2097
668.165	1512
668.218	2579
668.270	2144
668.322	2144
668.375	1101
668.427	1943
668.479	1561
668.532	1448
668.584	1429
668.636	2166
668.689	1977
668.741	1698
668.793	1656
668.845	1402
668.898	2194
668.950	1479
669.002	1703
669.054	721
669.106	1286
669.158	1873
669.211	1459
669.263	1454
669.315	1967
669.367	3048
669.419	1838
669.471	2553
669.523	2209
669.575	2720
669.627	1704
669.679	2236
669.731	1949
669.783	2612
669.835	1988
669.886	2226
669.938	2013
669.990	2400
670.042	1811
670.094	3132
670.146	2232
670.197	3508
670.249	4278
670.301	5365
670.353	7125
670.404	10431
670.456	13343
670.508	23284
670.560	37787
670.611	64485
670.663	113254
670.715	246533
670.766	328052
670.818	125492
670.869	29934
670.921	15345
670.972	10245
671.024	7496
671.075	5060
671.127	4963
671.178	3238
671.230	4072
671.281	3209
671.333	3636
671.384	3163
671.436	4248
671.487	5576
671.538	8410
671.590	12431
671.641	20360
671.692	35765
671.744	65653
671.795	47411
671.846	18325
671.897	8682
671.949	5143
672.000	4078
672.051	3314
672.102	3142
672.153	2507
672.204	2384
672.256	2079
672.307	1119
672.358	1583
672.409	843
672.460	2025
672.511	1326
672.562	1062
672.613	1257
672.664	1546
672.715	1306
672.766	1697
672.817	1876
672.868	1583
672.919	1554
672.970	1287
673.021	582
673.071	1299
673.122	1104
673.173	1291
673.224	1128
673.275	1544
673.326	1443
673.376	1556
673.427	781
673.478	1604
673.528	459
673.579	-431
673.630	398
673.680	1434
673.731	239
673.782	845
673.832	1051
673.883	1081
673.934	893
673.984	1284
674.035	1040
674.085	1238
674.136	1504
674.186	1922
674.237	678
674.287	1738
674.338	990
674.388	1035
674.438	971
674.489	1677
674.539	1712
674.589	1256
674.640	340
674.690	971
674.740	707
674.791	1350
674.841	619
674.891	1612
674.942	500
674.992	805
675.042	329
675.092	1090
675.142	336
675.193	230
675.243	629
675.293	723
675.343	843
675.393	1581
675.443	831
675.493	962
675.543	232
675.593	1050
675.643	122
675.693	1334
675.743	454
675.793	1012
675.843	70
675.893	517
675.943	1385
675.993	880
676.043	457
676.093	1125
676.142	312
676.192	659
676.242	-370
676.292	988
676.341	-534
676.391	746
676.441	114
676.491	535
676.540	-607
676.590	570
676.640	234
676.689	936
676.739	-357
676.789	875
676.838	591
676.888	1003
676.937	599
676.987	156
677.037	464
677.086	665
677.136	-45
677.185	795
677.235	-447
677.284	251
677.333	62
677.383	131
677.432	138
677.482	517
677.531	559
677.580	854
677.630	-412
677.679	427
677.728	-162
677.778	804
677.827	-92
677.876	334
677.925	76
677.975	1379
678.024	611
678.073	1112
678.122	496
678.171	703
678.220	208
678.269	1262
678.319	1169
678.368	1083
678.417	198
678.466	1219
678.515	734
678.564	980
678.613	-605
678.662	169
678.711	-298
678.760	419
678.809	561
678.857	291
678.906	10
678.955	415
679.004	157
679.053	546
679.102	-56
679.151	-373
679.199	314
679.248	1165
679.297	377
679.346	851
679.394	-513
679.443	676
679.492	259
679.540	79
679.589	98
679.638	247
679.686	-9
679.735	1574
679.784	-13
679.832	847
679.881	527
679.929	168
679.978	-188
680.026	-443
680.075	169
680.123	181
680.172	-474
680.220	363
680.268	5
680.317	210
680.365	-35
680.414	-146
680.462	147
680.510	1436
680.559	-449
680.607	713
680.655	193
680.703	541
680.752	35
680.800	103
680.848	-25
680.896	-101
680.945	246
680.993	-168
681.041	478
681.089	223
681.137	-154
681.185	-246
681.233	-114
681.258	77
681.281	217
681.329	339
681.377	113
681.380	211
681.425	1274
681.473	945
681.502	740
681.521	521
681.569	968
681.617	244
681.624	353
681.665	761
681.713	739
681.745	1192
681.761	1354
681.809	501
681.857	2088
681.867	2013
681.904	1578
681.952	1318
681.989	1136
682.000	1033
682.048	1193
682.096	1946
682.111	1929
682.143	1763
682.191	1180
682.233	2032
682.239	2123
682.286	1290
682.334	1917
682.354	1529
682.382	902
682.430	2362
682.476	1678
682.477	1628
682.525	2731
682.572	1037
682.598	1627
682.620	2063
682.667	2354
682.715	3283
682.720	3264
682.763	2724
682.810	2873
682.841	2714
682.857	2588
682.905	2354
682.952	2761
682.963	2873
683.000	3112
683.047	2895
683.085	3759
683.095	3954
683.142	3208
683.190	3832
683.206	3650
683.237	3226
683.284	3258
683.328	2786
683.332	2717
683.379	3087
683.426	3613
683.449	3832
683.473	4022
683.521	4006
683.568	4432
683.571	4433
683.615	3975
683.662	4971
683.693	3977
683.709	3388
683.757	3557
683.804	4234
683.814	4256
683.851	4245
683.898	3997
683.936	4429
683.945	4524
683.992	4744
684.039	4999
684.057	4916
684.086	4662
684.133	4785
684.179	4650
684.180	4624
684.227	5523
684.274	5759
684.300	5997
684.321	6074
684.368	5087
684.415	5904
684.422	5894
684.462	5862
684.509	5460
684.543	5355
684.556	5259
684.603	5515
684.649	5369
684.665	5592
684.696	6053
684.743	5739
684.786	6341
684.790	6364
684.837	6314
684.883	6027
684.908	6439
684.930	6867
684.977	6954
685.023	6419
685.029	6577
685.070	7388
685.117	6756
685.150	6674
685.164	6680
685.210	6775
685.257	7656
685.272	7746
685.303	7664
685.350	6931
685.393	7066
685.396	7078
685.443	7323
685.490	7846
685.514	7850
685.536	7828
685.583	7511
685.629	7501
685.636	7512
685.675	7478
685.722	7689
685.757	7623
685.768	7588
685.815	8129
685.861	7888
685.878	7966
685.908	8060
685.954	8415
686.000	8527
686.000	8522
686.047	7707
686.093	9041
686.121	9138
686.139	9059
686.185	8683
686.232	8774
686.242	8756
686.278	8751
686.324	8978
686.363	9140
686.370	9166
686.416	8793
686.463	9082
686.484	9039
686.509	8980
686.555	9134
686.601	9052
686.606	9109
686.647	9566
686.693	9143
686.727	9221
686.739	9261
686.785	9491
686.831	9930
686.848	9646
686.877	9115
686.923	9659
686.969	9928
686.969	9927
687.015	10080
687.061	9593
687.090	10179
687.107	10457
687.153	9760
687.199	10364
687.211	10287
687.245	10120
687.291	9675
687.332	9787
687.336	9814
687.382	9573
687.428	10206
687.453	10327
687.474	10330
687.520	10316
687.565	10250
687.574	10242
687.611	10578
687.657	10901
687.695	10962
687.702	10967
687.748	11551
687.794	12238
687.816	12313
687.839	12068
687.885	11495
687.931	10730
687.937	10712
687.976	10954
688.022	11250
688.058	11347
688.067	11435
688.113	11692
688.158	11469
688.179	11867
688.204	12125
688.249	11966
688.295	11863
688.300	11832
688.340	11851
688.386	12205
688.421	12274
688.431	12271
688.477	12418
688.522	12006
688.542	11855
688.567	11877
688.613	12532
688.658	13154
688.663	13097
688.703	12389
688.749	12778
688.784	12526
688.794	12514
688.839	12399
688.884	12615
688.905	12763
688.930	12942
688.975	12841
689.020	12996
689.026	12971
689.065	12896
689.110	13207
689.146	13246
689.155	13288
689.201	13357
689.246	13466
689.267	13498
689.291	13505
689.336	13411
689.381	13702
689.388	13685
689.426	13826
689.471	13697
689.509	13879
689.516	13902
689.561	14435
689.606	13817
689.630	13726
689.651	13672
689.696	13380
689.741	13919
689.750	13815
689.785	13727
689.830	14017
689.871	14541
689.875	14584
689.920	14408
689.965	14418
689.992	14133
690.010	14125
690.054	14141
690.099	14866
690.112	14816
690.144	14705
690.189	15103
690.233	15015
690.233	15037
690.278	15639
690.323	15717
690.354	15677
690.367	15789
690.412	16263
690.457	16894
690.474	17184
690.501	17821
690.546	18252
690.590	18871
690.595	18893
690.635	20010
690.680	21667
690.716	22920
690.724	23683
690.769	27452
690.813	31560
690.836	33566
690.857	39038
690.902	50623
690.946	62697
690.957	65511
690.991	91210
691.035	126255
691.077	158948
691.080	158743
691.124	145898
691.168	132898
691.198	124793
691.213	115258
691.257	86856
691.301	58476
691.318	47268
691.346	42881
691.390	35582
691.434	28393
691.439	27566
691.478	25964
691.522	24529
691.559	22690
691.567	22574
691.611	21558
691.655	20596
691.680	20157
691.699	20013
691.743	19452
691.787	19088
691.800	18802
691.831	18772
691.875	19488
691.919	19514
691.921	19492
691.964	19314
692.008	18590
692.041	18367
692.052	18437
692.096	17884
692.139	18347
692.162	18125
692.183	18092
692.227	18601
692.271	18535
692.282	18511
692.315	18378
692.359	18602
692.402	18661
692.403	18699
692.447	18491
692.490	18761
692.523	18624
692.534	18605
692.578	18525
692.622	18347
692.643	18480
692.666	18810
692.709	18815
692.753	18949
692.763	18939
692.797	19124
692.840	19569
692.884	19839
692.884	19884
692.928	20251
692.971	20777
693.004	21058
693.015	21175
693.059	20935
693.102	21721
693.124	21769
693.146	22238
693.189	22957
693.233	24204
693.245	24368
693.276	25585
693.320	27620
693.363	29561
693.365	29561
693.407	33150
693.450	36973
693.485	40046
693.493	41879
693.537	51017
693.580	60109
693.605	65479
693.624	77071
693.667	103625
693.710	131230
693.725	140740
693.753	189174
693.797	265115
693.840	341013
693.845	349277
693.883	326234
693.926	298661
693.966	274266
693.970	268531
694.013	203174
694.056	137410
694.086	92202
694.099	87323
694.142	71136
694.185	54893
694.206	47071
694.229	44663
694.272	39875
694.315	34998
694.326	33713
694.358	32205
694.401	30010
694.444	27923
694.446	27745
694.487	26842
694.530	25679
694.566	24922
694.573	24858
694.616	23617
694.659	22954
694.686	22256
694.702	22270
694.745	22585
694.787	22441
694.806	22311
694.830	22080
694.873	21953
694.916	21555
694.926	21433
694.959	21533
695.002	21532
695.044	21451
695.046	21403
695.087	21702
695.130	21779
695.166	21833
695.172	21835
695.215	21268
695.258	21210
695.286	20846
695.301	20961
695.343	21292
695.386	21616
695.406	21622
695.428	21758
695.471	22305
695.514	22691
695.526	22733
695.556	23275
695.599	24130
695.641	24608
695.646	24621
695.684	23954
695.726	23166
695.766	22376
695.769	22429
695.811	22293
695.854	22328
695.886	22177
695.896	22225
695.938	22221
695.981	22169
696.005	22198
696.023	22748
696.065	23779
696.108	24760
696.125	25171
696.150	25242
696.192	25208
696.235	25087
696.245	25023
696.277	25629
696.319	26273
696.361	27027
696.365	27005
696.404	27229
696.446	27492
696.485	27658
696.488	27677
696.530	27138
696.572	26297
696.604	25827
696.614	25733
696.656	24861
696.698	24010
696.724	23397
696.740	23693
696.783	24302
696.825	25102
696.844	25320
696.867	25355
696.909	25307
696.951	25296
696.964	25241
696.992	25158
697.034	24845
697.076	24540
697.083	24436
697.118	25031
697.160	25537
697.202	26239
697.203	26184
697.244	25578
697.286	25128
697.323	24451
697.327	24521
697.369	24669
697.411	24803
697.442	24870
697.453	25040
697.494	25355
697.536	25772
697.562	25963
697.578	25916
697.620	25549
697.661	25124
697.682	24913
697.703	25349
697.744	26035
697.786	26750
697.801	26897
697.828	26980
697.869	27132
697.911	27128
697.921	27087
697.952	26951
697.994	26597
698.035	26286
698.040	26172
698.077	26386
698.118	26606
698.160	26782
698.160	26711
698.201	26816
698.243	26829
698.279	26803
698.284	26910
698.325	27184
698.367	27505
698.399	27646
698.408	27782
698.449	28075
698.491	28373
698.518	28476
698.532	28471
698.573	28235
698.614	28013
698.638	27791
698.656	28125
698.697	28732
698.738	29356
698.757	29570
698.779	29622
698.820	29554
698.862	29493
698.877	29387
698.903	29513
698.944	29592
698.985	29660
698.996	29601
699.026	29357
699.067	28901
699.116	28281
699.235	27746
699.354	27388
699.474	27927
699.593	28029
699.713	28309
699.832	27440
699.951	28893
700.070	27284
700.190	26675
700.309	25746
700.428	25594
700.547	26614
700.667	26101
700.786	26199
700.905	25189
701.024	25515
701.143	25398
701.262	25493
701.381	25473
701.500	25039
701.619	25942
701.738	24990
701.857	26034
701.976	24060
702.095	25177
702.214	25021
702.333	25970
702.452	25821
702.571	24781
702.690	25497
702.809	25048
702.928	25039
703.047	23915
703.165	23977
703.284	23564
703.403	23353
703.522	24182
703.640	23080
703.759	24120
703.878	23684
703.997	22861
704.115	22155
704.234	23096
704.353	22915
704.471	21194
704.590	21566
704.708	21840
704.827	22031
704.946	22111
705.064	22166
705.183	22475
705.301	23627
705.420	27118
705.538	24732
705.656	24179
705.775	23607
705.893	31934
706.012	33732
706.130	23142
706.249	23910
706.367	23286
706.485	23434
706.604	22950
706.722	22303
706.840	23895
706.958	25496
707.077	22842
707.195	21360
707.313	21890
707.431	20555
707.549	21086
707.668	20932
707.786	22231
707.904	21406
708.022	22267
708.140	21223
708.258	21565
708.376	21475
708.494	21091
708.612	22631
708.730	26548
708.848	24646
708.966	23871
709.084	22768
709.202	23167
709.320	22797
709.438	23388
709.556	22212
709.674	22436
709.791	22291
709.909	22017
710.027	22131
710.145	21041
710.263	21526
710.380	20973
710.498	21360
710.616	21282
710.733	21486
710.851	21100
710.969	20554
711.086	21141
711.204	20862
711.322	21958
711.439	20403
711.557	20213
711.674	20246
711.792	19768
711.909	21086
712.027	20187
712.144	20331
712.262	19888
712.379	20779
712.497	25528
712.614	24415
712.732	22771
712.849	22119
712.966	21493
713.084	22853
713.201	22019
713.318	22957
713.436	22525
713.553	23018
713.670	22578
713.787	22762
713.905	22997
714.022	22160
714.139	22358
714.256	26600
714.373	31062
714.490	48469
714.608	113046
714.725	424145
714.842	367891
714.959	43308
715.076	26890
715.193	23665
715.310	23685
715.427	20899
715.544	20501
715.661	20926
715.778	20635
715.895	20940
716.011	21077
716.128	19961
716.245	19804
716.362	18775
716.479	19738
716.596	18768
716.713	18093
716.829	18227
716.946	19177
717.063	18291
717.180	18637
717.296	17709
717.413	18949
717.530	17572
717.646	17474
717.763	17174
717.880	17534
717.996	16785
718.113	16907
718.229	17309
718.346	16793
718.462	16247
718.579	17744
718.695	18154
718.812	17725
718.928	17570
719.045	16830
719.161	15960
719.277	16731
719.394	17103
719.510	17854
719.626	18258
719.743	21825
719.859	25040
719.975	43947
720.092	148645
720.208	285802
720.324	40733
720.440	19577
720.557	19345
720.673	18438
720.789	20713
720.905	28771
721.021	19074
721.137	16156
721.253	15175
721.369	16303
721.486	17136
721.602	17743
721.718	15263
721.834	15814
721.950	15497
722.066	14523
722.181	15163
722.297	14771
722.413	14866
722.529	14780
722.645	14136
722.761	14779
722.877	13936
722.993	15045
723.108	15887
723.224	15696
723.340	15630
723.456	14555
723.571	14404
723.687	13658
723.803	14152
723.918	13950
724.034	13564
724.150	14477
724.265	14760
724.381	16371
724.497	17278
724.612	13547
724.728	12815
724.843	13141
724.959	14201
725.074	16748
725.190	17025
725.305	13802
725.421	13584
725.536	12732
725.651	12844
725.767	13451
725.882	13653
725.997	13103
726.113	12522
726.228	13241
726.343	13783
726.459	12575
726.574	13260
726.689	12710
726.804	12208
726.920	12816
727.035	13475
727.150	13120
727.265	12384
727.380	12160
727.495	13476
727.610	11964
727.725	12276
727.841	13562
727.956	17970
728.071	15202
728.186	11508
728.301	12036
728.416	12817
728.531	11996
728.645	10927
728.760	12181
728.875	11754
728.990	11338
729.105	11323
729.220	11992
729.335	12017
729.449	11985
729.564	11389
729.679	11463
729.794	11846
729.908	11902
730.023	11824
730.138	12397
730.253	11680
730.367	11861
730.482	11484
730.596	11657
730.711	12422
730.826	13579
730.940	12409
731.055	12259
731.169	12449
731.284	12733
731.398	11898
731.513	13632
731.627	13668
731.742	15051
731.856	15729
731.970	15489
732.085	18119
732.199	22629
732.313	34085
732.428	77466
732.542	200271
732.656	102890
732.771	27834
732.885	20128
732.999	17571
733.113	17732
733.227	17591
733.342	17188
733.456	17358
733.570	16564
733.684	15992
733.798	15379
733.912	15375
734.026	15100
734.140	15573
734.254	16010
734.368	16077
734.482	17982
734.596	15522
734.710	14985
734.824	15334
734.938	15188
735.052	14730
735.166	14756
735.280	15462
735.393	15728
735.507	13691
735.621	15221
735.735	16641
735.849	14796
735.962	14064
736.076	14464
736.190	14084
736.303	15654
736.417	15413
736.531	13339
736.644	14868
736.758	12740
736.872	13609
736.985	13848
737.099	13254
737.212	12761
737.326	12742
737.439	14173
737.553	12543
737.666	13879
737.780	12680
737.893	13221
738.007	12549
738.120	12746
738.233	11843
738.347	13596
738.460	12561
738.573	13014
738.687	12628
738.800	13371
738.913	12975
739.026	13550
739.140	13164
739.253	12634
739.366	12368
739.479	12647
739.592	12268
739.705	12593
739.818	12984
739.932	12584
740.045	12792
740.158	13306
740.271	12451
740.384	13151
740.497	12734
740.610	13755
740.723	12086
740.836	12194
740.949	12497
741.062	12782
741.174	12052
741.287	12607
741.400	12997
741.513	12149
741.626	13579
741.739	11980
741.851	11828
741.964	11840
742.077	12028
742.189	11938
742.302	13049
742.415	12145
742.527	11721
742.640	12175
742.753	11319
742.865	11448
742.978	11106
743.090	12443
743.203	11173
743.316	12033
743.428	11164
743.541	12071
743.653	11532
743.766	11921
743.878	11741
743.990	11784
744.103	12508
744.215	11980
744.327	11633
744.440	12690
744.552	12094
744.664	11403
744.777	11377
744.889	10868
745.001	12415
745.113	11495
745.226	10944
745.338	11716
745.450	12381
745.562	11831
745.674	11713
745.786	12780
745.898	11589
746.010	12139
746.122	11827
746.234	11582
746.347	11760
746.459	11971
746.570	10561
746.682	12206
746.794	12315
746.906	11113
747.018	12262
747.130	12211
747.242	10925
747.354	10905
747.466	12220
747.577	11929
747.689	11828
747.801	12222
747.913	11476
748.024	11682
748.136	11529
748.248	10602
748.359	11124
748.471	11337
748.583	10915
748.694	12238
748.806	12841
748.918	12027
749.029	11573
749.141	12289
749.252	12396
749.364	11615
749.475	12294
749.587	12153
749.698	11110
749.809	11456
749.921	11453
750.032	11131
750.144	11111
750.255	11173
750.366	10865
750.478	10553
750.589	12387
750.700	11779
750.811	12066
750.923	12049
751.034	12643
751.145	13679
751.256	11642
751.367	12125
751.479	11243
751.590	11843
751.701	12527
751.812	11739
751.923	11591
752.034	12476
752.145	12155
752.256	12061
752.367	11756
752.478	12048
752.589	12273
752.700	12317
752.811	11688
752.922	12513
753.032	12138
753.143	12757
753.254	12071
753.365	13407
753.476	12452
753.586	12404
753.697	13073
753.808	12507
753.919	12258
754.029	11998
754.140	13262
754.251	12859
754.361	13074
754.472	13168
754.582	11746
754.693	12527
754.804	13258
754.914	12774
755.025	12996
755.135	13156
755.246	13752
755.356	13573
755.466	14201
755.577	13734
755.687	13730
755.798	14362
755.908	14775
756.018	13976
756.129	14166
756.239	14696
756.349	14926
756.460	15252
756.570	15279
756.680	14878
756.790	14364
756.900	15419
757.011	15611
757.121	15534
757.231	15580
757.341	16081
757.451	15741
757.561	15271
757.671	16842
757.781	15410
757.891	17301
758.001	16021
758.111	17307
758.221	17950
758.331	17159
758.441	18713
758.551	17204
758.661	18786
758.771	18514
758.880	18679
758.990	19619
759.100	19741
759.210	20448
759.320	19671
759.429	20193
759.539	20009
759.649	21845
759.758	22819
759.868	23745
759.978	23156
760.087	24681
760.197	24136
760.307	24484
760.416	23690
760.526	23891
760.635	25824
760.745	25882
760.854	26393
760.964	27368
761.073	28212
761.182	28279
761.292	29044
761.401	30001
761.511	29362
761.620	30089
761.729	31259
761.839	31626
761.948	33378
762.057	33634
762.166	36127
762.276	35862
762.385	39200
762.494	39456
762.603	40210
762.712	41282
762.822	42532
762.931	44645
763.040	45659
763.149	48444
763.258	51613
763.367	54028
763.476	56823
763.585	58604
763.694	62363
763.803	65831
763.912	70910
764.021	74621
764.130	78269
764.238	84070
764.347	91034
764.456	97449
764.565	104972
764.674	114198
764.783	125855
764.891	137785
765.000	154755
765.109	172462
765.217	195197
765.326	221203
765.435	253460
765.543	297544
765.652	348675
765.761	410739
765.869	485342
765.978	565803
766.086	640600
766.195	666814
766.303	600973
766.412	412326
766.520	412079
766.629	586314
766.737	661966
766.846	630846
766.954	555163
767.062	469616
767.171	391499
767.279	327469
767.387	273966
767.496	235043
767.604	205961
767.712	182270
767.820	165287
767.928	150287
768.037	138517
768.145	130913
768.253	124767
768.361	122550
768.469	121818
768.577	123558
768.685	130457
768.793	139068
768.901	152506
769.009	173539
769.117	206367
769.225	250573
769.333	318146
769.441	409840
769.549	529042
769.657	627786
769.765	576999
769.873	398868
769.981	526995
770.088	608896
770.196	533421
770.304	433852
770.412	348936
770.519	282588
770.627	237061
770.735	197613
770.842	169208
770.950	147681
771.058	130134
771.165	118362
771.273	107601
771.380	96096
771.488	90198
771.595	82773
771.703	76904
771.810	71871
771.918	67730
772.025	64126
772.133	60158
772.240	55824
772.348	55776
772.455	53249
772.562	49788
772.670	47047
772.777	45735
772.884	43539
772.991	41416
773.099	40843
773.206	37775
773.313	37408
773.420	36884
773.528	34280
773.635	34295
773.742	33502
773.849	33329
773.956	30752
774.063	30193
774.170	30453
774.277	29438
774.384	27286
774.491	27952
774.598	27198
774.705	26507
774.812	26591
774.919	24661
775.026	25275
775.133	23671
775.239	24039
775.346	24146
775.453	22708
775.560	22683
775.667	21302
775.773	21548
775.880	21845
775.987	21236
776.093	21146
776.200	20122
776.307	19393
776.413	19224
776.520	19370
776.627	19227
776.733	17955
776.840	16632
776.946	20304
777.053	18258
777.159	16465
777.266	15222
777.372	17790
777.478	17155
777.585	17230
777.691	15856
777.798	15765
777.904	15541
778.010	15716
778.117	15767
778.223	14374
778.329	14527
778.435	14944
778.542	14492
778.648	14103
778.754	13055
778.860	13790
778.966	14295
779.072	14605
779.178	14027
779.284	13041
779.391	12640
779.497	13923
779.603	16943
779.708	18438
779.815	31609
779.920	89320
780.026	163491
780.132	34062
780.238	15606
780.344	13466
780.450	14493
780.556	12143
780.661	11908
780.767	11957
780.873	10903
780.979	12490
781.085	11362
781.190	10700
781.296	11073
781.402	10574
781.507	10742
781.613	10316
781.719	9168
781.824	10086
781.930	10609
782.035	10636
782.141	9829
782.246	8527
782.352	10244
782.457	9489
782.563	8979
782.668	9727
782.773	9252
782.879	7831
782.984	9005
783.090	8556
783.195	9489
783.300	10032
783.405	9030
783.511	8311
783.616	8474
783.721	9110
783.826	9325
783.932	8833
784.037	8963
784.142	8920
784.247	8862
784.352	8626
784.457	8826
784.562	8600
784.667	8535
784.772	7520
784.877	6675
784.982	8651
785.087	8188
785.192	8690
785.297	8145
785.402	7868
785.507	7441
785.611	8009
785.716	6997
785.821	7548
785.926	7179
786.031	7028
786.135	7145
786.240	7753
786.345	6864
786.450	7627
786.554	6878
786.659	6069
786.763	6013
786.868	7382
786.973	7962
787.077	6194
787.182	6292
787.286	6540
787.391	7465
787.495	6501
787.600	6565
787.704	5900
787.809	7182
787.913	5756
788.017	7648
788.122	6779
788.226	7397
788.330	6137
788.435	6020
788.539	6958
788.643	5709
788.747	5934
788.852	5954
788.956	5089
789.060	6897
789.164	6264
789.268	5246
789.372	7551
789.476	6023
789.580	5046
789.684	5106
789.788	6011
789.892	5136
789.996	5319
790.100	5502
790.204	5609
790.308	6085
790.412	4909
790.516	5712
790.620	5705
790.724	5862
790.828	5463
790.931	5233
791.035	7336
791.139	5483
791.242	5474
791.346	5564
791.450	5770
791.554	5666
791.657	3570
791.761	6444
791.864	6062
791.968	5752
792.072	6040
792.175	5223
792.279	4415
792.382	5774
792.486	5497
792.589	4463
792.693	5213
792.796	4912
792.899	6088
793.003	5590
793.106	4059
793.209	4667
793.313	5794
793.416	3791
793.519	4721
793.623	5481
793.726	4759
793.829	5761
793.932	5244
794.035	3945
794.138	6326
794.242	6629
794.345	6228
794.448	7682
794.551	14459
794.654	50387
794.757	100356
794.860	19883
794.963	5817
795.066	4610
795.169	5823
795.272	4542
795.375	3965
795.477	4254
795.580	4744
795.683	3569
795.786	5156
795.889	3426
795.991	4986
796.094	5371
796.197	2187
796.300	5063
796.402	4199
796.505	3572
796.608	3523
796.710	4485
796.813	4804
796.915	4946
797.018	4110
797.120	3519
797.223	3354
797.326	5765
797.428	4060
797.530	3486
797.633	3277
797.735	5486
797.838	4562
797.940	4845
798.042	3852
798.145	3199
798.247	4085
798.349	2966
798.452	4471
798.554	3596
798.656	2748
798.758	4988
798.860	4004
798.962	3975
799.065	3276
799.167	2432
799.269	4829
799.371	4474
799.473	3412
799.575	2410
799.677	3521
799.779	5365
799.881	2592
799.983	4355
800.085	3846
800.187	3449
800.289	2406
800.390	3550
800.492	3486
800.594	4413
800.696	2730
800.798	3314
800.899	3212
801.001	3136
801.103	3552
801.205	2842
801.306	3132
801.408	3069
801.509	3520
801.611	2757
801.713	4370
801.814	3044
801.916	2983
802.017	2246
802.119	2416
802.220	3189
802.322	1273
802.423	4902
802.525	2105
802.626	3441
802.727	3713
802.829	3666
802.930	670
803.031	4091
803.133	3145
803.234	3595
803.335	3352
803.436	2863
803.538	2944
803.639	2554
803.740	3954
803.841	2794
803.942	3839
804.043	3351
804.144	2108
804.245	2669
804.346	2716
804.447	2827
804.548	2471
804.649	4235
804.750	2524
804.851	2711
804.952	2981
805.053	2950
805.154	2085
805.255	3487
805.355	2749
805.456	2654
805.557	1541
805.658	2173
805.758	3195
805.859	2663
805.960	3369
806.061	2173
806.161	1697
806.262	2790
806.362	2362
806.463	3293
806.564	3489
806.664	3228
806.765	2558
806.865	2466
806.966	2895
807.066	2015
807.166	3460
807.267	3053
807.367	1440
807.468	2675
807.568	2129
807.668	3360
807.769	3650
807.869	2057
807.969	1785
808.069	2529
808.170	2710
808.270	1445
808.370	2952
808.470	2828
808.570	2393
808.670	2851
808.770	2617
808.870	1977
808.970	2215
809.070	2442
809.170	1589
809.271	3542
809.370	2284
809.470	2963
809.570	2581
809.670	2432
809.770	2326
809.870	2971
809.970	2221
810.070	3025
810.169	3441
810.269	974
810.369	3709
810.469	1705
810.568	1923
810.668	1927
810.768	1384
810.867	2008
810.967	2231
811.066	2339
811.166	2398
811.265	3652
811.365	1948
811.464	2508
811.564	2028
811.663	3241
811.763	673
811.862	2327
811.962	2873
812.061	2047
812.160	1919
812.260	1994
812.359	2752
812.458	4062
812.557	7890
812.657	10037
812.756	4505
812.855	3479
812.954	1455
813.053	2512
813.153	2526
813.252	1318
813.351	1970
813.450	2118
813.549	2121
813.648	2341
813.747	1502
813.846	2570
813.945	1961
814.044	3150
814.143	2342
814.242	2947
814.341	1930
814.439	2574
814.538	2893
814.637	2846
814.736	2242
814.835	2990
814.933	2273
815.032	3594
815.131	2754
815.229	4720
815.328	6381
815.427	4068
815.525	4488
815.624	4465
815.722	3727
815.821	4568
815.919	4134
816.018	4108
816.116	4178
816.215	4553
816.313	4264
816.412	5267
816.510	5668
816.609	7059
816.707	6060
816.805	5643
816.904	4886
817.002	5844
817.100	6195
817.198	5509
817.296	4698
817.395	5598
817.493	5795
817.591	5131
817.689	6136
817.787	5081
817.885	5805
817.983	6809
818.081	9311
818.179	14100
818.277	30696
818.375	27752
818.473	9604
818.571	6888
818.669	5841
818.767	6374
818.865	5333
818.963	5476
819.061	6469
819.158	8171
819.256	14660
819.354	25944
819.452	58854
819.549	37530
819.647	13658
819.745	6750
819.842	6274
819.940	5381
820.038	4324
820.135	4808
820.233	5922
820.330	4630
820.428	3755
820.525	5600
820.623	3790
820.720	4423
820.818	4825
820.915	4477
821.012	4531
821.110	2856
821.207	5695
821.304	3493
821.402	3682
821.499	4780
821.596	4129
821.693	4141
821.791	4888
821.888	4163
821.985	4732
822.082	2896
822.179	5016
822.276	4113
822.373	4133
822.470	3789
822.567	3943
822.664	3545
822.761	4504
822.858	3923
822.955	3783
823.052	3162
823.149	3844
823.246	3856
823.343	2840
823.440	4481
823.536	3592
823.633	4148
823.730	3476
823.827	4062
823.923	3950
824.020	4535
824.117	4153
824.213	3529
824.310	3381
824.407	3456
824.503	4005
824.600	4180
824.696	3304
824.793	5107
824.889	3985
824.986	3693
825.082	3170
825.179	3577
825.275	3427
825.371	3618
825.468	3412
825.564	1896
825.660	4084
825.757	4307
825.853	4037
825.949	2425
826.045	2328
826.142	3546
826.238	3333
826.334	3620
826.430	2530
826.526	3074
826.622	2354
826.718	3422
826.814	2216
826.910	4109
827.006	2279
827.102	2638
827.198	2977
827.294	3601
827.390	3542
827.486	2915
827.582	1217
827.678	2170
827.774	4398
827.869	2060
827.965	4177
828.061	1896
828.157	3043
828.252	3512
828.348	2136
828.444	3011
828.539	2300
828.635	3054
828.731	4258
828.826	2095
828.922	3332
829.017	2836
829.113	3551
829.208	1685
829.304	2052
829.399	3991
829.495	2766
829.590	2259
829.685	1956
829.781	3803
829.876	2949
829.971	2454
830.066	2011
830.162	2311
830.257	3265
830.352	3126
830.447	2262
830.543	2061
830.638	1680
830.733	3543
830.828	2055
830.923	3324
831.018	3312
831.113	3389
831.208	2526
831.303	2764
831.398	1906
831.493	2111
831.588	3109
831.683	2198
831.778	2679
831.873	2114
831.967	3314
832.062	2369
832.157	2098
832.252	2175
832.346	2077
832.441	3224
832.536	2809
832.631	3315
832.725	1480
832.820	946
832.914	1616
833.009	2095
833.104	1171
833.198	2027
833.293	2292
833.387	3231
833.482	1825
833.576	1320
833.670	3483
833.765	2329
833.859	2382
833.954	3194
834.048	1852
834.142	2161
834.237	1466
834.331	2158
834.425	1422
834.519	1709
834.613	2396
834.708	1913
834.802	2160
834.896	1784
834.990	2631
835.084	1430
835.178	1845
835.272	2452
835.366	2351
835.460	2573
835.554	1942
835.648	2381
835.742	1542
835.836	2031
835.930	708
836.024	2730
836.117	3107
836.211	2480
836.305	1980
836.399	2527
836.493	1687
836.586	2936
836.680	1688
836.774	1928
836.867	2143
836.961	1687
837.055	1298
837.148	1291
837.242	1959
837.335	1150
837.429	1455
837.522	1291
837.616	2156
837.709	2529
837.803	2093
837.896	1642
837.989	1163
838.083	1439
838.176	2410
838.269	2079
838.363	2528
838.456	2169
838.549	2255
838.642	1717
838.735	2429
838.829	2594
838.922	1615
839.015	1552
839.108	712
839.201	1843
839.294	2350
839.387	2797
839.480	1212
839.573	2357
839.666	1800
839.759	1495
839.852	892
839.945	2057
840.038	1114
840.131	933
840.223	1322
840.316	1989
840.409	1789
840.502	1708
840.594	2168
840.687	552
840.780	2022
840.873	1264
840.965	678
841.058	2556
841.150	2664
841.243	1193
841.336	2044
841.428	1806
841.521	1551
841.613	1622
841.706	1843
841.798	1746
841.890	1607
841.983	760
842.075	1813
842.167	1194
842.260	901
842.352	2182
842.444	2030
842.537	3731
842.629	3015
842.721	836
842.813	1910
842.905	987
842.997	1804
843.090	1641
843.182	1212
843.274	2342
843.366	5198
843.458	6207
843.550	4862
843.642	1817
843.734	2659
843.826	1166
843.918	1431
844.009	1420
844.101	881
844.193	1408
844.285	1387
844.377	1614
844.469	872
844.560	837
844.652	1539
844.744	1557
844.835	1509
844.927	1471
845.019	1438
845.110	1192
845.202	1413
845.293	1563
845.385	819
845.476	1528
845.568	1888
845.659	1010
845.751	1534
845.842	1559
845.934	1064
846.025	1502
846.116	2179
846.208	976
846.299	875
846.390	856
846.482	1044
846.573	1929
846.664	1177
846.755	942
846.846	2118
846.937	939
847.029	1237
847.120	1524
847.211	1306
847.302	2018
847.393	583
847.484	1274
847.575	1193
847.666	1834
847.757	1092
847.847	2250
847.938	2100
848.029	2019
848.120	994
848.211	1607
848.302	1189
848.392	1034
848.483	1886
848.574	1193
848.664	863
848.755	2063
848.846	1409
848.936	1389
849.027	1609
849.118	975
849.208	173
849.299	1888
849.389	2715
849.480	4509
849.570	8289
849.661	14974
849.751	22320
849.841	7346
849.932	2020
850.022	1108
850.112	2416
850.203	1310
850.293	1748
850.383	993
850.474	933
850.564	499
850.654	1387
850.744	1156
850.834	1872
850.924	975
851.014	1470
851.104	1697
851.194	536
851.284	850
851.374	1414
851.464	1229
851.554	1527
851.644	1318
851.734	1837
851.824	2006
851.914	2258
852.004	4997
852.094	3022
852.183	963
852.273	1072
852.363	1894
852.452	631
852.542	1142
852.632	1326
852.721	1628
852.811	1159
852.901	1807
852.990	1450
853.080	1450
853.169	621
853.259	997
853.348	1021
853.438	1214
853.527	1987
853.617	2935
853.706	5270
853.795	9376
853.885	21246
853.974	38723
854.063	69934
854.152	92652
854.242	33235
854.331	8251
854.420	3202
854.509	3029
854.598	2842
854.687	1824
854.777	891
854.866	1946
854.955	1486
855.044	1150
855.133	814
855.222	768
855.311	229
855.400	1788
855.488	1548
855.577	825
855.666	958
855.755	1858
855.844	1159
855.933	1346
856.021	1160
856.110	1471
856.199	1056
856.288	426
856.376	268
856.465	791
856.554	2143
856.642	471
856.731	788
856.819	1305
856.908	1744
856.996	1310
857.085	342
857.173	475
857.262	639
857.350	681
857.438	822
857.527	659
857.615	566
857.703	1511
857.792	628
857.880	321
857.968	164
858.056	1537
858.145	622
858.233	977
858.321	93
858.409	700
858.497	403
858.585	-240
858.673	1131
858.761	-137
858.849	225
858.937	-449
859.025	705
859.113	946
859.201	17
859.289	1234
859.377	1107
859.465	505
859.552	1189
859.640	436
859.728	135
859.816	1042
859.903	1209
859.991	710
860.079	1329
860.166	748
860.254	1040
860.342	1233
860.429	320
860.517	482
860.604	853
860.692	1709
860.779	493
860.867	871
860.954	584
861.042	1516
861.129	878
861.216	1918
861.304	11
861.391	965
861.478	683
861.565	1172
861.653	1374
861.740	394
861.827	339
861.914	2282
862.001	233
862.089	880
862.176	590
862.263	35
862.350	660
862.437	149
862.524	430
862.611	1110
862.698	1349
862.785	1023
862.871	453
862.958	1100
863.045	487
863.132	1525
863.219	717
863.306	672
863.392	519
863.479	1398
863.566	-1
863.652	1940
863.739	147
863.826	1063
863.912	1505
863.999	926
864.086	1216
864.172	1019
864.259	1616
864.345	672
864.432	1175
864.518	1599
864.604	946
864.691	152
864.777	751
864.863	2034
864.950	2964
865.036	2365
865.122	5987
865.209	5264
865.295	4192
865.381	4648
865.467	4831
865.553	5172
865.639	5385
865.726	7693
865.812	12955
865.898	21672
865.984	30447
866.070	55971
866.156	53290
866.242	15761
866.328	6594
866.414	4822
866.499	4448
866.585	3790
866.671	3610
866.757	4103
866.843	4054
866.928	3949
867.014	4489
867.100	4737
867.186	3379
867.271	3444
867.357	4549
867.442	3503
867.528	3733
867.614	3521
867.699	3683
867.785	4096
867.870	2984
867.956	3319
868.041	3814
868.127	3901
868.212	2761
868.297	3609
868.383	3641
868.468	3301
868.553	3812
868.639	4208
868.724	4074
868.809	3048
868.894	3918
868.979	3334
869.065	2644
869.150	1910
869.235	2540
869.320	3337
869.405	3059
869.490	3273
869.575	2216
869.660	2632
869.745	2823
869.830	3195
869.915	2358
870.000	3124
870.085	2510
870.169	2800
870.254	3728
870.339	1955
870.424	2261
870.509	2808
870.593	3099
870.678	3305
870.763	2088
870.847	2221
870.932	2964
871.016	2459
871.101	2578
871.186	2846
871.270	3319
871.355	2060
871.439	2377
871.523	2430
871.608	2536
871.692	2258
871.777	2778
871.861	2664
871.945	1857
872.030	2705
872.114	1584
872.198	2132
872.282	1943
872.367	1897
872.451	2176
872.535	2577
872.619	2260
872.703	2167
872.787	2241
872.871	2382
872.955	1827
873.039	1355
873.123	1610
873.207	2717
873.291	1695
873.375	1748
873.459	3238
873.543	1916
873.627	1020
873.711	1823
873.794	2213
873.878	1784
873.962	1390
874.045	1764
874.129	1874
874.137	1868
874.213	1802
874.245	1771
874.296	1722
874.352	917
874.380	527
874.460	1710
874.464	1758
874.547	1112
874.568	1385
874.631	2187
874.676	1783
874.714	1455
874.784	2389
874.798	2568
874.881	2659
874.892	2466
874.965	1233
874.999	1594
875.048	2019
875.107	2166
875.131	2232
875.215	1315
875.215	1315
875.298	1047
875.323	1145
875.381	1401
875.430	2250
875.465	2839
875.538	1683
875.548	1511
875.631	1041
875.646	1068
875.714	1328
875.753	1644
875.798	2000
875.861	1629
875.881	1476
875.964	1842
875.968	1814
876.047	1493
876.076	1337
876.130	968
876.183	1303
876.213	1506
876.291	2135
876.296	2178
876.379	1488
876.398	1450
876.462	1301
876.506	1051
876.545	830
876.613	1337
876.628	1456
876.711	1300
876.721	1454
876.794	2710
876.828	2086
876.877	978
876.935	968
876.960	1065
877.043	1496
877.043	1497
877.125	1580
877.150	1777
877.208	2167
877.258	1716
877.291	1424
877.365	1053
877.374	1006
877.456	1444
877.472	1335
877.539	1122
877.579	1339
877.622	1420
877.687	1480
877.704	1484
877.787	1711
877.794	1626
877.869	1044
877.901	1289
877.952	1361
878.008	1364
878.034	1491
878.115	1270
878.117	1264
878.199	948
878.222	1251
878.282	2112
878.329	2269
878.364	2305
878.437	2122
878.447	2088
878.529	627
878.544	682
878.611	982
878.651	1211
878.694	1644
878.758	1945
878.776	1976
878.858	1890
878.865	1866
878.941	1158
878.972	943
879.023	1009
879.078	1204
879.105	1294
879.185	1662
879.187	1665
879.269	1609
879.292	1496
879.351	1285
879.399	1430
879.433	1471
879.506	1555
879.516	1584
879.598	1309
879.613	1286
879.680	1033
879.720	1346
879.762	1910
879.827	2055
879.844	1953
879.926	951
879.933	910
880.007	1024
880.040	1317
880.089	1593
880.147	1892
880.171	2108
880.253	2230
880.254	2233
880.335	2740
880.360	2951
880.417	4084
880.467	5310
880.499	6225
880.574	7595
880.580	7455
880.662	3626
880.680	2894
880.744	1667
880.787	1955
880.825	2182
880.893	1871
880.907	1870
880.989	1683
881.000	1666
881.070	1384
881.106	1161
881.152	974
881.213	934
881.233	933
881.315	1101
881.319	1123
881.396	1426
881.426	1305
881.478	1294
881.532	1685
881.559	1890
881.639	1486
881.641	1468
881.722	1508
881.745	1459
881.803	1490
881.852	1343
881.885	1135
881.958	898
881.966	920
882.047	1416
882.064	1477
882.129	1581
882.171	1278
882.210	916
882.277	1210
882.291	1328
882.372	1373
882.383	1392
882.454	1517
882.489	1672
882.535	1757
882.596	1439
882.616	1245
882.697	625
882.702	605
882.778	997
882.808	1097
882.859	1079
882.914	970
882.940	896
883.020	829
883.021	833
883.102	1192
883.127	1350
883.183	1631
883.233	1517
883.264	1334
883.339	1234
883.345	1206
883.426	699
883.445	741
883.507	1370
883.551	1444
883.587	1550
883.657	1867
883.668	1902
883.749	2023
883.763	1985
883.830	1074
883.869	913
883.910	1090
883.975	832
883.991	827
884.072	1279
884.081	1325
884.152	1647
884.187	1639
884.233	1832
884.292	2067
884.314	1833
884.394	974
884.398	924
884.475	512
884.504	556
884.555	937
884.610	1103
884.636	1068
884.716	878
884.716	882
884.797	1479
884.821	1544
884.877	1583
884.927	1533
884.958	1246
885.033	589
885.038	612
885.118	1246
885.139	1354
885.199	838
885.244	590
885.279	933
885.350	1384
885.359	1402
885.439	1888
885.456	1788
885.520	1151
885.561	1248
885.600	1342
885.667	1248
885.680	1266
885.760	1581
885.773	1585
885.840	1252
885.878	1021
885.920	1211
885.984	1549
886.000	1529
886.080	1506
886.089	1536
886.160	2063
886.195	2067
886.240	1785
886.300	1507
886.320	1562
886.400	1865
886.406	1880
886.480	662
886.511	199
886.560	786
886.616	1214
886.640	1270
886.720	1791
886.722	1796
886.800	1243
886.827	1076
886.879	1533
886.932	2000
886.959	1855
887.038	1323
887.039	1325
887.119	1385
887.143	1464
887.198	1490
887.248	1531
887.278	1490
887.354	1244
887.358	1249
887.437	1332
887.459	1368
887.517	1804
887.564	2209
887.596	2087
887.669	1632
887.676	1571
887.755	939
887.774	763
887.835	1153
887.880	1499
887.914	1344
887.985	966
887.994	1001
888.073	1253
888.090	1325
888.153	1716
888.195	1919
888.232	1764
888.300	1573
888.311	1577
888.391	1564
888.405	1539
888.470	1545
888.510	1602
888.549	1339
888.615	863
888.628	979
888.708	1752
888.720	1858
888.787	1544
888.825	1330
888.866	1322
888.930	1401
888.945	1463
889.024	1718
889.035	1757
889.103	1584
889.140	1468
889.182	1649
889.245	1964
889.261	1971
889.340	1962
889.349	1959
889.419	1426
889.454	1180
889.498	1328
889.559	1518
889.577	1634
889.656	2166
889.664	2218
889.735	2228
889.768	2229
889.814	2267
889.873	2308
889.978	1317
890.083	2049
890.187	1431
890.292	2361
890.397	1943
890.501	2372
890.606	1680
890.710	1423
890.815	1958
890.919	1237
891.024	2491
891.128	1930
891.233	677
891.337	1860
891.442	1851
891.546	1772
891.650	1045
891.755	1126
891.859	2594
891.963	1516
892.068	1339
892.172	1561
892.276	1199
892.380	1216
892.484	2740
892.589	1561
892.693	1605
892.797	604
892.901	1124
893.005	933
893.109	2117
893.213	2428
893.317	1203
893.421	1091
893.525	1467
893.629	510
893.733	1910
893.837	1052
893.941	1160
894.045	1642
894.148	1259
894.252	2516
894.356	3246
894.460	1664
894.564	1434
894.667	1212
894.771	1032
894.875	861
894.978	1146
895.082	1053
895.186	1492
895.289	939
895.393	1190
895.496	1311
895.600	1343
895.703	1061
895.807	622
895.910	1352
896.014	1466
896.117	172
896.221	1249
896.324	813
896.427	686
896.531	1357
896.634	1295
896.737	798
896.840	1687
896.944	1601
897.047	1685
897.150	1252
897.253	1193
897.356	326
897.460	876
897.563	900
897.666	1410
897.769	1252
897.872	2115
897.975	262
898.078	810
898.181	1226
898.284	566
898.387	1077
898.490	1898
898.593	1196
898.695	211
898.798	601
898.901	1139
899.004	981
899.107	1505
899.209	1011
899.312	2172
899.415	1002
899.518	579
899.620	-592
899.723	803
899.826	1114
899.928	1091
900.031	309
900.133	1468
900.236	163
900.338	151
900.441	964
900.543	715
900.646	592
900.748	947
900.851	831
900.953	809
901.055	74
901.158	946
901.260	1535
901.362	939
901.465	585
901.567	1758
901.669	2250
901.771	1521
901.873	1027
901.976	1154
902.078	896
902.180	432
902.282	1163
902.384	311
902.486	1669
902.588	1223
902.690	1525
902.792	771
902.894	1310
902.996	966
903.098	649
903.200	656
903.302	248
903.404	-116
903.505	493
903.607	1238
903.709	1454
903.811	1054
903.913	592
904.014	-1
904.116	-108
904.218	1423
904.319	808
904.421	1634
904.523	1186
904.624	274
904.726	172
904.827	457
904.929	883
905.030	495
905.132	1302
905.233	1416
905.335	209
905.436	1119
905.537	899
905.639	1292
905.740	-270
905.841	571
905.943	577
906.044	1160
906.145	135
906.247	900
906.348	1097
906.449	990
906.550	946
906.651	885
906.752	696
906.854	911
906.955	1173
907.056	1096
907.157	1286
907.258	1758
907.359	780
907.460	1146
907.561	833
907.662	1350
907.762	700
907.863	-2
907.964	1044
908.065	727
908.166	612
908.267	873
908.367	953
908.468	420
908.569	664
908.670	988
908.770	565
908.871	1057
908.971	69
909.072	386
909.173	67
909.273	1129
909.374	652
909.474	1042
909.575	539
909.675	555
909.776	1532
909.876	1193
909.977	789
910.077	586
910.177	1537
910.278	710
910.378	299
910.478	792
910.579	1039
910.679	779
910.779	1090
910.879	1254
910.980	1140
911.080	330
911.180	28
911.280	502
911.380	-403
911.480	-385
911.580	1053
911.680	546
911.780	1593
911.880	390
911.980	639
912.080	887
912.180	439
912.280	1357
912.380	969
912.480	480
912.580	996
912.679	152
912.779	784
912.879	657
912.979	1295
913.078	834
913.178	476
913.278	29
913.377	537
913.477	1345
913.577	206
913.676	1344
913.776	764
913.875	740
913.975	563
914.074	424
914.174	1052
914.273	-535
914.373	1704
914.472	483
914.572	405
914.671	1370
914.770	1018
914.870	502
914.969	261
915.068	1212
915.167	964
915.267	111
915.366	470
915.465	745
915.564	680
915.663	1218
915.763	986
915.862	1858
915.961	824
916.060	521
916.159	-160
916.258	331
916.357	479
916.456	133
916.555	1423
916.654	1192
916.752	781
916.851	1085
916.950	784
917.049	672
917.148	-8
917.247	829
917.345	681
917.444	409
917.543	1095
917.642	1052
917.740	858
917.839	1085
917.937	946
918.036	845
918.135	1227
918.233	338
918.332	21
918.430	-308
918.529	945
918.627	-152
918.726	1245
918.824	1180
918.923	1027
919.021	1273
919.119	649
919.218	492
919.316	-490
919.414	744
919.512	1034
919.611	-298
919.709	1113
919.807	1054
919.905	1628
920.003	827
920.102	741
920.200	446
920.298	643
920.396	1017
920.494	1353
920.592	594
920.690	1312
920.788	544
920.886	1294
920.984	1122
921.082	1092
921.180	1787
921.277	1628
921.375	1652
921.473	1680
921.571	1102
921.669	1495
921.766	2357
921.864	2602
921.962	2353
922.060	1961
922.157	1693
922.255	2890
922.352	1571
922.450	2017
922.548	2137
922.645	2214
922.743	2428
922.840	4976
922.938	5632
923.035	4671
923.133	4475
923.230	5069
923.327	6908
923.425	6135
923.522	6625
923.619	5706
923.717	5005
923.814	5242
923.911	4946
924.008	6191
924.106	4227
924.203	4697
924.300	4948
924.397	4960
924.494	4457
924.591	4977
924.688	4294
924.786	5228
924.883	4610
924.979	4928
925.077	5223
925.173	4972
925.270	4460
925.367	4252
925.464	4932
925.561	4961
925.658	5067
925.755	4597
925.852	5609
925.948	4246
926.045	5165
926.142	4179
926.239	4924
926.335	3924
926.432	4490
926.529	4604
926.625	4811
926.722	4304
926.818	4661
926.915	4812
927.011	5038
927.108	4469
927.204	4870
927.301	3933
927.397	3777
927.494	5338
927.590	3965
927.687	4382
927.783	5880
927.879	4554
927.976	4593
928.072	3768
928.168	3549
928.264	4433
928.361	3941
928.457	4446
928.553	4764
928.649	3457
928.745	4412
928.841	2953
928.937	4360
929.033	4222
929.129	3435
929.225	4141
929.321	4741
929.417	3904
929.513	3523
929.609	4023
929.705	2811
929.801	3690
929.897	2933
929.993	3880
930.089	3520
930.184	3313
930.280	3058
930.376	4811
930.471	3328
930.567	3770
930.663	3378
930.758	3469
930.854	4377
930.950	3572
931.045	2510
931.141	3235
931.236	4375
931.332	3548
931.427	2806
931.523	2994
931.618	4359
931.714	1939
931.809	3294
931.905	3446
932.000	2257
932.095	1702
932.191	3889
932.286	4251
932.381	3351
932.476	1766
932.572	3774
932.667	2025
932.762	1830
932.857	3376
932.952	4266
933.047	3351
933.142	2062
933.237	3409
933.332	2664
933.427	4199
933.522	3284
933.617	2562
933.712	3168
933.807	3698
933.902	4253
933.997	3606
934.092	2779
934.187	3037
934.282	3408
934.376	2593
934.471	3758
934.566	2732
934.661	2788
934.755	3477
934.850	3579
934.945	3829
935.039	2606
935.134	2434
935.228	3253
935.323	4524
935.417	3056
935.512	2472
935.606	2038
935.701	3467
935.795	3420
935.890	3071
935.984	2322
936.079	1553
936.173	2266
936.267	2481
936.362	1511
936.456	1859
936.550	3512
936.644	3287
936.738	3034
936.833	2226
936.927	1482
937.021	2090
937.115	2876
937.209	2300
937.303	3037
937.397	1703
937.491	2627
937.585	3442
937.679	2741
937.773	1414
937.867	2083
937.961	1560
938.055	3742
938.149	4052
938.243	2054
938.337	1820
938.430	2425
938.524	3082
938.618	2764
938.712	1361
938.805	2268
938.899	2777
938.993	3692
939.086	2957
939.180	1675
939.274	1463
939.367	3286
939.461	2438
939.554	1244
939.648	2206
939.741	1681
939.835	1914
939.928	3814
940.022	2156
940.115	2159
940.208	2756
940.302	2459
940.395	3163
940.488	1626
940.582	2681
940.675	1787
940.768	1913
940.861	3187
940.954	3120
941.048	1458
941.141	2024
941.234	1723
941.327	1532
941.420	2656
941.513	2574
941.606	1476
941.699	1991
941.792	2838
941.885	2113
941.978	1915
942.071	1564
942.164	1380
942.257	1165
942.349	1742
942.442	2167
942.535	1885
942.628	1629
942.721	1849
942.813	1630
942.906	2551
942.999	1676
943.091	1392
943.184	1034
943.277	1948
943.369	1937
943.462	1465
943.554	1394
943.647	1359
943.739	1606
943.832	1915
943.924	908
944.017	1621
944.109	763
944.201	1766
944.294	1501
944.386	1379
944.478	1292
944.571	1351
944.663	2828
944.755	2549
944.847	2282
944.940	1255
945.032	-432
945.124	1145
945.216	2936
945.308	2599
945.400	2014
945.492	1544
945.584	1635
945.676	1581
945.768	2114
945.860	2594
945.952	2162
946.044	2266
946.136	1687
946.228	1625
946.320	2015
946.412	2483
946.503	1805
946.595	2941
946.687	1330
946.779	650
946.870	1004
946.962	1710
947.054	1832
947.145	2252
947.237	1328
947.329	1590
947.420	976
947.512	1641
947.603	573
947.695	966
947.786	855
947.878	978
947.969	1600
948.061	1741
948.152	1558
948.243	622
948.335	1738
948.426	1293
948.517	701
948.609	1987
948.700	806
948.791	1570
948.882	1598
948.973	1639
949.065	1275
949.156	1635
949.247	93
949.338	1557
949.429	793
949.520	1390
949.611	322
949.702	2139
949.793	431
949.884	1164
949.975	1505
950.066	923
950.157	485
950.247	1363
950.338	1396
950.429	1496
950.520	1078
950.611	1420
950.701	522
950.792	2450
950.883	1834
950.973	1436
951.064	1422
951.155	1734
951.245	2495
951.336	2099
951.427	589
951.517	2944
951.608	1834
951.698	1071
951.788	912
951.879	687
951.969	365
952.060	1149
952.150	952
952.240	1305
952.331	-330
952.421	2790
952.511	560
952.602	1147
952.692	1153
952.782	527
952.872	891
952.962	1461
953.052	1467
953.143	721
953.233	642
953.323	1028
953.413	746
953.503	1830
953.593	622
953.683	1151
953.773	1157
953.863	1154
953.953	605
954.042	1258
954.132	810
954.222	2269
954.312	1102
954.402	1193
954.492	848
954.581	942
954.671	448
954.761	1352
954.850	2425
954.940	987
955.030	501
955.119	99
955.209	1012
955.298	2046
955.388	1446
955.477	1879
955.567	381
955.656	1106
955.746	2054
955.835	429
955.925	119
956.014	1052
956.103	1411
956.193	2013
956.282	1155
956.371	1450
956.461	896
956.550	1349
956.639	1028
956.728	955
956.817	824
956.906	1104
956.995	1260
957.085	1057
957.174	1994
957.263	1264
957.352	1370
957.441	348
957.530	1590
957.619	1259
957.708	1488
957.796	777
957.885	1070
957.974	1351
958.063	1553
958.152	815
958.241	1270
958.329	1240
958.418	998
958.507	1073
958.596	3229
958.684	940
958.773	2138
958.861	1755
958.950	1832
959.039	1786
959.127	2271
959.216	2727
959.304	1838
959.393	1805
959.481	2835
959.570	1826
959.658	1581
959.746	1954
959.835	1966
959.923	1890
960.011	1607
960.100	1620
960.188	1474
960.276	1940
960.365	1836
960.453	828
960.541	546
960.629	1173
960.717	1368
960.805	627
960.893	831
960.981	1267
961.069	1769
961.158	1416
961.245	2943
961.333	1937
961.421	1407
961.509	1249
961.597	885
961.685	836
961.773	851
961.861	562
961.949	2186
962.036	-201
962.124	963
962.212	518
962.299	-25
962.387	199
962.475	1563
962.562	896
962.650	697
962.738	1178
962.825	759
962.913	1186
963.000	823
963.088	-290
963.175	855
963.263	573
963.350	612
963.438	321
963.525	591
963.612	1164
963.700	1489
963.787	4832
963.874	1667
963.962	815
964.049	656
964.136	557
964.223	-53
964.310	337
964.398	418
964.485	204
964.572	1577
964.659	814
964.746	934
964.833	276
964.920	-132
965.007	632
965.094	316
965.181	577
965.268	817
965.355	1295
965.441	-27
965.528	33
965.615	1131
965.702	926
965.789	-206
965.875	517
965.962	625
966.049	-277
966.136	365
966.222	554
966.309	444
966.395	744
966.482	1451
966.569	279
966.655	387
966.742	392
966.828	271
966.915	-355
967.001	963
967.087	-772
967.174	48
967.260	886
967.347	1241
967.433	809
967.519	2637
967.605	912
967.692	-48
967.778	185
967.864	1590
967.950	316
968.036	167
968.123	170
968.209	-82
968.295	-110
968.381	1084
968.467	776
968.553	-654
968.639	1496
968.725	-231
968.811	1835
968.897	688
968.983	-264
969.069	-416
969.154	730
969.240	32
969.326	134
969.412	-186
969.497	364
969.583	-216
969.669	1171
969.755	601
969.840	-31
969.926	1143
970.012	1303
970.097	2075
970.183	1734
970.268	1341
970.354	1027
970.439	173
970.525	1917
970.610	-18
970.696	1446
970.781	387
970.866	-130
970.952	756
971.037	375
971.122	-247
971.208	477
971.293	-241
971.378	-825
971.463	-45
971.549	908
971.634	-312
971.719	232
971.804	-49
971.889	499
971.974	-157
972.059	-346
972.144	985
972.229	241
972.314	-8
972.399	499
972.484	-128
972.569	212
972.654	-483
972.739	927
972.824	639
972.908	-291
972.993	254
973.078	258
973.163	535
973.247	699
973.332	-1111
973.417	1190
973.501	-516
973.586	-654
973.671	1018
973.755	48
973.840	1296
973.924	1104
974.009	1007
974.093	1051
974.178	1149
974.262	1049
974.346	328
974.431	419
974.515	-301
974.600	-144
974.684	-144
974.768	-1
974.852	796
974.937	-72
975.021	673
975.105	254
975.189	130
975.273	970
975.358	-730
975.442	-624
975.526	883
975.610	-443
975.694	-521
975.778	1223
975.862	-206
975.946	-1826
976.030	574
976.114	-337
976.198	858
976.281	665
976.365	281
976.449	-321
976.533	540
976.617	141
976.700	273
976.784	295
976.868	169
976.951	197
977.035	49
977.119	384
977.202	-355
977.286	657
977.369	208
977.453	1342
977.536	808
977.620	-189
977.703	502
977.787	-52
977.870	1294
977.953	1218
978.037	-385
978.120	1278
978.203	495
978.287	1052
978.370	790
978.453	173
978.536	41
978.620	860
978.703	999
978.786	-523
978.869	-1149
978.952	-592
979.035	625
979.118	793
979.201	-203
979.284	370
979.367	16
979.450	1252
979.533	-349
979.616	-227
979.699	-520
979.782	683
979.865	518
979.948	707
980.030	-186
980.113	944
980.196	-77
980.279	-311
980.361	-314
980.444	-459
980.526	771
980.609	849
980.692	1340
980.774	424
980.857	207
980.939	1943
981.022	342
981.104	-252
981.187	-364
981.269	78
981.352	400
981.434	-532
981.516	-115
981.599	993
981.681	624
981.763	150
981.846	126
981.928	43
982.010	543
982.092	-760
982.174	535
982.256	-377
982.339	-37
982.421	-374
982.503	286
982.585	-654
982.667	379
982.749	-140
982.831	321
982.913	-540
982.995	1098
983.077	43
983.158	1009
983.240	-917
983.322	654
983.404	1636
983.486	699
983.568	1172
983.649	852
983.731	1486
983.813	480
983.894	387
983.976	-315
984.058	309
984.139	1344
984.221	-306
984.302	1406
984.384	316
984.465	154
984.547	549
984.628	-582
984.710	986
984.791	-103
984.872	337
984.954	88
985.035	638
985.116	56
985.198	-504
985.279	801
985.360	369
985.441	213
985.522	1190
985.604	379
985.685	-1578
985.766	1134
985.847	1222
985.928	-572
986.009	198
986.090	432
986.171	1859
986.252	241
986.333	688
986.414	275
986.495	845
986.576	59
986.656	986
986.737	1581
986.818	292
986.899	178
986.980	487
987.060	1390
987.141	-94
987.222	1104
987.302	704
987.383	1685
987.464	1654
987.544	1219
987.625	294
987.705	1281
987.786	1449
987.866	1073
987.947	1384
988.027	866
988.108	561
988.188	1363
988.268	125
988.349	1464
988.429	1516
988.509	933
988.589	380
988.670	-419
988.750	1473
988.830	-115
988.910	249
988.990	934
989.070	795
989.151	316
989.231	121
989.311	592
989.391	194
989.471	600
989.551	49
989.631	-42
989.711	522
989.791	60
989.870	505
989.950	992
990.030	476
990.110	-4
990.190	262
990.269	-329
990.349	-651
990.429	858
990.509	1385
990.588	-324
990.668	465
990.747	842
990.827	197
990.907	734
990.986	-134
991.066	1200
991.145	309
991.225	524
991.304	166
991.383	935
991.463	403
991.542	1318
991.622	300
991.701	-261
991.780	979
991.859	660
991.939	-375
992.018	442
992.097	100
992.176	325
992.256	-67
992.335	-28
992.414	794
992.493	-406
992.572	66
992.651	1562
992.730	-237
992.809	-104
992.888	74
992.967	-337
993.046	941
993.125	-569
993.203	-174
993.282	545
993.361	238
993.440	-449
993.519	340
993.597	123
993.676	25
993.755	988
993.834	-63
993.912	-851
993.991	1300
994.069	-233
994.148	452
994.226	54
994.305	-111
994.384	-479
994.462	1340
994.540	-665
994.619	-1133
994.697	281
994.776	142
994.854	794
994.932	-1224
995.011	15
995.089	-282
995.167	-300
995.245	106
995.324	-1308
995.402	395
995.480	-491
995.558	-29
995.636	-597
995.714	-511
995.792	399
995.870	-468
995.948	-27
996.026	-181
996.104	-1252
996.182	101
996.260	-259
996.338	-131
996.416	-1064
996.494	-630
996.572	340
996.649	-368
996.727	-562
996.805	349
996.883	-537
996.960	-1372
997.038	149
997.116	380
997.193	-1244
997.271	260
997.348	-1003
997.426	-357
997.504	-583
997.581	-592
997.658	91
997.736	-1549
997.813	-889
997.891	103
997.968	-707
998.046	-656
998.123	-392
998.200	-886
998.277	-918
998.355	-255
998.432	-1595
998.509	-916
998.586	-136
998.663	309
998.741	-579
998.818	-246
998.895	-469
998.972	508
999.049	-120
999.126	-1096
999.203	-158
999.280	-588
999.357	-669
999.434	101
999.511	-738
999.587	-839
999.664	-785
999.741	-472
999.818	-818
999.895	-850
999.971	-1195
1000.048	-944
1000.125	-122
1000.202	-643
1000.278	-1264
1000.355	-303
1000.431	-238
1000.508	-501
1000.584	-955
1000.661	-306
1000.738	-1499
1000.814	-400
1000.890	15
1000.967	-601
1001.043	72
1001.120	-2268
1001.196	-165
1001.272	-2161
1001.349	-1019
1001.425	-447
1001.501	-384
1001.577	-568
1001.654	-204
1001.730	-1015
1001.806	-469
1001.882	-769
1001.958	-447
1002.034	-46
1002.110	-838
1002.186	-1142
1002.262	-1305
1002.338	-1717
1002.414	-417
1002.490	-194
1002.566	-1936
1002.642	-1027
1002.718	-379
1002.794	-1318
1002.870	-163
1002.945	-336
1003.021	-1448
1003.097	-591
1003.173	-306
1003.248	-1812
1003.324	-88
1003.400	-874
1003.475	-1424
1003.551	-826
1003.626	-563
1003.702	-828
1003.777	-1022
1003.853	-392
1003.928	-1074
1004.004	-542
1004.079	-248
1004.155	-898
1004.230	-1550
1004.305	-409
1004.381	-92
1004.456	-1549
1004.531	-1431
1004.607	-704
1004.682	-811
1004.757	-477
1004.832	-1087
1004.907	-1029
1004.982	-890
1005.057	-1347
1005.133	-857
1005.208	-1063
1005.283	-752
1005.358	-779
1005.433	-1467
1005.508	-748
1005.583	-1277
1005.657	-1281
1005.732	-277
1005.807	-1039
1005.882	-903
1005.957	-362
1006.032	105
1006.106	-1044
1006.181	-337
1006.256	-1053
1006.331	-1583
1006.405	-1697
1006.480	-1226
1006.554	-381
1006.629	-780
1006.704	-1329
1006.778	-93
1006.853	-710
1006.927	-1006
1007.002	-1143
1007.076	-295
1007.150	-759
1007.225	-597
1007.299	-189
1007.373	-1668
1007.448	-835
1007.522	-1105
1007.596	-1090
1007.671	-1071
1007.745	-566
1007.819	-574
1007.893	-913
1007.967	-480
1008.041	-1503
1008.115	-20
1008.190	-1677
1008.264	-486
1008.338	-1934
1008.412	-1517
1008.486	-369
1008.560	-1150
1008.633	-1107
1008.707	-1512
1008.781	-448
1008.855	-1049
1008.929	-601
1009.003	-1424
1009.076	-1159
1009.150	-995
1009.224	-1359
1009.298	-719
1009.371	-1202
1009.445	-85
1009.519	-707
1009.592	-1585
1009.666	-980
1009.739	-704
1009.813	-1468
1009.886	-300
1009.960	-1929
1010.033	-575
1010.107	-658
1010.180	-1915
1010.253	-899
1010.327	-1588
1010.400	-1245
1010.473	-1069
1010.547	286
1010.620	-735
1010.693	-759
1010.766	-1313
1010.840	-694
1010.913	-675
1010.986	-1642
1011.059	-901
1011.132	-951
1011.205	-504
1011.278	-908
1011.351	-1046
1011.424	-1070
1011.497	-1815
1011.570	-446
1011.643	-1610
1011.716	-613
1011.789	-991
1011.862	-901
1011.934	-1533
1012.007	-1297
1012.080	-1435
1012.153	-1409
1012.225	91
1012.298	-1123
1012.371	-2286
1012.443	-308
1012.516	-1135
1012.588	-506
1012.661	-1436
1012.733	-1971
1012.806	-1015
1012.879	-1528
1012.951	-1596
1013.023	-1451
1013.096	-1186
1013.168	-721
1013.241	-745
1013.313	-469
1013.385	-1048
1013.458	-802
1013.530	-433
1013.602	-1557
1013.674	-309
1013.746	-2247
1013.819	-1927
1013.891	-1115
1013.963	-1290
1014.035	-762
1014.107	-689
1014.179	-405
1014.251	-1791
1014.323	-1061
1014.395	-1354
1014.467	-1103
1014.539	-1004
1014.611	-1729
1014.683	-953
1014.754	-1764
1014.826	-1649
1014.898	-1366
1014.970	-1526
1015.042	-152
1015.113	-725
1015.185	-1568
1015.257	-1282
1015.328	-597
1015.400	-697
1015.471	-1049
1015.543	-1694
1015.615	-1042
1015.686	-1721
1015.757	-1548
1015.829	-352
1015.901	-1665
1015.972	-1388
1016.043	-863
1016.115	-1268
1016.186	-1182
1016.257	-1185
1016.328	-981
1016.400	-1151
1016.471	-2120
1016.542	-1407
1016.613	-1236
1016.685	-736
1016.756	-857
1016.827	-1031
1016.898	-1629
1016.969	-412
1017.040	-1922
1017.111	-1420
1017.182	-1608
1017.253	-851
1017.324	-1431
1017.395	-2037
1017.466	-847
1017.537	-749
1017.608	-1362
1017.678	-1176
1017.749	-1537
1017.820	-1381
1017.891	-1456
1017.961	-1552
1018.032	-1028
1018.103	-755
1018.173	-1498
1018.244	-1691
1018.315	-1057
1018.385	-196
1018.456	-628
1018.526	-1654
1018.597	-1258
1018.667	-1176
1018.738	-2193
1018.808	-1012
1018.878	-2192
1018.949	-1202
1019.019	-1803
1019.089	-755
1019.160	-1452
1019.230	-1958
1019.300	-851
1019.371	-2154
1019.441	-659
1019.511	-880
1019.581	-240
1019.651	-1616
1019.721	-1951
1019.791	-818
1019.861	-1639
1019.931	-1999
1020.001	-1090
1020.071	-1404
1020.141	-1619
1020.211	-703
1020.281	-1806
1020.351	-1801
1020.421	-229
1020.491	-1180
1020.560	-1708
1020.630	-1208
1020.700	-657
1020.770	-1372
1020.839	-2453
1020.909	-1287
1020.979	-1336
1021.048	-1108
1021.118	-871
1021.187	-1254
1021.257	-1604
1021.326	-795
1021.396	-688
1021.465	-229
1021.535	-1151
1021.604	-1852
1021.674	-1477
1021.743	-1434
1021.812	-1263
1021.882	-2601
1021.951	-1171
1022.020	-1461
1022.089	-898
1022.159	-1860
1022.228	-1718
1022.297	-1951
1022.366	-1674
1022.435	-1337
1022.504	-727
1022.573	-1898
1022.642	-1755
1022.711	-1895
1022.781	-1119
1022.849	-971
1022.918	-2015
1022.987	-954
1023.056	-1337
1023.125	-1449
1023.194	-1297
1023.263	-956
1023.331	-1016
1023.400	-2135
1023.469	-1572
1023.538	-1439
1023.606	-1904
1023.675	-1724
1023.744	-1342
1023.812	-1488
1023.881	-963
1023.949	-1150
1024.018	-1801
1024.086	-971
1024.155	-1141
1024.223	-1891
1024.292	-1362
1024.360	-1681
1024.429	-1203
1024.497	-1124
1024.565	-797
1024.634	-1049
1024.702	-1840
1024.770	-1700
1024.838	-1968
1024.907	-1947
1024.975	-1793
1025.043	-910
1025.111	-2222
1025.179	-1591
1025.247	-1848
1025.315	-1875
1025.383	-1614
1025.451	-1531
1025.519	-1510
1025.587	-1729
1025.655	-1174
1025.723	-2163
1025.791	-590
1025.859	-755
1025.927	-703
1025.995	-1323
1026.062	-1513
1026.130	-1655
1026.198	-1901
1026.266	-2034
1026.333	-878
1026.401	-1160
1026.469	-1020
1026.536	-1481
1026.604	-1732
1026.671	-1805
1026.739	-1417
1026.806	-1556
1026.874	-1224
1026.941	-1094
1027.009	-1156
1027.076	-1216
1027.144	-878
1027.211	-1882
1027.278	-1712
1027.345	-1432
1027.413	-1367
1027.480	-1926
1027.547	-1037
1027.614	-2171
1027.682	-2173
1027.749	-1748
1027.816	-1578
1027.883	-1552
1027.950	-1339
1028.017	-2046
1028.084	-611
1028.151	-2228
1028.218	-1767
1028.285	-1865
1028.352	-1550
1028.419	-1708
1028.486	-1841
1028.553	-1627
1028.619	-2251
1028.686	-1719
1028.753	-2333
1028.820	-2085
1028.886	-1860
1028.953	-799
1029.020	-2736
1029.086	-1803
1029.153	-2768
1029.220	-1338
1029.286	-1346
1029.353	-2014
1029.419	-2298
1029.486	-1813
1029.552	-1606
1029.619	-2042
1029.685	-1338
1029.751	-1621
1029.818	-705
1029.884	-1478
1029.951	-1521
1030.017	-2648
1030.083	-1648
1030.149	-1351
1030.216	-2025
1030.282	-1301
1030.348	-1736
1030.414	-2183
1030.480	-1984
1030.546	-1798
1030.612	-1334
1030.678	-1587
1030.744	-1546
1030.810	-2017
1030.876	-1697
1030.942	-2192
1031.008	-1535
1031.074	-2561
1031.140	-1910
1031.206	-1134
1031.272	-1678
1031.337	-1811
1031.403	-1373
1031.469	-2100
1031.534	-1903
1031.600	-1677
1031.666	-1912
1031.731	-2252
1031.797	-1864
1031.863	-1687
1031.928	-1202
1031.994	-1629
1032.059	-1702
1032.125	-1954
1032.190	-1619
1032.256	-1918
1032.321	-2577
1032.386	-2023
1032.452	-1373
1032.517	-2143
1032.582	-1497
1032.647	-1058
1032.713	-1772
1032.778	-784
1032.843	-2278
1032.908	-1765
1032.974	-1813
1033.039	-2381
1033.104	-1831
1033.169	-2514
1033.234	-1680
1033.299	-1588
1033.364	-2093
1033.429	-1184
1033.494	-1864
1033.559	-2519
1033.624	-1723
1033.688	-1027
1033.753	-2192
1033.818	-2327
1033.883	-2804
1033.948	-1631
1034.013	-1713
1034.077	-808
1034.142	-310
1034.207	-1618
1034.271	337
1034.336	590
1034.400	-192
1034.465	-222
1034.530	-1061
1034.594	-1246
1034.658	-1776
1034.723	-2384
1034.787	-1236
1034.852	-1403
1034.916	-1913
1034.981	-1675
1035.045	-1666
1035.109	-2172
1035.173	-1614
1035.238	-1807
1035.302	-986
1035.366	-1824
1035.430	-1297
1035.495	-1783
1035.559	-1028
1035.623	-2280
1035.687	-2188
1035.751	-2171
1035.815	-1777
1035.879	-2300
1035.943	-1652
1036.007	-2463
1036.071	-1701
1036.135	-2080
1036.198	-1599
1036.262	-1420
1036.326	-2124
1036.390	-1762
1036.454	-2650
1036.517	-1528
1036.581	-1928
1036.645	-1652
1036.709	-1303
1036.772	-2429
1036.836	-2063
1036.900	-1892
1036.963	-2047
1037.026	-1924
1037.090	-2076
1037.154	-1954
1037.217	-1632
1037.280	-1317
1037.344	-1736
1037.407	-1627
1037.471	-1636
1037.534	-2117
1037.597	-1301
1037.661	-2274
1037.724	-2081
1037.787	-2076
1037.850	-1745
1037.913	-1821
1037.977	-1033
1038.040	-1749
1038.103	-1462
1038.166	-2650
1038.229	-730
1038.292	-1492
1038.355	-2349
1038.418	-1586
1038.481	-1039
1038.544	-2090
1038.607	-1825
1038.670	-2358
1038.732	-2275
1038.795	-1966
1038.858	-2064
1038.921	-1290
1038.984	-1803
1039.046	-881
1039.109	-1943
1039.172	-2248
1039.234	-2198
1039.297	-1741
1039.360	-2302
1039.422	-2121
1039.485	-1376
1039.547	-1894
1039.610	-1640
1039.672	-2413
1039.734	-1542
1039.797	-1637
1039.859	-1952
1039.922	-2178
1039.984	-1652
1040.046	-1884
1040.109	-1974
1040.171	-2708
1040.233	-1879
1040.295	-1656
1040.358	-2048
1040.420	-2104
1040.482	-2702
1040.544	-1950
1040.606	-1466
1040.668	-1665
1040.730	-1699
1040.792	-1146
1040.854	-2256
1040.916	-2427
1040.978	-1812
1041.040	-2308
1041.102	-1513
1041.164	-1180
1041.225	-2102
1041.287	-2095
1041.349	-1830
1041.411	-1421
1041.472	-2181
1041.534	-1545
1041.596	-2186
1041.657	-1681
1041.719	-2089
1041.781	-2204
1041.842	-1965
1041.904	-2407
1041.965	-1529
1042.027	-2394
1042.088	-1402
1042.150	-2279
1042.211	-2198
1042.272	-2079
1042.334	-1697
1042.395	-1847
1042.456	-1415
1042.518	-1791
1042.579	-1937
1042.640	-1197
1042.701	-2109
1042.763	-1960
1042.824	-2009
1042.885	-2124
1042.946	-2188
1043.007	-1241
1043.068	-1681
1043.129	-2271
1043.190	-1755
1043.251	-1243
1043.312	-2778
1043.373	-1600
1043.434	-980
1043.495	-2029
1043.556	-799
1043.616	-1666
1043.677	-1117
1043.738	-836
1043.799	-1709
1043.859	-1073
1043.920	-1181
1043.981	-1671
1044.041	-2231
1044.102	-2488
1044.162	-1175
1044.223	-2442
1044.284	-1493
1044.344	-1739
1044.405	-1864
1044.465	-986
1044.525	-993
1044.586	-1265
1044.646	-2376
1044.707	-1258
1044.767	-1324
1044.827	-1188
1044.887	-860
1044.948	-1889
1045.008	-691
1045.068	-1798
1045.128	-874
1045.188	-2493
1045.249	-1374
1045.309	-1091
1045.369	-1789
1045.429	-2008
1045.489	-925
1045.549	-2574
1045.609	-2218
1045.669	-1653
1045.729	-1695
1045.789	-1350
1045.848	-1471
1045.908	-1346
1045.968	-1935
1046.028	-156
1046.088	-1070
1046.147	-983
1046.207	-1927
1046.267	-1212
1046.326	-1706
1046.386	-603
1046.446	-1362
1046.505	-555
1046.565	-553
1046.624	-156
1046.684	-311
1046.743	-819
1046.803	-505
1046.862	-2
1046.922	0
