'Start Wavelength	183.907
'End Wavelength	1046.922
'Gate Delay	5.000
'Gate Width (ms)	1.050
'Laser Output Level	0.000
'X Position	0.000
'Y Position	0.000
'Z Position	0.000
'Grid Point Number	1.000
'Shot Number	100.000
183.907	364.000
183.977	-91.000
184.047	-574
184.116	703
184.186	-43
184.256	-187
184.325	-661
184.395	-535
184.465	241
184.534	548
184.604	-252
184.674	-397
184.743	-615
184.813	806
184.883	-165
184.952	-131
185.022	-189
185.092	348
185.161	-598
185.231	-391
185.301	-255
185.370	634
185.440	-49
185.509	-137
185.579	370
185.649	658
185.718	-778
185.788	-26
185.857	-692
185.927	-575
185.996	432
186.066	-346
186.136	81
186.205	-743
186.275	329
186.344	603
186.414	34
186.483	-581
186.553	1355
186.622	326
186.692	143
186.761	-445
186.831	-119
186.900	-251
186.970	-570
187.039	93
187.109	762
187.178	-110
187.248	-241
187.317	169
187.387	-790
187.456	-30
187.526	-312
187.595	105
187.664	-26
187.734	-58
187.803	355
187.873	-135
187.942	455
188.012	229
188.081	60
188.150	359
188.220	110
188.289	-355
188.358	405
188.428	185
188.497	-359
188.567	603
188.636	-101
188.705	-157
188.775	286
188.844	-40
188.913	374
188.983	-268
189.052	297
189.121	-468
189.191	92
189.260	253
189.329	144
189.399	-56
189.468	35
189.537	5
189.606	347
189.676	143
189.745	599
189.814	486
189.883	214
189.953	-92
190.022	286
190.091	29
190.161	270
190.230	533
190.299	-491
190.368	-102
190.437	-287
190.507	221
190.576	-315
190.645	-785
190.714	-334
190.783	-477
190.853	370
190.922	-175
190.991	348
191.060	-236
191.129	-409
191.198	-121
191.268	296
191.337	610
191.406	1053
191.475	302
191.544	74
191.613	-426
191.682	-82
191.752	586
191.821	-622
191.890	-243
191.959	60
192.028	-235
192.097	805
192.166	-305
192.235	-141
192.304	581
192.373	-541
192.442	-486
192.511	-663
192.580	253
192.650	-638
192.719	40
192.788	-10
192.857	618
192.926	384
192.995	441
193.064	-232
193.133	-396
193.202	-334
193.271	327
193.340	72
193.409	450
193.478	618
193.547	162
193.615	550
193.684	716
193.753	166
193.822	729
193.891	-58
193.960	600
194.029	564
194.098	-91
194.167	-250
194.236	206
194.305	39
194.374	-369
194.443	232
194.512	-44
194.580	110
194.649	-379
194.718	677
194.787	46
194.856	-364
194.925	581
194.994	373
195.062	181
195.131	358
195.200	-149
195.269	504
195.338	-244
195.407	-132
195.475	-69
195.544	519
195.613	-342
195.682	658
195.751	595
195.819	330
195.888	-542
195.957	736
196.026	-358
196.094	-411
196.163	44
196.232	615
196.301	429
196.369	-53
196.438	593
196.507	671
196.576	54
196.644	103
196.713	-577
196.782	-261
196.850	825
196.919	327
196.988	1216
197.056	453
197.125	-507
197.194	65
197.262	645
197.331	1030
197.400	-107
197.468	423
197.537	233
197.606	121
197.674	873
197.743	913
197.812	103
197.880	-115
197.949	131
198.017	20
198.086	300
198.155	-260
198.223	-229
198.292	157
198.360	-257
198.429	420
198.497	-198
198.566	-296
198.635	1125
198.703	-167
198.772	-151
198.840	419
198.909	201
198.977	-396
199.046	-566
199.114	542
199.183	-35
199.251	138
199.320	-375
199.388	32
199.457	87
199.525	189
199.594	-206
199.662	21
199.731	74
199.799	371
199.867	366
199.936	-637
200.004	516
200.073	339
200.141	44
200.210	179
200.278	116
200.346	1226
200.415	389
200.483	75
200.552	-222
200.620	-223
200.688	-152
200.757	-428
200.825	-296
200.893	41
200.962	276
201.030	240
201.098	-271
201.167	560
201.235	404
201.303	337
201.372	94
201.440	-465
201.508	468
201.577	459
201.645	-104
201.713	-273
201.781	432
201.850	418
201.918	789
201.986	-263
202.055	347
202.123	2
202.191	238
202.259	466
202.327	348
202.396	351
202.464	71
202.532	-432
202.600	1071
202.669	416
202.737	-221
202.805	-80
202.873	697
202.941	89
203.009	758
203.078	279
203.146	-44
203.214	47
203.282	-992
203.350	340
203.418	1077
203.487	-587
203.555	608
203.623	623
203.691	600
203.759	29
203.827	17
203.895	967
203.963	-262
204.031	-46
204.099	543
204.168	165
204.236	984
204.304	119
204.372	-132
204.440	-24
204.508	89
204.576	550
204.644	-774
204.712	-977
204.780	-124
204.848	104
204.916	13
204.984	-245
205.052	441
205.120	-38
205.188	-608
205.256	-153
205.324	1005
205.392	455
205.460	380
205.528	-405
205.596	17
205.664	549
205.732	117
205.799	994
205.867	1396
205.935	-310
206.003	637
206.071	128
206.139	195
206.207	364
206.275	-61
206.343	-120
206.411	663
206.478	-291
206.546	410
206.614	49
206.682	72
206.750	268
206.818	-416
206.885	645
206.953	-136
207.021	1338
207.089	435
207.157	-525
207.225	-121
207.292	-409
207.360	508
207.428	-543
207.496	-370
207.563	-602
207.631	322
207.699	271
207.767	-626
207.834	113
207.902	50
207.970	482
208.038	-57
208.105	-386
208.173	262
208.241	1046
208.309	384
208.376	51
208.444	463
208.512	506
208.579	-537
208.647	35
208.715	1434
208.782	-114
208.850	462
208.918	364
208.985	-208
209.053	386
209.120	746
209.188	-13
209.256	-57
209.323	-91
209.391	484
209.459	952
209.526	799
209.594	-2
209.661	59
209.729	19
209.796	635
209.864	225
209.932	-676
209.999	652
210.067	1149
210.134	316
210.202	-161
210.269	1309
210.337	880
210.404	-246
210.472	-105
210.539	488
210.607	-493
210.674	301
210.742	228
210.809	255
210.877	946
210.944	617
211.012	-253
211.079	1038
211.146	500
211.214	-656
211.281	660
211.349	568
211.416	132
211.484	643
211.551	373
211.618	438
211.686	136
211.753	-80
211.821	499
211.888	73
211.955	463
212.023	970
212.090	48
212.157	376
212.225	387
212.292	784
212.359	1452
212.427	4497
212.494	1655
212.561	186
212.629	104
212.696	575
212.763	97
212.831	-966
212.898	937
212.965	-13
213.032	662
213.100	1012
213.167	-176
213.234	1085
213.301	588
213.369	151
213.436	-52
213.503	-189
213.570	654
213.638	601
213.705	-284
213.772	-242
213.839	-225
213.906	724
213.973	176
214.041	186
214.108	648
214.175	600
214.242	-332
214.309	604
214.376	739
214.444	-636
214.511	335
214.578	671
214.645	476
214.712	977
214.779	49
214.846	-163
214.913	426
214.980	1057
215.048	556
215.115	1263
215.182	802
215.249	656
215.316	-575
215.383	412
215.450	365
215.517	391
215.584	627
215.651	-32
215.718	7
215.785	1102
215.852	-542
215.919	958
215.986	544
216.053	308
216.120	59
216.187	398
216.254	421
216.321	387
216.388	498
216.455	-204
216.522	826
216.589	-165
216.656	270
216.722	878
216.789	1025
216.856	646
216.923	558
216.990	1132
217.057	-44
217.124	901
217.191	125
217.258	915
217.324	1385
217.391	1427
217.458	747
217.525	610
217.592	1086
217.659	-556
217.725	780
217.792	470
217.859	1447
217.926	81
217.993	130
218.059	-179
218.126	515
218.193	404
218.260	391
218.327	-270
218.393	585
218.460	-229
218.527	131
218.594	89
218.660	186
218.727	755
218.794	-867
218.860	432
218.927	-385
218.994	-177
219.061	-616
219.127	-29
219.194	-29
219.261	158
219.327	380
219.394	1063
219.461	-489
219.527	560
219.594	123
219.661	-126
219.727	-325
219.794	1441
219.860	372
219.927	354
219.994	170
220.060	1414
220.127	1570
220.193	1028
220.260	757
220.326	852
220.393	1673
220.460	2488
220.526	1703
220.593	224
220.659	2851
220.726	824
220.792	2106
220.859	1612
220.925	3936
220.992	4242
221.058	4067
221.125	3775
221.191	2120
221.258	404
221.324	735
221.391	-121
221.457	176
221.524	114
221.590	1083
221.657	2538
221.723	1678
221.789	1546
221.856	1872
221.922	913
221.989	-444
222.055	-137
222.121	44
222.188	1355
222.254	-633
222.321	221
222.387	189
222.453	-188
222.520	-434
222.586	-451
222.652	485
222.719	-637
222.785	393
222.851	-91
222.918	-461
222.984	-445
223.050	179
223.116	-1152
223.183	865
223.249	-937
223.315	523
223.382	-279
223.448	-35
223.514	-291
223.580	286
223.647	51
223.713	-259
223.779	-131
223.845	29
223.911	61
223.978	-672
224.044	-250
224.110	42
224.176	81
224.242	-199
224.309	-580
224.375	279
224.441	-126
224.507	-503
224.573	-907
224.639	395
224.705	-520
224.772	-370
224.838	-16
224.904	1193
224.970	-50
225.036	-496
225.102	-1276
225.168	55
225.234	519
225.300	-449
225.366	-532
225.432	-36
225.499	-7
225.565	-250
225.631	119
225.697	116
225.763	896
225.829	463
225.895	893
225.961	560
226.027	330
226.093	136
226.159	1249
226.225	1714
226.291	4347
226.357	8852
226.423	3694
226.489	2365
226.554	1281
226.620	812
226.686	741
226.752	1928
226.818	3553
226.884	9404
226.950	9844
227.016	2991
227.082	2421
227.148	866
227.214	468
227.279	1057
227.345	1033
227.411	205
227.477	829
227.543	2642
227.609	3165
227.674	1813
227.740	965
227.806	508
227.872	408
227.938	501
228.003	1293
228.069	721
228.135	-392
228.201	94
228.267	315
228.332	252
228.398	-292
228.464	1039
228.530	-35
228.595	429
228.661	-487
228.727	-43
228.792	1625
228.858	-942
228.924	-1412
228.990	1356
229.055	-1342
229.121	869
229.187	131
229.252	248
229.318	-645
229.384	-687
229.449	935
229.515	-956
229.581	-759
229.646	1286
229.712	106
229.777	905
229.843	74
229.909	703
229.974	577
230.040	940
230.105	14
230.171	-47
230.236	732
230.302	1490
230.368	1049
230.433	-312
230.499	-42
230.564	1220
230.630	-361
230.695	-201
230.761	1082
230.826	-1443
230.892	2313
230.957	-926
231.023	-1022
231.088	-260
231.154	-134
231.219	717
231.284	-242
231.350	936
231.415	78
231.481	265
231.546	97
231.612	-315
231.677	184
231.742	-865
231.808	1704
231.873	251
231.939	-1422
232.004	962
232.069	1173
232.135	-190
232.200	-696
232.265	-363
232.331	-170
232.396	21
232.461	-477
232.527	-938
232.592	74
232.657	232
232.723	302
232.788	69
232.853	807
232.918	260
232.984	-1309
233.049	-796
233.114	-1039
233.179	767
233.245	849
233.310	836
233.375	-871
233.440	-151
233.506	-34
233.571	-267
233.636	672
233.701	-203
233.766	54
233.832	1460
233.897	-270
233.962	-1147
234.027	1713
234.092	676
234.157	-84
234.222	312
234.288	-43
234.353	1379
234.418	3008
234.483	1256
234.548	939
234.613	233
234.678	505
234.743	-852
234.808	2710
234.873	873
234.938	1616
235.004	-293
235.069	-405
235.134	270
235.199	91
235.264	-31
235.329	-1383
235.394	678
235.459	1159
235.524	-543
235.589	1323
235.654	-402
235.719	-1197
235.784	178
235.849	460
235.913	790
235.978	440
236.043	1700
236.108	607
236.173	-266
236.238	465
236.303	-393
236.368	-268
236.433	936
236.498	1788
236.563	1465
236.627	2652
236.692	11085
236.757	10373
236.822	3538
236.887	1050
236.952	2361
237.017	531
237.081	2776
237.146	1388
237.211	5466
237.276	10924
237.341	18176
237.405	7758
237.470	3491
237.535	2331
237.600	785
237.664	1671
237.729	-231
237.794	116
237.859	3406
237.923	1395
237.988	1180
238.053	1162
238.118	958
238.182	1698
238.247	3769
238.312	-307
238.376	761
238.441	-947
238.506	1417
238.570	-739
238.635	1732
238.700	180
238.764	-577
238.829	248
238.893	222
238.958	1605
239.023	-500
239.087	374
239.152	565
239.216	-153
239.281	940
239.346	-64
239.410	187
239.475	-180
239.539	3172
239.604	1948
239.668	968
239.733	21
239.797	2004
239.862	5722
239.926	5973
239.991	1732
240.055	700
240.120	1111
240.184	325
240.249	-94
240.313	567
240.378	692
240.442	853
240.507	3512
240.571	1123
240.635	193
240.700	1105
240.764	-123
240.829	-213
240.893	-1522
240.957	951
241.022	329
241.086	3017
241.151	169
241.215	-511
241.279	1442
241.344	447
241.408	930
241.472	-335
241.537	2158
241.601	884
241.665	-1126
241.730	245
241.794	857
241.858	-162
241.922	653
241.987	68
242.051	-420
242.115	-80
242.179	596
242.244	-151
242.308	587
242.372	713
242.436	374
242.501	556
242.565	-344
242.629	-675
242.693	1219
242.757	-323
242.822	307
242.886	376
242.950	789
243.014	-55
243.078	231
243.142	-72
243.206	449
243.271	315
243.335	44
243.399	2428
243.463	3454
243.527	15306
243.591	4414
243.655	1932
243.719	-275
243.783	1244
243.847	1595
243.911	2664
243.975	1769
244.040	768
244.104	1829
244.168	352
244.232	136
244.296	1258
244.360	2594
244.424	51
244.488	633
244.552	684
244.615	-1056
244.679	827
244.743	140
244.807	-354
244.871	285
244.935	-15
244.999	-826
245.063	-183
245.127	43
245.191	717
245.255	1021
245.319	1106
245.383	-691
245.446	1478
245.510	-1073
245.574	-306
245.638	1052
245.702	-1050
245.766	2228
245.829	1476
245.893	-761
245.957	-175
246.021	763
246.085	481
246.149	-64
246.212	3305
246.276	3044
246.340	1278
246.404	1190
246.467	1807
246.531	314
246.595	1012
246.659	1358
246.722	-870
246.786	1360
246.850	1026
246.913	1349
246.977	-380
247.041	612
247.104	724
247.168	510
247.232	2385
247.295	5251
247.359	1758
247.423	-497
247.486	2081
247.550	1479
247.614	551
247.677	635
247.741	-241
247.804	61
247.868	798
247.932	1008
247.995	4751
248.059	1311
248.122	-239
248.186	1684
248.249	1805
248.313	8667
248.376	9973
248.440	4966
248.503	526
248.567	2876
248.630	1172
248.694	2523
248.757	5297
248.821	8762
248.884	5759
248.948	4537
249.011	7317
249.075	9854
249.138	9673
249.202	3432
249.265	2014
249.328	2713
249.392	1373
249.455	1577
249.519	1018
249.582	1543
249.645	3045
249.709	2488
249.772	726
249.835	1331
249.899	1646
249.962	735
250.025	277
250.089	2555
250.152	4950
250.215	2002
250.279	811
250.342	1712
250.405	1056
250.468	599
250.532	1419
250.595	3741
250.658	11417
250.721	24810
250.785	8408
250.848	4485
250.911	2142
250.974	1924
251.038	1987
251.101	5216
251.164	2812
251.227	2746
251.290	2167
251.354	4393
251.417	18081
251.480	19643
251.543	12776
251.606	33921
251.669	29145
251.732	9494
251.795	8519
251.859	8740
251.922	21468
251.985	14355
252.048	5313
252.111	3317
252.174	2706
252.237	4508
252.300	11025
252.363	11730
252.426	28475
252.489	11190
252.552	4813
252.615	3321
252.678	4468
252.741	7863
252.804	10984
252.867	29238
252.930	17132
252.993	8020
253.056	4689
253.119	2800
253.182	1837
253.245	3959
253.308	3433
253.371	1734
253.434	2762
253.497	2765
253.559	4922
253.622	4089
253.685	3073
253.748	4068
253.811	1752
253.874	2855
253.937	1984
254.000	1836
254.062	2581
254.125	5334
254.188	5856
254.251	4052
254.314	1294
254.376	3288
254.439	3602
254.502	2650
254.565	2484
254.628	6706
254.690	3700
254.753	671
254.816	1166
254.878	1116
254.941	2581
255.004	2863
255.067	741
255.129	892
255.192	366
255.255	-266
255.317	1241
255.380	260
255.443	393
255.505	272
255.568	395
255.631	129
255.693	215
255.756	-766
255.819	899
255.881	-314
255.944	5
256.006	6
256.069	-997
256.132	237
256.194	245
256.257	1810
256.319	1525
256.382	1037
256.444	1282
256.507	963
256.569	300
256.632	717
256.694	1796
256.757	5172
256.819	21402
256.882	7467
256.944	2172
257.007	2542
257.069	1788
257.132	1803
257.194	1531
257.257	1079
257.319	722
257.381	685
257.444	4380
257.506	21008
257.569	26530
257.631	8393
257.693	5083
257.756	1152
257.818	1125
257.880	790
257.943	1184
258.005	275
258.067	-120
258.130	1346
258.192	470
258.254	1219
258.317	891
258.379	682
258.441	1970
258.503	3323
258.566	2118
258.628	5521
258.690	848
258.753	928
258.815	2696
258.877	254
258.939	686
259.001	1219
259.064	588
259.126	64
259.188	1259
259.250	337
259.312	375
259.375	1598
259.437	2037
259.499	254
259.561	424
259.623	607
259.685	-58
259.747	686
259.809	2722
259.872	6382
259.934	9745
259.996	10757
260.058	3208
260.120	250
260.182	776
260.244	542
260.306	-47
260.368	571
260.430	403
260.492	1712
260.554	4737
260.616	1435
260.678	3534
260.740	6391
260.802	909
260.864	653
260.926	-457
260.988	660
261.050	603
261.112	2352
261.174	9430
261.236	6384
261.298	1374
261.359	1739
261.421	4405
261.483	911
261.545	1116
261.607	-1076
261.669	238
261.731	701
261.793	4006
261.854	1381
261.916	865
261.978	642
262.040	967
262.102	1188
262.164	1245
262.225	1003
262.287	815
262.349	2431
262.411	1727
262.472	1395
262.534	507
262.596	3703
262.658	1161
262.719	363
262.781	1512
262.843	2775
262.904	2100
262.966	741
263.028	1196
263.090	6435
263.151	22157
263.213	7749
263.275	3627
263.336	1350
263.398	1359
263.459	-647
263.521	124
263.583	1904
263.644	1656
263.706	564
263.767	-611
263.829	-86
263.891	-323
263.952	14
264.014	-631
264.075	674
264.137	4786
264.198	2438
264.260	-236
264.321	697
264.383	1042
264.444	7799
264.506	1897
264.567	1065
264.629	2841
264.690	6115
264.752	2121
264.813	1598
264.875	245
264.936	1109
264.998	478
265.059	-184
265.120	1232
265.182	852
265.243	9506
265.305	11345
265.366	2382
265.427	1707
265.489	1721
265.550	-1343
265.611	363
265.673	-423
265.734	1051
265.795	867
265.857	-687
265.918	141
265.979	2887
266.040	16182
266.102	16651
266.163	3611
266.224	2267
266.286	1370
266.347	-385
266.408	299
266.469	720
266.530	160
266.592	409
266.653	961
266.714	2633
266.775	621
266.836	555
266.898	-619
266.959	1329
267.020	110
267.081	1159
267.142	-488
267.203	583
267.264	-408
267.326	653
267.387	657
267.448	-3
267.509	240
267.570	442
267.631	135
267.692	-607
267.753	108
267.814	-381
267.875	1051
267.936	3269
267.997	979
268.058	1296
268.119	362
268.180	-135
268.241	-456
268.302	257
268.363	-349
268.424	243
268.485	-65
268.546	-486
268.607	-709
268.668	-698
268.729	8
268.790	-926
268.851	141
268.912	1596
268.972	2720
269.033	942
269.094	0
269.155	-357
269.216	102
269.277	-262
269.338	444
269.398	118
269.459	-453
269.520	819
269.581	344
269.642	808
269.702	-128
269.763	400
269.824	214
269.885	-24
269.945	1752
270.006	718
270.067	-156
270.128	-470
270.188	-409
270.249	-151
270.310	-224
270.370	-510
270.431	286
270.492	-1108
270.553	-186
270.613	667
270.674	2531
270.734	517
270.795	591
270.856	466
270.916	34
270.977	834
271.038	349
271.098	367
271.159	246
271.219	1151
271.280	218
271.340	-51
271.401	-114
271.462	1203
271.522	621
271.583	254
271.643	464
271.704	4
271.764	101
271.825	1653
271.885	7660
271.946	12128
272.006	3685
272.066	3926
272.127	9198
272.187	3660
272.248	1521
272.308	484
272.369	5181
272.429	3668
272.489	1570
272.550	2287
272.610	2239
272.671	1556
272.731	1549
272.791	1698
272.852	1024
272.912	1053
272.972	373
273.033	-320
273.093	861
273.153	1482
273.214	1216
273.274	1040
273.334	4592
273.394	11049
273.455	3750
273.515	3776
273.575	9339
273.635	4617
273.696	4459
273.756	8036
273.816	3624
273.876	2813
273.936	3265
273.997	7177
274.057	1910
274.117	1180
274.177	2482
274.237	10589
274.297	10287
274.358	5159
274.418	7084
274.478	5264
274.538	1672
274.598	892
274.658	4562
274.718	5956
274.778	2348
274.838	805
274.898	1540
274.958	7708
275.018	8221
275.078	6138
275.138	2483
275.198	927
275.258	201
275.318	454
275.378	1507
275.438	2316
275.498	1647
275.558	2686
275.618	8079
275.678	5976
275.738	3549
275.798	2228
275.858	1659
275.918	-319
275.978	310
276.038	359
276.098	66
276.157	686
276.217	6170
276.277	2805
276.337	1082
276.397	393
276.457	1053
276.517	441
276.576	729
276.636	-306
276.696	366
276.756	3436
276.815	2701
276.875	618
276.935	1299
276.995	1092
277.055	773
277.114	1050
277.174	1553
277.234	4741
277.293	1662
277.353	1031
277.413	181
277.472	1171
277.532	589
277.592	1724
277.651	6516
277.711	17914
277.771	4654
277.830	16480
277.890	16416
277.950	8934
278.009	29465
278.069	12994
278.128	9731
278.188	18509
278.248	6813
278.307	18526
278.367	13791
278.426	2452
278.486	1163
278.545	1383
278.605	1340
278.664	907
278.724	322
278.783	3440
278.843	10202
278.902	3496
278.962	1757
279.021	1524
279.081	3774
279.140	3397
279.199	1802
279.259	2399
279.318	3309
279.378	4501
279.437	6833
279.496	17827
279.556	72765
279.615	71450
279.675	18690
279.734	8682
279.793	9849
279.853	12535
279.912	6080
279.971	3359
280.031	3095
280.090	5351
280.149	9657
280.208	9823
280.268	49095
280.327	64715
280.386	15012
280.445	7319
280.505	6708
280.564	3754
280.623	2390
280.682	3354
280.742	6176
280.801	2041
280.860	1960
280.919	1626
280.978	999
281.037	960
281.097	667
281.156	1088
281.215	832
281.274	965
281.333	6288
281.392	5636
281.451	1348
281.510	921
281.569	350
281.628	-21
281.688	179
281.747	1351
281.806	913
281.865	897
281.924	651
281.983	3
282.042	452
282.101	332
282.160	-100
282.219	-565
282.278	156
282.337	2631
282.396	2359
282.454	882
282.513	1186
282.572	4841
282.631	3800
282.690	757
282.749	161
282.808	1032
282.867	152
282.926	1406
282.985	496
283.043	-118
283.102	158
283.161	551
283.220	2288
283.279	7215
283.338	2181
283.396	1630
283.455	1105
283.514	1760
283.573	2376
283.631	1256
283.690	974
283.749	769
283.808	2285
283.866	2857
283.925	1140
283.984	1258
284.043	1040
284.101	2131
284.160	1415
284.219	2668
284.277	2096
284.336	2027
284.395	8772
284.453	9284
284.512	4398
284.570	5266
284.629	5226
284.688	5021
284.746	6064
284.805	7488
284.863	10754
284.922	13754
284.981	15974
285.039	22706
285.098	36757
285.156	63298
285.215	68661
285.273	61506
285.332	69205
285.390	47708
285.449	30761
285.507	21831
285.566	15271
285.624	11681
285.683	8790
285.741	6925
285.799	5755
285.858	5171
285.916	3334
285.975	3672
286.033	3306
286.091	3013
286.150	1759
286.208	2959
286.267	2458
286.325	1809
286.383	2271
286.442	2515
286.500	1207
286.558	1606
286.616	597
286.675	2534
286.733	2079
286.791	641
286.850	1277
286.908	1655
286.966	2593
287.024	987
287.083	424
287.141	528
287.199	1457
287.257	1830
287.315	1549
287.374	1154
287.432	3369
287.490	1936
287.548	925
287.606	353
287.664	1246
287.723	1912
287.781	1866
287.839	340
287.897	1102
287.955	2350
288.013	3009
288.071	7141
288.129	26193
288.187	89041
288.245	46542
288.303	13387
288.361	6547
288.419	3804
288.477	2684
288.535	1747
288.593	1791
288.651	1694
288.709	735
288.767	534
288.825	903
288.883	599
288.941	-148
288.999	544
289.057	115
289.115	3
289.173	648
289.231	679
289.289	563
289.346	326
289.404	403
289.462	1281
289.520	1309
289.578	683
289.636	380
289.694	835
289.751	-11
289.809	551
289.867	-125
289.925	143
289.983	-122
290.040	-224
290.098	-375
290.156	-359
290.214	-364
290.271	-248
290.329	526
290.387	-462
290.444	-784
290.502	-395
290.560	-234
290.617	-85
290.675	256
290.733	91
290.790	159
290.848	235
290.906	-877
290.963	-383
291.021	476
291.078	224
291.136	-654
291.194	2705
291.251	8797
291.309	2022
291.366	-488
291.424	-406
291.481	58
291.539	-420
291.596	733
291.654	-481
291.711	182
291.769	-756
291.826	584
291.884	734
291.941	-115
291.999	120
292.056	132
292.114	400
292.171	4
292.228	519
292.286	1123
292.343	1120
292.401	1725
292.458	1122
292.515	395
292.573	905
292.630	-167
292.687	174
292.745	754
292.802	401
292.859	4333
292.917	6604
292.974	4514
293.031	1614
293.089	321
293.146	-225
293.203	581
293.260	219
293.318	-278
293.375	2282
293.432	588
293.489	218
293.546	-517
293.604	967
293.661	3388
293.718	12022
293.775	7243
293.832	2683
293.889	2163
293.947	1710
294.004	1471
294.061	285
294.118	3039
294.175	7551
294.232	14781
294.289	6542
294.346	2397
294.403	1724
294.460	691
294.517	683
294.574	361
294.631	822
294.688	383
294.745	3011
294.802	14071
294.859	19804
294.916	6722
294.973	2336
295.030	1574
295.087	1096
295.144	1625
295.201	1124
295.258	822
295.315	515
295.372	2873
295.429	10185
295.486	4174
295.542	1714
295.599	8188
295.656	16728
295.713	9245
295.770	10251
295.827	4281
295.883	1540
295.940	1492
295.997	2701
296.054	2153
296.111	984
296.167	1367
296.224	-144
296.281	-356
296.338	117
296.394	313
296.451	649
296.508	3466
296.564	8637
296.621	5765
296.678	9574
296.734	16587
296.791	5962
296.848	2589
296.904	2433
296.961	5385
297.018	10568
297.074	8991
297.131	3756
297.187	1859
297.244	2189
297.301	7895
297.357	19243
297.414	7224
297.470	2422
297.527	1058
297.583	943
297.640	1163
297.696	1104
297.753	-13
297.809	473
297.866	-68
297.922	533
297.979	354
298.035	-72
298.092	1511
298.148	5845
298.204	5891
298.261	2766
298.317	4354
298.374	12474
298.430	7987
298.486	2613
298.543	1773
298.599	959
298.656	2113
298.712	2984
298.768	11203
298.824	9678
298.881	3081
298.937	1371
298.993	1056
299.050	1463
299.106	1104
299.162	671
299.218	1423
299.275	1085
299.331	862
299.387	2434
299.443	11529
299.500	17134
299.556	9519
299.612	3636
299.668	2705
299.724	5658
299.780	8759
299.837	3185
299.893	3470
299.949	11940
300.005	17354
300.061	12774
300.117	21575
300.173	11229
300.229	4244
300.285	3979
300.341	5697
300.397	2560
300.453	1798
300.510	672
300.566	1977
300.622	3510
300.678	12322
300.734	21391
300.790	14461
300.845	13754
300.901	10807
300.957	16180
301.013	11137
301.069	4281
301.125	2028
301.181	2624
301.237	2109
301.293	1119
301.349	1499
301.405	604
301.461	1126
301.516	1843
301.572	1076
301.628	2233
301.684	2247
301.740	3966
301.796	6641
301.851	5343
301.907	6430
301.963	7125
302.019	10063
302.074	30631
302.130	33378
302.186	15790
302.242	5845
302.297	3137
302.353	2622
302.409	5980
302.464	5762
302.520	4844
302.576	10213
302.631	13954
302.687	8089
302.743	2897
302.798	1388
302.854	900
302.910	704
302.965	1975
303.021	3542
303.076	2555
303.132	3864
303.187	5057
303.243	3260
303.299	1728
303.354	405
303.410	1050
303.465	494
303.521	822
303.576	1626
303.632	1160
303.687	1909
303.743	9235
303.798	10063
303.853	4433
303.909	2067
303.964	1415
304.020	1832
304.075	3680
304.130	2821
304.186	5660
304.241	7216
304.297	5392
304.352	2599
304.358	2473
304.407	1450
304.449	1498
304.463	1518
304.518	1323
304.539	1360
304.573	1401
304.629	1731
304.630	1736
304.684	2057
304.720	4871
304.739	6262
304.794	11897
304.811	10620
304.850	7519
304.902	3515
304.905	3257
304.960	2005
304.992	1616
305.015	1337
305.071	1856
305.083	1756
305.126	1383
305.173	1294
305.181	1296
305.236	691
305.264	718
305.292	667
305.347	1417
305.354	1320
305.402	881
305.445	1620
305.457	1803
305.512	2373
305.535	2133
305.567	1828
305.622	2062
305.626	2139
305.678	4207
305.716	9278
305.733	11025
305.788	15306
305.807	13171
305.843	9605
305.897	10988
305.898	10992
305.953	11484
305.988	7892
306.008	5951
306.063	2942
306.078	2590
306.118	1907
306.168	1583
306.173	1550
306.228	1651
306.259	1124
306.283	762
306.338	618
306.349	676
306.393	905
306.440	1985
306.448	2185
306.503	1848
306.530	2169
306.558	2948
306.613	5244
306.620	5747
306.668	8800
306.711	11265
306.723	11463
306.778	10208
306.801	7681
306.833	4858
306.888	2397
306.892	2297
306.943	1490
306.982	1459
306.997	1450
307.052	1187
307.072	1417
307.107	2007
307.162	2350
307.163	2362
307.217	4176
307.253	5272
307.272	5396
307.327	5919
307.343	5359
307.381	4263
307.434	3333
307.436	3420
307.491	7310
307.524	11254
307.546	12234
307.600	10900
307.614	9626
307.655	5890
307.704	3420
307.710	3391
307.765	3857
307.795	5179
307.819	6393
307.874	10849
307.885	10985
307.929	9651
307.975	7606
307.984	7663
308.038	10289
308.065	12206
308.093	20207
308.148	40930
308.156	46087
308.202	71851
308.246	90181
308.257	88760
308.312	51227
308.336	35560
308.366	25580
308.421	15176
308.426	14357
308.475	9596
308.517	7120
308.530	6564
308.585	5965
308.607	5647
308.639	5459
308.694	5612
308.697	5661
308.748	9759
308.787	14483
308.803	14554
308.857	11833
308.877	10090
308.912	8922
308.967	8940
308.967	8955
309.021	12501
309.058	15829
309.076	19415
309.130	32291
309.148	37083
309.185	62295
309.238	106820
309.239	107157
309.293	119607
309.328	113979
309.348	101198
309.402	53951
309.418	41942
309.457	30150
309.508	19139
309.511	18845
309.566	18171
309.598	18545
309.620	22122
309.674	34570
309.688	37975
309.729	36930
309.778	30644
309.783	29925
309.837	19926
309.868	14866
309.892	14451
309.946	15591
309.959	16272
310.001	18871
310.049	21547
310.055	20911
310.109	13500
310.139	8927
310.163	7224
310.218	4538
310.229	4197
310.272	4015
310.319	3771
310.326	3641
310.381	2819
310.409	2490
310.435	2406
310.489	2233
310.499	2181
310.543	2250
310.589	2510
310.598	2563
310.652	2940
310.679	3014
310.706	2763
310.760	2260
310.769	2187
310.814	2192
310.859	2253
310.868	2228
310.923	2004
310.948	1958
310.977	2274
311.031	2778
311.038	2848
311.085	2680
311.128	2500
311.139	2404
311.193	1839
311.218	1585
311.247	1609
311.301	1660
311.308	1664
311.356	1797
311.398	1986
311.410	1990
311.464	1849
311.488	1817
311.518	1875
311.572	1945
311.578	1953
311.626	2559
311.668	3095
311.680	3065
311.734	2862
311.758	2765
311.788	2782
311.842	2825
311.847	2826
311.896	3983
311.937	5007
311.950	4801
312.004	3873
312.027	3436
312.058	2887
312.112	1946
312.117	1855
312.165	1972
312.207	2081
312.297	3451
312.386	3295
312.476	3349
312.566	3990
312.656	2109
312.745	1993
312.835	2075
312.925	2712
313.015	2293
313.104	2854
313.194	2291
313.284	2186
313.374	2543
313.463	2656
313.553	2467
313.643	1876
313.732	1637
313.822	2103
313.912	2547
314.001	2503
314.091	2963
314.180	4095
314.270	3838
314.360	3118
314.449	3245
314.539	1524
314.628	2215
314.718	3221
314.808	4226
314.897	2576
314.987	2095
315.076	2404
315.166	3908
315.255	3638
315.345	3800
315.434	3036
315.524	3184
315.613	3606
315.703	4274
315.792	8239
315.881	24578
315.971	7409
316.060	6035
316.150	8523
316.239	7580
316.328	3998
316.418	2485
316.507	2753
316.597	3766
316.686	3493
316.775	4689
316.865	8662
316.954	2951
317.043	2355
317.133	1987
317.222	2220
317.311	2155
317.400	1303
317.490	3933
317.579	2437
317.668	2903
317.757	5228
317.847	13957
317.936	42236
318.025	13249
318.114	8536
318.203	4608
318.293	5644
318.382	8389
318.471	7652
318.560	12363
318.649	28627
318.738	4871
318.828	3227
318.917	2729
319.006	4457
319.095	10376
319.184	33724
319.273	14119
319.362	5719
319.451	2522
319.540	1979
319.629	5411
319.718	6570
319.807	4537
319.896	10084
319.985	41368
320.074	12258
320.163	3815
320.252	6370
320.341	6018
320.430	4883
320.519	5420
320.608	3315
320.697	3048
320.786	2783
320.875	4277
320.964	4539
321.053	5554
321.142	7320
321.230	8359
321.319	7656
321.408	15483
321.497	7737
321.586	7365
321.675	8419
321.764	8661
321.852	6326
321.941	9287
322.030	6526
322.119	7986
322.207	14441
322.296	13547
322.385	8293
322.474	8523
322.562	17658
322.651	10308
322.740	7408
322.829	9667
322.917	11308
323.006	5756
323.095	4870
323.183	5059
323.272	7563
323.361	12076
323.449	35737
323.538	11566
323.626	24031
323.715	13561
323.804	5486
323.892	19829
323.981	9742
324.069	4519
324.158	12263
324.246	10814
324.335	4046
324.424	4067
324.512	2980
324.601	3160
324.689	6046
324.778	9670
324.866	7061
324.954	2823
325.043	2338
325.131	4794
325.220	9330
325.308	9549
325.397	6963
325.485	4298
325.574	1450
325.662	2033
325.750	1043
325.839	2123
325.927	1334
326.015	1556
326.104	3801
326.192	5705
326.280	2348
326.369	2097
326.457	2065
326.545	4241
326.634	1674
326.722	1949
326.810	2534
326.898	1614
326.987	2177
327.075	4644
327.163	4340
327.251	2394
327.340	4314
327.428	6057
327.516	2272
327.604	2921
327.692	2554
327.781	2784
327.869	3986
327.957	2512
328.045	1905
328.133	2308
328.221	1403
328.309	1219
328.397	1329
328.485	2334
328.574	3400
328.662	8999
328.750	5190
328.838	2945
328.926	1975
329.014	1823
329.102	2547
329.190	7614
329.278	3489
329.366	1078
329.454	1505
329.542	1318
329.630	748
329.718	2425
329.806	1740
329.893	2783
329.981	1606
330.069	2501
330.157	7686
330.245	20501
330.333	10834
330.421	3066
330.509	2454
330.597	9495
330.684	6351
330.772	3028
330.860	4499
330.948	7160
331.036	2629
331.123	1840
331.211	1437
331.299	2930
331.387	6064
331.475	8942
331.562	3173
331.650	1539
331.738	2245
331.825	3264
331.913	1242
332.001	1200
332.089	3032
332.176	4700
332.264	11412
332.352	8551
332.439	2694
332.527	1738
332.614	2018
332.702	3791
332.790	2613
332.877	5296
332.965	11648
333.052	4574
333.140	4994
333.228	12080
333.315	3319
333.403	2952
333.490	6676
333.578	6908
333.665	17110
333.753	7272
333.840	2114
333.928	3646
334.015	7661
334.103	13783
334.190	42203
334.278	11062
334.365	7083
334.452	6579
334.540	4166
334.627	5020
334.715	6802
334.802	11377
334.889	48476
334.977	47436
335.064	11011
335.151	4999
335.239	5246
335.326	6041
335.413	23243
335.501	29568
335.588	4877
335.675	4215
335.762	5581
335.850	9449
335.937	9126
336.024	18586
336.111	58490
336.199	29182
336.286	8555
336.373	5481
336.460	2933
336.547	3018
336.635	3838
336.722	3618
336.809	2259
336.896	4019
336.983	12471
337.070	30000
337.157	44737
337.245	29353
337.332	19181
337.419	2949
337.506	3053
337.593	2675
337.680	11192
337.767	32129
337.854	7800
337.941	8568
338.028	8692
338.115	3371
338.202	4450
338.289	8520
338.376	25900
338.463	8486
338.550	18106
338.637	18518
338.724	5790
338.811	8638
338.898	2356
338.984	1932
339.071	2183
339.158	3105
339.245	5456
339.332	4655
339.419	5509
339.506	5619
339.593	532
339.679	1551
339.766	1212
339.853	2271
339.940	3328
340.027	2142
340.113	1963
340.200	2603
340.287	2462
340.374	2195
340.460	3583
340.547	1725
340.634	2867
340.720	9729
340.807	4933
340.894	1231
340.980	1570
341.067	882
341.154	2683
341.240	3291
341.327	4833
341.414	2610
341.500	1632
341.587	2129
341.674	1432
341.760	3786
341.847	3918
341.933	1799
342.020	1017
342.106	962
342.193	1823
342.279	2707
342.366	2807
342.452	3360
342.539	1597
342.625	4127
342.712	9757
342.798	4475
342.885	2550
342.971	1300
343.058	897
343.144	984
343.230	2166
343.317	1644
343.403	964
343.490	1271
343.576	1059
343.662	1999
343.749	1736
343.835	2328
343.921	2934
344.008	22461
344.094	46711
344.180	9577
344.267	3746
344.353	13856
344.439	13657
344.525	5867
344.612	6098
344.698	5379
344.784	3312
344.870	2000
344.957	1525
345.043	3279
345.129	1823
345.215	3668
345.301	2081
345.387	1300
345.474	898
345.560	1416
345.646	1266
345.732	2040
345.818	1454
345.904	1872
345.990	1582
346.076	2220
346.162	3522
346.249	2532
346.335	1205
346.421	2368
346.507	4847
346.593	18407
346.679	3970
346.765	1645
346.851	1977
346.937	1760
347.023	2420
347.108	1794
347.194	1681
347.280	1310
347.366	2601
347.452	8036
347.538	24349
347.624	18305
347.710	13479
347.796	2625
347.882	1849
347.967	1385
348.053	2813
348.139	2177
348.225	468
348.311	1265
348.397	1180
348.482	2651
348.568	2193
348.654	1535
348.740	4753
348.825	4279
348.911	4386
348.997	11962
349.083	21138
349.168	4235
349.254	2102
349.340	2174
349.425	982
349.511	2089
349.597	2044
349.682	3945
349.768	13041
349.854	5547
349.939	1449
350.025	2033
350.110	1838
350.196	1697
350.282	-96
350.367	1280
350.453	2151
350.538	2146
350.624	1355
350.709	1885
350.795	1002
350.880	464
350.966	2548
351.051	2942
351.137	2425
351.222	1217
351.308	3950
351.393	10144
351.479	2337
351.564	386
351.649	1213
351.735	1490
351.820	607
351.906	1311
351.991	1904
352.076	7115
352.162	9940
352.247	1999
352.332	2185
352.418	3177
352.503	3348
352.588	15831
352.673	11057
352.759	2600
352.844	942
352.929	1841
353.014	1540
353.100	1930
353.185	1897
353.270	2842
353.355	3407
353.441	1881
353.526	1970
353.611	3344
353.696	3180
353.781	2723
353.866	583
353.952	1535
354.037	3430
354.122	7382
354.207	5669
354.292	2330
354.377	1208
354.462	1831
354.547	1483
354.632	2043
354.717	2792
354.802	1905
354.887	1833
354.972	2019
355.057	1819
355.142	1259
355.227	1900
355.312	2661
355.397	4389
355.482	11040
355.567	4490
355.652	4782
355.737	5316
355.822	16068
355.907	11364
355.991	2896
356.076	1641
356.161	2331
356.246	1525
356.331	1925
356.416	3630
356.501	28286
356.585	24776
356.670	3665
356.755	4321
356.840	4118
356.924	17005
357.009	58215
357.094	20070
357.179	5079
357.263	3239
357.348	3927
357.433	3574
357.517	3154
357.602	3993
357.687	2389
357.771	4123
357.856	11697
357.941	7636
358.025	14632
358.110	60392
358.195	24773
358.279	4216
358.364	4020
358.448	11040
358.533	27556
358.617	18180
358.702	19435
358.787	7757
358.871	4391
358.956	3429
359.040	2151
359.125	1159
359.209	2546
359.294	6442
359.378	9544
359.462	3951
359.547	2440
359.631	2034
359.716	875
359.800	2014
359.885	3594
359.969	1010
360.053	2384
360.138	2651
360.222	1827
360.306	3332
360.391	3279
360.475	5679
360.559	12260
360.644	10442
360.728	6090
360.812	15417
360.896	39265
360.981	14761
361.065	7082
361.149	2328
361.233	3570
361.318	1404
361.402	2215
361.486	2879
361.570	1915
361.654	2551
361.739	6105
361.823	24936
361.907	38383
361.991	6434
362.075	4388
362.159	6813
362.243	9981
362.327	14069
362.411	22765
362.495	8414
362.580	3976
362.664	3542
362.748	4396
362.832	5974
362.916	13124
363.000	40214
363.084	71410
363.168	57229
363.252	14084
363.336	6082
363.420	7786
363.503	31183
363.587	34391
363.671	6288
363.755	3695
363.839	6638
363.923	2587
364.007	6723
364.091	7944
364.175	13964
364.258	60387
364.342	60866
364.426	89272
364.510	43100
364.594	16573
364.677	11987
364.761	36105
364.845	23251
364.929	7831
365.013	5854
365.096	4569
365.180	5471
365.264	12742
365.347	50790
365.431	19604
365.515	4361
365.598	1783
365.682	3190
365.766	3940
365.849	6001
365.933	2825
366.017	4722
366.100	2877
366.184	1449
366.267	3175
366.351	1938
366.435	738
366.518	696
366.602	1878
366.685	2007
366.769	2425
366.852	4330
366.936	6121
367.019	3587
367.103	2573
367.186	7442
367.270	2508
367.353	510
367.436	2462
367.520	1047
367.603	2554
367.687	2103
367.770	4228
367.853	3499
367.937	10887
368.020	15051
368.104	3302
368.187	4142
368.270	4618
368.353	4568
368.437	7441
368.520	16826
368.603	8982
368.687	10737
368.770	20449
368.853	4359
368.936	6346
369.020	5820
369.103	2228
369.186	1790
369.269	1671
369.352	3200
369.436	3385
369.519	2490
369.602	492
369.685	3556
369.768	669
369.851	2410
369.934	1542
370.018	1396
370.101	2932
370.184	5169
370.267	3560
370.350	4931
370.433	6403
370.516	19229
370.599	26060
370.682	6674
370.765	11394
370.848	14472
370.931	26510
371.014	10885
371.097	1386
371.180	3015
371.263	2734
371.346	728
371.429	2669
371.511	1236
371.594	3078
371.677	5975
371.760	7815
371.843	5180
371.926	21585
372.009	47332
372.091	16979
372.174	10588
372.257	26611
372.340	9944
372.423	9770
372.505	11626
372.588	5088
372.671	8581
372.754	25115
372.836	12626
372.919	14987
373.002	29254
373.085	6848
373.167	4865
373.250	9857
373.332	24259
373.415	33645
373.498	64773
373.580	24142
373.663	39287
373.746	45973
373.828	9570
373.911	5608
373.993	5388
374.076	28104
374.159	24322
374.241	8757
374.324	20456
374.406	13827
374.489	19872
374.571	52612
374.654	19375
374.736	10897
374.819	33718
374.901	49287
374.983	47745
375.066	8960
375.148	4776
375.231	23617
375.313	42953
375.395	13556
375.478	3713
375.560	2883
375.643	3865
375.725	11420
375.807	43612
375.890	36185
375.972	14303
376.054	8346
376.136	14259
376.219	5448
376.301	13046
376.383	36529
376.465	13401
376.548	6546
376.630	10073
376.712	31915
376.794	12935
376.877	2145
376.959	1156
377.041	2867
377.123	5686
377.205	6713
377.287	981
377.369	1505
377.452	970
377.534	938
377.616	1730
377.698	1197
377.780	194
377.862	1441
377.944	1997
378.026	1238
378.108	1915
378.190	1689
378.272	2394
378.354	1373
378.436	1007
378.518	2449
378.600	9920
378.682	8189
378.764	13644
378.846	12443
378.928	3642
379.010	4220
379.091	2669
379.173	2148
379.255	784
379.337	2160
379.419	6424
379.501	22018
379.583	8623
379.664	2710
379.746	3151
379.828	14471
379.910	18721
379.991	16849
380.073	2741
380.155	2369
380.237	1987
380.318	2046
380.400	1184
380.482	4229
380.564	4274
380.645	4760
380.727	4004
380.809	3395
380.890	2251
380.972	773
381.053	2411
381.135	3390
381.217	5147
381.298	14473
381.380	7214
381.461	6703
381.543	30646
381.624	37717
381.706	7646
381.787	4443
381.869	5707
381.951	14043
382.032	51509
382.113	32460
382.195	6558
382.276	6775
382.358	9853
382.439	27373
382.521	33730
382.602	51218
382.684	25236
382.765	46782
382.846	68697
382.928	132620
383.009	70981
383.090	51209
383.172	181555
383.253	254487
383.334	80058
383.416	53922
383.497	29782
383.578	22688
383.659	43901
383.741	154620
383.822	352683
383.903	175822
383.984	49636
384.066	59041
384.147	33590
384.228	10192
384.309	7926
384.390	6438
384.471	5880
384.553	5053
384.634	5908
384.715	6109
384.796	3638
384.877	5211
384.958	15240
385.039	15797
385.120	6040
385.201	5478
385.282	4384
385.363	7579
385.444	5408
385.525	7775
385.606	21900
385.687	18870
385.768	5559
385.849	6739
385.930	25391
386.011	40467
386.092	10768
386.173	3477
386.254	3553
386.335	4436
386.416	3705
386.496	9846
386.577	15474
386.658	6124
386.739	4342
386.820	6042
386.901	4252
386.981	5049
387.062	2650
387.143	4570
387.224	15463
387.304	14982
387.385	7262
387.466	4801
387.547	6743
387.627	3588
387.708	8214
387.789	27465
387.869	31560
387.950	10801
388.031	3507
388.111	2327
388.192	8899
388.273	11974
388.353	6901
388.434	3280
388.514	5587
388.595	24939
388.676	29949
388.756	13598
388.837	13691
388.917	8201
388.998	2031
389.078	3267
389.159	2887
389.239	1395
389.320	4598
389.400	751
389.480	6210
389.561	16449
389.641	8805
389.722	3282
389.802	3957
389.883	7286
389.963	19671
390.043	12718
390.124	3105
390.204	6470
390.284	15574
390.365	9877
390.445	17954
390.525	37214
390.605	28453
390.686	7767
390.766	3980
390.846	3633
390.927	1331
391.007	951
391.087	3534
391.167	2687
391.247	1082
391.328	4414
391.408	6637
391.488	5477
391.568	759
391.648	2720
391.728	4410
391.808	4006
391.888	3482
391.969	9248
392.049	14231
392.129	8871
392.209	8773
392.289	20445
392.369	12359
392.449	13328
392.529	8995
392.609	7691
392.689	9701
392.769	21536
392.849	19204
392.929	20063
393.009	36566
393.089	32133
393.169	46063
393.248	139190
393.328	420584
393.408	431626
393.488	141202
393.568	44134
393.648	21301
393.728	14191
393.807	9134
393.887	8650
393.967	6758
394.047	7451
394.127	7863
394.206	12426
394.286	39193
394.366	160245
394.446	166240
394.525	37754
394.605	10632
394.685	9371
394.764	18265
394.844	32160
394.924	23689
395.003	6495
395.083	4680
395.163	4020
395.242	3427
395.322	4591
395.402	2636
395.481	6320
395.561	13305
395.640	36010
395.720	34364
395.799	42664
395.879	29580
395.958	17359
396.038	56419
396.117	204659
396.197	217721
396.276	67796
396.356	23452
396.435	18626
396.515	16294
396.594	17747
396.673	37223
396.753	140929
396.832	382527
396.912	272174
396.991	64393
397.070	21734
397.150	10435
397.229	10320
397.308	15701
397.388	30213
397.467	13697
397.546	4854
397.625	1689
397.705	4626
397.784	4268
397.863	2092
397.942	1865
398.022	3318
398.101	10892
398.180	32406
398.259	15353
398.338	4740
398.417	2070
398.497	1682
398.576	2993
398.655	126
398.734	1751
398.813	1748
398.892	9990
398.971	34830
399.050	16104
399.129	2403
399.208	1534
399.287	2010
399.366	261
399.445	1050
399.524	1391
399.603	348
399.682	2326
399.761	8819
399.840	35721
399.919	27956
399.998	3314
400.077	275
400.156	231
400.235	2894
400.313	1336
400.392	353
400.471	7038
400.550	12328
400.629	2211
400.708	1820
400.786	1315
400.865	5588
400.944	5857
401.023	4245
401.102	419
401.180	253
401.259	1138
401.338	862
401.416	2021
401.495	1027
401.574	1434
401.652	-115
401.731	2014
401.810	303
401.888	534
401.967	-395
402.046	744
402.124	2369
402.203	925
402.281	2449
402.360	1947
402.438	8271
402.517	4768
402.596	2234
402.674	1068
402.753	517
402.831	374
402.910	1765
402.988	2448
403.066	9296
403.145	5619
403.223	4226
403.302	7103
403.380	5337
403.459	4850
403.537	2268
403.615	1496
403.694	-412
403.772	1430
403.850	1328
403.929	353
404.007	524
404.085	1923
404.164	1163
404.242	1596
404.320	9036
404.398	27928
404.477	27782
404.555	44061
404.633	37698
404.711	22002
404.789	13261
404.868	2207
404.946	1411
405.024	594
405.102	499
405.180	103
405.258	-410
405.336	1678
405.415	495
405.493	2569
405.571	1729
405.649	-530
405.727	-107
405.805	2260
405.883	2229
405.961	2825
406.039	2146
406.117	-84
406.195	1573
406.273	6934
406.351	32821
406.429	18457
406.507	3061
406.585	796
406.663	1014
406.740	996
406.818	539
406.896	-207
406.974	657
407.052	2094
407.130	17863
407.208	24618
407.285	5422
407.363	-356
407.441	135
407.519	258
407.596	1484
407.674	3295
407.752	10049
407.830	11062
407.907	3707
407.985	1035
408.063	960
408.141	-309
408.218	2358
408.296	1350
408.373	130
408.451	708
408.529	366
408.606	138
408.684	592
408.762	582
408.839	621
408.917	872
408.994	1031
409.072	292
409.149	1154
409.227	3305
409.304	3621
409.382	4301
409.459	5302
409.537	6339
409.614	5751
409.692	3623
409.769	3457
409.846	5899
409.924	8744
410.001	4823
410.079	3494
410.156	3393
410.233	2111
410.311	2017
410.388	1863
410.465	977
410.543	1094
410.620	1763
410.697	1670
410.775	174
410.852	-621
410.929	1883
411.006	2062
411.083	834
411.161	1994
411.238	2721
411.315	1749
411.392	676
411.469	1725
411.547	563
411.624	-980
411.701	-767
411.778	1020
411.855	832
411.932	1283
412.009	-56
412.086	367
412.163	929
412.240	950
412.317	1349
412.394	1356
412.471	253
412.548	-555
412.625	178
412.702	1003
412.779	1652
412.856	1510
412.933	-206
413.010	988
413.087	525
413.164	5817
413.241	8265
413.318	595
413.395	1329
413.471	1858
413.548	263
413.625	681
413.702	-771
413.779	476
413.855	493
413.932	-641
414.009	-307
414.086	-28
414.162	506
414.239	1283
414.316	5673
414.393	14349
414.469	3306
414.546	-95
414.623	158
414.699	335
414.776	-398
414.853	-124
414.929	-22
415.006	719
415.082	727
415.159	362
415.236	-231
415.312	227
415.389	1120
415.465	1624
415.542	603
415.618	-999
415.695	316
415.771	546
415.848	-120
415.924	517
416.000	786
416.077	770
416.153	-854
416.230	-1045
416.306	-100
416.383	-826
416.459	940
416.535	-309
416.612	-368
416.688	306
416.764	410
416.841	211
416.917	353
416.993	315
417.069	699
417.146	448
417.222	955
417.298	-244
417.374	-123
417.451	496
417.527	610
417.603	6
417.679	153
417.755	245
417.831	-858
417.908	-44
417.984	-463
418.060	-955
418.136	670
418.212	746
418.288	655
418.364	355
418.440	-864
418.516	598
418.592	1496
418.668	3008
418.744	2797
418.820	1906
418.896	397
418.972	-1016
419.048	556
419.124	2434
419.200	25
419.276	-796
419.352	-272
419.428	332
419.504	-607
419.579	714
419.655	-471
419.731	290
419.807	1927
419.883	3636
419.959	1937
420.034	1074
420.110	1757
420.186	7916
420.262	5612
420.337	1315
420.413	714
420.489	1149
420.565	1590
420.640	360
420.716	731
420.792	102
420.867	1862
420.943	-355
421.019	1535
421.094	1226
421.170	986
421.245	1511
421.321	1162
421.397	1236
421.472	3426
421.548	6304
421.623	4220
421.699	3274
421.774	3420
421.850	3450
421.925	4697
422.001	5319
422.076	6033
422.152	7902
422.227	11892
422.302	16945
422.378	24941
422.453	45417
422.529	100265
422.604	194207
422.679	220902
422.755	192487
422.830	107920
422.905	49535
422.981	28329
423.056	17527
423.131	13686
423.207	9707
423.282	7403
423.357	7643
423.432	5353
423.508	4701
423.583	5138
423.658	4438
423.733	2804
423.808	3340
423.883	3814
423.959	3655
424.034	2908
424.109	3606
424.184	975
424.259	1359
424.334	1124
424.409	69
424.484	610
424.559	962
424.634	735
424.709	1382
424.784	1092
424.859	429
424.934	995
425.009	5726
425.084	9685
425.159	3097
425.234	936
425.309	-118
425.384	2570
425.459	2935
425.534	269
425.609	266
425.683	273
425.758	717
425.833	659
425.908	1174
425.983	2785
426.058	9423
426.132	3392
426.207	611
426.282	3035
426.357	939
426.431	145
426.506	215
426.581	222
426.655	-139
426.730	-213
426.805	-593
426.879	953
426.954	454
427.029	682
427.103	10830
427.178	26446
427.253	10793
427.327	957
427.402	2059
427.476	4954
427.551	1972
427.625	1009
427.700	1249
427.774	-201
427.849	281
427.923	-111
427.998	692
428.072	-267
428.147	3745
428.221	21322
428.296	67149
428.370	35063
428.444	3306
428.519	3125
428.593	6788
428.667	5018
428.742	7468
428.816	9479
428.890	43426
428.965	67446
429.039	17700
429.113	7734
429.188	2322
429.262	521
429.336	1968
429.410	4052
429.485	3981
429.559	5333
429.633	4076
429.707	2121
429.781	6619
429.855	44059
429.930	63629
430.004	24181
430.078	33373
430.152	36999
430.226	86376
430.300	84833
430.374	13740
430.448	5080
430.522	10963
430.596	31463
430.670	21786
430.744	61031
430.818	74319
430.892	11968
430.966	1927
431.040	755
431.114	-297
431.188	-314
431.262	-153
431.336	7
431.410	3093
431.484	6356
431.557	4101
431.631	535
431.705	1749
431.779	14125
431.853	63360
431.927	41101
432.000	4456
432.074	939
432.148	547
432.222	500
432.295	-19
432.369	-49
432.443	1057
432.516	10391
432.590	27171
432.664	9433
432.737	600
432.811	-912
432.885	-509
432.958	-299
433.032	-1074
433.106	84
433.179	-811
433.253	-47
433.326	-708
433.400	-517
433.473	-838
433.547	-1143
433.620	-416
433.694	364
433.767	507
433.841	-839
433.914	-499
433.988	-367
434.061	144
434.134	7
434.208	-805
434.281	-1177
434.355	-516
434.428	-1048
434.501	-645
434.575	-1098
434.648	197
434.721	-518
434.795	-845
434.868	-1148
434.941	-519
435.014	-691
435.088	-148
435.161	766
435.234	564
435.307	1835
435.381	1191
435.454	1144
435.527	2588
435.600	2671
435.673	2740
435.746	1753
435.819	777
435.892	540
435.966	258
436.039	356
436.112	-301
436.185	-1027
436.258	-338
436.331	-968
436.404	-538
436.477	84
436.550	-1156
436.623	75
436.696	-343
436.769	-1074
436.842	-506
436.915	-436
436.987	484
437.060	-361
437.133	-1070
437.206	-943
437.279	-323
437.352	-810
437.425	-1165
437.498	191
437.570	990
437.643	356
437.716	-262
437.789	-606
437.861	17
437.934	2284
438.007	552
438.080	-717
438.152	121
438.225	398
438.298	15342
438.370	41085
438.443	14228
438.516	1938
438.588	-171
438.661	-468
438.734	-719
438.806	-554
438.879	41
438.951	-405
439.024	41
439.096	-511
439.169	-3
439.241	-482
439.314	-630
439.386	-185
439.459	718
439.531	983
439.604	-385
439.676	-347
439.749	-1330
439.821	-1447
439.893	-824
439.966	-867
440.038	-439
440.110	-325
440.183	-801
440.255	-1305
440.327	664
440.400	5336
440.472	23900
440.544	13799
440.617	498
440.689	917
440.761	473
440.833	1760
440.905	766
440.978	-801
441.050	-1199
441.122	182
441.194	-713
441.266	-632
441.338	-680
441.411	119
441.483	6740
441.555	9356
441.627	1503
441.699	1406
441.771	933
441.843	-433
441.915	-664
441.987	186
442.059	-100
442.131	592
442.203	1107
442.275	872
442.347	3675
442.419	6887
442.491	40250
442.563	93597
442.635	35336
442.706	11183
442.778	6031
442.850	966
442.922	677
442.994	1187
443.066	1801
443.137	1579
443.209	1969
443.281	4177
443.353	10510
443.425	47867
443.496	157589
443.568	151784
443.640	54684
443.711	9647
443.783	4190
443.855	1785
443.926	674
443.998	997
444.070	1805
444.141	1011
444.213	646
444.285	1300
444.356	1247
444.428	1033
444.499	69
444.571	335
444.642	756
444.714	127
444.785	877
444.857	1643
444.928	6106
445.000	3199
445.071	5121
445.143	5061
445.214	4734
445.285	9085
445.357	28517
445.428	101944
445.500	206618
445.571	139022
445.642	80083
445.714	25510
445.785	14050
445.856	3792
445.928	2211
445.999	1328
446.070	724
446.141	881
446.213	1068
446.284	-267
446.355	1455
446.426	350
446.497	264
446.569	795
446.640	1103
446.711	950
446.782	-58
446.853	1023
446.924	1091
446.995	-377
447.066	654
447.138	1608
447.209	604
447.280	-1027
447.351	-571
447.422	-548
447.493	-242
447.564	-453
447.635	-121
447.706	-993
447.777	-671
447.847	-742
447.918	-1211
447.989	657
448.060	560
448.131	3027
448.202	2012
448.273	11
448.344	380
448.414	-517
448.485	34
448.556	-242
448.627	-1282
448.698	-264
448.768	-1440
448.839	-314
448.910	740
448.981	715
449.051	312
449.122	-789
449.193	-586
449.263	-828
449.334	-707
449.405	-648
449.475	1245
449.546	423
449.616	1703
449.687	1215
449.758	-204
449.828	-514
449.899	-624
449.969	-942
450.040	-848
450.110	193
450.181	240
450.251	-399
450.322	347
450.392	229
450.463	-315
450.533	-402
450.604	-91
450.674	-310
450.744	-162
450.815	-359
450.885	273
450.955	489
451.026	-808
451.096	-47
451.166	-342
451.237	1935
451.307	6084
451.377	1766
451.447	-302
451.518	-753
451.588	-1
451.658	34
451.728	711
451.799	6648
451.869	6373
451.939	642
452.009	-331
452.079	-736
452.149	667
452.219	1094
452.289	8603
452.360	4723
452.430	408
452.500	486
452.570	1836
452.640	3849
452.710	11118
452.780	14200
452.850	7386
452.920	3359
452.990	856
453.060	1066
453.129	900
453.199	1099
453.269	10081
453.339	18490
453.409	26942
453.479	30236
453.549	42132
453.619	43158
453.688	13338
453.758	1638
453.828	-96
453.898	-101
453.968	353
454.037	-76
454.087	252
454.107	377
454.168	-253
454.177	-356
454.247	-384
454.249	-366
454.316	-151
454.330	-60
454.386	220
454.411	1404
454.456	3174
454.492	3977
454.525	4703
454.574	2017
454.595	854
454.655	550
454.665	519
454.734	597
454.736	664
454.804	2018
454.817	3109
454.873	6956
454.898	6982
454.943	6930
454.979	3953
455.013	1349
455.060	752
455.082	642
455.141	1261
455.152	1340
455.221	6466
455.222	6593
455.291	11636
455.303	11496
455.360	10026
455.384	13522
455.430	18501
455.465	13386
455.499	8860
455.546	7634
455.569	6936
455.627	3966
455.638	3511
455.707	602
455.708	613
455.777	-79
455.789	-44
455.846	184
455.869	297
455.916	520
455.950	562
455.985	595
456.031	229
456.054	-29
456.112	252
456.124	334
456.193	164
456.193	151
456.262	477
456.274	562
456.332	613
456.355	504
456.401	293
456.436	483
456.470	649
456.516	175
456.540	-49
456.597	386
456.609	471
456.678	321
456.678	310
456.747	72
456.759	4
456.817	26
456.840	121
456.886	155
456.920	107
456.955	211
457.001	897
457.024	1132
457.082	1658
457.093	1774
457.162	1855
457.163	1872
457.232	1595
457.243	1578
457.301	1420
457.324	1108
457.370	706
457.405	901
457.439	1198
457.485	1174
457.508	1084
457.566	1749
457.577	1995
457.646	2848
457.647	2870
457.715	5808
457.727	6679
457.784	12271
457.808	16184
457.853	20340
457.889	23231
457.922	22782
457.969	15449
457.991	15821
458.050	19440
458.060	20177
458.129	35027
458.130	35467
458.198	33767
458.211	30042
458.267	15848
458.292	10667
458.336	6916
458.372	6767
458.405	10131
458.453	15818
458.474	20042
458.533	36401
458.543	37489
458.611	57321
458.614	57570
458.680	33462
458.694	25775
458.749	11325
458.775	7811
458.818	4052
458.855	3179
458.887	2933
458.936	2306
458.955	2033
459.016	2213
459.024	2263
459.093	2212
459.097	2200
459.162	1544
459.177	1645
459.230	2268
459.257	2413
459.299	2399
459.338	2272
459.368	2094
459.418	1945
459.437	1942
459.499	1914
459.505	1906
459.574	1944
459.579	1943
459.643	1675
459.659	1616
459.711	1900
459.740	2080
459.780	1961
459.820	2094
459.849	2505
459.900	2845
459.917	2811
459.981	3004
459.986	2998
460.054	2388
460.061	2420
460.123	3080
460.141	3151
460.191	3546
460.222	3790
460.260	3764
460.302	4086
460.328	4220
460.382	4093
460.397	3910
460.462	3051
460.465	3118
460.534	4955
460.543	5129
460.602	10435
460.623	12809
460.671	19726
460.703	26609
460.739	24449
460.783	18185
460.808	15508
460.864	4710
460.876	3726
460.944	2575
460.945	2559
461.013	2439
461.024	2374
461.081	2031
461.104	2249
461.150	2346
461.184	2040
461.218	2103
461.264	2188
461.286	2157
461.345	2120
461.355	2129
461.423	2389
461.425	2386
461.491	2310
461.505	2434
461.559	4684
461.585	5670
461.628	9334
461.665	12746
461.696	13257
461.745	15484
461.764	13607
461.825	3551
461.832	3367
461.901	2490
461.905	2544
461.969	2597
461.985	2431
462.037	2584
462.065	2828
462.105	2909
462.145	3063
462.173	4493
462.225	6749
462.241	7257
462.305	10528
462.310	10249
462.378	5247
462.385	4512
462.446	3035
462.465	2886
462.514	2322
462.545	2091
462.582	2271
462.625	2290
462.650	2079
462.705	1961
462.718	2152
462.785	2620
462.786	2638
462.854	3598
462.865	3837
462.922	4967
462.945	5411
462.990	4115
463.025	2794
463.058	2629
463.104	2503
463.126	2237
463.184	1771
463.194	1907
463.262	2336
463.264	2370
463.330	2835
463.344	2896
463.398	3669
463.424	3967
463.466	3418
463.504	3090
463.533	3353
463.583	3623
463.601	3543
463.663	3176
463.669	3289
463.737	4567
463.743	4707
463.805	7752
463.823	8623
463.873	12422
463.903	14911
463.940	15102
463.982	15423
464.008	12578
464.062	5274
464.076	4856
464.142	2828
464.144	2794
464.211	2253
464.221	2153
464.279	2690
464.301	2878
464.347	3238
464.381	3749
464.414	4177
464.461	4278
464.482	4208
464.540	4340
464.550	4230
464.617	3215
464.620	3185
464.685	3588
464.699	3588
464.753	4256
464.779	4696
464.820	5163
464.859	5667
464.888	5513
464.938	5066
464.956	5408
465.018	6398
465.023	6215
465.091	3835
465.098	3595
465.158	4001
465.177	4152
465.226	4270
465.257	4284
465.293	4244
465.336	4006
465.361	4274
465.416	5171
465.428	5858
465.495	9476
465.496	9522
465.563	14273
465.575	15146
465.631	18328
465.654	19693
465.698	11935
465.734	5009
465.765	4531
465.813	3970
465.833	4056
465.893	4567
465.900	4507
465.968	3833
465.972	3782
466.035	3010
466.052	2818
466.102	3512
466.131	3857
466.170	3998
466.210	4145
466.237	4162
466.290	4218
466.304	4227
466.369	4166
466.372	4184
466.439	4563
466.449	4595
466.506	5373
466.528	5695
466.573	8634
466.607	10781
466.641	15014
466.687	20912
466.708	22626
466.766	27410
466.775	25194
466.842	7987
466.845	7156
466.909	4930
466.925	4449
466.977	4628
467.004	4720
467.044	4948
467.083	5158
467.111	6026
467.163	7658
467.178	7681
467.242	7705
467.245	7682
467.312	6974
467.321	6871
467.379	7412
467.400	7588
467.446	8284
467.480	8765
467.559	7488
467.638	6270
467.717	6215
467.796	7475
467.875	7093
467.955	7379
468.034	12950
468.113	26960
468.192	38902
468.271	11153
468.350	10338
468.429	12789
468.508	13580
468.588	9536
468.667	8695
468.746	8196
468.825	7096
468.904	5490
468.983	6865
469.062	10348
469.141	11872
469.220	5312
469.299	5273
469.378	5664
469.456	7308
469.535	6559
469.614	6675
469.693	7060
469.772	9181
469.851	11603
469.930	7855
470.009	6083
470.088	7464
470.166	9647
470.245	15535
470.324	19304
470.403	12230
470.482	7952
470.560	6368
470.639	5873
470.718	6983
470.797	5552
470.875	7308
470.954	8943
471.033	10215
471.111	4756
471.190	5164
471.269	4242
471.347	4055
471.426	4996
471.505	5682
471.583	6064
471.662	5917
471.740	4246
471.819	4949
471.898	3732
471.976	5244
472.055	5440
472.133	6073
472.212	7869
472.290	7696
472.369	4699
472.447	4923
472.526	3690
472.604	5355
472.683	4766
472.761	4975
472.839	3972
472.918	5159
472.996	5821
473.075	5937
473.153	5682
473.231	4818
473.310	5985
473.388	5469
473.466	5134
473.545	6115
473.623	6949
473.701	6846
473.780	5107
473.858	3571
473.936	6677
474.014	4992
474.093	6320
474.171	9026
474.249	12172
474.327	7432
474.405	4287
474.484	5041
474.562	3933
474.640	4625
474.718	4342
474.796	5409
474.874	4325
474.952	4143
475.030	3670
475.108	4475
475.187	4650
475.265	3770
475.343	5376
475.421	5892
475.499	4844
475.577	4954
475.655	6997
475.733	13389
475.811	23789
475.889	21151
475.966	12908
476.044	4412
476.122	5197
476.200	5891
476.278	3875
476.356	4520
476.434	4943
476.512	4398
476.590	4488
476.667	5279
476.745	3609
476.823	5534
476.901	4431
476.979	4358
477.056	4793
477.134	4442
477.212	5220
477.290	4672
477.367	3429
477.445	3779
477.523	3651
477.601	4448
477.678	4157
477.756	5903
477.834	5672
477.911	4139
477.989	3735
478.066	4223
478.144	4490
478.222	4047
478.299	4892
478.377	5092
478.454	2705
478.532	3890
478.609	3462
478.687	4071
478.764	3401
478.842	4061
478.919	4644
478.997	5087
479.074	3765
479.152	4777
479.229	6199
479.307	2999
479.384	3206
479.461	3852
479.539	3864
479.616	5852
479.694	4482
479.771	4983
479.848	5013
479.926	5646
480.003	8259
480.080	4350
480.157	3378
480.235	3820
480.312	4254
480.389	5542
480.467	7371
480.544	9879
480.621	5185
480.698	5462
480.775	4960
480.853	5499
480.930	4134
481.007	4482
481.084	5069
481.161	5825
481.238	5139
481.315	4168
481.392	3600
481.470	4115
481.547	4249
481.624	4246
481.701	4422
481.778	4883
481.855	4428
481.932	8383
482.009	12806
482.086	8564
482.163	5407
482.240	5929
482.317	6325
482.393	5589
482.470	5171
482.547	5670
482.624	4318
482.701	4636
482.778	4140
482.855	4503
482.932	3957
483.009	5193
483.085	4487
483.162	5914
483.239	6953
483.316	5050
483.393	5849
483.469	5214
483.546	5036
483.623	5471
483.699	4929
483.776	5376
483.853	4432
483.930	8125
484.006	20863
484.083	34198
484.160	13906
484.236	19045
484.313	13919
484.389	11603
484.466	10944
484.543	10319
484.619	11625
484.696	12913
484.772	12014
484.849	12169
484.925	8582
485.002	9301
485.078	10255
485.155	9043
485.231	8210
485.308	8006
485.384	8525
485.461	11618
485.537	19551
485.614	23370
485.690	8855
485.766	7508
485.843	8483
485.919	11168
485.995	11125
486.072	7151
486.148	7181
486.224	7574
486.301	8240
486.377	9769
486.453	9141
486.530	9360
486.606	12699
486.682	12321
486.758	16554
486.835	18839
486.911	14509
486.987	24965
487.063	21290
487.139	23812
487.215	17795
487.292	11571
487.368	12237
487.444	12623
487.520	15661
487.596	19085
487.672	42511
487.748	127966
487.824	184557
487.900	54347
487.976	18735
488.052	13504
488.128	13573
488.204	9802
488.280	9766
488.356	12022
488.432	24858
488.508	32860
488.584	10208
488.660	8199
488.736	7493
488.812	7699
488.888	8996
488.964	11419
489.039	22297
489.115	31624
489.191	17720
489.267	8240
489.343	7422
489.418	7033
489.494	6340
489.570	5106
489.646	7797
489.722	7023
489.797	7698
489.873	11897
489.949	25988
490.024	18837
490.100	6590
490.176	6574
490.251	7728
490.327	9513
490.403	5801
490.478	6577
490.554	4687
490.629	5012
490.705	5674
490.781	6298
490.856	5667
490.932	6473
491.007	6344
491.083	6181
491.158	5716
491.234	8712
491.309	20244
491.385	17969
491.460	5410
491.536	7786
491.611	5693
491.686	5845
491.762	7643
491.837	15638
491.913	22883
491.988	35123
492.063	36743
492.139	14815
492.214	8874
492.289	5963
492.365	5069
492.440	6123
492.515	6387
492.590	6285
492.666	4800
492.741	7716
492.816	11175
492.891	5110
492.967	5495
493.042	4169
493.117	4852
493.192	6070
493.267	12772
493.342	42091
493.418	52079
493.493	7407
493.568	5064
493.643	4262
493.718	5975
493.793	8676
493.868	7561
493.943	5800
494.018	4528
494.093	4251
494.168	4106
494.243	4278
494.318	4457
494.393	4335
494.468	3406
494.543	4070
494.618	4213
494.693	3896
494.768	3666
494.842	4453
494.917	4327
494.992	4677
495.067	4383
495.142	3871
495.217	3943
495.292	4765
495.366	5438
495.441	5640
495.516	6983
495.591	9523
495.665	30386
495.740	65642
495.815	21882
495.890	5728
495.964	3180
496.039	7381
496.114	4350
496.188	5235
496.263	5218
496.338	4938
496.412	5952
496.487	6646
496.561	5859
496.636	7151
496.710	5588
496.785	6128
496.860	6962
496.934	4938
497.009	6055
497.083	6551
497.158	6402
497.232	7627
497.307	8434
497.381	8199
497.455	8353
497.530	11622
497.604	7622
497.679	8017
497.753	13930
497.827	14977
497.902	12279
497.976	16818
498.050	54619
498.125	207742
498.199	174197
498.273	17439
498.348	11364
498.422	10615
498.496	9973
498.570	9396
498.645	8341
498.719	7245
498.793	10650
498.867	17104
498.941	24857
499.016	84627
499.090	215238
499.164	56558
499.238	7925
499.312	6482
499.386	8186
499.460	8039
499.534	7458
499.609	9982
499.683	13710
499.757	14799
499.831	36895
499.905	144998
499.979	111028
500.053	16616
500.127	14140
500.201	8654
500.275	7846
500.349	6644
500.422	7088
500.496	11535
500.570	23780
500.644	76849
500.718	135380
500.792	22759
500.866	7422
500.940	10094
501.013	7808
501.087	8114
501.161	11648
501.235	15796
501.309	44153
501.382	123091
501.456	88165
501.530	19982
501.603	35165
501.677	10673
501.751	4394
501.825	7988
501.898	16348
501.972	46656
502.046	22664
502.119	6317
502.193	20100
502.266	48979
502.340	18963
502.413	21701
502.487	38995
502.561	21298
502.634	5843
502.708	4876
502.781	3004
502.855	4614
502.928	2975
503.002	3535
503.075	3011
503.149	4203
503.222	4012
503.295	4506
503.369	7034
503.442	10155
503.516	36857
503.589	87086
503.662	47012
503.736	17503
503.809	41680
503.882	30857
503.956	53706
504.029	51937
504.102	67856
504.175	88217
504.249	30724
504.322	13851
504.395	9126
504.468	5967
504.542	4301
504.615	3579
504.688	3791
504.761	2722
504.834	5143
504.907	4689
504.980	7329
505.053	4355
505.127	1835
505.200	7452
505.273	6607
505.346	3520
505.419	2048
505.492	3449
505.565	1327
505.638	2829
505.711	1693
505.784	2491
505.857	2723
505.930	4641
506.003	1405
506.076	4871
506.149	3956
506.221	4161
506.294	6256
506.367	18045
506.440	61858
506.513	25758
506.586	5809
506.659	2648
506.731	2782
506.804	3517
506.877	4000
506.950	4825
507.022	3982
507.095	3424
507.168	4485
507.241	3817
507.313	2036
507.386	2786
507.459	4256
507.531	2798
507.604	1712
507.677	2686
507.749	1153
507.822	4402
507.894	5859
507.967	6985
508.040	3711
508.112	4070
508.185	4186
508.257	2998
508.330	6442
508.402	2962
508.475	4120
508.547	5071
508.620	4499
508.692	7858
508.765	4896
508.837	2121
508.909	3186
508.982	2397
509.054	3545
509.127	2800
509.199	2258
509.271	1924
509.344	1991
509.416	3120
509.488	2275
509.560	3600
509.633	3337
509.705	3739
509.777	3657
509.849	5265
509.922	3328
509.994	2982
510.066	4468
510.138	2315
510.210	8211
510.283	5502
510.355	5389
510.427	3742
510.499	4644
510.571	3849
510.643	2874
510.715	6602
510.787	2909
510.859	4905
510.931	4257
511.003	5342
511.076	6143
511.148	3657
511.219	3741
511.291	8200
511.363	9167
511.435	4670
511.507	2615
511.579	4177
511.651	4815
511.723	3699
511.795	2809
511.867	3556
511.939	4730
512.010	10253
512.082	6398
512.154	3318
512.226	3438
512.298	6706
512.369	7464
512.441	6121
512.513	5099
512.585	3113
512.656	4986
512.728	5090
512.800	3609
512.871	3803
512.943	3622
513.015	1793
513.086	3283
513.158	4174
513.230	2909
513.301	4818
513.373	6786
513.444	3499
513.516	2965
513.588	3308
513.659	3938
513.731	3990
513.802	3691
513.874	9546
513.945	10940
514.016	3521
514.088	3801
514.159	2495
514.231	5715
514.302	5787
514.374	4888
514.445	4085
514.516	12798
514.588	6380
514.659	5100
514.730	10262
514.802	7254
514.873	2665
514.944	6338
515.016	4996
515.087	4613
515.158	6638
515.229	9795
515.301	3157
515.372	5509
515.443	2766
515.514	2846
515.585	1904
515.656	4187
515.728	4823
515.799	2974
515.870	3980
515.941	4655
516.012	3750
516.083	7371
516.154	6332
516.225	8401
516.296	10746
516.367	8876
516.438	10115
516.509	14352
516.580	25178
516.651	95112
516.722	297850
516.793	89941
516.864	19830
516.935	20569
517.006	24373
517.077	33733
517.148	89063
517.219	401813
517.289	505113
517.360	101386
517.431	26743
517.502	10538
517.573	10734
517.643	9177
517.714	10507
517.785	12119
517.856	12993
517.926	17712
517.997	20980
518.068	25366
518.138	36026
518.209	63669
518.280	268422
518.350	837813
518.421	246372
518.492	32825
518.562	20746
518.633	20557
518.703	22956
518.774	48644
518.845	118758
518.915	100149
518.986	29266
519.056	15433
519.127	17972
519.197	26000
519.268	64951
519.338	36181
519.408	9660
519.479	10019
519.549	6625
519.620	6747
519.690	3992
519.760	3831
519.831	4450
519.901	4255
519.971	4553
520.042	4851
520.112	4825
520.182	6477
520.253	6153
520.323	3562
520.393	5649
520.463	9235
520.534	4614
520.604	13359
520.674	6357
520.744	6452
520.814	12568
520.885	11951
520.955	23170
521.025	78828
521.095	22600
521.165	5809
521.235	3483
521.305	2730
521.375	4053
521.445	4267
521.515	4248
521.585	4821
521.655	3172
521.725	4524
521.795	5274
521.865	1317
521.935	8034
522.005	3440
522.075	2544
522.145	4398
522.215	4198
522.285	6314
522.355	8747
522.424	18320
522.494	12756
522.564	6174
522.634	11361
522.704	29491
522.774	8407
522.843	3744
522.913	3528
522.983	4590
523.053	3162
523.122	4874
523.192	5035
523.262	16968
523.331	11859
523.401	3983
523.471	2992
523.540	3158
523.610	1945
523.680	2902
523.749	2728
523.819	4184
523.888	4059
523.958	2600
524.027	2710
524.097	2959
524.166	3505
524.236	2269
524.305	4899
524.375	2125
524.444	1937
524.514	4873
524.583	2736
524.653	3150
524.722	5207
524.791	2034
524.861	4959
524.930	1724
524.999	3018
525.069	4883
525.138	3754
525.207	4902
525.277	3948
525.346	3385
525.415	4325
525.484	4658
525.554	5928
525.623	6296
525.692	7159
525.761	8773
525.830	10418
525.900	13100
525.969	21266
526.038	39198
526.107	90075
526.176	245721
526.245	170560
526.314	52880
526.383	128661
526.452	157041
526.522	285882
526.591	225762
526.660	39412
526.729	22168
526.797	27949
526.867	50115
526.935	190067
527.004	515002
527.073	247453
527.142	23465
527.211	10473
527.280	8763
527.349	7734
527.418	3113
527.487	5139
527.555	2600
527.624	2837
527.693	1455
527.762	4712
527.831	2509
527.899	3476
527.968	2425
528.037	1380
528.106	4115
528.174	6273
528.243	6378
528.312	8287
528.380	6779
528.449	2301
528.518	3535
528.586	1600
528.655	2624
528.723	2599
528.792	1838
528.861	1499
528.929	808
528.998	4110
529.066	3786
529.135	6598
529.203	6394
529.272	8476
529.340	10680
529.409	10633
529.477	7989
529.545	9367
529.614	12191
529.682	12014
529.751	14016
529.819	17208
529.887	15328
529.956	13391
530.024	13932
530.092	11971
530.161	12167
530.229	15108
530.297	12942
530.365	13351
530.434	15073
530.502	14686
530.570	12859
530.638	10212
530.707	10414
530.775	11490
530.843	10478
530.911	12615
530.979	11447
531.047	13203
531.115	13044
531.183	11069
531.252	10867
531.320	10497
531.388	9718
531.456	12491
531.524	11576
531.592	14047
531.660	17564
531.728	13954
531.796	13071
531.864	12962
531.932	12715
532.000	13166
532.067	14184
532.135	14869
532.203	17564
532.271	16907
532.339	19896
532.407	26027
532.475	18753
532.542	16361
532.610	15607
532.678	17762
532.746	40824
532.814	65553
532.881	24205
532.949	16710
533.017	13845
533.084	13799
533.152	13331
533.220	13570
533.287	12778
533.355	14622
533.423	14653
533.490	14951
533.558	14132
533.625	13658
533.693	14024
533.761	13503
533.828	13249
533.896	12609
533.963	18664
534.031	18565
534.098	21078
534.166	15771
534.233	13913
534.300	14482
534.368	15103
534.435	13174
534.503	13774
534.570	14776
534.637	13885
534.705	15903
534.772	18517
534.840	30875
534.907	123993
534.974	123751
535.041	19022
535.109	12785
535.176	10051
535.243	10909
535.310	10025
535.378	9879
535.445	9869
535.512	8514
535.579	8239
535.646	7119
535.714	8220
535.781	9342
535.848	9974
535.915	11391
535.982	10448
536.049	11023
536.116	10529
536.183	9255
536.250	7139
536.317	7468
536.384	8552
536.451	9822
536.518	9599
536.585	7302
536.652	11384
536.719	11017
536.786	8044
536.853	7326
536.920	9558
536.987	12765
537.053	10602
537.120	33078
537.187	23352
537.254	6971
537.321	7105
537.388	7743
537.454	5466
537.521	5597
537.588	4460
537.654	6453
537.721	6828
537.788	6885
537.855	5189
537.921	6291
537.988	5557
538.055	6264
538.121	5072
538.188	4818
538.254	6806
538.321	10724
538.388	6877
538.454	5257
538.521	5308
538.587	4796
538.654	4603
538.720	3881
538.787	5221
538.853	5253
538.920	6109
538.986	5316
539.053	4039
539.119	5567
539.185	5041
539.252	6795
539.318	6152
539.385	6475
539.451	3956
539.517	5791
539.583	6555
539.650	10763
539.716	20546
539.782	6744
539.849	3913
539.915	5157
539.981	4218
540.047	5903
540.114	3948
540.180	5781
540.246	3865
540.312	6412
540.378	8860
540.444	9761
540.510	11398
540.576	23014
540.643	7677
540.709	3726
540.775	3997
540.841	3710
540.907	6673
540.973	8619
541.039	6252
541.105	6509
541.171	4509
541.237	3557
541.303	5192
541.369	6017
541.435	5488
541.500	8680
541.566	3835
541.632	3699
541.698	3286
541.764	4396
541.830	2677
541.896	3086
541.961	4528
542.027	2982
542.093	3136
542.159	4606
542.224	3447
542.290	7299
542.356	7743
542.421	8640
542.487	5564
542.553	3608
542.618	3844
542.684	3977
542.750	3535
542.815	5434
542.881	6959
542.947	21284
543.012	12558
543.078	4009
543.143	3516
543.209	4595
543.274	2930
543.340	5570
543.405	9928
543.471	10791
543.536	4318
543.602	4428
543.667	2371
543.732	4087
543.798	2523
543.863	4047
543.928	2853
543.994	2545
544.059	3658
544.124	4493
544.190	3499
544.255	4038
544.320	3158
544.386	3027
544.451	5238
544.516	5804
544.581	5068
544.646	13729
544.712	18097
544.777	5820
544.842	4743
544.907	5763
544.972	4290
545.037	4908
545.102	5114
545.168	5071
545.233	6491
545.298	5570
545.363	5148
545.428	6492
545.493	10393
545.558	15554
545.623	7680
545.688	4724
545.753	5121
545.818	4692
545.883	5460
545.947	5146
546.012	6321
546.077	5913
546.142	7399
546.207	5814
546.272	7252
546.337	7376
546.401	6798
546.466	6475
546.531	5965
546.596	8119
546.661	6785
546.725	8110
546.790	7183
546.855	8763
546.919	7933
546.984	10930
547.049	10696
547.113	11875
547.178	12145
547.243	15054
547.307	17128
547.372	19015
547.436	19925
547.501	19255
547.565	20679
547.630	20325
547.695	19019
547.759	21289
547.823	18058
547.888	18865
547.952	18887
548.017	21547
548.081	21358
548.146	23515
548.210	20982
548.274	21738
548.339	21295
548.403	19183
548.468	17657
548.532	17204
548.596	17899
548.660	19016
548.725	22015
548.789	22698
548.853	23613
548.917	20487
548.982	22486
549.046	20900
549.110	15944
549.174	17388
549.238	19863
549.303	20690
549.367	22684
549.431	20647
549.495	19105
549.559	20086
549.623	24145
549.687	25532
549.751	27030
549.815	29719
549.879	29449
549.943	27885
550.007	29832
550.071	28875
550.135	27843
550.199	24941
550.263	24995
550.327	25236
550.391	27174
550.455	27393
550.519	28287
550.582	30308
550.646	34705
550.710	36676
550.774	34458
550.838	35652
550.901	36281
550.965	40178
551.029	40422
551.093	47105
551.156	55074
551.220	76072
551.284	81651
551.347	53275
551.411	55021
551.475	50456
551.538	38628
551.602	33445
551.666	32306
551.729	29117
551.793	29373
551.856	28984
551.920	29701
551.983	28576
552.047	28320
552.110	28787
552.174	27246
552.237	29397
552.301	26699
552.364	25968
552.428	24566
552.491	26408
552.554	27614
552.618	26858
552.681	28516
552.745	29685
552.808	39411
552.871	47113
552.934	32975
552.998	27674
553.061	27220
553.124	25625
553.187	25050
553.251	26824
553.314	27566
553.377	28733
553.440	34054
553.503	58032
553.567	69156
553.630	31917
553.693	27892
553.756	28764
553.819	25985
553.882	25297
553.945	26836
554.008	26034
554.071	26058
554.134	25979
554.197	24599
554.260	23931
554.323	26088
554.386	25671
554.449	26183
554.512	25730
554.575	23608
554.638	25790
554.701	24399
554.764	23545
554.827	23618
554.889	23620
554.952	20811
555.015	20951
555.078	21756
555.141	22218
555.203	21240
555.266	21903
555.329	21270
555.391	20331
555.454	20257
555.517	19533
555.580	19193
555.642	18197
555.705	18375
555.768	17362
555.830	17272
555.893	17040
555.955	15703
556.018	16157
556.080	15767
556.143	16367
556.206	15992
556.268	15897
556.330	16378
556.393	15223
556.455	15492
556.518	17457
556.580	15801
556.643	13437
556.705	13802
556.767	13287
556.830	13690
556.892	14431
556.955	14910
557.017	13308
557.079	13340
557.142	12985
557.204	13027
557.266	17051
557.328	14579
557.391	10301
557.453	11465
557.515	11862
557.577	13125
557.639	12674
557.701	12449
557.764	12187
557.826	12881
557.888	15851
557.950	16204
558.012	19323
558.074	28291
558.136	73236
558.198	155873
558.260	46057
558.322	18013
558.384	19358
558.446	21013
558.508	24559
558.570	30835
558.632	40035
558.694	55834
558.756	99672
558.818	310034
558.880	618305
558.942	186172
559.003	171179
559.065	69135
559.127	29032
559.189	28891
559.251	36684
559.312	57637
559.374	154774
559.436	445562
559.498	174864
559.559	32232
559.621	28358
559.683	38963
559.744	69911
559.806	229896
559.868	285606
559.929	48441
559.991	32582
560.052	58149
560.114	162495
560.176	87351
560.237	95021
560.299	132304
560.360	23225
560.422	10250
560.483	9726
560.545	7448
560.606	7535
560.667	6555
560.729	6689
560.790	7100
560.852	6131
560.913	6542
560.974	6642
561.036	5461
561.097	5245
561.158	5910
561.220	6119
561.281	5224
561.342	6182
561.403	7369
561.465	7428
561.526	13341
561.587	13934
561.648	6255
561.709	5938
561.771	6323
561.832	5088
561.893	4843
561.954	5737
562.015	4497
562.076	5075
562.137	4861
562.198	4948
562.259	4015
562.320	5100
562.381	5438
562.442	6719
562.503	5540
562.564	4692
562.625	4877
562.686	5960
562.747	4746
562.808	4844
562.869	4711
562.930	6131
562.991	4929
563.051	5161
563.112	5351
563.173	4949
563.234	4205
563.294	4764
563.355	4733
563.416	4710
563.477	5126
563.537	4699
563.598	4870
563.659	4171
563.720	4262
563.780	4678
563.841	3846
563.901	5050
563.962	4288
564.023	5480
564.083	3894
564.144	4867
564.204	4589
564.265	5009
564.325	5849
564.386	10946
564.446	8000
564.507	4132
564.567	3386
564.628	3331
564.688	3912
564.749	4451
564.809	5052
564.869	5718
564.930	4296
564.990	5019
565.050	3539
565.111	4590
565.171	4279
565.231	5118
565.292	5244
565.352	3354
565.412	3914
565.472	4369
565.532	4673
565.593	4267
565.653	3998
565.713	4669
565.773	4583
565.833	5293
565.893	6416
565.953	4525
566.013	3904
566.074	5589
566.134	6769
566.194	8784
566.254	8581
566.314	5849
566.374	4139
566.434	4796
566.494	4170
566.554	4981
566.614	3984
566.673	5079
566.733	4884
566.793	5071
566.853	5029
566.913	5483
566.973	4421
567.033	5772
567.092	5486
567.152	5889
567.212	5895
567.272	5994
567.331	6265
567.391	5529
567.451	5984
567.511	7852
567.570	8108
567.630	5868
567.690	5445
567.749	5159
567.809	5493
567.868	5158
567.928	6570
567.988	6583
568.047	6389
568.107	6541
568.166	8762
568.226	10799
568.285	13472
568.345	13397
568.404	12357
568.464	10854
568.523	10153
568.582	10214
568.642	10954
568.701	12718
568.761	16112
568.820	20935
568.879	21711
568.939	19788
568.998	13859
569.057	11665
569.116	10001
569.176	8129
569.235	7835
569.294	7418
569.353	6383
569.413	6945
569.472	6147
569.531	6364
569.590	5575
569.649	4735
569.708	4770
569.767	5650
569.827	5962
569.886	4853
569.945	5362
570.004	5203
570.063	5160
570.122	5703
570.181	5587
570.240	6106
570.299	5782
570.358	5462
570.417	4539
570.475	4608
570.534	5080
570.593	5511
570.652	4756
570.711	5124
570.770	5553
570.829	6291
570.887	5522
570.946	5398
571.005	5210
571.064	5311
571.122	6267
571.181	5939
571.240	5116
571.299	3991
571.357	4799
571.416	6203
571.475	5988
571.533	5878
571.592	6155
571.650	5587
571.709	4823
571.768	5336
571.826	5096
571.885	5090
571.943	4692
572.002	4724
572.060	4674
572.119	5253
572.177	5084
572.236	4805
572.294	5083
572.352	5639
572.411	3917
572.469	4353
572.528	4151
572.586	4408
572.644	5326
572.703	5357
572.761	4781
572.819	4193
572.877	4920
572.936	3535
572.994	4309
573.052	4333
573.110	4629
573.169	5093
573.227	3226
573.285	4042
573.343	3894
573.401	4073
573.459	4930
573.517	4147
573.576	4204
573.634	4557
573.692	3836
573.750	4268
573.808	4536
573.866	5243
573.924	5505
573.982	5774
574.040	3913
574.098	3861
574.155	4131
574.213	4632
574.271	4060
574.329	5017
574.387	3456
574.445	3982
574.503	4191
574.560	2735
574.618	3401
574.676	3769
574.734	4404
574.792	3879
574.849	3857
574.907	3581
574.965	2943
575.022	3104
575.080	3533
575.138	4055
575.195	3307
575.253	3196
575.311	3002
575.368	3384
575.426	3379
575.483	4525
575.541	3897
575.598	3576
575.656	3336
575.713	3994
575.771	5146
575.828	4165
575.886	3031
575.943	3838
576.001	4365
576.058	4326
576.115	4438
576.173	4771
576.230	5202
576.287	4967
576.345	4598
576.402	4442
576.459	3487
576.517	4841
576.574	5371
576.631	4209
576.688	3787
576.746	3723
576.803	4015
576.860	3583
576.917	4389
576.974	3617
577.031	3562
577.089	4169
577.146	3647
577.203	3792
577.260	4242
577.317	4707
577.374	5018
577.431	4694
577.488	4264
577.545	3215
577.602	4965
577.659	3536
577.716	5374
577.773	4953
577.830	3719
577.886	5430
577.943	4174
578.000	5116
578.057	5452
578.114	6846
578.171	7826
578.227	12082
578.284	10513
578.341	8610
578.398	6688
578.454	6510
578.511	6215
578.568	6644
578.625	4526
578.681	5140
578.738	5089
578.794	4389
578.851	5089
578.908	4154
578.964	4325
579.021	4886
579.077	4343
579.134	4930
579.190	4351
579.247	4771
579.303	4446
579.360	4640
579.416	4688
579.473	4644
579.529	3863
579.586	4858
579.642	5970
579.698	5487
579.755	6031
579.811	6410
579.867	7058
579.924	7093
579.980	8401
580.036	9631
580.093	11893
580.149	18643
580.205	21428
580.261	15503
580.317	12161
580.374	10889
580.430	10437
580.486	9394
580.542	7990
580.598	8015
580.619	7905
580.654	7720
580.692	7609
580.710	7560
580.765	7204
580.767	7196
580.823	7868
580.838	8007
580.879	8368
580.911	7834
580.935	7463
580.984	8181
580.991	8284
581.047	8514
581.057	8568
581.103	8878
581.130	9698
581.159	10517
581.203	11022
581.215	11164
581.270	12157
581.276	11973
581.326	10229
581.349	9922
581.382	9487
581.422	9537
581.438	9555
581.494	9943
581.494	9928
581.550	8625
581.567	9053
581.606	9878
581.640	9454
581.661	9257
581.713	11121
581.717	11261
581.773	9805
581.786	9777
581.829	9720
581.859	10044
581.885	10335
581.932	10607
581.940	10664
581.996	11579
582.004	11496
582.052	10906
582.077	10825
582.107	10795
582.150	11215
582.163	11357
582.219	11715
582.223	11673
582.274	11116
582.296	11443
582.330	11918
582.368	12514
582.386	12870
582.441	13172
582.441	13171
582.497	12848
582.514	13032
582.552	13679
582.587	13942
582.608	13988
582.659	14337
582.663	14379
582.719	14754
582.732	14681
582.774	14533
582.805	15543
582.830	16384
582.877	18015
582.885	18317
582.941	18921
582.950	19423
582.996	22208
583.023	24375
583.052	26697
583.095	27382
583.107	27479
583.162	27433
583.168	27527
583.218	27539
583.240	26226
583.273	24313
583.313	22090
583.328	21278
583.384	19235
583.385	19180
583.439	17809
583.458	17508
583.494	16908
583.531	16394
583.549	16281
583.603	16213
583.605	16206
583.660	15946
583.676	15991
583.715	16082
583.748	15925
583.770	15926
583.820	16671
583.825	16715
583.881	15473
583.893	15380
583.936	15324
583.965	15600
583.991	15817
584.038	16435
584.046	16530
584.101	15852
584.110	15963
584.156	16920
584.183	17092
584.211	17035
584.255	17263
584.266	17409
584.321	18275
584.328	18309
584.376	18385
584.400	18248
584.431	18073
584.472	18691
584.486	18945
584.541	19973
584.545	19970
584.596	20155
584.617	20123
584.651	20039
584.689	20903
584.706	21232
584.761	21141
584.762	21129
584.816	21083
584.834	21525
584.871	22262
584.906	22435
584.926	22572
584.978	22378
584.980	22381
585.035	22701
585.051	22884
585.090	23438
585.123	23812
585.145	24076
585.195	24063
585.200	24116
585.254	26218
585.267	26583
585.309	28159
585.340	29217
585.364	30012
585.412	31976
585.419	32359
585.473	38220
585.484	39478
585.528	47593
585.556	56258
585.583	71801
585.628	106841
585.637	119926
585.692	232569
585.700	250684
585.747	313910
585.772	274064
585.801	177769
585.845	73605
585.856	61391
585.910	39091
585.917	36937
585.965	32762
585.989	31186
586.019	30210
586.061	28966
586.074	28701
586.128	27892
586.133	27789
586.183	26852
586.205	26509
586.237	25996
586.277	24625
586.292	24225
586.346	23726
586.349	23667
586.401	23249
586.421	22930
586.455	22601
586.493	22853
586.509	23504
586.564	25481
586.565	25556
586.618	31933
586.637	32566
586.672	29207
586.709	25405
586.727	24646
586.781	24415
586.781	24439
586.835	22306
586.853	21824
586.889	21107
586.925	20323
586.944	20203
586.996	20648
586.998	20687
587.052	20527
587.068	20407
587.106	20405
587.140	20697
587.161	20768
587.212	20799
587.215	20849
587.269	20842
587.284	20917
587.323	21331
587.356	21475
587.377	21731
587.427	22836
587.431	22914
587.485	22789
587.499	22852
587.539	23987
587.571	24758
587.593	25095
587.643	25755
587.648	25847
587.702	26151
587.715	26358
587.755	27326
587.786	27730
587.810	28131
587.858	29015
587.864	29328
587.917	32463
587.930	33008
587.971	34217
588.001	35211
588.025	36448
588.073	38942
588.079	39368
588.133	42558
588.145	43414
588.187	46981
588.217	49237
588.241	52046
588.288	57746
588.295	58721
588.348	66584
588.360	68296
588.402	75601
588.431	80906
588.456	86782
588.503	98708
588.510	100969
588.564	119198
588.575	123220
588.617	146119
588.646	163733
588.671	186668
588.718	233288
588.725	246011
588.778	350309
588.789	373271
588.832	519094
588.861	623708
588.886	708690
588.932	859357
588.939	861358
588.993	816325
589.004	805426
589.047	741137
589.075	676215
589.100	568425
589.147	378151
589.154	364754
589.207	269646
589.218	251301
589.261	231044
589.290	220019
589.314	229355
589.361	252412
589.368	264054
589.421	364691
589.433	387752
589.475	548054
589.504	664698
589.528	721280
589.576	800641
589.582	790873
589.635	658885
589.647	624458
589.689	427621
589.718	296323
589.742	247434
589.790	158623
589.795	154513
589.849	117414
589.861	109212
589.902	96888
589.932	87269
589.955	80192
590.004	65211
590.009	64657
590.062	58447
590.075	56722
590.115	52432
590.146	49212
590.168	48045
590.218	45005
590.222	44867
590.275	41964
590.289	41135
590.328	40187
590.360	39201
590.381	38474
590.431	36521
590.435	36544
590.488	35314
590.503	34988
590.541	34415
590.574	33665
590.594	33355
590.645	32602
590.647	32659
590.700	31805
590.716	31516
590.753	31575
590.787	31360
590.806	31153
590.859	30618
590.859	30701
590.912	30929
590.930	31047
590.965	31005
591.001	30664
591.018	30536
591.071	29910
591.072	29820
591.124	29598
591.143	29462
591.177	28990
591.214	28219
591.230	28601
591.283	29668
591.285	29630
591.336	29039
591.356	28652
591.389	29047
591.427	29249
591.442	29084
591.495	28318
591.498	28182
591.547	28451
591.569	28483
591.600	28238
591.640	27569
591.653	27868
591.706	28947
591.711	28982
591.759	29345
591.782	29392
591.811	30120
591.853	31035
591.864	30866
591.917	29389
591.924	29110
591.969	29203
591.995	29104
592.022	29418
592.066	29750
592.075	30054
592.127	31422
592.137	31582
592.180	33180
592.208	34060
592.233	33042
592.279	30827
592.285	30950
592.338	31282
592.350	31262
592.390	30401
592.421	29623
592.443	30223
592.491	31269
592.495	31344
592.548	31164
592.562	31033
592.600	30676
592.633	30212
592.653	30298
592.704	30153
592.705	30366
592.775	32385
592.846	31592
592.916	32031
592.987	32269
593.058	33168
593.128	31686
593.199	33188
593.270	32697
593.341	31567
593.411	34023
593.482	33385
593.553	35108
593.623	34981
593.694	36586
593.764	37680
593.835	35282
593.906	34691
593.976	36265
594.047	37625
594.117	40459
594.188	41860
594.258	38670
594.329	40212
594.399	39875
594.470	40164
594.540	40801
594.611	42012
594.681	40854
594.751	41543
594.822	43308
594.892	45537
594.963	46406
595.033	46562
595.103	48448
595.174	49288
595.244	55036
595.314	59558
595.384	52166
595.455	52219
595.525	54358
595.595	56449
595.665	55993
595.736	55409
595.806	57538
595.876	57365
595.946	56794
596.016	59316
596.087	61352
596.157	62639
596.227	62241
596.297	65942
596.367	67721
596.437	72411
596.507	76746
596.577	79718
596.647	76104
596.717	77476
596.787	79501
596.857	79782
596.927	80773
596.997	81993
597.067	81919
597.137	86415
597.207	86159
597.277	87527
597.347	83930
597.417	84734
597.487	85682
597.557	88716
597.626	88972
597.696	91869
597.766	93570
597.836	96036
597.906	88233
597.975	88030
598.045	89557
598.115	93497
598.185	96904
598.254	105360
598.324	112306
598.394	114716
598.464	113162
598.533	114222
598.603	109444
598.672	109334
598.742	112899
598.812	113082
598.881	116084
598.951	118677
599.020	120260
599.090	125130
599.159	127961
599.229	127883
599.299	127709
599.368	132258
599.437	131847
599.507	130174
599.576	130226
599.646	132328
599.715	134045
599.785	135253
599.854	136758
599.924	138632
599.993	139851
600.062	143526
600.132	147283
600.201	153964
600.270	164856
600.340	170650
600.409	172873
600.478	175092
600.547	179163
600.617	178010
600.686	167607
600.755	168463
600.824	168374
600.894	172029
600.963	175435
601.032	179539
601.101	182689
601.170	183963
601.239	187652
601.308	192059
601.378	197491
601.447	201029
601.516	206827
601.585	212708
601.654	218296
601.723	224943
601.792	231015
601.861	239347
601.930	254016
601.999	261656
602.068	259632
602.137	260337
602.206	261130
602.275	266632
602.343	268847
602.412	271402
602.481	274851
602.550	274083
602.619	281583
602.688	279200
602.756	285384
602.825	280108
602.894	290187
602.963	284709
603.032	290885
603.100	289799
603.169	282734
603.238	297354
603.307	277924
603.375	283997
603.444	298222
603.513	268551
603.581	281454
603.650	298821
603.719	238303
603.787	223976
603.856	229657
603.924	233558
603.993	239628
604.061	246648
604.130	252498
604.198	258159
604.267	261224
604.335	268637
604.404	267944
604.472	279683
604.541	277816
604.609	291448
604.678	300550
604.746	306849
604.815	322286
604.883	301277
604.951	293649
605.020	302393
605.088	271826
605.156	253433
605.225	252837
605.293	249696
605.361	254467
605.429	246651
605.498	258859
605.566	245619
605.634	262873
605.702	253925
605.771	258585
605.839	266421
605.907	241764
605.975	261615
606.043	243590
606.111	236856
606.180	268666
606.248	229003
606.316	226683
606.384	258157
606.452	174395
606.520	128143
606.588	126508
606.656	127640
606.724	123957
606.792	120022
606.860	108999
606.928	103230
606.996	99774
607.064	97966
607.132	99119
607.200	105736
607.267	108235
607.335	109062
607.403	112714
607.471	109356
607.539	108072
607.607	106904
607.674	96498
607.742	96693
607.810	95676
607.878	94875
607.946	95303
608.013	100688
608.081	100558
608.149	100625
608.216	102177
608.284	104896
608.352	101614
608.419	103531
608.487	104053
608.555	96205
608.622	97652
608.690	101458
608.757	105990
608.825	108481
608.893	106339
608.960	101071
609.028	99157
609.095	101026
609.163	95329
609.230	86087
609.298	79267
609.365	82185
609.432	88735
609.500	96652
609.567	110004
609.635	127692
609.702	134070
609.769	128306
609.837	101754
609.904	89840
609.971	93428
610.039	110027
610.106	148650
610.173	285423
610.241	637042
610.308	493623
610.375	234646
610.442	120155
610.509	97543
610.577	96885
610.644	93507
610.711	94724
610.778	97132
610.845	101140
610.912	105373
610.980	112593
611.047	114272
611.114	109799
611.181	103481
611.248	102000
611.315	109643
611.382	111560
611.449	115819
611.516	118873
611.583	115859
611.650	117237
611.717	117234
611.784	121389
611.851	127840
611.918	136627
611.984	161453
612.051	230669
612.118	455949
612.185	1015547
612.252	655872
612.319	207465
612.386	160972
612.452	144503
612.519	135989
612.586	135616
612.653	134843
612.719	136098
612.786	131891
612.853	122419
612.919	118046
612.986	122798
613.053	114258
613.120	107968
613.186	104556
613.253	107558
613.319	104016
613.386	105731
613.453	107737
613.519	108583
613.586	107699
613.652	112336
613.719	109176
613.785	110614
613.852	108930
613.918	108799
613.985	111529
614.051	119054
614.118	129783
614.184	123835
614.250	108820
614.317	110126
614.383	107857
614.449	112695
614.516	110532
614.582	112694
614.648	108993
614.715	109176
614.781	105359
614.847	108473
614.914	105672
614.980	103897
615.046	105651
615.112	108509
615.179	107290
615.245	108925
615.311	107521
615.377	114029
615.443	115646
615.509	114878
615.575	117185
615.642	115648
615.708	120401
615.774	125659
615.840	133595
615.906	147221
615.972	179691
616.038	272249
616.104	543981
616.170	1158584
616.236	966764
616.302	303256
616.368	212437
616.434	159850
616.500	145447
616.565	157139
616.631	190946
616.697	163992
616.763	165777
616.829	239059
616.895	407668
616.961	393815
617.026	188715
617.092	131444
617.158	121246
617.224	118264
617.289	109332
617.355	104640
617.421	102551
617.487	104126
617.552	97579
617.618	97825
617.684	96392
617.749	100111
617.815	95436
617.880	93662
617.946	93948
618.012	96564
618.077	97835
618.143	93843
618.208	94769
618.274	102057
618.339	103547
618.405	87138
618.470	87665
618.536	87028
618.601	87910
618.667	82523
618.732	78597
618.798	78242
618.863	78710
618.928	77390
618.994	78696
619.059	79124
619.124	82339
619.190	79210
619.255	78168
619.320	78354
619.386	78340
619.451	77898
619.516	76410
619.581	78533
619.647	79924
619.712	80478
619.777	77891
619.842	78015
619.907	80373
619.972	80677
620.038	80167
620.103	79692
620.168	79034
620.233	80720
620.298	79642
620.363	81271
620.428	84453
620.493	85538
620.558	85516
620.623	87406
620.688	86433
620.753	87235
620.818	88253
620.883	88618
620.948	87875
621.013	88759
621.078	85947
621.143	87088
621.207	90337
621.272	87635
621.337	86764
621.402	87560
621.467	89855
621.532	90099
621.596	87766
621.661	85829
621.726	85033
621.791	85755
621.855	86012
621.920	88294
621.985	88406
622.049	91389
622.114	90314
622.179	91615
622.243	91880
622.308	93477
622.373	97527
622.437	94908
622.502	90218
622.566	90333
622.631	89303
622.695	91848
622.760	90543
622.824	91595
622.889	91139
622.953	92125
623.018	98511
623.082	98480
623.147	96733
623.211	95389
623.276	94106
623.340	88533
623.404	88194
623.469	90055
623.533	90525
623.597	87265
623.662	86092
623.726	81441
623.790	78415
623.854	79356
623.919	79386
623.983	78994
624.047	79928
624.111	79938
624.176	81131
624.240	81994
624.304	86462
624.368	80548
624.432	80775
624.496	81399
624.560	85753
624.625	86706
624.689	86329
624.753	87806
624.817	82688
624.881	81207
624.945	76833
625.009	74957
625.073	76108
625.137	75726
625.201	79581
625.265	80192
625.329	76728
625.393	76923
625.456	74501
625.520	76950
625.584	79944
625.648	84808
625.712	92781
625.776	115967
625.839	114628
625.903	74517
625.967	65742
626.031	78549
626.095	91975
626.158	72397
626.222	58511
626.286	56050
626.349	54630
626.413	52095
626.477	52366
626.540	50893
626.604	49579
626.668	50794
626.731	48553
626.795	50164
626.858	49018
626.922	46460
626.986	46316
627.049	45163
627.113	48140
627.176	48329
627.240	45535
627.303	44314
627.366	43492
627.430	44471
627.493	43949
627.557	44291
627.620	46473
627.684	44303
627.747	44322
627.810	39566
627.874	37843
627.937	37523
628.000	41303
628.064	38492
628.127	31593
628.190	33593
628.253	32473
628.317	31705
628.380	31269
628.443	30939
628.506	30365
628.569	28731
628.632	25427
628.696	27406
628.759	26196
628.822	24876
628.885	25668
628.948	25417
629.011	24461
629.074	23256
629.137	24102
629.200	22933
629.263	23801
629.326	22257
629.389	22654
629.452	22781
629.515	22271
629.578	21938
629.641	23392
629.704	22074
629.767	21855
629.830	22256
629.892	20207
629.955	20334
630.018	22957
630.081	21491
630.144	21906
630.207	20421
630.269	22585
630.332	20061
630.395	20820
630.458	18990
630.520	17652
630.583	19882
630.646	19618
630.708	19243
630.771	19114
630.834	20766
630.896	19437
630.959	19636
631.021	18196
631.084	20103
631.146	20002
631.209	21934
631.272	19282
631.334	19415
631.397	19768
631.459	19484
631.522	21047
631.584	20450
631.646	22255
631.709	22781
631.771	23974
631.834	22151
631.896	21404
631.958	19868
632.021	20123
632.083	18243
632.145	18515
632.208	17554
632.270	19511
632.332	17546
632.395	16509
632.457	18734
632.519	17447
632.581	19412
632.643	16608
632.706	18579
632.768	16605
632.830	18666
632.892	17813
632.954	17768
633.016	18914
633.078	17898
633.141	17949
633.203	17666
633.265	18580
633.327	18444
633.389	16805
633.451	18887
633.513	18170
633.575	19465
633.637	18285
633.698	18453
633.760	20218
633.822	19915
633.884	19706
633.946	20489
634.008	19697
634.070	22422
634.132	23484
634.193	24490
634.255	25109
634.317	25573
634.379	24817
634.441	22747
634.502	20684
634.564	19986
634.626	18695
634.687	18363
634.749	18028
634.811	18673
634.873	15963
634.934	17676
634.996	18261
635.057	16903
635.119	17110
635.181	18324
635.242	18204
635.304	16347
635.365	20737
635.427	16774
635.488	18528
635.550	17437
635.611	18204
635.673	16699
635.734	20194
635.796	20414
635.857	22210
635.918	22043
635.980	25167
636.041	26163
636.102	27559
636.164	27384
636.225	25831
636.286	20948
636.348	21109
636.409	19208
636.470	18231
636.531	19515
636.593	17274
636.654	18105
636.715	16436
636.776	16196
636.838	15542
636.899	17156
636.960	14835
637.021	16009
637.082	14578
637.143	16912
637.204	14230
637.265	14739
637.326	15008
637.387	15271
637.448	14361
637.509	15405
637.570	14643
637.631	16115
637.692	13538
637.753	13461
637.814	14662
637.875	14902
637.936	14353
637.997	13910
638.058	14598
638.119	15650
638.179	14354
638.240	13952
638.301	13810
638.362	13861
638.423	13671
638.483	15579
638.544	12270
638.605	14297
638.666	11941
638.726	13803
638.787	14809
638.848	13317
638.908	13115
638.969	13332
639.030	13652
639.090	12254
639.151	12388
639.211	14776
639.272	14365
639.332	16308
639.393	15155
639.453	13927
639.514	14383
639.574	13412
639.635	12395
639.695	13981
639.756	12080
639.816	14029
639.877	12356
639.937	15480
639.997	16475
640.058	12575
640.118	12213
640.178	13954
640.239	12437
640.299	12653
640.359	12224
640.420	12929
640.480	14377
640.540	15176
640.600	15100
640.661	14896
640.721	14084
640.781	15656
640.841	12206
640.901	14397
640.961	12877
641.021	14532
641.082	13237
641.142	14792
641.202	14230
641.262	10752
641.322	12581
641.382	11913
641.442	12936
641.502	12467
641.562	12395
641.622	12310
641.682	12717
641.742	13858
641.802	13391
641.861	13030
641.921	11442
641.981	13123
642.041	12381
642.101	11590
642.161	10343
642.221	11101
642.280	10948
642.340	11532
642.400	10547
642.460	12403
642.519	11189
642.579	11911
642.639	12554
642.698	10167
642.758	13931
642.818	11886
642.877	10751
642.937	12604
642.997	13019
643.056	14529
643.116	10452
643.175	13543
643.235	12187
643.294	13120
643.354	13382
643.414	15106
643.473	16653
643.532	19972
643.592	25703
643.651	40417
643.711	71893
643.770	141317
643.830	340702
643.889	630450
643.948	154810
644.008	35400
644.067	22281
644.126	18126
644.186	15091
644.245	14355
644.304	12058
644.363	14698
644.423	10491
644.482	12978
644.541	13339
644.600	12056
644.659	16888
644.719	19809
644.778	28070
644.837	48234
644.896	100728
644.955	219070
645.014	66640
645.073	19562
645.132	14770
645.191	14115
645.250	11752
645.309	14294
645.368	15198
645.427	19274
645.486	29032
645.545	48258
645.604	15809
645.663	12291
645.722	11143
645.781	13066
645.840	14276
645.898	17743
645.957	24847
646.016	38044
646.075	68663
646.134	135012
646.192	362906
646.251	465754
646.310	76019
646.369	25252
646.427	20693
646.486	15269
646.545	12945
646.603	11652
646.662	11800
646.721	10962
646.779	10019
646.838	11072
646.896	14728
646.955	17789
647.014	30062
647.072	56925
647.131	148440
647.189	63208
647.248	12244
647.306	11324
647.365	9965
647.423	8305
647.481	9793
647.540	7689
647.598	8264
647.657	8990
647.715	8352
647.773	7852
647.832	8936
647.890	6371
647.948	7258
648.007	8187
648.065	7464
648.123	7292
648.181	8575
648.240	8906
648.298	7251
648.356	6465
648.414	6694
648.472	7664
648.531	6874
648.589	6478
648.647	6564
648.705	7149
648.763	7274
648.821	8106
648.879	7044
648.937	8755
648.995	10864
649.053	12992
649.111	19041
649.169	32019
649.227	57035
649.285	123565
649.343	334818
649.401	138636
649.459	24735
649.516	16700
649.574	12494
649.632	19778
649.690	20991
649.748	17511
649.806	23798
649.863	43306
649.921	104707
649.979	61135
650.037	10785
650.094	6536
650.152	6934
650.210	6299
650.268	6441
650.325	6678
650.383	6003
650.440	4557
650.498	5384
650.556	6260
650.613	4306
650.671	5775
650.728	5703
650.786	5970
650.843	7463
650.901	4713
650.958	5142
651.016	5037
651.073	5033
651.131	4561
651.188	4405
651.246	4845
651.303	3676
651.360	4979
651.418	4562
651.475	4646
651.532	3556
651.590	5110
651.647	3737
651.704	4608
651.762	4375
651.819	4711
651.876	4658
651.933	4295
651.990	4794
652.048	2666
652.105	3899
652.162	4452
652.219	3523
652.276	4698
652.333	4133
652.390	3245
652.448	4031
652.505	4428
652.562	4326
652.619	4718
652.676	6690
652.733	6846
652.790	3664
652.847	3218
652.904	4420
652.961	2918
653.017	3298
653.074	4672
653.131	4405
653.188	3158
653.245	3642
653.302	3524
653.359	2541
653.415	3820
653.472	3904
653.529	4239
653.586	2974
653.642	3854
653.699	4266
653.756	3741
653.813	3734
653.869	4225
653.926	3063
653.983	4336
654.039	3383
654.096	3192
654.152	4171
654.209	2770
654.266	3965
654.322	3144
654.379	4234
654.435	4608
654.492	2961
654.548	4953
654.605	4416
654.661	5346
654.717	3943
654.774	4444
654.830	4078
654.887	3744
654.943	3462
655.000	4209
655.056	3655
655.112	3393
655.168	2387
655.225	4030
655.281	3825
655.337	4627
655.394	5908
655.450	5015
655.506	4300
655.562	6443
655.618	4869
655.675	2689
655.731	3470
655.787	3007
655.843	3677
655.899	1911
655.955	3253
656.011	3856
656.067	2480
656.123	4263
656.179	2867
656.235	4596
656.291	2232
656.347	5101
656.403	2087
656.459	3525
656.515	2913
656.571	4252
656.627	3763
656.683	3346
656.739	3404
656.795	4075
656.850	3565
656.906	3579
656.962	3682
657.018	3272
657.074	3777
657.129	4599
657.185	7477
657.241	14899
657.297	7578
657.352	3932
657.408	3240
657.464	4226
657.519	3174
657.575	2094
657.630	2574
657.686	3359
657.742	2663
657.797	3665
657.853	2911
657.908	4261
657.964	2037
658.019	3036
658.075	2990
658.130	4129
658.186	2508
658.241	3849
658.297	1921
658.352	2681
658.407	2642
658.463	2124
658.518	3620
658.573	2971
658.629	2188
658.684	2352
658.739	3775
658.795	2690
658.850	2767
658.905	3193
658.960	2646
659.016	1987
659.071	3267
659.126	3222
659.181	2749
659.236	4199
659.291	4692
659.346	4244
659.401	3079
659.457	4245
659.512	4451
659.567	4259
659.622	2336
659.677	2543
659.732	1628
659.787	2367
659.842	3403
659.897	4374
659.952	2343
660.007	2762
660.061	2736
660.116	1640
660.171	1647
660.226	2540
660.281	3239
660.336	2054
660.391	3101
660.445	2072
660.500	2443
660.555	2385
660.610	1857
660.664	4237
660.719	1878
660.774	2726
660.828	2608
660.883	2840
660.938	3518
660.992	2395
661.047	2867
661.101	2370
661.156	2661
661.211	2621
661.265	3087
661.320	2371
661.374	2240
661.429	2320
661.483	3128
661.538	1799
661.592	2000
661.647	2855
661.701	3266
661.755	2490
661.810	3084
661.864	2204
661.919	2052
661.973	2939
662.027	2166
662.081	1738
662.136	2027
662.190	3367
662.244	2404
662.299	1938
662.353	2569
662.407	2502
662.461	2564
662.515	2688
662.569	2376
662.624	3003
662.678	1898
662.732	1941
662.786	1605
662.840	3287
662.894	1992
662.948	1318
663.002	1738
663.056	2642
663.110	1993
663.164	2057
663.218	1871
663.272	2484
663.326	2497
663.380	2329
663.434	2097
663.488	1551
663.542	1637
663.595	2572
663.649	2173
663.703	2725
663.757	2493
663.811	2311
663.864	1897
663.918	2791
663.972	2155
664.026	2759
664.079	1734
664.133	2451
664.187	2720
664.240	2380
664.294	1692
664.348	3053
664.401	2172
664.455	2395
664.508	2455
664.562	2764
664.615	1730
664.669	2460
664.722	2737
664.776	2187
664.829	2743
664.883	1578
664.936	1396
664.990	2322
665.043	2525
665.097	2504
665.150	3845
665.203	2072
665.257	2234
665.310	3212
665.363	2450
665.417	3154
665.470	2722
665.523	2381
665.576	2603
665.630	1999
665.683	2821
665.736	3238
665.789	2006
665.842	2179
665.895	2384
665.949	2811
666.002	1756
666.055	2387
666.108	2772
666.161	2535
666.214	3000
666.267	1936
666.320	3014
666.373	2745
666.426	2839
666.479	2215
666.532	2439
666.585	3218
666.638	2891
666.691	2195
666.744	3066
666.796	3253
666.849	2347
666.902	3037
666.955	2728
667.008	1760
667.060	2287
667.113	1835
667.166	2066
667.219	2077
667.271	2764
667.324	2081
667.377	2694
667.430	3386
667.482	3574
667.535	2627
667.587	2508
667.640	3737
667.693	2651
667.745	3795
667.798	3383
667.850	2674
667.903	2599
667.955	2658
668.008	2511
668.060	3717
668.113	2120
668.165	2541
668.218	2337
668.270	3233
668.322	3355
668.375	2452
668.427	2354
668.479	3753
668.532	2476
668.584	2540
668.636	2786
668.689	2883
668.741	2819
668.793	2627
668.845	1977
668.898	3319
668.950	3189
669.002	3147
669.054	2727
669.106	2185
669.158	2790
669.211	2914
669.263	3043
669.315	3360
669.367	4123
669.419	2775
669.471	3849
669.523	4221
669.575	3796
669.627	3774
669.679	2709
669.731	3358
669.783	3708
669.835	3365
669.886	3664
669.938	4567
669.990	4207
670.042	3692
670.094	4927
670.146	5430
670.197	6263
670.249	7176
670.301	9308
670.353	14015
670.404	18547
670.456	25802
670.508	40704
670.560	67740
670.611	113078
670.663	199430
670.715	379104
670.766	438485
670.818	204875
670.869	60910
670.921	31959
670.972	20048
671.024	14965
671.075	11563
671.127	8627
671.178	6760
671.230	6747
671.281	6037
671.333	6598
671.384	5621
671.436	5869
671.487	8324
671.538	9538
671.590	13508
671.641	20568
671.692	35503
671.744	60589
671.795	43814
671.846	17301
671.897	8899
671.949	6648
672.000	4640
672.051	4411
672.102	4817
672.153	3744
672.204	3360
672.256	3168
672.307	2539
672.358	3027
672.409	2850
672.460	2383
672.511	3054
672.562	2615
672.613	2652
672.664	2590
672.715	2739
672.766	1855
672.817	2051
672.868	2516
672.919	2256
672.970	1843
673.021	2010
673.071	2189
673.122	2383
673.173	2131
673.224	2469
673.275	1653
673.326	1527
673.376	1566
673.427	1713
673.478	2100
673.528	2916
673.579	1475
673.630	1725
673.680	1728
673.731	1957
673.782	1265
673.832	1664
673.883	2536
673.934	1963
673.984	1468
674.035	2909
674.085	2149
674.136	2530
674.186	2414
674.237	2628
674.287	2824
674.338	1876
674.388	1831
674.438	1660
674.489	2104
674.539	2410
674.589	1852
674.640	2582
674.690	2005
674.740	1927
674.791	1705
674.841	2044
674.891	1743
674.942	1376
674.992	960
675.042	1256
675.092	1161
675.142	1523
675.193	663
675.243	648
675.293	1212
675.343	1385
675.393	1729
675.443	1996
675.493	1246
675.543	1144
675.593	1807
675.643	1841
675.693	1277
675.743	2032
675.793	1840
675.843	1255
675.893	968
675.943	1567
675.993	1531
676.043	1137
676.093	1065
676.142	1003
676.192	1678
676.242	1501
676.292	1094
676.341	965
676.391	1422
676.441	802
676.491	912
676.540	1142
676.590	1254
676.640	1301
676.689	634
676.739	267
676.789	1234
676.838	1317
676.888	1382
676.937	1294
676.987	1309
677.037	757
677.086	281
677.136	1301
677.185	1409
677.235	952
677.284	1008
677.333	422
677.383	-40
677.432	597
677.482	740
677.531	850
677.580	54
677.630	1030
677.679	653
677.728	1125
677.778	1331
677.827	589
677.876	896
677.925	1071
677.975	724
678.024	1406
678.073	1231
678.122	1111
678.171	1110
678.220	1240
678.269	1475
678.319	1637
678.368	1414
678.417	1147
678.466	1061
678.515	2689
678.564	1501
678.613	746
678.662	204
678.711	836
678.760	1246
678.809	1497
678.857	802
678.906	1310
678.955	1278
679.004	1422
679.053	264
679.102	490
679.151	339
679.199	1299
679.248	1793
679.297	1915
679.346	995
679.394	1409
679.443	701
679.492	982
679.540	523
679.589	825
679.638	313
679.686	699
679.735	1184
679.784	1921
679.832	647
679.881	747
679.929	1211
679.978	212
680.026	836
680.075	1516
680.123	253
680.172	66
680.220	406
680.268	607
680.317	-212
680.365	840
680.414	453
680.462	588
680.510	997
680.559	489
680.607	327
680.655	1066
680.703	-44
680.752	452
680.800	-14
680.848	868
680.896	29
680.945	-213
680.993	303
681.041	-63
681.089	654
681.137	453
681.185	730
681.233	420
681.258	193
681.281	-65
681.329	1482
681.377	378
681.380	454
681.425	1021
681.473	1245
681.502	1308
681.521	1273
681.569	1354
681.617	1612
681.624	1591
681.665	1135
681.713	1816
681.745	1594
681.761	1428
681.809	858
681.857	2277
681.867	2159
681.904	1573
681.952	2110
681.989	1852
682.000	1721
682.048	1593
682.096	2097
682.111	2172
682.143	2210
682.191	1981
682.233	2480
682.239	2511
682.286	2528
682.334	2264
682.354	2152
682.382	1908
682.430	2454
682.476	3368
682.477	3351
682.525	1780
682.572	3028
682.598	2778
682.620	2508
682.667	3771
682.715	3519
682.720	3571
682.763	3583
682.810	4023
682.841	3670
682.857	3455
682.905	3291
682.952	3811
682.963	3791
683.000	3597
683.047	4247
683.085	4298
683.095	4243
683.142	3662
683.190	4014
683.206	4182
683.237	4473
683.284	3416
683.328	4474
683.332	4520
683.379	4133
683.426	4057
683.449	4206
683.473	4368
683.521	4531
683.568	5001
683.571	5035
683.615	4981
683.662	4700
683.693	4766
683.709	4762
683.757	4948
683.804	5144
683.814	5040
683.851	4547
683.898	5902
683.936	5328
683.945	5149
683.992	5447
684.039	5369
684.057	5497
684.086	5637
684.133	6313
684.179	5249
684.180	5189
684.227	5888
684.274	6409
684.300	6593
684.321	6708
684.368	6699
684.415	6746
684.422	6737
684.462	6518
684.509	6352
684.543	6595
684.556	6639
684.603	7097
684.649	6719
684.665	6853
684.696	7078
684.743	6788
684.786	7025
684.790	7032
684.837	7076
684.883	7370
684.908	7363
684.930	7333
684.977	7727
685.023	8197
685.029	8239
685.070	8092
685.117	7873
685.150	7359
685.164	7243
685.210	7670
685.257	7984
685.272	8307
685.303	8788
685.350	8267
685.393	7667
685.396	7597
685.443	8228
685.490	8965
685.514	8701
685.536	8515
685.583	8112
685.629	8723
685.636	8722
685.675	8631
685.722	8758
685.757	9248
685.768	9403
685.815	8658
685.861	9543
685.878	9523
685.908	9357
685.954	9669
686.000	9792
686.000	9787
686.047	9523
686.093	10225
686.121	10759
686.139	10931
686.185	10089
686.232	10511
686.242	10327
686.278	9848
686.324	10095
686.363	10376
686.370	10408
686.416	9943
686.463	9871
686.484	10352
686.509	10920
686.555	10865
686.601	10346
686.606	10361
686.647	10249
686.693	10211
686.727	10240
686.739	10325
686.785	10717
686.831	10484
686.848	10896
686.877	11508
686.923	10754
686.969	11236
686.969	11237
687.015	10838
687.061	10999
687.090	11380
687.107	11530
687.153	12055
687.199	10832
687.211	10938
687.245	11407
687.291	11842
687.332	12186
687.336	12215
687.382	11666
687.428	11504
687.453	12048
687.474	12325
687.520	12022
687.565	11654
687.574	11602
687.611	11717
687.657	11674
687.695	12204
687.702	12348
687.748	12382
687.794	13215
687.816	13426
687.839	13261
687.885	12746
687.931	12404
687.937	12366
687.976	12614
688.022	12962
688.058	13057
688.067	13045
688.113	12893
688.158	12895
688.179	12788
688.204	12742
688.249	13380
688.295	13020
688.300	13034
688.340	13398
688.386	14146
688.421	14071
688.431	13985
688.477	13299
688.522	14101
688.542	14061
688.567	14111
688.613	14220
688.658	13809
688.663	13835
688.703	13937
688.749	13368
688.784	13468
688.794	13573
688.839	13682
688.884	13951
688.905	13932
688.930	13995
688.975	14018
689.020	14630
689.026	14662
689.065	14773
689.110	14348
689.146	14816
689.155	14913
689.201	14430
689.246	14374
689.267	14182
689.291	14324
689.336	14738
689.381	15261
689.388	15255
689.426	14990
689.471	15064
689.509	15217
689.516	15266
689.561	15180
689.606	14972
689.630	15217
689.651	15484
689.696	15548
689.741	14952
689.750	15096
689.785	15798
689.830	15901
689.871	16161
689.875	16180
689.920	15448
689.965	15821
689.992	15668
690.010	15847
690.054	16224
690.099	16567
690.112	16808
690.144	17240
690.189	17110
690.233	17177
690.233	17201
690.278	17164
690.323	17578
690.354	17285
690.367	17338
690.412	17694
690.457	18213
690.474	18420
690.501	19033
690.546	19684
690.590	20792
690.595	20800
690.635	21700
690.680	23335
690.716	24466
690.724	25258
690.769	29565
690.813	33744
690.836	35894
690.857	41384
690.902	53162
690.946	66142
690.957	68890
690.991	94743
691.035	131184
691.077	163626
691.080	163317
691.124	148638
691.168	134078
691.198	125237
691.213	115814
691.257	87753
691.301	58602
691.318	47557
691.346	43484
691.390	36901
691.434	29423
691.439	28649
691.478	27341
691.522	25407
691.559	23944
691.567	23906
691.611	22710
691.655	22354
691.680	21871
691.699	21764
691.743	21671
691.787	21477
691.800	21253
691.831	20855
691.875	20502
691.919	20737
691.921	20681
691.964	20270
692.008	20298
692.041	20020
692.052	20052
692.096	20229
692.139	20663
692.162	20687
692.183	20724
692.227	20320
692.271	20796
692.282	20801
692.315	20826
692.359	20385
692.402	20341
692.403	20382
692.447	20418
692.490	20187
692.523	20408
692.534	20591
692.578	20622
692.622	20843
692.643	20881
692.666	20886
692.709	20973
692.753	20579
692.763	20591
692.797	21126
692.840	21610
692.884	21970
692.884	22018
692.928	22123
692.971	22534
693.004	22571
693.015	22665
693.059	23143
693.102	23418
693.124	23600
693.146	24094
693.189	24651
693.233	25496
693.245	25733
693.276	27479
693.320	29526
693.363	31575
693.365	31594
693.407	35530
693.450	39101
693.485	42548
693.493	44574
693.537	53723
693.580	63447
693.605	68839
693.624	80339
693.667	107774
693.710	135518
693.725	145255
693.753	194173
693.797	270850
693.840	347339
693.845	355510
693.883	328322
693.926	296612
693.966	268529
693.970	262985
694.013	199929
694.056	136972
694.086	93287
694.099	88464
694.142	72536
694.185	56711
694.206	48937
694.229	46434
694.272	41946
694.315	37354
694.326	36091
694.358	34628
694.401	32207
694.444	30058
694.446	29875
694.487	28877
694.530	27860
694.566	26871
694.573	26805
694.616	26171
694.659	25258
694.686	24747
694.702	24819
694.745	24607
694.787	24494
694.806	24583
694.830	24716
694.873	24419
694.916	24123
694.926	24001
694.959	23671
695.002	23308
695.044	22842
695.046	22771
695.087	23261
695.130	23541
695.166	23687
695.172	23723
695.215	23823
695.258	23861
695.286	23814
695.301	23946
695.343	24164
695.386	24482
695.406	24455
695.428	24468
695.471	24398
695.514	24583
695.526	24472
695.556	24605
695.599	25206
695.641	25425
695.646	25391
695.684	25028
695.726	24495
695.766	24052
695.769	24119
695.811	24228
695.854	24314
695.886	24374
695.896	24438
695.938	24292
695.981	24242
696.005	24052
696.023	24398
696.065	25310
696.108	26092
696.125	26432
696.150	26421
696.192	26046
696.235	25864
696.245	25685
696.277	26226
696.319	27093
696.361	27917
696.365	27925
696.404	28745
696.446	29377
696.485	29919
696.488	29928
696.530	28989
696.572	28158
696.604	27393
696.614	27337
696.656	26817
696.698	26348
696.724	25969
696.740	26099
696.783	26243
696.825	26504
696.844	26531
696.867	26693
696.909	26767
696.951	26814
696.964	26836
696.992	26795
697.034	26298
697.076	26049
697.083	25920
697.118	26475
697.160	27111
697.202	27783
697.203	27724
697.244	27328
697.286	27049
697.323	26691
697.327	26755
697.369	26629
697.411	26562
697.442	26431
697.453	26516
697.494	26549
697.536	26613
697.562	26598
697.578	26659
697.620	26593
697.661	26468
697.682	26384
697.703	26743
697.744	27264
697.786	27910
697.801	28002
697.828	27960
697.869	27826
697.911	27732
697.921	27642
697.952	27495
697.994	27116
698.035	26799
698.040	26690
698.077	26776
698.118	26754
698.160	26760
698.160	26687
698.201	27350
698.243	28015
698.279	28484
698.284	28568
698.325	28687
698.367	28725
698.399	28708
698.408	28773
698.449	28716
698.491	28672
698.518	28536
698.532	28657
698.573	28836
698.614	28997
698.638	28998
698.656	29053
698.697	29030
698.738	28982
698.757	28883
698.779	28965
698.820	28987
698.862	28997
698.877	28923
698.903	29250
698.944	29642
698.985	30046
698.996	30077
699.026	29916
699.067	29581
699.116	29104
699.235	29349
699.354	29329
699.474	28647
699.593	29662
699.713	27922
699.832	28802
699.951	29097
700.070	29455
700.190	26853
700.309	27034
700.428	26711
700.547	26780
700.667	26594
700.786	28410
700.905	27365
701.024	26984
701.143	26407
701.262	26866
701.381	27201
701.500	26347
701.619	27161
701.738	27157
701.857	27033
701.976	25804
702.095	25051
702.214	26763
702.333	26203
702.452	26471
702.571	25899
702.690	26263
702.809	25637
702.928	25189
703.047	23932
703.165	25487
703.284	24318
703.403	24657
703.522	24667
703.640	24512
703.759	24463
703.878	25833
703.997	23755
704.115	23604
704.234	23735
704.353	23952
704.471	23718
704.590	23277
704.708	23242
704.827	23170
704.946	22977
705.064	23388
705.183	23802
705.301	25094
705.420	27170
705.538	27068
705.656	25669
705.775	25146
705.893	32201
706.012	35383
706.130	25942
706.249	25588
706.367	24564
706.485	24604
706.604	24817
706.722	24545
706.840	24800
706.958	26433
707.077	24432
707.195	23880
707.313	23906
707.431	22254
707.549	23060
707.668	23614
707.786	23104
707.904	22547
708.022	23466
708.140	23170
708.258	23197
708.376	23768
708.494	22837
708.612	24024
708.730	27678
708.848	26451
708.966	25367
709.084	25072
709.202	24341
709.320	24533
709.438	24410
709.556	24360
709.674	24579
709.791	23800
709.909	23539
710.027	23382
710.145	22996
710.263	24174
710.380	23048
710.498	22683
710.616	23312
710.733	22932
710.851	22144
710.969	22864
711.086	22357
711.204	22925
711.322	22428
711.439	22090
711.557	22145
711.674	22738
711.792	22372
711.909	22560
712.027	23450
712.144	21747
712.262	21410
712.379	23198
712.497	26333
712.614	26471
712.732	24666
712.849	23227
712.966	22596
713.084	25303
713.201	23412
713.318	24232
713.436	24315
713.553	23824
713.670	23987
713.787	24333
713.905	24260
714.022	25019
714.139	23088
714.256	25126
714.373	29876
714.490	42167
714.608	85924
714.725	303755
714.842	261324
714.959	37524
715.076	26412
715.193	23691
715.310	23946
715.427	22346
715.544	21159
715.661	21075
715.778	21353
715.895	22266
716.011	22014
716.128	21632
716.245	21463
716.362	21740
716.479	20522
716.596	21208
716.713	20347
716.829	20620
716.946	20511
717.063	20403
717.180	20214
717.296	19615
717.413	19877
717.530	18938
717.646	18571
717.763	19791
717.880	19296
717.996	19514
718.113	19290
718.229	18767
718.346	19223
718.462	18987
718.579	18455
718.695	20003
718.812	20447
718.928	19200
719.045	18610
719.161	18059
719.277	18257
719.394	19130
719.510	20181
719.626	19558
719.743	22406
719.859	25398
719.975	36796
720.092	105938
720.208	200154
720.324	33950
720.440	20984
720.557	19455
720.673	19719
720.789	23355
720.905	29613
721.021	19677
721.137	17960
721.253	18544
721.369	18720
721.486	18793
721.602	18959
721.718	17936
721.834	17453
721.950	16472
722.066	17354
722.181	17197
722.297	17320
722.413	16141
722.529	17730
722.645	17088
722.761	16862
722.877	16966
722.993	16352
723.108	17645
723.224	16613
723.340	17039
723.456	16304
723.571	15766
723.687	15469
723.803	16353
723.918	16071
724.034	16331
724.150	15983
724.265	16370
724.381	19056
724.497	19895
724.612	15612
724.728	15026
724.843	15072
724.959	16059
725.074	19531
725.190	18822
725.305	15551
725.421	15104
725.536	15504
725.651	15237
725.767	15119
725.882	14995
725.997	14913
726.113	14475
726.228	15168
726.343	14553
726.459	14727
726.574	15572
726.689	14664
726.804	14445
726.920	15185
727.035	14414
727.150	14360
727.265	13486
727.380	14541
727.495	14259
727.610	13767
727.725	13636
727.841	14838
727.956	18391
728.071	17006
728.186	14780
728.301	13369
728.416	14031
728.531	13824
728.645	14096
728.760	13859
728.875	13930
728.990	13532
729.105	14288
729.220	12933
729.335	13586
729.449	14501
729.564	13800
729.679	13025
729.794	12977
729.908	13915
730.023	13529
730.138	13437
730.253	13067
730.367	13327
730.482	13244
730.596	12976
730.711	13352
730.826	14922
730.940	14267
731.055	13368
731.169	14381
731.284	13664
731.398	13704
731.513	14802
731.627	14791
731.742	15843
731.856	15414
731.970	16403
732.085	18165
732.199	20407
732.313	26816
732.428	53689
732.542	129386
732.656	68440
732.771	23610
732.885	17932
732.999	17177
733.113	17983
733.227	17339
733.342	17184
733.456	16573
733.570	16044
733.684	15831
733.798	16187
733.912	16778
734.026	15589
734.140	15213
734.254	15363
734.368	17308
734.482	17564
734.596	15694
734.710	15767
734.824	14795
734.938	14146
735.052	15103
735.166	15486
735.280	15169
735.393	15048
735.507	14457
735.621	15979
735.735	16947
735.849	15567
735.962	15010
736.076	15597
736.190	14957
736.303	15204
736.417	16088
736.531	14498
736.644	14632
736.758	14331
736.872	14669
736.985	13775
737.099	14551
737.212	13369
737.326	14189
737.439	14228
737.553	13608
737.666	14195
737.780	13851
737.893	13739
738.007	14027
738.120	14014
738.233	13471
738.347	14510
738.460	13489
738.573	13568
738.687	13510
738.800	13850
738.913	13713
739.026	14119
739.140	13848
739.253	13081
739.366	13445
739.479	11941
739.592	13032
739.705	12818
739.818	14196
739.932	13587
740.045	13409
740.158	13018
740.271	14345
740.384	12519
740.497	13358
740.610	12755
740.723	12872
740.836	14115
740.949	13513
741.062	14083
741.174	13230
741.287	14053
741.400	12931
741.513	12921
741.626	12980
741.739	12044
741.851	12318
741.964	13581
742.077	12505
742.189	12607
742.302	13301
742.415	13029
742.527	12195
742.640	13592
742.753	12822
742.865	12392
742.978	13154
743.090	12830
743.203	12529
743.316	12957
743.428	12920
743.541	12631
743.653	12281
743.766	12634
743.878	12928
743.990	14031
744.103	13169
744.215	12323
744.327	12247
744.440	13991
744.552	13511
744.664	12415
744.777	13452
744.889	12440
745.001	13160
745.113	12401
745.226	12341
745.338	13067
745.450	12988
745.562	12122
745.674	12219
745.786	12991
745.898	12456
746.010	12798
746.122	12506
746.234	12572
746.347	12173
746.459	12736
746.570	12561
746.682	12417
746.794	13180
746.906	12174
747.018	13074
747.130	13566
747.242	11877
747.354	13161
747.466	13133
747.577	13061
747.689	13527
747.801	13397
747.913	12529
748.024	13167
748.136	12304
748.248	12585
748.359	13052
748.471	14087
748.583	13251
748.694	13300
748.806	13725
748.918	12674
749.029	13185
749.141	12586
749.252	13338
749.364	13357
749.475	14231
749.587	13328
749.698	13101
749.809	13235
749.921	13171
750.032	13410
750.144	12638
750.255	12428
750.366	12666
750.478	12874
750.589	13489
750.700	12440
750.811	13613
750.923	13941
751.034	13134
751.145	14848
751.256	13492
751.367	13609
751.479	13763
751.590	13611
751.701	13950
751.812	12538
751.923	12883
752.034	14056
752.145	13122
752.256	13558
752.367	14237
752.478	13751
752.589	14295
752.700	13489
752.811	14186
752.922	14258
753.032	13693
753.143	13934
753.254	13927
753.365	14612
753.476	13910
753.586	14417
753.697	14527
753.808	15183
753.919	14161
754.029	15063
754.140	15011
754.251	13525
754.361	15104
754.472	14976
754.582	14502
754.693	15523
754.804	15451
754.914	14977
755.025	14869
755.135	15588
755.246	15895
755.356	15877
755.466	15752
755.577	15810
755.687	16321
755.798	16829
755.908	16822
756.018	16330
756.129	16715
756.239	16631
756.349	16560
756.460	17296
756.570	17360
756.680	17550
756.790	17305
756.900	17243
757.011	17581
757.121	17621
757.231	17767
757.341	18799
757.451	17644
757.561	18445
757.671	19648
757.781	19094
757.891	19970
758.001	18871
758.111	20200
758.221	20659
758.331	20804
758.441	20029
758.551	21122
758.661	22385
758.771	22376
758.880	22019
758.990	23335
759.100	23572
759.210	23759
759.320	24111
759.429	24535
759.539	23986
759.649	24580
759.758	24938
759.868	25979
759.978	26750
760.087	27825
760.197	27458
760.307	28479
760.416	28755
760.526	28106
760.635	29971
760.745	30051
760.854	31451
760.964	32055
761.073	32649
761.182	33515
761.292	33595
761.401	34808
761.511	35272
761.620	36368
761.729	38272
761.839	38601
761.948	40331
762.057	40253
762.166	41195
762.276	41953
762.385	45172
762.494	46105
762.603	48261
762.712	50519
762.822	51970
762.931	53848
763.040	55900
763.149	57816
763.258	61005
763.367	64992
763.476	68168
763.585	68766
763.694	75188
763.803	78273
763.912	83873
764.021	88303
764.130	94378
764.238	99435
764.347	107281
764.456	116579
764.565	126126
764.674	136838
764.783	149343
764.891	161386
765.000	181176
765.109	202369
765.217	227661
765.326	256333
765.435	292217
765.543	338650
765.652	392637
765.761	457820
765.869	529266
765.978	600811
766.086	656356
766.195	671425
766.303	599577
766.412	401769
766.520	410405
766.629	595072
766.737	660546
766.846	648395
766.954	585403
767.062	513551
767.171	432716
767.279	366994
767.387	311676
767.496	268852
767.604	236943
767.712	209921
767.820	188018
767.928	173233
768.037	160858
768.145	152227
768.253	146752
768.361	143288
768.469	143846
768.577	145331
768.685	152548
768.793	160951
768.901	175850
769.009	201583
769.117	236127
769.225	284318
769.333	352633
769.441	448407
769.549	558055
769.657	632869
769.765	573767
769.873	392010
769.981	538229
770.088	615139
770.196	563388
770.304	473232
770.412	387855
770.519	321627
770.627	269385
770.735	227360
770.842	198905
770.950	174549
771.058	153970
771.165	138211
771.273	124235
771.380	114517
771.488	104438
771.595	97886
771.703	90038
771.810	85414
771.918	77965
772.025	74490
772.133	70400
772.240	66307
772.348	63714
772.455	60392
772.562	58384
772.670	54213
772.777	52562
772.884	51183
772.991	48211
773.099	47253
773.206	43568
773.313	44060
773.420	42450
773.528	40544
773.635	38518
773.742	37425
773.849	37351
773.956	35341
774.063	33545
774.170	33352
774.277	33085
774.384	31782
774.491	31378
774.598	30868
774.705	30312
774.812	28318
774.919	29697
775.026	28375
775.133	27090
775.239	27499
775.346	25752
775.453	25619
775.560	24941
775.667	24129
775.773	24187
775.880	24432
775.987	23746
776.093	23827
776.200	22377
776.307	22361
776.413	21526
776.520	21493
776.627	21806
776.733	20657
776.840	18816
776.946	22379
777.053	20222
777.159	19626
777.266	17165
777.372	19879
777.478	19254
777.585	18370
777.691	17981
777.798	17829
777.904	18360
778.010	17703
778.117	16390
778.223	16963
778.329	17681
778.435	14576
778.542	16759
778.648	15711
778.754	14989
778.860	15236
778.966	14387
779.072	15605
779.178	14829
779.284	15125
779.391	15079
779.497	14878
779.603	19744
779.708	23643
779.815	41608
779.920	119749
780.026	208210
780.132	47729
780.238	19472
780.344	16540
780.450	16247
780.556	15033
780.661	12344
780.767	12502
780.873	12156
780.979	12914
781.085	11457
781.190	12159
781.296	11958
781.402	11536
781.507	12275
781.613	11562
781.719	11368
781.824	10983
781.930	11451
782.035	11142
782.141	10492
782.246	10361
782.352	10671
782.457	10079
782.563	10467
782.668	10066
782.773	9950
782.879	9815
782.984	10660
783.090	11191
783.195	9359
783.300	10324
783.405	10577
783.511	8981
783.616	9892
783.721	9237
783.826	9892
783.932	9122
784.037	9630
784.142	10402
784.247	9399
784.352	9272
784.457	8795
784.562	9572
784.667	9181
784.772	8551
784.877	8512
784.982	9801
785.087	8569
785.192	8968
785.297	7494
785.402	8807
785.507	8136
785.611	8246
785.716	7336
785.821	8158
785.926	8020
786.031	7472
786.135	8263
786.240	8910
786.345	6199
786.450	7684
786.554	7705
786.659	7236
786.763	6823
786.868	8747
786.973	8413
787.077	8066
787.182	6766
787.286	8498
787.391	7880
787.495	6958
787.600	7647
787.704	6490
787.809	7836
787.913	7372
788.017	7675
788.122	7408
788.226	6690
788.330	6584
788.435	8051
788.539	7480
788.643	6545
788.747	6643
788.852	6793
788.956	6567
789.060	8013
789.164	6756
789.268	7151
789.372	7633
789.476	5919
789.580	6255
789.684	5336
789.788	7456
789.892	6513
789.996	6948
790.100	6440
790.204	5797
790.308	6077
790.412	5858
790.516	5506
790.620	5403
790.724	6757
790.828	5810
790.931	5233
791.035	7406
791.139	6329
791.242	5442
791.346	7302
791.450	5999
791.554	5556
791.657	5170
791.761	6011
791.864	6878
791.968	6659
792.072	5701
792.175	5990
792.279	5164
792.382	5620
792.486	5624
792.589	6253
792.693	5886
792.796	4893
792.899	6030
793.003	6291
793.106	3914
793.209	5104
793.313	5903
793.416	3577
793.519	5453
793.623	6382
793.726	6196
793.829	6224
793.932	5206
794.035	4584
794.138	7216
794.242	6819
794.345	6618
794.448	10330
794.551	19645
794.654	67263
794.757	133940
794.860	27225
794.963	8322
795.066	6117
795.169	7071
795.272	5719
795.375	6195
795.477	4358
795.580	5102
795.683	3887
795.786	5577
795.889	5087
795.991	6147
796.094	6283
796.197	4162
796.300	6476
796.402	4292
796.505	4313
796.608	4156
796.710	6048
796.813	5850
796.915	5009
797.018	4736
797.120	5412
797.223	4193
797.326	5905
797.428	3840
797.530	4473
797.633	3842
797.735	5315
797.838	4523
797.940	5500
798.042	4359
798.145	4443
798.247	5718
798.349	2868
798.452	4643
798.554	4041
798.656	3943
798.758	5113
798.860	3694
798.962	4178
799.065	3881
799.167	3333
799.269	4986
799.371	4538
799.473	4804
799.575	3635
799.677	4504
799.779	5616
799.881	3147
799.983	4725
800.085	5454
800.187	3802
800.289	3442
800.390	3584
800.492	3360
800.594	5149
800.696	3698
800.798	4297
800.899	3547
801.001	4306
801.103	3963
801.205	3327
801.306	2928
801.408	3099
801.509	4264
801.611	4211
801.713	3751
801.814	4227
801.916	3374
802.017	3454
802.119	3076
802.220	3615
802.322	2106
802.423	4801
802.525	2087
802.626	3948
802.727	4892
802.829	4023
802.930	2182
803.031	5055
803.133	3338
803.234	3212
803.335	3746
803.436	2566
803.538	4180
803.639	2916
803.740	3589
803.841	3301
803.942	3658
804.043	3491
804.144	2441
804.245	2793
804.346	1757
804.447	2499
804.548	3350
804.649	3941
804.750	2724
804.851	3276
804.952	3035
805.053	3890
805.154	2510
805.255	4715
805.355	3013
805.456	3066
805.557	2755
805.658	2274
805.758	3814
805.859	2762
805.960	3597
806.061	2645
806.161	2856
806.262	2394
806.362	2546
806.463	2817
806.564	3794
806.664	3220
806.765	3245
806.865	2920
806.966	2629
807.066	2336
807.166	3196
807.267	3662
807.367	2800
807.468	3532
807.568	1451
807.668	4190
807.769	3398
807.869	2397
807.969	2832
808.069	3045
808.170	3123
808.270	2829
808.370	3406
808.470	3123
808.570	1599
808.670	2383
808.770	3164
808.870	2880
808.970	3690
809.070	2586
809.170	2423
809.271	3267
809.370	2642
809.470	2231
809.570	2424
809.670	3048
809.770	3135
809.870	3060
809.970	3626
810.070	2926
810.169	2450
810.269	1329
810.369	3308
810.469	2533
810.568	2475
810.668	2820
810.768	2690
810.867	3545
810.967	2169
811.066	2569
811.166	2409
811.265	3528
811.365	2487
811.464	1561
811.564	3284
811.663	3156
811.763	1799
811.862	3030
811.962	3112
812.061	2624
812.160	3292
812.260	3331
812.359	3108
812.458	5229
812.557	14408
812.657	18309
812.756	7724
812.855	2878
812.954	3845
813.053	3062
813.153	2765
813.252	2681
813.351	3000
813.450	3009
813.549	1770
813.648	2780
813.747	3010
813.846	3979
813.945	1406
814.044	2542
814.143	1996
814.242	3181
814.341	2040
814.439	3267
814.538	3098
814.637	2151
814.736	2761
814.835	2683
814.933	2687
815.032	3438
815.131	3286
815.229	4440
815.328	5571
815.427	4660
815.525	4662
815.624	4408
815.722	3965
815.821	4036
815.919	4737
816.018	4367
816.116	4894
816.215	4132
816.313	4243
816.412	5041
816.510	4664
816.609	6335
816.707	6407
816.805	5309
816.904	3872
817.002	5469
817.100	6196
817.198	5813
817.296	5085
817.395	5323
817.493	5787
817.591	4244
817.689	6780
817.787	7529
817.885	9307
817.983	13530
818.081	24099
818.179	52158
818.277	125446
818.375	107593
818.473	33592
818.571	15697
818.669	11948
818.767	10678
818.865	9808
818.963	11099
819.061	14841
819.158	22392
819.256	45589
819.354	97011
819.452	200304
819.549	134515
819.647	45546
819.745	19949
819.842	13231
819.940	10958
820.038	7543
820.135	6402
820.233	8038
820.330	5479
820.428	4976
820.525	6536
820.623	5168
820.720	4207
820.818	4867
820.915	5196
821.012	5181
821.110	3397
821.207	4939
821.304	3682
821.402	4950
821.499	4408
821.596	4288
821.693	3762
821.791	5537
821.888	4039
821.985	4098
822.082	3536
822.179	5132
822.276	3855
822.373	3666
822.470	4822
822.567	4382
822.664	3480
822.761	4127
822.858	2359
822.955	3795
823.052	3400
823.149	3270
823.246	3616
823.343	3387
823.440	4021
823.536	3427
823.633	3263
823.730	3270
823.827	4702
823.923	3911
824.020	3821
824.117	2838
824.213	3033
824.310	3029
824.407	2365
824.503	3330
824.600	2880
824.696	2759
824.793	4444
824.889	3149
824.986	2483
825.082	2697
825.179	3197
825.275	2743
825.371	2269
825.468	3499
825.564	2347
825.660	4367
825.757	3424
825.853	3839
825.949	3019
826.045	3164
826.142	2531
826.238	3554
826.334	2492
826.430	2388
826.526	2615
826.622	2539
826.718	3991
826.814	2798
826.910	3370
827.006	2397
827.102	1094
827.198	3167
827.294	2694
827.390	3298
827.486	2916
827.582	1588
827.678	1408
827.774	3170
827.869	2225
827.965	3314
828.061	2374
828.157	3272
828.252	2932
828.348	1421
828.444	3624
828.539	1345
828.635	2307
828.731	2637
828.826	1811
828.922	2723
829.017	2445
829.113	3234
829.208	1730
829.304	2127
829.399	3455
829.495	1640
829.590	3143
829.685	2176
829.781	2676
829.876	2848
829.971	1581
830.066	1730
830.162	1538
830.257	2839
830.352	2468
830.447	2943
830.543	2618
830.638	1823
830.733	3914
830.828	1799
830.923	3018
831.018	1898
831.113	3144
831.208	1543
831.303	1467
831.398	2232
831.493	2367
831.588	3404
831.683	1474
831.778	1705
831.873	2298
831.967	3317
832.062	2365
832.157	1546
832.252	3178
832.346	1634
832.441	3454
832.536	2517
832.631	3099
832.725	2089
832.820	721
832.914	1663
833.009	1515
833.104	1474
833.198	2051
833.293	1765
833.387	2459
833.482	1492
833.576	1424
833.670	2669
833.765	2004
833.859	1430
833.954	2412
834.048	2045
834.142	1766
834.237	2302
834.331	1839
834.425	2691
834.519	1368
834.613	2295
834.708	1707
834.802	2995
834.896	1444
834.990	2030
835.084	1896
835.178	1535
835.272	1456
835.366	1884
835.460	3227
835.554	1793
835.648	2685
835.742	1150
835.836	2148
835.930	1724
836.024	2893
836.117	2137
836.211	982
836.305	2018
836.399	3524
836.493	877
836.586	2940
836.680	1370
836.774	1168
836.867	2319
836.961	1249
837.055	853
837.148	1349
837.242	1659
837.335	678
837.429	1418
837.522	1290
837.616	1453
837.709	2731
837.803	1575
837.896	2675
837.989	1805
838.083	2351
838.176	2365
838.269	1962
838.363	2585
838.456	1093
838.549	2581
838.642	1926
838.735	2464
838.829	2109
838.922	783
839.015	1413
839.108	1015
839.201	1992
839.294	1918
839.387	2001
839.480	1867
839.573	2147
839.666	1573
839.759	1437
839.852	883
839.945	2512
840.038	1696
840.131	728
840.223	1596
840.316	1369
840.409	1776
840.502	1858
840.594	2369
840.687	-73
840.780	1367
840.873	1028
840.965	1555
841.058	1817
841.150	2362
841.243	1387
841.336	1771
841.428	1480
841.521	1215
841.613	1581
841.706	1814
841.798	2470
841.890	1972
841.983	1477
842.075	2011
842.167	1773
842.260	1544
842.352	2755
842.444	1612
842.537	2504
842.629	3020
842.721	2089
842.813	1617
842.905	459
842.997	2088
843.090	896
843.182	2124
843.274	1994
843.366	4240
843.458	5710
843.550	4776
843.642	1276
843.734	1678
843.826	2183
843.918	1933
844.009	1849
844.101	1041
844.193	1639
844.285	1271
844.377	1928
844.469	1697
844.560	1376
844.652	1659
844.744	1611
844.835	1515
844.927	2227
845.019	1981
845.110	867
845.202	2131
845.293	1470
845.385	916
845.476	1432
845.568	2390
845.659	1226
845.751	1540
845.842	537
845.934	315
846.025	1503
846.116	1138
846.208	932
846.299	1478
846.390	1985
846.482	2182
846.573	1573
846.664	2191
846.755	936
846.846	2151
846.937	-188
847.029	590
847.120	1236
847.211	1310
847.302	2239
847.393	1137
847.484	1393
847.575	1066
847.666	1500
847.757	714
847.847	1041
847.938	2213
848.029	2823
848.120	1573
848.211	1717
848.302	535
848.392	1075
848.483	1532
848.574	993
848.664	1500
848.755	1464
848.846	1816
848.936	1199
849.027	1028
849.118	1455
849.208	1200
849.299	1487
849.389	1931
849.480	4055
849.570	5811
849.661	9365
849.751	13249
849.841	5561
849.932	1993
850.022	743
850.112	1466
850.203	1234
850.293	956
850.383	866
850.474	933
850.564	1788
850.654	1317
850.744	1284
850.834	1311
850.924	1299
851.014	1890
851.104	1219
851.194	1655
851.284	973
851.374	330
851.464	1217
851.554	2024
851.644	432
851.734	2352
851.824	2308
851.914	2716
852.004	6312
852.094	6335
852.183	2617
852.273	1807
852.363	1572
852.452	1127
852.542	820
852.632	1125
852.721	1351
852.811	733
852.901	952
852.990	1488
853.080	1182
853.169	1430
853.259	1185
853.348	557
853.438	1022
853.527	2093
853.617	2722
853.706	5145
853.795	7048
853.885	15026
853.974	26804
854.063	48823
854.152	65121
854.242	23391
854.331	5497
854.420	2844
854.509	2443
854.598	2317
854.687	2130
854.777	1003
854.866	491
854.955	1835
855.044	1169
855.133	1664
855.222	971
855.311	1135
855.400	956
855.488	1684
855.577	631
855.666	1453
855.755	1295
855.844	1966
855.933	1161
856.021	1353
856.110	645
856.199	903
856.288	390
856.376	699
856.465	314
856.554	928
856.642	1310
856.731	1300
856.819	764
856.908	647
856.996	1020
857.085	511
857.173	1742
857.262	392
857.350	306
857.438	1601
857.527	2278
857.615	809
857.703	1485
857.792	879
857.880	646
857.968	722
858.056	817
858.145	1536
858.233	1099
858.321	804
858.409	1347
858.497	448
858.585	217
858.673	1682
858.761	1212
858.849	619
858.937	1078
859.025	775
859.113	759
859.201	688
859.289	1231
859.377	99
859.465	394
859.552	877
859.640	426
859.728	277
859.816	845
859.903	705
859.991	390
860.079	1306
860.166	1293
860.254	405
860.342	1031
860.429	889
860.517	581
860.604	1181
860.692	1194
860.779	1108
860.867	442
860.954	861
861.042	236
861.129	944
861.216	580
861.304	936
861.391	664
861.478	1518
861.565	1209
861.653	2119
861.740	1216
861.827	1723
861.914	1557
862.001	457
862.089	1010
862.176	933
862.263	153
862.350	1190
862.437	14
862.524	586
862.611	669
862.698	565
862.785	649
862.871	1353
862.958	734
863.045	1200
863.132	1763
863.219	1064
863.306	34
863.392	1100
863.479	1261
863.566	1299
863.652	1040
863.739	596
863.826	1162
863.912	1421
863.999	25
864.086	508
864.172	294
864.259	888
864.345	1267
864.432	2099
864.518	1537
864.604	1163
864.691	993
864.777	1746
864.863	1769
864.950	3145
865.036	2568
865.122	3932
865.209	4058
865.295	4189
865.381	3455
865.467	3439
865.553	3960
865.639	3745
865.726	5895
865.812	9765
865.898	16197
865.984	21988
866.070	38481
866.156	37549
866.242	11149
866.328	4673
866.414	3525
866.499	3130
866.585	2766
866.671	2453
866.757	3760
866.843	3414
866.928	2964
867.014	2041
867.100	2939
867.186	2855
867.271	2999
867.357	3801
867.442	2697
867.528	3506
867.614	3222
867.699	2659
867.785	3242
867.870	2369
867.956	1546
868.041	2808
868.127	2823
868.212	2724
868.297	2222
868.383	2737
868.468	2885
868.553	3184
868.639	3770
868.724	3594
868.809	2707
868.894	3009
868.979	1791
869.065	2507
869.150	810
869.235	2376
869.320	2328
869.405	2011
869.490	2075
869.575	1896
869.660	2298
869.745	1927
869.830	2465
869.915	1616
870.000	1778
870.085	2166
870.169	2762
870.254	3324
870.339	1329
870.424	2050
870.509	2403
870.593	1691
870.678	2559
870.763	1649
870.847	1915
870.932	2430
871.016	2103
871.101	1967
871.186	1963
871.270	2699
871.355	1331
871.439	2204
871.523	1877
871.608	1738
871.692	1425
871.777	2268
871.861	1815
871.945	2285
872.030	2008
872.114	2004
872.198	1185
872.282	1816
872.367	2123
872.451	2224
872.535	1751
872.619	2162
872.703	1332
872.787	691
872.871	1244
872.955	1436
873.039	1255
873.123	720
873.207	2838
873.291	1123
873.375	838
873.459	1677
873.543	1105
873.627	1205
873.711	917
873.794	2352
873.878	1332
873.962	1829
874.045	1492
874.129	688
874.137	751
874.213	1383
874.245	1388
874.296	1398
874.352	1163
874.380	1048
874.460	1273
874.464	1283
874.547	979
874.568	1011
874.631	1110
874.676	1144
874.714	1165
874.784	1817
874.798	1954
874.881	2210
874.892	2077
874.965	1147
874.999	1203
875.048	1258
875.107	1096
875.131	1033
875.215	1117
875.215	1116
875.298	1184
875.323	1064
875.381	801
875.430	1234
875.465	1545
875.538	1595
875.548	1588
875.631	874
875.646	858
875.714	858
875.753	789
875.798	741
875.861	767
875.881	745
875.964	847
875.968	858
876.047	1160
876.076	1468
876.130	1994
876.183	1321
876.213	958
876.291	1664
876.296	1716
876.379	885
876.398	962
876.462	1113
876.506	909
876.545	768
876.613	1037
876.628	1085
876.711	1469
876.721	1487
876.794	1739
876.828	1521
876.877	1095
876.935	1459
876.960	1642
877.043	1290
877.043	1287
877.125	622
877.150	962
877.208	1820
877.258	1426
877.291	1129
877.365	739
877.374	688
877.456	1231
877.472	1206
877.539	1148
877.579	1077
877.622	970
877.687	786
877.704	763
877.787	851
877.794	897
877.869	1301
877.901	1135
877.952	889
878.008	600
878.034	443
878.115	1516
878.117	1538
878.199	626
878.222	745
878.282	1024
878.329	1288
878.364	1476
878.437	705
878.447	592
878.529	488
878.544	549
878.611	780
878.651	718
878.694	731
878.758	934
878.776	1007
878.858	1694
878.865	1670
878.941	1134
878.972	955
879.023	663
879.078	57
879.105	-67
879.185	1143
879.187	1154
879.269	506
879.292	544
879.351	951
879.399	812
879.433	749
879.506	1300
879.516	1333
879.598	496
879.613	506
879.680	595
879.720	593
879.762	599
879.827	662
879.844	678
879.926	1013
879.933	982
880.007	895
880.040	955
880.089	952
880.147	1360
880.171	1545
880.253	1972
880.254	1975
880.335	2138
880.360	2457
880.417	3700
880.467	4791
880.499	5543
880.574	6298
880.580	6156
880.662	2981
880.680	2454
880.744	1447
880.787	777
880.825	443
880.893	813
880.907	867
880.989	1036
881.000	952
881.070	546
881.106	785
881.152	1082
881.213	1002
881.233	933
881.315	949
881.319	935
881.396	802
881.426	796
881.478	762
881.532	835
881.559	901
881.639	654
881.641	640
881.722	475
881.745	398
881.803	456
881.852	378
881.885	249
881.958	341
881.966	374
882.047	871
882.064	888
882.129	1055
882.171	1223
882.210	1069
882.277	694
882.291	646
882.372	628
882.383	569
882.454	398
882.489	687
882.535	1061
882.596	1093
882.616	1023
882.697	326
882.702	329
882.778	825
882.808	827
882.859	507
882.914	318
882.940	320
883.020	536
883.021	535
883.102	830
883.127	524
883.183	138
883.233	278
883.264	385
883.339	839
883.345	847
883.426	157
883.445	197
883.507	523
883.551	468
883.587	292
883.657	68
883.668	115
883.749	790
883.763	821
883.830	657
883.869	755
883.910	724
883.975	396
883.991	334
884.072	497
884.081	471
884.152	744
884.187	969
884.233	957
884.292	782
884.314	693
884.394	252
884.398	247
884.475	206
884.504	184
884.555	392
884.610	347
884.636	201
884.716	456
884.716	455
884.797	311
884.821	276
884.877	582
884.927	712
884.958	647
885.033	698
885.038	679
885.118	435
885.139	346
885.199	371
885.244	501
885.279	495
885.350	199
885.359	169
885.439	317
885.456	184
885.520	-236
885.561	-71
885.600	193
885.667	555
885.680	587
885.760	454
885.773	476
885.840	487
885.878	310
885.920	87
885.984	219
886.000	260
886.080	380
886.089	357
886.160	624
886.195	784
886.240	806
886.300	906
886.320	804
886.400	242
886.406	228
886.480	470
886.511	460
886.560	279
886.616	139
886.640	120
886.720	210
886.722	209
886.800	160
886.827	249
886.879	424
886.932	507
886.959	716
887.038	1219
887.039	1215
887.119	809
887.143	750
887.198	805
887.248	772
887.278	789
887.354	771
887.358	747
887.437	300
887.459	216
887.517	640
887.564	932
887.596	787
887.669	385
887.676	352
887.755	181
887.774	95
887.835	183
887.880	324
887.914	250
887.985	8
887.994	20
888.073	233
888.090	280
888.153	422
888.195	489
888.232	295
888.300	-63
888.311	-24
888.391	345
888.405	411
888.470	440
888.510	444
888.549	280
888.615	62
888.628	133
888.708	469
888.720	549
888.787	361
888.825	181
888.866	383
888.930	805
888.945	782
889.024	653
889.035	633
889.103	710
889.140	765
889.182	643
889.245	507
889.261	577
889.340	897
889.349	938
889.419	570
889.454	393
889.498	270
889.559	116
889.577	198
889.656	583
889.664	627
889.735	324
889.768	184
889.814	102
889.873	4
889.978	-238
890.083	318
890.187	220
890.292	222
890.397	330
890.501	739
890.606	368
890.710	841
890.815	808
890.919	454
891.024	-124
891.128	586
891.233	274
891.337	842
891.442	725
891.546	779
891.650	111
891.755	981
891.859	1072
891.963	848
892.068	489
892.172	327
892.276	555
892.380	700
892.484	-551
892.589	1627
892.693	593
892.797	476
892.901	-151
893.005	-164
893.109	20
893.213	1159
893.317	788
893.421	631
893.525	443
893.629	343
893.733	88
893.837	-592
893.941	850
894.045	833
894.148	-26
894.252	1054
894.356	603
894.460	376
894.564	736
894.667	-452
894.771	945
894.875	-417
894.978	392
895.082	-368
895.186	971
895.289	372
895.393	685
895.496	1071
895.600	479
895.703	184
895.807	-263
895.910	-134
896.014	-616
896.117	-418
896.221	-212
896.324	468
896.427	331
896.531	-205
896.634	-363
896.737	665
896.840	125
896.944	354
897.047	544
897.150	34
897.253	273
897.356	-176
897.460	591
897.563	565
897.666	316
897.769	-111
897.872	-540
897.975	-210
898.078	245
898.181	40
898.284	715
898.387	728
898.490	319
898.593	221
898.695	88
898.798	-574
898.901	-118
899.004	591
899.107	-209
899.209	-196
899.312	726
899.415	710
899.518	286
899.620	-477
899.723	-128
899.826	-145
899.928	383
900.031	753
900.133	-4
900.236	-547
900.338	-271
900.441	339
900.543	212
900.646	-242
900.748	-112
900.851	305
900.953	411
901.055	74
901.158	464
901.260	70
901.362	522
901.465	-287
901.567	-46
901.669	500
901.771	469
901.873	256
901.976	417
902.078	186
902.180	-553
902.282	108
902.384	352
902.486	-681
902.588	129
902.690	-292
902.792	-84
902.894	556
902.996	-696
903.098	-384
903.200	6
903.302	725
903.404	168
903.505	-500
903.607	439
903.709	528
903.811	135
903.913	221
904.014	307
904.116	-659
904.218	254
904.319	208
904.421	-10
904.523	-4
904.624	-41
904.726	131
904.827	532
904.929	37
905.030	296
905.132	-128
905.233	-267
905.335	-941
905.436	-281
905.537	-152
905.639	-639
905.740	-581
905.841	-283
905.943	411
906.044	-90
906.145	317
906.247	-890
906.348	-447
906.449	358
906.550	-176
906.651	-50
906.752	-989
906.854	-74
906.955	560
907.056	73
907.157	-229
907.258	-80
907.359	-267
907.460	-157
907.561	-548
907.662	-1096
907.762	-122
907.863	-1045
907.964	45
908.065	612
908.166	381
908.267	-1132
908.367	-323
908.468	-282
908.569	-526
908.670	-402
908.770	205
908.871	-494
908.971	302
909.072	-189
909.173	-171
909.273	-895
909.374	-142
909.474	-75
909.575	187
909.675	-523
909.776	-699
909.876	220
909.977	-584
910.077	-636
910.177	94
910.278	-677
910.378	-615
910.478	-478
910.579	-704
910.679	260
910.779	-313
910.879	-20
910.980	-336
911.080	-67
911.180	-55
911.280	-1097
911.380	-532
911.480	-1050
911.580	-1200
911.680	-713
911.780	-681
911.880	-976
911.980	-723
912.080	-76
912.180	-456
912.280	40
912.380	-233
912.480	-30
912.580	-1332
912.679	-189
912.779	-260
912.879	-674
912.979	-208
913.078	-759
913.178	-1041
913.278	-413
913.377	-338
913.477	-526
913.577	-504
913.676	-58
913.776	-1054
913.875	-284
913.975	122
914.074	-603
914.174	-473
914.273	-760
914.373	-421
914.472	-768
914.572	-1454
914.671	-135
914.770	-1061
914.870	-689
914.969	-235
915.068	-791
915.167	-736
915.267	-702
915.366	-724
915.465	-648
915.564	-480
915.663	-1248
915.763	-956
915.862	-505
915.961	-1175
916.060	-451
916.159	-485
916.258	-1122
916.357	-178
916.456	-353
916.555	-125
916.654	-558
916.752	-969
916.851	-611
916.950	-1076
917.049	-926
917.148	-709
917.247	143
917.345	-892
917.444	-962
917.543	-1262
917.642	-1013
917.740	-645
917.839	-841
917.937	-771
918.036	-54
918.135	-406
918.233	-844
918.332	-1227
918.430	-696
918.529	-884
918.627	-993
918.726	-826
918.824	-321
918.923	-969
919.021	-911
919.119	-465
919.218	-1148
919.316	-91
919.414	-466
919.512	-783
919.611	-1442
919.709	-394
919.807	-434
919.905	-1242
920.003	-258
920.102	49
920.200	16
920.298	-742
920.396	-64
920.494	-120
920.592	-515
920.690	129
920.788	-673
920.886	-899
920.984	-224
921.082	-1007
921.180	-392
921.277	-609
921.375	-500
921.473	-81
921.571	-132
921.669	-526
921.766	-714
921.864	-509
921.962	-564
922.060	-99
922.157	491
922.255	-360
922.352	-735
922.450	-139
922.548	-706
922.645	-933
922.743	-32
922.840	-252
922.938	934
923.035	371
923.133	-552
923.230	73
923.327	620
923.425	-174
923.522	146
923.619	16
923.717	-500
923.814	287
923.911	-538
924.008	908
924.106	197
924.203	392
924.300	163
924.397	213
924.494	453
924.591	655
924.688	-115
924.786	-257
924.883	676
924.979	-251
925.077	550
925.173	326
925.270	95
925.367	364
925.464	298
925.561	881
925.658	720
925.755	197
925.852	385
925.948	792
926.045	603
926.142	-135
926.239	-15
926.335	-149
926.432	-106
926.529	155
926.625	58
926.722	-437
926.818	-751
926.915	391
927.011	-600
927.108	-259
927.204	432
927.301	-203
927.397	579
927.494	129
927.590	143
927.687	-235
927.783	535
927.879	-1168
927.976	-399
928.072	143
928.168	1095
928.264	935
928.361	-904
928.457	237
928.553	-190
928.649	-675
928.745	10
928.841	-448
928.937	119
929.033	-26
929.129	412
929.225	-369
929.321	46
929.417	-622
929.513	521
929.609	92
929.705	-239
929.801	109
929.897	-753
929.993	-784
930.089	421
930.184	213
930.280	-1532
930.376	643
930.471	-1174
930.567	-443
930.663	-286
930.758	-406
930.854	-34
930.950	-19
931.045	-43
931.141	109
931.236	879
931.332	561
931.427	-229
931.523	-621
931.618	27
931.714	341
931.809	-230
931.905	-121
932.000	64
932.095	-466
932.191	1233
932.286	-119
932.381	125
932.476	-401
932.572	-306
932.667	-606
932.762	-34
932.857	11
932.952	-790
933.047	-632
933.142	-486
933.237	-762
933.332	-289
933.427	247
933.522	-529
933.617	-703
933.712	97
933.807	-221
933.902	938
933.997	-531
934.092	-876
934.187	-359
934.282	87
934.376	-192
934.471	268
934.566	-347
934.661	114
934.755	-254
934.850	126
934.945	238
935.039	-409
935.134	-223
935.228	-804
935.323	31
935.417	-362
935.512	-1092
935.606	-986
935.701	-165
935.795	-661
935.890	-539
935.984	-702
936.079	-59
936.173	-138
936.267	-324
936.362	-585
936.456	19
936.550	-798
936.644	-405
936.738	-803
936.833	-345
936.927	-6
937.021	-729
937.115	-162
937.209	-1546
937.303	-127
937.397	-717
937.491	1052
937.585	-917
937.679	-310
937.773	-46
937.867	-748
937.961	60
938.055	-210
938.149	251
938.243	-702
938.337	-311
938.430	-989
938.524	240
938.618	-691
938.712	-27
938.805	-225
938.899	-662
938.993	-1194
939.086	157
939.180	-502
939.274	-629
939.367	-537
939.461	-1008
939.554	-895
939.648	9
939.741	-904
939.835	-757
939.928	394
940.022	-207
940.115	89
940.208	614
940.302	-85
940.395	-710
940.488	-1775
940.582	-91
940.675	-881
940.768	-707
940.861	-334
940.954	92
941.048	-1340
941.141	-897
941.234	-257
941.327	-826
941.420	-257
941.513	-665
941.606	-653
941.699	-71
941.792	-275
941.885	373
941.978	-714
942.071	-224
942.164	-983
942.257	87
942.349	-823
942.442	-652
942.535	-926
942.628	-275
942.721	-454
942.813	-1309
942.906	462
942.999	-916
943.091	-700
943.184	-1146
943.277	-1164
943.369	-721
943.462	-847
943.554	673
943.647	-868
943.739	-315
943.832	-1557
943.924	-983
944.017	-1016
944.109	-964
944.201	-363
944.294	2
944.386	-780
944.478	-1228
944.571	-616
944.663	-593
944.755	-481
944.847	-18
944.940	-768
945.032	-1807
945.124	-976
945.216	255
945.308	-933
945.400	-644
945.492	-178
945.584	180
945.676	-970
945.768	-73
945.860	-11
945.952	-532
946.044	-348
946.136	-836
946.228	43
946.320	-947
946.412	-701
946.503	-636
946.595	-195
946.687	-1298
946.779	-968
946.870	-1209
946.962	-654
947.054	-59
947.145	-503
947.237	-1236
947.329	-507
947.420	-929
947.512	-736
947.603	-1708
947.695	-1217
947.786	-954
947.878	-896
947.969	-185
948.061	-1214
948.152	-868
948.243	-1092
948.335	-72
948.426	-1316
948.517	-1200
948.609	-705
948.700	-896
948.791	-861
948.882	-395
948.973	-1287
949.065	-400
949.156	-65
949.247	-1191
949.338	-555
949.429	-939
949.520	-579
949.611	-1448
949.702	111
949.793	-1059
949.884	-1015
949.975	-563
950.066	-951
950.157	-1083
950.247	-958
950.338	-589
950.429	-931
950.520	-295
950.611	-312
950.701	-259
950.792	-878
950.883	-531
950.973	-416
951.064	134
951.155	-1365
951.245	-85
951.336	-1302
951.427	-1135
951.517	87
951.608	-896
951.698	-915
951.788	-741
951.879	-888
951.969	-1263
952.060	-889
952.150	-585
952.240	-22
952.331	-1941
952.421	15
952.511	-1254
952.602	-870
952.692	-985
952.782	-638
952.872	-1008
952.962	-660
953.052	-1217
953.143	-751
953.233	-664
953.323	-247
953.413	-1251
953.503	-593
953.593	-589
953.683	-551
953.773	-1295
953.863	-1427
953.953	-1039
954.042	-83
954.132	-838
954.222	-424
954.312	-1223
954.402	-1217
954.492	-395
954.581	-150
954.671	-563
954.761	-1687
954.850	739
954.940	-1252
955.030	-1006
955.119	-1280
955.209	-1023
955.298	-973
955.388	-375
955.477	110
955.567	-1619
955.656	-229
955.746	-487
955.835	-795
955.925	-1267
956.014	-613
956.103	-522
956.193	-166
956.282	-539
956.371	-536
956.461	-1050
956.550	-612
956.639	-1037
956.728	-1155
956.817	284
956.906	-838
956.995	-274
957.085	-1586
957.174	-614
957.263	-1058
957.352	210
957.441	-232
957.530	-1499
957.619	-95
957.708	-1318
957.796	-911
957.885	-1093
957.974	-919
958.063	-284
958.152	-1096
958.241	-239
958.329	-1057
958.418	-379
958.507	-806
958.596	-212
958.684	-828
958.773	-337
958.861	-928
958.950	-644
959.039	-813
959.127	-61
959.216	115
959.304	413
959.393	-825
959.481	356
959.570	-248
959.658	-271
959.746	-143
959.835	-39
959.923	-402
960.011	-504
960.100	-180
960.188	-1137
960.276	-1216
960.365	-268
960.453	-1042
960.541	-1090
960.629	-384
960.717	-1518
960.805	-1545
960.893	1
960.981	-537
961.069	380
961.158	-832
961.245	-371
961.333	-1221
961.421	-1262
961.509	-1574
961.597	-191
961.685	-1276
961.773	-966
961.861	-1226
961.949	-108
962.036	-1634
962.124	-210
962.212	-331
962.299	-1011
962.387	-582
962.475	-1411
962.562	-1557
962.650	-321
962.738	-576
962.825	-1008
962.913	-58
963.000	-1562
963.088	-530
963.175	-155
963.263	-830
963.350	-825
963.438	-1110
963.525	-1437
963.612	-371
963.700	-575
963.787	2480
963.874	-183
963.962	-583
964.049	-153
964.136	-1346
964.223	-338
964.310	-383
964.398	-1809
964.485	-679
964.572	-310
964.659	-776
964.746	-562
964.833	-1390
964.920	-979
965.007	-33
965.094	-628
965.181	-1411
965.268	-90
965.355	-672
965.441	-954
965.528	-2053
965.615	34
965.702	-750
965.789	-507
965.875	-749
965.962	-694
966.049	-1806
966.136	-708
966.222	-1075
966.309	-646
966.395	-760
966.482	-284
966.569	-980
966.655	-1102
966.742	-1853
966.828	-744
966.915	-646
967.001	-777
967.087	-1831
967.174	-882
967.260	141
967.347	-344
967.433	524
967.519	1233
967.605	-577
967.692	-1123
967.778	-1054
967.864	-643
967.950	-744
968.036	-1058
968.123	-846
968.209	-743
968.295	-1497
968.381	-18
968.467	-807
968.553	-2177
968.639	-128
968.725	-1311
968.811	229
968.897	-345
968.983	-660
969.069	-1411
969.154	-703
969.240	-696
969.326	-1673
969.412	-873
969.497	-794
969.583	-648
969.669	172
969.755	-1593
969.840	-1438
969.926	-1047
970.012	-810
970.097	450
970.183	-466
970.268	-767
970.354	-593
970.439	-1173
970.525	305
970.610	-1747
970.696	-45
970.781	-1264
970.866	-584
970.952	141
971.037	-1887
971.122	-821
971.208	-281
971.293	-593
971.378	-1323
971.463	-1064
971.549	-1100
971.634	-1366
971.719	-433
971.804	-1410
971.889	-386
971.974	-659
972.059	-1230
972.144	-328
972.229	158
972.314	-2080
972.399	-781
972.484	-1167
972.569	-1147
972.654	-1614
972.739	176
972.824	-1087
972.908	-1092
972.993	-910
973.078	-821
973.163	-737
973.247	-373
973.332	-2652
973.417	-100
973.501	-1684
973.586	-498
973.671	-1281
973.755	-425
973.840	-757
973.924	-721
974.009	-1177
974.093	-1708
974.178	-233
974.262	-594
974.346	-908
974.431	-572
974.515	-1114
974.600	-844
974.684	-873
974.768	-1429
974.852	-231
974.937	-2237
975.021	-858
975.105	-924
975.189	-1156
975.273	-1066
975.358	-1616
975.442	-1681
975.526	422
975.610	-1448
975.694	-1698
975.778	165
975.862	-1291
975.946	-3002
976.030	-613
976.114	-1504
976.198	-765
976.281	-1426
976.365	-749
976.449	-559
976.533	-690
976.617	-770
976.700	-1072
976.784	-1093
976.868	-1468
976.951	-1064
977.035	-1674
977.119	-1439
977.202	-1343
977.286	-1326
977.369	-1091
977.453	15
977.536	-644
977.620	-2008
977.703	-1548
977.787	-1881
977.870	-851
977.953	-94
978.037	-1896
978.120	-850
978.203	-1622
978.287	-45
978.370	-449
978.453	-1640
978.536	-1788
978.620	-992
978.703	-1025
978.786	-1717
978.869	-1262
978.952	-2640
979.035	-868
979.118	-781
979.201	-1705
979.284	-369
979.367	-2135
979.450	-1322
979.533	-2126
979.616	-558
979.699	-2618
979.782	-971
979.865	-710
979.948	-1362
980.030	-1429
980.113	-674
980.196	-1872
980.279	-673
980.361	-1316
980.444	-1612
980.526	-930
980.609	-606
980.692	-1023
980.774	-592
980.857	-1614
980.939	-96
981.022	-1540
981.104	-2366
981.187	-1017
981.269	-808
981.352	-1392
981.434	-2062
981.516	-1767
981.599	-54
981.681	-1785
981.763	-1275
981.846	-547
981.928	-465
982.010	-1409
982.092	-1767
982.174	-1245
982.256	-1311
982.339	-2578
982.421	-847
982.503	-662
982.585	-2055
982.667	-1251
982.749	-976
982.831	-1091
982.913	-2291
982.995	-520
983.077	-1539
983.158	355
983.240	-1972
983.322	-1230
983.404	-1707
983.486	-1584
983.568	-1379
983.649	-1048
983.731	-1241
983.813	-973
983.894	-1225
983.976	-2577
984.058	-855
984.139	-160
984.221	-2533
984.302	-494
984.384	-974
984.465	-1583
984.547	-1863
984.628	-1405
984.710	-829
984.791	-2053
984.872	-1113
984.954	-835
985.035	-1109
985.116	-1274
985.198	-1489
985.279	-655
985.360	-1944
985.441	-686
985.522	-706
985.604	-1177
985.685	-3044
985.766	-289
985.847	197
985.928	-2076
986.009	-1205
986.090	-1384
986.171	-1239
986.252	-2123
986.333	-1514
986.414	-1574
986.495	-1063
986.576	-1091
986.656	-1319
986.737	-1103
986.818	-1431
986.899	-1558
986.980	-1839
987.060	-169
987.141	-2213
987.222	-1210
987.302	-1172
987.383	-862
987.464	-1741
987.544	-1144
987.625	-1479
987.705	-181
987.786	-1345
987.866	-638
987.947	-1536
988.027	-1537
988.108	-1877
988.188	-680
988.268	-1983
988.349	-706
988.429	-1500
988.509	-1513
988.589	-1611
988.670	-2688
988.750	-149
988.830	-1675
988.910	-858
988.990	-1078
989.070	-1496
989.151	-882
989.231	-2482
989.311	-663
989.391	-1850
989.471	-779
989.551	-2006
989.631	-1752
989.711	-1280
989.791	-1921
989.870	-872
989.950	-831
990.030	-987
990.110	-1598
990.190	-1999
990.269	-981
990.349	-1312
990.429	-1323
990.509	-645
990.588	-1601
990.668	-1355
990.747	-1230
990.827	-1750
990.907	-1007
990.986	-2137
991.066	-1170
991.145	-2055
991.225	-1742
991.304	-1520
991.383	-649
991.463	-2100
991.542	-1254
991.622	-1383
991.701	-2476
991.780	-1823
991.859	-1179
991.939	-1409
992.018	-1575
992.097	-1051
992.176	-713
992.256	-2277
992.335	-1548
992.414	-725
992.493	-1314
992.572	-834
992.651	231
992.730	-1768
992.809	-1243
992.888	-1531
992.967	-1488
993.046	-925
993.125	-1851
993.203	-1325
993.282	-805
993.361	-585
993.440	-1703
993.519	-1692
993.597	-981
993.676	-1630
993.755	-749
993.834	-2151
993.912	-2319
993.991	-359
994.069	-1210
994.148	-1855
994.226	-1820
994.305	-443
994.384	-1411
994.462	-869
994.540	-1638
994.619	-2369
994.697	-875
994.776	-1677
994.854	-499
994.932	-1922
995.011	-1037
995.089	-1783
995.167	-1023
995.245	-1060
995.324	-2371
995.402	-810
995.480	-988
995.558	-1643
995.636	-2050
995.714	-1473
995.792	-644
995.870	-1279
995.948	-602
996.026	-258
996.104	-1807
996.182	-448
996.260	-1514
996.338	-1499
996.416	-2315
996.494	-1446
996.572	-527
996.649	-1444
996.727	-1929
996.805	-1313
996.883	-1886
996.960	-1918
997.038	-1019
997.116	-518
997.193	-1985
997.271	-1639
997.348	-2077
997.426	-1788
997.504	-1814
997.581	-392
997.658	-890
997.736	-1827
997.813	-2585
997.891	-361
997.968	-1375
998.046	-2849
998.123	-1832
998.200	-929
998.277	-2137
998.355	-1330
998.432	-1994
998.509	-1825
998.586	-1083
998.663	-1112
998.741	-1681
998.818	-1799
998.895	-1108
998.972	-889
999.049	-1570
999.126	-2024
999.203	-372
999.280	-1216
999.357	-2133
999.434	-1682
999.511	-1028
999.587	-266
999.664	-2579
999.741	-1869
999.818	-1010
999.895	-1561
999.971	-1545
1000.048	-1391
1000.125	-854
1000.202	-1727
1000.278	-1354
1000.355	-1717
1000.431	-615
1000.508	-2163
1000.584	-1635
1000.661	-693
1000.738	-1900
1000.814	-1295
1000.890	-886
1000.967	-1867
1001.043	-1418
1001.120	-2199
1001.196	-1325
1001.272	-1962
1001.349	-1098
1001.425	-730
1001.501	-935
1001.577	-1815
1001.654	-779
1001.730	-1480
1001.806	-862
1001.882	-2801
1001.958	-1086
1002.034	-1458
1002.110	-1563
1002.186	-1978
1002.262	-1415
1002.338	-1847
1002.414	-580
1002.490	-1549
1002.566	-1224
1002.642	-1720
1002.718	-682
1002.794	-1556
1002.870	-1499
1002.945	-1909
1003.021	-1576
1003.097	-1876
1003.173	-624
1003.248	-1472
1003.324	-1760
1003.400	-1178
1003.475	-1872
1003.551	-1515
1003.626	-1697
1003.702	-1511
1003.777	-1505
1003.853	-1699
1003.928	-2188
1004.004	-2255
1004.079	-1093
1004.155	-1233
1004.230	-2242
1004.305	-779
1004.381	-2120
1004.456	-1779
1004.531	-982
1004.607	-314
1004.682	-1599
1004.757	-1662
1004.832	-1192
1004.907	-807
1004.982	-1023
1005.057	-709
1005.133	-1109
1005.208	-1588
1005.283	-1774
1005.358	-888
1005.433	-1135
1005.508	-859
1005.583	-2318
1005.657	-2017
1005.732	-889
1005.807	-1902
1005.882	-1834
1005.957	-957
1006.032	-1254
1006.106	-1942
1006.181	-2052
1006.256	-1369
1006.331	-1021
1006.405	-1463
1006.480	-1127
1006.554	-1147
1006.629	-1410
1006.704	-1346
1006.778	-1729
1006.853	-1556
1006.927	-1702
1007.002	-2628
1007.076	-974
1007.150	-1124
1007.225	-1041
1007.299	-1053
1007.373	-1841
1007.448	-741
1007.522	-1288
1007.596	-1713
1007.671	-1475
1007.745	-1401
1007.819	-1712
1007.893	-2764
1007.967	-976
1008.041	-2314
1008.115	-1041
1008.190	-1717
1008.264	-1690
1008.338	-2334
1008.412	-1973
1008.486	-1605
1008.560	-1249
1008.633	-1530
1008.707	-2141
1008.781	-915
1008.855	-1786
1008.929	-2268
1009.003	-2232
1009.076	-2383
1009.150	-1758
1009.224	-2323
1009.298	-1275
1009.371	-2438
1009.445	-1352
1009.519	-1346
1009.592	-2056
1009.666	-1513
1009.739	-1232
1009.813	-1830
1009.886	-761
1009.960	-1886
1010.033	-1617
1010.107	-1806
1010.180	-2322
1010.253	-1522
1010.327	-1975
1010.400	-2305
1010.473	-1797
1010.547	-788
1010.620	-2194
1010.693	-1394
1010.766	-1833
1010.840	-1264
1010.913	-1209
1010.986	-1325
1011.059	-1404
1011.132	-2072
1011.205	-553
1011.278	-2028
1011.351	-813
1011.424	-1959
1011.497	-2503
1011.570	-1553
1011.643	-2672
1011.716	-2104
1011.789	-2273
1011.862	-1616
1011.934	-1144
1012.007	-3560
1012.080	-1914
1012.153	-1224
1012.225	-536
1012.298	-1620
1012.371	-2204
1012.443	-1747
1012.516	-1732
1012.588	-1595
1012.661	-1049
1012.733	-1522
1012.806	-1737
1012.879	-2081
1012.951	-1780
1013.023	-2347
1013.096	-2286
1013.168	-1471
1013.241	-986
1013.313	-1754
1013.385	-2065
1013.458	-2001
1013.530	-1445
1013.602	-2684
1013.674	-1031
1013.746	-2553
1013.819	-1775
1013.891	-437
1013.963	-2255
1014.035	-1298
1014.107	-1301
1014.179	-834
1014.251	-1661
1014.323	-1355
1014.395	-1675
1014.467	-1561
1014.539	-1733
1014.611	-1997
1014.683	-1666
1014.754	-1622
1014.826	-1868
1014.898	-2025
1014.970	-2543
1015.042	-1832
1015.113	-1186
1015.185	-2144
1015.257	-2395
1015.328	-987
1015.400	-2392
1015.471	-1663
1015.543	-2445
1015.615	-1856
1015.686	-2141
1015.757	-2622
1015.829	-1594
1015.901	-2385
1015.972	-1908
1016.043	-1297
1016.115	-1401
1016.186	-1817
1016.257	-1824
1016.328	-1204
1016.400	-602
1016.471	-2782
1016.542	-1792
1016.613	-863
1016.685	-1434
1016.756	-1356
1016.827	-2128
1016.898	-2318
1016.969	-927
1017.040	-1457
1017.111	-1959
1017.182	-2119
1017.253	-2615
1017.324	-2260
1017.395	-2063
1017.466	-1757
1017.537	-2317
1017.608	-1950
1017.678	-2005
1017.749	-1944
1017.820	-1826
1017.891	-1726
1017.961	-1900
1018.032	-2527
1018.103	-1143
1018.173	-1858
1018.244	-1331
1018.315	-2183
1018.385	-1462
1018.456	-1851
1018.526	-2152
1018.597	-1998
1018.667	-2094
1018.738	-2005
1018.808	-1949
1018.878	-2900
1018.949	-1643
1019.019	-2037
1019.089	-2258
1019.160	-1882
1019.230	-1969
1019.300	-1044
1019.371	-2789
1019.441	-2202
1019.511	-1499
1019.581	-2198
1019.651	-1350
1019.721	-1775
1019.791	-1915
1019.861	-2321
1019.931	-1891
1020.001	-1917
1020.071	-2422
1020.141	-2117
1020.211	-2472
1020.281	-2004
1020.351	-1984
1020.421	-1457
1020.491	-1551
1020.560	-2903
1020.630	-2123
1020.700	-1646
1020.770	-2421
1020.839	-1189
1020.909	-1808
1020.979	-2102
1021.048	-2370
1021.118	-1676
1021.187	-2267
1021.257	-1619
1021.326	-1482
1021.396	-1756
1021.465	-2421
1021.535	-2279
1021.604	-2368
1021.674	-1993
1021.743	-2520
1021.812	-1053
1021.882	-2236
1021.951	-1646
1022.020	-1440
1022.089	-2008
1022.159	-1881
1022.228	-1996
1022.297	-2311
1022.366	-2817
1022.435	-2625
1022.504	-1702
1022.573	-2110
1022.642	-2137
1022.711	-2928
1022.781	-1998
1022.849	-1941
1022.918	-1914
1022.987	-1727
1023.056	-2102
1023.125	-2065
1023.194	-2427
1023.263	-1712
1023.331	-1040
1023.400	-1698
1023.469	-2219
1023.538	-982
1023.606	-1943
1023.675	-1378
1023.744	-2459
1023.812	-2762
1023.881	-2067
1023.949	-2888
1024.018	-2520
1024.086	-2270
1024.155	-2123
1024.223	-1835
1024.292	-2033
1024.360	-1935
1024.429	-2343
1024.497	-1922
1024.565	-1418
1024.634	-2034
1024.702	-1359
1024.770	-1221
1024.838	-2092
1024.907	-1388
1024.975	-2312
1025.043	-1593
1025.111	-2652
1025.179	-1990
1025.247	-1564
1025.315	-1956
1025.383	-2044
1025.451	-2294
1025.519	-1693
1025.587	-2242
1025.655	-1932
1025.723	-2310
1025.791	-2276
1025.859	-1703
1025.927	-1697
1025.995	-2388
1026.062	-1316
1026.130	-1278
1026.198	-2630
1026.266	-1980
1026.333	-1853
1026.401	-2152
1026.469	-1998
1026.536	-2212
1026.604	-1725
1026.671	-2335
1026.739	-2176
1026.806	-1473
1026.874	-2167
1026.941	-2417
1027.009	-2086
1027.076	-1545
1027.144	-1459
1027.211	-2404
1027.278	-1981
1027.345	-1956
1027.413	-1258
1027.480	-2651
1027.547	-976
1027.614	-1754
1027.682	-2043
1027.749	-2319
1027.816	-2886
1027.883	-1641
1027.950	-1807
1028.017	-1918
1028.084	-1614
1028.151	-2656
1028.218	-981
1028.285	-1697
1028.352	-2015
1028.419	-1640
1028.486	-2152
1028.553	-2461
1028.619	-2459
1028.686	-1239
1028.753	-2653
1028.820	-1496
1028.886	-2183
1028.953	-1875
1029.020	-2113
1029.086	-2197
1029.153	-2265
1029.220	-2370
1029.286	-1815
1029.353	-2611
1029.419	-2423
1029.486	-2769
1029.552	-1666
1029.619	-2452
1029.685	-2158
1029.751	-2312
1029.818	-1030
1029.884	-1702
1029.951	-1810
1030.017	-2011
1030.083	-2632
1030.149	-2216
1030.216	-2649
1030.282	-1868
1030.348	-2257
1030.414	-2083
1030.480	-2416
1030.546	-1865
1030.612	-2237
1030.678	-2282
1030.744	-2787
1030.810	-2003
1030.876	-2218
1030.942	-1311
1031.008	-2322
1031.074	-3094
1031.140	-2566
1031.206	-2121
1031.272	-2815
1031.337	-1647
1031.403	-2523
1031.469	-1810
1031.534	-2511
1031.600	-1727
1031.666	-1739
1031.731	-2257
1031.797	-2058
1031.863	-1275
1031.928	-2645
1031.994	-1051
1032.059	-1555
1032.125	-2503
1032.190	-2565
1032.256	-2871
1032.321	-2195
1032.386	-1827
1032.452	-2246
1032.517	-1393
1032.582	-2182
1032.647	-1894
1032.713	-2138
1032.778	-2684
1032.843	-2315
1032.908	-2634
1032.974	-1991
1033.039	-1947
1033.104	-1078
1033.169	-2189
1033.234	-2036
1033.299	-2527
1033.364	-1863
1033.429	-1682
1033.494	-1029
1033.559	-2639
1033.624	-2087
1033.688	-1765
1033.753	-2351
1033.818	-2381
1033.883	-2760
1033.948	-2429
1034.013	-2438
1034.077	-1495
1034.142	-2236
1034.207	-1561
1034.271	-994
1034.336	-967
1034.400	-1044
1034.465	-2029
1034.530	-1445
1034.594	-1599
1034.658	-2588
1034.723	-2592
1034.787	-1811
1034.852	-1943
1034.916	-2413
1034.981	-2127
1035.045	-1978
1035.109	-2385
1035.173	-2491
1035.238	-2681
1035.302	-1986
1035.366	-1413
1035.430	-1502
1035.495	-2822
1035.559	-2230
1035.623	-2306
1035.687	-2724
1035.751	-2938
1035.815	-2940
1035.879	-2290
1035.943	-1275
1036.007	-2482
1036.071	-2084
1036.135	-2216
1036.198	-2295
1036.262	-1968
1036.326	-2146
1036.390	-2117
1036.454	-1838
1036.517	-1835
1036.581	-2189
1036.645	-2548
1036.709	-1844
1036.772	-3197
1036.836	-1950
1036.900	-2405
1036.963	-2936
1037.026	-2189
1037.090	-1783
1037.154	-2539
1037.217	-2315
1037.280	-2197
1037.344	-2626
1037.407	-3047
1037.471	-2357
1037.534	-2412
1037.597	-2550
1037.661	-2153
1037.724	-2959
1037.787	-2729
1037.850	-2461
1037.913	-3000
1037.977	-2095
1038.040	-2237
1038.103	-2398
1038.166	-2633
1038.229	-2217
1038.292	-2336
1038.355	-2306
1038.418	-2788
1038.481	-1855
1038.544	-2144
1038.607	-2503
1038.670	-1743
1038.732	-1912
1038.795	-2955
1038.858	-3027
1038.921	-1915
1038.984	-1988
1039.046	-3049
1039.109	-1640
1039.172	-2292
1039.234	-2319
1039.297	-1972
1039.360	-2149
1039.422	-1649
1039.485	-2567
1039.547	-2645
1039.610	-2381
1039.672	-2291
1039.734	-2244
1039.797	-2320
1039.859	-2474
1039.922	-2995
1039.984	-2426
1040.046	-2089
1040.109	-1975
1040.171	-3217
1040.233	-2015
1040.295	-2574
1040.358	-2702
1040.420	-2623
1040.482	-2296
1040.544	-3579
1040.606	-3099
1040.668	-2493
1040.730	-2960
1040.792	-3011
1040.854	-2642
1040.916	-2741
1040.978	-3089
1041.040	-2059
1041.102	-2106
1041.164	-2828
1041.225	-2186
1041.287	-3144
1041.349	-2605
1041.411	-3310
1041.472	-2165
1041.534	-2674
1041.596	-2619
1041.657	-2026
1041.719	-2352
1041.781	-3131
1041.842	-2691
1041.904	-2078
1041.965	-2731
1042.027	-2444
1042.088	-2678
1042.150	-2689
1042.211	-2788
1042.272	-2062
1042.334	-2859
1042.395	-2650
1042.456	-3174
1042.518	-1940
1042.579	-2434
1042.640	-2505
1042.701	-1972
1042.763	-2607
1042.824	-2666
1042.885	-2970
1042.946	-2294
1043.007	-2802
1043.068	-2571
1043.129	-2141
1043.190	-2894
1043.251	-2627
1043.312	-2355
1043.373	-2306
1043.434	-2939
1043.495	-2253
1043.556	-2451
1043.616	-2469
1043.677	-2559
1043.738	-1439
1043.799	-3107
1043.859	-2650
1043.920	-3029
1043.981	-2668
1044.041	-2129
1044.102	-3088
1044.162	-2506
1044.223	-2871
1044.284	-2866
1044.344	-2921
1044.405	-2750
1044.465	-2406
1044.525	-1517
1044.586	-2553
1044.646	-2499
1044.707	-1835
1044.767	-2497
1044.827	-2297
1044.887	-2712
1044.948	-2493
1045.008	-2683
1045.068	-2419
1045.128	-2993
1045.188	-1972
1045.249	-1989
1045.309	-2356
1045.369	-2952
1045.429	-2816
1045.489	-2729
1045.549	-2595
1045.609	-2385
1045.669	-1830
1045.729	-2126
1045.789	-2019
1045.848	-2121
1045.908	-2202
1045.968	-2076
1046.028	-2515
1046.088	-2437
1046.147	-1427
1046.207	-1614
1046.267	-2983
1046.326	-1517
1046.386	-2194
1046.446	-2071
1046.505	-2278
1046.565	-1225
1046.624	-2134
1046.684	-549
1046.743	-1506
1046.803	-1088
1046.862	-1176
1046.922	0
