'Start Wavelength	183.907
'End Wavelength	1046.922
'Gate Delay	5.000
'Gate Width (ms)	1.050
'Laser Output Level	0.000
'X Position	0.000
'Y Position	0.000
'Z Position	0.000
'Grid Point Number	1.000
'Shot Number	100.000
183.907	-622.000
183.977	116.000
184.047	-238
184.116	633
184.186	67
184.256	-224
184.325	-626
184.395	-1311
184.465	516
184.534	285
184.604	-267
184.674	-290
184.743	-287
184.813	157
184.883	150
184.952	11
185.022	135
185.092	-166
185.161	260
185.231	193
185.301	-353
185.370	1162
185.440	-747
185.509	-330
185.579	-499
185.649	38
185.718	91
185.788	447
185.857	-219
185.927	-483
185.996	-470
186.066	112
186.136	6
186.205	-309
186.275	-922
186.344	-15
186.414	-680
186.483	-1011
186.553	650
186.622	65
186.692	269
186.761	-209
186.831	-115
186.900	-931
186.970	192
187.039	102
187.109	-997
187.178	-30
187.248	-285
187.317	-577
187.387	-713
187.456	373
187.526	-857
187.595	-382
187.664	-663
187.734	-588
187.803	-524
187.873	174
187.942	-809
188.012	-440
188.081	-509
188.150	-108
188.220	182
188.289	252
188.358	154
188.428	-219
188.497	-683
188.567	114
188.636	-666
188.705	161
188.775	-243
188.844	-1267
188.913	61
188.983	-57
189.052	-452
189.121	-542
189.191	-1484
189.260	12
189.329	-112
189.399	-168
189.468	-493
189.537	-327
189.606	-109
189.676	-356
189.745	-392
189.814	256
189.883	-1130
189.953	644
190.022	-315
190.091	-55
190.161	-1101
190.230	613
190.299	-409
190.368	-1116
190.437	-128
190.507	641
190.576	-541
190.645	-172
190.714	-53
190.783	-749
190.853	246
190.922	-67
190.991	351
191.060	-102
191.129	-993
191.198	688
191.268	-695
191.337	-486
191.406	-132
191.475	99
191.544	-475
191.613	114
191.682	-789
191.752	355
191.821	122
191.890	56
191.959	103
192.028	623
192.097	209
192.166	-245
192.235	-874
192.304	-155
192.373	-448
192.442	-123
192.511	344
192.580	169
192.650	-552
192.719	-22
192.788	-81
192.857	200
192.926	-556
192.995	-397
193.064	77
193.133	-739
193.202	-346
193.271	873
193.340	-184
193.409	-312
193.478	-316
193.547	-468
193.615	-375
193.684	1
193.753	-201
193.822	163
193.891	-135
193.960	-370
194.029	-517
194.098	146
194.167	-673
194.236	313
194.305	-540
194.374	-735
194.443	66
194.512	-541
194.580	149
194.649	142
194.718	-347
194.787	-235
194.856	-729
194.925	-319
194.994	-357
195.062	-75
195.131	-253
195.200	230
195.269	399
195.338	287
195.407	-452
195.475	-678
195.544	234
195.613	-308
195.682	-355
195.751	-275
195.819	-774
195.888	415
195.957	581
196.026	-508
196.094	-272
196.163	253
196.232	-422
196.301	-197
196.369	-731
196.438	-157
196.507	-498
196.576	-481
196.644	-296
196.713	-280
196.782	-706
196.850	203
196.919	-868
196.988	2
197.056	-777
197.125	-107
197.194	-667
197.262	-146
197.331	-344
197.400	-413
197.468	-252
197.537	-1041
197.606	-1363
197.674	-65
197.743	-596
197.812	-412
197.880	-764
197.949	-696
198.017	-753
198.086	-717
198.155	-449
198.223	-185
198.292	-825
198.360	74
198.429	134
198.497	-607
198.566	-1172
198.635	-140
198.703	377
198.772	-40
198.840	-805
198.909	-421
198.977	-602
199.046	-736
199.114	-476
199.183	-616
199.251	13
199.320	-896
199.388	-915
199.457	-379
199.525	-681
199.594	-44
199.662	-349
199.731	-573
199.799	-226
199.867	438
199.936	-921
200.004	35
200.073	86
200.141	71
200.210	-1264
200.278	-519
200.346	-1383
200.415	75
200.483	-440
200.552	436
200.620	-729
200.688	-251
200.757	-247
200.825	509
200.893	-885
200.962	-801
201.030	-877
201.098	-274
201.167	-1214
201.235	-229
201.303	-1094
201.372	-40
201.440	-144
201.508	-50
201.577	-344
201.645	-525
201.713	-425
201.781	-344
201.850	-56
201.918	-490
201.986	-943
202.055	442
202.123	-628
202.191	-356
202.259	-409
202.327	-579
202.396	136
202.464	-119
202.532	-380
202.600	440
202.669	-249
202.737	-417
202.805	136
202.873	241
202.941	-473
203.009	55
203.078	-1060
203.146	-1032
203.214	-1625
203.282	-479
203.350	-767
203.418	-728
203.487	-303
203.555	-335
203.623	-692
203.691	80
203.759	-611
203.827	-556
203.895	-648
203.963	-895
204.031	-433
204.099	-679
204.168	-602
204.236	-268
204.304	-726
204.372	-199
204.440	-774
204.508	-926
204.576	-603
204.644	-566
204.712	-536
204.780	30
204.848	-351
204.916	-656
204.984	-62
205.052	-67
205.120	-568
205.188	-372
205.256	-246
205.324	-571
205.392	-762
205.460	-521
205.528	-907
205.596	-674
205.664	-361
205.732	-806
205.799	-589
205.867	272
205.935	-966
206.003	-339
206.071	-884
206.139	-305
206.207	-1042
206.275	-58
206.343	-837
206.411	-285
206.478	-522
206.546	-303
206.614	-1006
206.682	-35
206.750	-735
206.818	-436
206.885	-334
206.953	-1414
207.021	132
207.089	-239
207.157	-1316
207.225	334
207.292	-1127
207.360	-582
207.428	-422
207.496	-749
207.563	-1154
207.631	-266
207.699	-1117
207.767	-161
207.834	-1464
207.902	28
207.970	-374
208.038	-903
208.105	-129
208.173	-562
208.241	-986
208.309	91
208.376	-319
208.444	66
208.512	-442
208.579	-1068
208.647	-630
208.715	299
208.782	-1066
208.850	597
208.918	-872
208.985	-125
209.053	-434
209.120	-337
209.188	-804
209.256	-164
209.323	-1502
209.391	-970
209.459	623
209.526	926
209.594	-1241
209.661	145
209.729	-225
209.796	-449
209.864	-405
209.932	-1443
209.999	481
210.067	-484
210.134	-672
210.202	-162
210.269	-758
210.337	-90
210.404	-677
210.472	-218
210.539	-761
210.607	-810
210.674	-775
210.742	-549
210.809	-1097
210.877	-205
210.944	-949
211.012	-975
211.079	657
211.146	-1103
211.214	-731
211.281	229
211.349	-150
211.416	-731
211.484	174
211.551	-128
211.618	-473
211.686	54
211.753	-894
211.821	431
211.888	-1235
211.955	307
212.023	-635
212.090	-130
212.157	-645
212.225	-783
212.292	-231
212.359	-525
212.427	-158
212.494	279
212.561	-384
212.629	-221
212.696	-590
212.763	-407
212.831	-1199
212.898	-527
212.965	-1289
213.032	-453
213.100	-748
213.167	-643
213.234	208
213.301	-1019
213.369	-507
213.436	-580
213.503	-1880
213.570	274
213.638	-190
213.705	-1207
213.772	-925
213.839	-671
213.906	-17
213.973	-69
214.041	-891
214.108	-354
214.175	-1031
214.242	-1044
214.309	-686
214.376	246
214.444	-1496
214.511	-915
214.578	-637
214.645	-377
214.712	-351
214.779	-208
214.846	-1184
214.913	-243
214.980	-1139
215.048	-366
215.115	-542
215.182	-248
215.249	-235
215.316	-454
215.383	-210
215.450	-403
215.517	-1512
215.584	50
215.651	-1016
215.718	-772
215.785	-894
215.852	-1122
215.919	-1062
215.986	-390
216.053	-751
216.120	-1168
216.187	-70
216.254	-682
216.321	-1237
216.388	-931
216.455	-445
216.522	335
216.589	-725
216.656	-590
216.722	-777
216.789	-221
216.856	-944
216.923	-667
216.990	-568
217.057	-1271
217.124	-523
217.191	-1125
217.258	-248
217.324	-1007
217.391	-1094
217.458	327
217.525	-1337
217.592	-999
217.659	-1792
217.725	230
217.792	-1443
217.859	662
217.926	-1539
217.993	-255
218.059	-178
218.126	300
218.193	-152
218.260	-983
218.327	-870
218.393	-1265
218.460	-471
218.527	-1386
218.594	-1198
218.660	-662
218.727	-633
218.794	239
218.860	-183
218.927	-490
218.994	-1296
219.061	-606
219.127	-1369
219.194	66
219.261	-1026
219.327	-363
219.394	-487
219.461	-1495
219.527	-1036
219.594	-132
219.661	-805
219.727	-1532
219.794	-498
219.860	-1114
219.927	-156
219.994	497
220.060	263
220.127	1760
220.193	-447
220.260	-570
220.326	-251
220.393	-794
220.460	-1031
220.526	-1196
220.593	-671
220.659	547
220.726	-1084
220.792	-257
220.859	-507
220.925	-56
220.992	513
221.058	122
221.125	-304
221.191	23
221.258	-1128
221.324	-296
221.391	-1374
221.457	-770
221.524	-1037
221.590	-397
221.657	-302
221.723	-376
221.789	-713
221.856	-208
221.922	-755
221.989	268
222.055	-651
222.121	-1073
222.188	420
222.254	-587
222.321	-786
222.387	-877
222.453	-598
222.520	-138
222.586	-1286
222.652	189
222.719	-1160
222.785	433
222.851	-483
222.918	-321
222.984	-731
223.050	-450
223.116	-1722
223.183	946
223.249	-286
223.315	-879
223.382	-937
223.448	-342
223.514	-1449
223.580	-777
223.647	-314
223.713	-781
223.779	-359
223.845	-112
223.911	-309
223.978	-789
224.044	-673
224.110	-546
224.176	-628
224.242	-394
224.309	-1500
224.375	-208
224.441	-460
224.507	-828
224.573	-1625
224.639	-196
224.705	-934
224.772	-630
224.838	-1491
224.904	129
224.970	-1316
225.036	-823
225.102	-1448
225.168	73
225.234	144
225.300	-1191
225.366	-616
225.432	-167
225.499	-1245
225.565	-140
225.631	-1459
225.697	-388
225.763	-1132
225.829	-383
225.895	-848
225.961	39
226.027	-747
226.093	-643
226.159	-274
226.225	36
226.291	-753
226.357	238
226.423	-18
226.489	-93
226.554	-1445
226.620	-654
226.686	-841
226.752	-688
226.818	-1015
226.884	770
226.950	958
227.016	421
227.082	120
227.148	-648
227.214	-288
227.279	-293
227.345	-1328
227.411	-232
227.477	658
227.543	2438
227.609	1293
227.674	1082
227.740	-244
227.806	-337
227.872	-912
227.938	-179
228.003	-547
228.069	-591
228.135	-1356
228.201	44
228.267	-1215
228.332	-452
228.398	-1904
228.464	243
228.530	-1438
228.595	-421
228.661	-1287
228.727	-1000
228.792	400
228.858	-757
228.924	-1883
228.990	993
229.055	-2129
229.121	-383
229.187	-1324
229.252	-589
229.318	-648
229.384	332
229.449	-842
229.515	-1648
229.581	-1533
229.646	1528
229.712	-734
229.777	-685
229.843	-884
229.909	-787
229.974	-760
230.040	-454
230.105	-442
230.171	-503
230.236	-477
230.302	-29
230.368	-1079
230.433	-1914
230.499	-348
230.564	-239
230.630	-1209
230.695	-171
230.761	-193
230.826	-1895
230.892	469
230.957	-809
231.023	-963
231.088	-817
231.154	-802
231.219	-711
231.284	-962
231.350	430
231.415	-2103
231.481	29
231.546	-419
231.612	-268
231.677	-1341
231.742	-1870
231.808	192
231.873	-832
231.939	-1675
232.004	1267
232.069	415
232.135	-750
232.200	-1080
232.265	-429
232.331	-1020
232.396	-611
232.461	-776
232.527	-1151
232.592	-1567
232.657	235
232.723	-933
232.788	-361
232.853	184
232.918	-424
232.984	-1001
233.049	-680
233.114	-968
233.179	-554
233.245	332
233.310	-608
233.375	-2115
233.440	624
233.506	-1349
233.571	-184
233.636	-1377
233.701	91
233.766	-632
233.832	-440
233.897	-547
233.962	-1450
234.027	-24
234.092	-158
234.157	-686
234.222	-1155
234.288	-925
234.353	-4
234.418	-176
234.483	-121
234.548	-1104
234.613	-662
234.678	-64
234.743	-1497
234.808	247
234.873	-1669
234.938	-65
235.004	-864
235.069	-797
235.134	-765
235.199	-318
235.264	328
235.329	-1904
235.394	177
235.459	-510
235.524	-1110
235.589	280
235.654	-1460
235.719	-2043
235.784	511
235.849	-817
235.913	-867
235.978	-980
236.043	-529
236.108	-615
236.173	-1442
236.238	-649
236.303	-1408
236.368	-1208
236.433	392
236.498	-1594
236.563	229
236.627	-750
236.692	2132
236.757	383
236.822	-828
236.887	-1070
236.952	355
237.017	-1975
237.081	-105
237.146	-1487
237.211	62
237.276	1195
237.341	4007
237.405	-373
237.470	-951
237.535	-124
237.600	-355
237.664	-822
237.729	-1532
237.794	-1116
237.859	182
237.923	-490
237.988	-470
238.053	-580
238.118	-1315
238.182	-784
238.247	669
238.312	-1784
238.376	-7
238.441	-2737
238.506	278
238.570	-1478
238.635	670
238.700	-706
238.764	-935
238.829	-933
238.893	-1457
238.958	145
239.023	-301
239.087	-1135
239.152	-687
239.216	-1123
239.281	-759
239.346	-990
239.410	-641
239.475	-494
239.539	134
239.604	-1298
239.668	-284
239.733	-299
239.797	2422
239.862	3750
239.926	2469
239.991	831
240.055	330
240.120	-756
240.184	6
240.249	-1547
240.313	-374
240.378	-1230
240.442	-533
240.507	-962
240.571	-1327
240.635	-1198
240.700	-781
240.764	-1275
240.829	-569
240.893	-1741
240.957	-441
241.022	-569
241.086	315
241.151	-651
241.215	-1435
241.279	-788
241.344	-1149
241.408	-509
241.472	-941
241.537	295
241.601	-236
241.665	-2323
241.730	-749
241.794	-356
241.858	-1021
241.922	-1074
241.987	-1404
242.051	-979
242.115	-2066
242.179	-1370
242.244	-1440
242.308	-506
242.372	-903
242.436	-636
242.501	-1093
242.565	-1318
242.629	-1347
242.693	-205
242.757	-1583
242.822	-148
242.886	-536
242.950	-546
243.014	-1408
243.078	-598
243.142	-1155
243.206	-1540
243.271	-397
243.335	-1193
243.399	329
243.463	-558
243.527	2073
243.591	-1232
243.655	-874
243.719	-1066
243.783	512
243.847	-670
243.911	162
243.975	-1543
244.040	-1114
244.104	580
244.168	-276
244.232	-1603
244.296	-900
244.360	-551
244.424	-1303
244.488	-824
244.552	-212
244.615	-2278
244.679	-160
244.743	-1072
244.807	-1190
244.871	-993
244.935	229
244.999	-1873
245.063	-539
245.127	-275
245.191	-799
245.255	-1356
245.319	-403
245.383	-1875
245.446	671
245.510	-2074
245.574	-68
245.638	29
245.702	-2127
245.766	105
245.829	1021
245.893	-1794
245.957	-1152
246.021	-387
246.085	-1323
246.149	-650
246.212	605
246.276	-701
246.340	-1182
246.404	-239
246.467	281
246.531	-3372
246.595	229
246.659	-49
246.722	-1149
246.786	-1080
246.850	-452
246.913	-395
246.977	-1324
247.041	-940
247.104	-768
247.168	-1301
247.232	-15
247.295	-301
247.359	-708
247.423	-1382
247.486	-420
247.550	-534
247.614	-495
247.677	-592
247.741	-161
247.804	-266
247.868	171
247.932	-1406
247.995	545
248.059	-720
248.122	-1876
248.186	-35
248.249	-38
248.313	494
248.376	1305
248.440	16
248.503	-1510
248.567	267
248.630	-1076
248.694	-1003
248.757	498
248.821	1541
248.884	1384
248.948	-334
249.011	1062
249.075	346
249.138	1562
249.202	-649
249.265	-1348
249.328	245
249.392	-1888
249.455	-167
249.519	-903
249.582	-682
249.645	-499
249.709	-454
249.772	-899
249.835	-958
249.899	-649
249.962	-378
250.025	-1041
250.089	-89
250.152	1582
250.215	-1415
250.279	-1334
250.342	-262
250.405	-120
250.468	-904
250.532	-147
250.595	-253
250.658	977
250.721	4955
250.785	400
250.848	477
250.911	-583
250.974	-22
251.038	-1063
251.101	425
251.164	-320
251.227	579
251.290	-468
251.354	-125
251.417	3534
251.480	3354
251.543	1073
251.606	6866
251.669	5588
251.732	1028
251.795	634
251.859	1158
251.922	3892
251.985	2131
252.048	1422
252.111	224
252.174	-1198
252.237	-10
252.300	1797
252.363	732
252.426	6615
252.489	578
252.552	89
252.615	-1254
252.678	444
252.741	1191
252.804	936
252.867	6350
252.930	2551
252.993	526
253.056	451
253.119	-1009
253.182	-529
253.245	-1150
253.308	23
253.371	-1457
253.434	-449
253.497	-364
253.559	1058
253.622	-262
253.685	-786
253.748	-598
253.811	-1416
253.874	27
253.937	-812
254.000	-679
254.062	49
254.125	-920
254.188	1351
254.251	-1196
254.314	-387
254.376	-632
254.439	154
254.502	-360
254.565	-1092
254.628	1047
254.690	-1119
254.753	-706
254.816	-248
254.878	-1291
254.941	84
255.004	57
255.067	-371
255.129	-1584
255.192	-863
255.255	-1583
255.317	-413
255.380	-657
255.443	-427
255.505	-1300
255.568	-1829
255.631	-1829
255.693	116
255.756	-1535
255.819	513
255.881	-901
255.944	-365
256.006	-859
256.069	-1072
256.132	-864
256.194	-852
256.257	-688
256.319	-667
256.382	-757
256.444	663
256.507	-226
256.569	-1055
256.632	-1408
256.694	-1592
256.757	76
256.819	3721
256.882	-1085
256.944	267
257.007	480
257.069	-909
257.132	-634
257.194	-313
257.257	-1345
257.319	-971
257.381	-1808
257.444	872
257.506	2551
257.569	4014
257.631	186
257.693	196
257.756	-339
257.818	-928
257.880	-1419
257.943	285
258.005	-943
258.067	-495
258.130	-1147
258.192	-472
258.254	-1007
258.317	-168
258.379	-177
258.441	-743
258.503	-91
258.566	-962
258.628	92
258.690	-1314
258.753	303
258.815	-620
258.877	-1922
258.939	-121
259.001	-534
259.064	-1394
259.126	-1133
259.188	-109
259.250	-551
259.312	-495
259.375	-829
259.437	-641
259.499	-596
259.561	-866
259.623	-870
259.685	-1376
259.747	-623
259.809	-889
259.872	-107
259.934	872
259.996	1281
260.058	240
260.120	-1675
260.182	-39
260.244	-672
260.306	-739
260.368	-534
260.430	-589
260.492	-510
260.554	1122
260.616	-965
260.678	-641
260.740	-260
260.802	-1021
260.864	-99
260.926	-1688
260.988	435
261.050	-983
261.112	-339
261.174	1488
261.236	-139
261.298	-650
261.359	-264
261.421	60
261.483	-1789
261.545	151
261.607	-1612
261.669	-315
261.731	-609
261.793	462
261.854	-2091
261.916	-525
261.978	-1272
262.040	-94
262.102	-564
262.164	-877
262.225	-92
262.287	-449
262.349	-778
262.411	-129
262.472	-411
262.534	-630
262.596	-730
262.658	-748
262.719	-1100
262.781	198
262.843	-771
262.904	370
262.966	28
263.028	-251
263.090	316
263.151	1193
263.213	2
263.275	-55
263.336	-266
263.398	166
263.459	-649
263.521	100
263.583	-98
263.644	-710
263.706	-1525
263.767	-714
263.829	-362
263.891	-557
263.952	-267
264.014	-702
264.075	-1260
264.137	521
264.198	-309
264.260	-485
264.321	-112
264.383	-361
264.444	908
264.506	-434
264.567	-1051
264.629	472
264.690	-79
264.752	-569
264.813	-922
264.875	-831
264.936	-306
264.998	-1062
265.059	-963
265.120	-261
265.182	-1002
265.243	-157
265.305	227
265.366	145
265.427	-167
265.489	345
265.550	-1163
265.611	-746
265.673	-1329
265.734	-741
265.795	-515
265.857	-1253
265.918	-1230
265.979	343
266.040	1285
266.102	1909
266.163	-738
266.224	-567
266.286	-1109
266.347	-933
266.408	-778
266.469	-174
266.530	-928
266.592	43
266.653	-1030
266.714	-348
266.775	-684
266.836	-371
266.898	-972
266.959	-780
267.020	-864
267.081	677
267.142	-723
267.203	229
267.264	-611
267.326	1395
267.387	-630
267.448	-1498
267.509	521
267.570	-265
267.631	-860
267.692	-876
267.753	35
267.814	-716
267.875	-603
267.936	-500
267.997	-506
268.058	-591
268.119	-1623
268.180	-374
268.241	-794
268.302	-1119
268.363	-1301
268.424	-416
268.485	-1185
268.546	-476
268.607	-1054
268.668	-465
268.729	-1509
268.790	-1084
268.851	-718
268.912	-1172
268.972	-706
269.033	-650
269.094	-1548
269.155	-649
269.216	-1601
269.277	-1548
269.338	-1168
269.398	209
269.459	-1073
269.520	-363
269.581	-1499
269.642	-669
269.702	-799
269.763	-141
269.824	-650
269.885	-886
269.945	-1100
270.006	-385
270.067	-2019
270.128	-759
270.188	-949
270.249	-1342
270.310	-824
270.370	193
270.431	-1026
270.492	-850
270.553	-793
270.613	-1003
270.674	-311
270.734	-1547
270.795	-1167
270.856	-272
270.916	-1304
270.977	-971
271.038	-298
271.098	-801
271.159	-219
271.219	-476
271.280	-175
271.340	212
271.401	-1707
271.462	-286
271.522	-344
271.583	-490
271.643	-871
271.704	45
271.764	-822
271.825	-725
271.885	1274
271.946	1820
272.006	-123
272.066	407
272.127	1800
272.187	2666
272.248	529
272.308	-737
272.369	1402
272.429	320
272.489	-680
272.550	-17
272.610	382
272.671	-588
272.731	-739
272.791	-78
272.852	-1042
272.912	-444
272.972	-241
273.033	94
273.093	-720
273.153	1113
273.214	-185
273.274	7
273.334	588
273.394	1980
273.455	1202
273.515	2126
273.575	1666
273.635	1556
273.696	1646
273.756	2656
273.816	1565
273.876	708
273.936	716
273.997	1279
274.057	-106
274.117	-9
274.177	-148
274.237	1196
274.297	1225
274.358	189
274.418	656
274.478	591
274.538	-571
274.598	-818
274.658	187
274.718	-298
274.778	-255
274.838	-621
274.898	-1454
274.958	581
275.018	750
275.078	593
275.138	-105
275.198	-449
275.258	-816
275.318	-689
275.378	-610
275.438	404
275.498	-209
275.558	-31
275.618	614
275.678	458
275.738	170
275.798	597
275.858	-766
275.918	-1147
275.978	-822
276.038	-340
276.098	-565
276.157	159
276.217	452
276.277	41
276.337	-793
276.397	-300
276.457	204
276.517	-300
276.576	-743
276.636	-223
276.696	-873
276.756	-195
276.815	-716
276.875	-166
276.935	-666
276.995	-6
277.055	-569
277.114	316
277.174	-666
277.234	1542
277.293	55
277.353	21
277.413	70
277.472	-592
277.532	-244
277.592	1261
277.651	3504
277.711	10099
277.771	2971
277.830	9382
277.890	9191
277.950	5344
278.009	18871
278.069	8167
278.128	7249
278.188	11474
278.248	4361
278.307	11941
278.367	7123
278.426	1819
278.486	1280
278.545	714
278.605	353
278.664	458
278.724	-342
278.783	1658
278.843	2497
278.902	1324
278.962	168
279.021	868
279.081	2988
279.140	1913
279.199	580
279.259	2230
279.318	2655
279.378	3619
279.437	4783
279.496	13082
279.556	48566
279.615	43215
279.675	12727
279.734	6695
279.793	5327
279.853	6854
279.912	3424
279.971	3209
280.031	2532
280.090	3468
280.149	5027
280.208	7129
280.268	33804
280.327	37428
280.386	9240
280.445	5122
280.505	2702
280.564	2083
280.623	722
280.682	1468
280.742	1883
280.801	784
280.860	387
280.919	419
280.978	129
281.037	450
281.097	44
281.156	1682
281.215	131
281.274	331
281.333	1078
281.392	521
281.451	-242
281.510	426
281.569	-112
281.628	400
281.688	155
281.747	393
281.806	60
281.865	294
281.924	-724
281.983	767
282.042	-332
282.101	257
282.160	-231
282.219	315
282.278	-11
282.337	-450
282.396	225
282.454	248
282.513	37
282.572	654
282.631	200
282.690	197
282.749	-573
282.808	71
282.867	201
282.926	275
282.985	559
283.043	326
283.102	162
283.161	12
283.220	1131
283.279	2012
283.338	706
283.396	122
283.455	924
283.514	880
283.573	-24
283.631	780
283.690	30
283.749	312
283.808	1147
283.866	2226
283.925	-100
283.984	1767
284.043	783
284.101	1302
284.160	886
284.219	2493
284.277	2004
284.336	1962
284.395	3695
284.453	4340
284.512	3427
284.570	4577
284.629	4924
284.688	6886
284.746	7476
284.805	10313
284.863	13024
284.922	16717
284.981	18774
285.039	24109
285.098	29949
285.156	31831
285.215	28144
285.273	23549
285.332	28341
285.390	31769
285.449	26035
285.507	21877
285.566	15264
285.624	13087
285.683	10700
285.741	8723
285.799	7009
285.858	6193
285.916	5168
285.975	4472
286.033	3909
286.091	3144
286.150	1830
286.208	2344
286.267	2275
286.325	2310
286.383	1450
286.442	1218
286.500	1059
286.558	1401
286.616	928
286.675	1656
286.733	1216
286.791	1201
286.850	1075
286.908	351
286.966	969
287.024	1092
287.083	-300
287.141	666
287.199	769
287.257	1388
287.315	354
287.374	221
287.432	860
287.490	856
287.548	-47
287.606	1189
287.664	-24
287.723	1558
287.781	-167
287.839	1836
287.897	-46
287.955	-152
288.013	713
288.071	764
288.129	3943
288.187	19358
288.245	7916
288.303	1892
288.361	911
288.419	680
288.477	95
288.535	429
288.593	-312
288.651	-645
288.709	-1118
288.767	263
288.825	-666
288.883	836
288.941	374
288.999	-426
289.057	-136
289.115	-705
289.173	-28
289.231	632
289.289	-615
289.346	-499
289.404	717
289.462	492
289.520	586
289.578	-716
289.636	-535
289.694	3
289.751	-221
289.809	-451
289.867	-232
289.925	101
289.983	-865
290.040	334
290.098	-591
290.156	-325
290.214	-423
290.271	-1043
290.329	-98
290.387	-326
290.444	-140
290.502	-431
290.560	134
290.617	614
290.675	-943
290.733	-412
290.790	-945
290.848	-130
290.906	-763
290.963	148
291.021	-903
291.078	513
291.136	-393
291.194	-59
291.251	916
291.309	-147
291.366	-1592
291.424	-145
291.481	-515
291.539	-73
291.596	785
291.654	-596
291.711	-101
291.769	318
291.826	-316
291.884	147
291.941	-944
291.999	-405
292.056	-507
292.114	-928
292.171	-701
292.228	182
292.286	-505
292.343	-169
292.401	-699
292.458	-185
292.515	-973
292.573	333
292.630	-317
292.687	472
292.745	-440
292.802	398
292.859	478
292.917	1538
292.974	-286
293.031	-44
293.089	-1078
293.146	343
293.203	-868
293.260	480
293.318	258
293.375	-23
293.432	-742
293.489	44
293.546	-579
293.604	265
293.661	1229
293.718	3867
293.775	1818
293.832	1021
293.889	1810
293.947	1838
294.004	473
294.061	-672
294.118	224
294.175	2017
294.232	4896
294.289	1433
294.346	656
294.403	510
294.460	-568
294.517	-205
294.574	-647
294.631	398
294.688	-1060
294.745	-153
294.802	1996
294.859	3396
294.916	-479
294.973	-727
295.030	-565
295.087	-1231
295.144	-531
295.201	-319
295.258	-512
295.315	-475
295.372	-296
295.429	1705
295.486	96
295.542	100
295.599	95
295.656	2851
295.713	1273
295.770	958
295.827	-193
295.883	345
295.940	-323
295.997	-633
296.054	-452
296.111	149
296.167	-100
296.224	-560
296.281	-1119
296.338	-579
296.394	-814
296.451	-911
296.508	-439
296.564	813
296.621	439
296.678	1886
296.734	3017
296.791	289
296.848	-380
296.904	-704
296.961	31
297.018	1430
297.074	926
297.131	281
297.187	-243
297.244	241
297.301	1611
297.357	3995
297.414	531
297.470	225
297.527	-266
297.583	-132
297.640	-602
297.696	-423
297.753	-1368
297.809	74
297.866	-1500
297.922	-682
297.979	-2090
298.035	-1137
298.092	-404
298.148	610
298.204	142
298.261	-265
298.317	828
298.374	2431
298.430	675
298.486	386
298.543	-574
298.599	189
298.656	-488
298.712	29
298.768	79
298.824	472
298.881	-613
298.937	302
298.993	-610
299.050	-1019
299.106	-227
299.162	-867
299.218	-54
299.275	68
299.331	-476
299.387	-173
299.443	2011
299.500	7056
299.556	5394
299.612	2332
299.668	692
299.724	5337
299.780	6531
299.837	1851
299.893	1100
299.949	3544
300.005	7658
300.061	4779
300.117	9358
300.173	3480
300.229	474
300.285	263
300.341	-65
300.397	398
300.453	139
300.510	64
300.566	65
300.622	1348
300.678	7829
300.734	12321
300.790	5075
300.845	3580
300.901	4522
300.957	7900
301.013	3609
301.069	736
301.125	601
301.181	376
301.237	161
301.293	-974
301.349	66
301.405	-137
301.461	-789
301.516	160
301.572	-305
301.628	-1039
301.684	-826
301.740	-112
301.796	-87
301.851	220
301.907	-225
301.963	197
302.019	755
302.074	6416
302.130	6401
302.186	2426
302.242	399
302.297	-13
302.353	-319
302.409	404
302.464	-235
302.520	-388
302.576	686
302.631	2029
302.687	419
302.743	-427
302.798	-624
302.854	-357
302.910	-440
302.965	-340
303.021	-654
303.076	-97
303.132	-671
303.187	-471
303.243	-1065
303.299	-616
303.354	-500
303.410	-400
303.465	-955
303.521	-419
303.576	-1347
303.632	-582
303.687	-470
303.743	1970
303.798	1158
303.853	-253
303.909	-1331
303.964	186
304.020	-729
304.075	-603
304.130	-1237
304.186	-281
304.241	-71
304.297	-54
304.352	-1
304.358	-75
304.407	-679
304.449	-610
304.463	-585
304.518	-1231
304.539	-904
304.573	-400
304.629	-61
304.630	-72
304.684	-556
304.720	100
304.739	434
304.794	1872
304.811	1668
304.850	1132
304.902	-624
304.905	-738
304.960	-341
304.992	-446
305.015	-530
305.071	-677
305.083	-643
305.126	-451
305.173	-745
305.181	-805
305.236	-478
305.264	-286
305.292	-103
305.347	-381
305.354	-280
305.402	377
305.445	-470
305.457	-724
305.512	150
305.535	-218
305.567	-658
305.622	-506
305.626	-513
305.678	-527
305.716	1000
305.733	1595
305.788	1524
305.807	1565
305.843	1845
305.897	2095
305.898	2092
305.953	2297
305.988	1090
306.008	463
306.063	640
306.078	274
306.118	-668
306.168	-259
306.173	-219
306.228	-368
306.259	-177
306.283	-44
306.338	-530
306.349	-423
306.393	68
306.440	-368
306.448	-442
306.503	255
306.530	260
306.558	354
306.613	823
306.620	866
306.668	1014
306.711	1409
306.723	1430
306.778	185
306.801	337
306.833	786
306.888	307
306.892	309
306.943	240
306.982	115
306.997	107
307.052	-157
307.072	63
307.107	458
307.162	268
307.163	269
307.217	881
307.253	1111
307.272	981
307.327	895
307.343	740
307.381	811
307.434	623
307.436	627
307.491	1308
307.524	1850
307.546	1874
307.600	1267
307.614	1025
307.655	544
307.704	526
307.710	591
307.765	567
307.795	1347
307.819	1761
307.874	1860
307.885	1790
307.929	1431
307.975	1433
307.984	1543
308.038	2484
308.065	2550
308.093	4125
308.148	9104
308.156	10298
308.202	16878
308.246	22094
308.257	21436
308.312	9695
308.336	5497
308.366	3786
308.421	2356
308.426	2239
308.475	1961
308.517	1667
308.530	1593
308.585	2151
308.607	2057
308.639	1779
308.694	2365
308.697	2347
308.748	2827
308.787	3971
308.803	4190
308.857	3500
308.877	3509
308.912	3865
308.967	4311
308.967	4317
309.021	7859
309.058	10750
309.076	12501
309.130	19015
309.148	20637
309.185	29662
309.238	44773
309.239	45011
309.293	55745
309.328	57727
309.348	51670
309.402	28827
309.418	22816
309.457	17841
309.508	12956
309.511	13056
309.566	16601
309.598	19523
309.620	25955
309.674	44597
309.688	49374
309.729	46767
309.778	38296
309.783	37212
309.837	21945
309.868	14390
309.892	12578
309.946	9208
309.959	8625
310.001	7473
310.049	6047
310.055	5892
310.109	4743
310.139	4078
310.163	3340
310.218	1818
310.229	1522
310.272	1767
310.319	2382
310.326	2348
310.381	1615
310.409	1422
310.435	1469
310.489	1043
310.499	1074
310.543	1281
310.589	1125
310.598	1101
310.652	1284
310.679	1243
310.706	1265
310.760	1507
310.769	1503
310.814	1359
310.859	1257
310.868	1259
310.923	1260
310.948	1309
310.977	1458
311.031	1550
311.038	1589
311.085	1560
311.128	1188
311.139	1147
311.193	1341
311.218	1329
311.247	1287
311.301	1278
311.308	1256
311.356	1079
311.398	950
311.410	1052
311.464	1581
311.488	1800
311.518	1701
311.572	1411
311.578	1385
311.626	1370
311.668	1267
311.680	1309
311.734	1512
311.758	1579
311.788	1484
311.842	1353
311.847	1327
311.896	1117
311.937	976
311.950	972
312.004	944
312.027	924
312.058	916
312.112	896
312.117	892
312.165	968
312.207	1025
312.297	1672
312.386	1852
312.476	1693
312.566	1747
312.656	923
312.745	1032
312.835	1532
312.925	1096
313.015	1824
313.104	1222
313.194	816
313.284	1367
313.374	1446
313.463	2295
313.553	2229
313.643	1806
313.732	2048
313.822	1522
313.912	2153
314.001	2313
314.091	3168
314.180	2264
314.270	2966
314.360	2734
314.449	2983
314.539	1830
314.628	2524
314.718	2050
314.808	2286
314.897	3306
314.987	3069
315.076	2823
315.166	3565
315.255	3126
315.345	3229
315.434	2492
315.524	2661
315.613	3023
315.703	4316
315.792	10370
315.881	36094
315.971	9532
316.060	4159
316.150	3718
316.239	2852
316.328	2605
316.418	3184
316.507	2743
316.597	3043
316.686	3094
316.775	3789
316.865	3671
316.954	2300
317.043	1900
317.133	2498
317.222	1480
317.311	1925
317.400	652
317.490	2852
317.579	2047
317.668	2829
317.757	5196
317.847	16704
317.936	56673
318.025	15266
318.114	12433
318.203	5311
318.293	2975
318.382	4269
318.471	4770
318.560	5399
318.649	6787
318.738	2771
318.828	2351
318.917	1155
319.006	2418
319.095	2026
319.184	5907
319.273	3424
319.362	2057
319.451	1071
319.540	1499
319.629	2740
319.718	2627
319.807	2276
319.896	2853
319.985	7053
320.074	2742
320.163	1389
320.252	2680
320.341	2563
320.430	2382
320.519	1875
320.608	2209
320.697	3458
320.786	3355
320.875	3793
320.964	4554
321.053	3534
321.142	5371
321.230	5537
321.319	6086
321.408	7757
321.497	7642
321.586	5902
321.675	5277
321.764	4296
321.852	4764
321.941	4275
322.030	4325
322.119	4843
322.207	6342
322.296	8024
322.385	7804
322.474	10210
322.562	10925
322.651	7923
322.740	5637
322.829	5865
322.917	4581
323.006	3804
323.095	2969
323.183	2988
323.272	3523
323.361	3581
323.449	6644
323.538	3399
323.626	4829
323.715	3041
323.804	2661
323.892	4703
323.981	2132
324.069	2690
324.158	4012
324.246	2868
324.335	2322
324.424	3367
324.512	2270
324.601	2268
324.689	1864
324.778	2793
324.866	2153
324.954	1700
325.043	1041
325.131	1004
325.220	3530
325.308	2569
325.397	2361
325.485	1795
325.574	1193
325.662	2220
325.750	1535
325.839	2269
325.927	1278
326.015	1178
326.104	1794
326.192	1943
326.280	833
326.369	1806
326.457	1861
326.545	1917
326.634	612
326.722	1496
326.810	1606
326.898	2797
326.987	2529
327.075	1706
327.163	2187
327.251	1947
327.340	1880
327.428	3152
327.516	3589
327.604	2878
327.692	2169
327.781	1973
327.869	1355
327.957	1614
328.045	1660
328.133	1396
328.221	1972
328.309	1595
328.397	1629
328.485	2607
328.574	3907
328.662	5446
328.750	2330
328.838	1866
328.926	2306
329.014	1579
329.102	2001
329.190	2223
329.278	1615
329.366	1978
329.454	1303
329.542	1547
329.630	624
329.718	1809
329.806	1748
329.893	2022
329.981	982
330.069	1454
330.157	1893
330.245	3212
330.333	2190
330.421	1374
330.509	1053
330.597	2094
330.684	2152
330.772	1912
330.860	779
330.948	2016
331.036	1494
331.123	1452
331.211	1659
331.299	442
331.387	2233
331.475	2955
331.562	2003
331.650	2265
331.738	1134
331.825	1495
331.913	896
332.001	1373
332.089	1660
332.176	2251
332.264	2739
332.352	1926
332.439	996
332.527	935
332.614	1495
332.702	2126
332.790	1078
332.877	3049
332.965	7143
333.052	5754
333.140	6428
333.228	18871
333.315	4848
333.403	2473
333.490	3190
333.578	6977
333.665	27390
333.753	9887
333.840	2710
333.928	3438
334.015	3920
334.103	5460
334.190	9485
334.278	7921
334.365	11532
334.452	11365
334.540	6980
334.627	5673
334.715	7472
334.802	11343
334.889	24900
334.977	33253
335.064	18494
335.151	7753
335.239	6021
335.326	5122
335.413	6748
335.501	8098
335.588	4012
335.675	5224
335.762	6858
335.850	9895
335.937	13092
336.024	24723
336.111	43898
336.199	38190
336.286	15721
336.373	8483
336.460	5384
336.547	4492
336.635	4310
336.722	3004
336.809	3040
336.896	2366
336.983	4464
337.070	6984
337.157	8749
337.245	6579
337.332	5450
337.419	3122
337.506	2363
337.593	1809
337.680	3135
337.767	6348
337.854	2945
337.941	2536
338.028	2678
338.115	1565
338.202	3117
338.289	2692
338.376	4987
338.463	2634
338.550	3432
338.637	3683
338.724	2597
338.811	3085
338.898	2549
338.984	2043
339.071	1168
339.158	2182
339.245	1901
339.332	2580
339.419	2567
339.506	2098
339.593	1136
339.679	2430
339.766	1579
339.853	1956
339.940	2271
340.027	1949
340.113	1322
340.200	1345
340.287	989
340.374	1272
340.460	2089
340.547	1355
340.634	1632
340.720	2904
340.807	1389
340.894	2435
340.980	1572
341.067	1530
341.154	2071
341.240	2043
341.327	1784
341.414	1950
341.500	1175
341.587	2588
341.674	1646
341.760	1933
341.847	1330
341.933	2071
342.020	1003
342.106	2153
342.193	2253
342.279	2379
342.366	895
342.452	1793
342.539	1241
342.625	2076
342.712	2551
342.798	1756
342.885	925
342.971	1128
343.058	1071
343.144	1622
343.230	2165
343.317	1286
343.403	713
343.490	1549
343.576	1569
343.662	2813
343.749	1775
343.835	2134
343.921	1827
344.008	8004
344.094	16003
344.180	3885
344.267	1425
344.353	3921
344.439	3333
344.525	2418
344.612	2353
344.698	1660
344.784	1562
344.870	1828
344.957	1412
345.043	2312
345.129	1082
345.215	1920
345.301	824
345.387	831
345.474	1232
345.560	1161
345.646	1423
345.732	1848
345.818	1769
345.904	1552
345.990	1322
346.076	1539
346.162	2366
346.249	2105
346.335	1213
346.421	2392
346.507	2549
346.593	4904
346.679	1221
346.765	3240
346.851	3663
346.937	2491
347.023	2061
347.108	2013
347.194	1673
347.280	2056
347.366	2539
347.452	8102
347.538	10991
347.624	7035
347.710	3847
347.796	1420
347.882	2299
347.967	1507
348.053	929
348.139	1348
348.225	2069
348.311	1047
348.397	1477
348.482	2440
348.568	2278
348.654	2774
348.740	10256
348.825	9599
348.911	4354
348.997	4041
349.083	6645
349.168	1798
349.254	2147
349.340	1156
349.425	1290
349.511	1047
349.597	1644
349.682	1688
349.768	3597
349.854	2577
349.939	2140
350.025	1988
350.110	1193
350.196	1555
350.282	484
350.367	1494
350.453	1822
350.538	1652
350.624	1475
350.709	1474
350.795	905
350.880	1052
350.966	2021
351.051	2251
351.137	1721
351.222	2154
351.308	1717
351.393	2253
351.479	1237
351.564	711
351.649	2011
351.735	2002
351.820	917
351.906	450
351.991	1015
352.076	1550
352.162	3287
352.247	1504
352.332	1078
352.418	675
352.503	2030
352.588	3277
352.673	2438
352.759	1808
352.844	736
352.929	1513
353.014	212
353.100	2548
353.185	1879
353.270	1081
353.355	1450
353.441	1493
353.526	659
353.611	1462
353.696	1273
353.781	2414
353.866	-468
353.952	2682
354.037	780
354.122	2586
354.207	1241
354.292	963
354.377	1409
354.462	2000
354.547	948
354.632	2033
354.717	2208
354.802	892
354.887	1969
354.972	1441
355.057	1689
355.142	1076
355.227	2057
355.312	977
355.397	1181
355.482	2373
355.567	1081
355.652	2550
355.737	1947
355.822	2750
355.907	1739
355.991	3069
356.076	858
356.161	2014
356.246	912
356.331	1460
356.416	854
356.501	8297
356.585	6447
356.670	1249
356.755	3591
356.840	1910
356.924	5870
357.009	15518
357.094	6801
357.179	1525
357.263	2268
357.348	3171
357.433	2019
357.517	1908
357.602	1525
357.687	1792
357.771	2052
357.856	3075
357.941	2573
358.025	4700
358.110	20070
358.195	8753
358.279	2307
358.364	1922
358.448	3746
358.533	5204
358.617	3277
358.702	4442
358.787	2456
358.871	1794
358.956	1236
359.040	1516
359.125	1439
359.209	1473
359.294	1913
359.378	4129
359.462	3187
359.547	2170
359.631	1377
359.716	597
359.800	996
359.885	2665
359.969	150
360.053	2443
360.138	1326
360.222	1633
360.306	1620
360.391	2568
360.475	1526
360.559	3073
360.644	2533
360.728	2146
360.812	5201
360.896	10069
360.981	2972
361.065	2166
361.149	2528
361.233	1633
361.318	1627
361.402	2346
361.486	2301
361.570	2667
361.654	2135
361.739	2461
361.823	7174
361.907	11636
361.991	3252
362.075	3928
362.159	4278
362.243	9061
362.327	26482
362.411	45474
362.495	16134
362.580	7555
362.664	6233
362.748	6023
362.832	10117
362.916	21672
363.000	70724
363.084	109440
363.168	43772
363.252	11917
363.336	6485
363.420	5939
363.503	8354
363.587	8219
363.671	4282
363.755	3326
363.839	6006
363.923	3551
364.007	5859
364.091	8602
364.175	12715
364.258	34111
364.342	77020
364.426	155804
364.510	80496
364.594	23376
364.677	10673
364.761	11784
364.845	9222
364.929	4316
365.013	3193
365.096	3062
365.180	1844
365.264	4910
365.347	10058
365.431	3765
365.515	1738
365.598	1887
365.682	3534
365.766	1816
365.849	2324
365.933	2271
366.017	3717
366.100	1827
366.184	637
366.267	2910
366.351	2130
366.435	1877
366.518	1452
366.602	2187
366.685	2777
366.769	2106
366.852	2050
366.936	2545
367.019	1961
367.103	1006
367.186	3431
367.270	1610
367.353	2095
367.436	2488
367.520	2254
367.603	3625
367.687	1766
367.770	2680
367.853	3406
367.937	4812
368.020	4931
368.104	1598
368.187	2880
368.270	2875
368.353	2155
368.437	2708
368.520	4345
368.603	2807
368.687	1886
368.770	4297
368.853	1792
368.936	2893
369.020	2251
369.103	1738
369.186	1490
369.269	1292
369.352	2457
369.436	1815
369.519	1721
369.602	279
369.685	2926
369.768	1067
369.851	2688
369.934	2393
370.018	1491
370.101	803
370.184	3694
370.267	2015
370.350	2641
370.433	2425
370.516	7707
370.599	20741
370.682	7062
370.765	4744
370.848	4991
370.931	6159
371.014	5174
371.097	1442
371.180	2832
371.263	2908
371.346	1354
371.429	3651
371.511	2832
371.594	2515
371.677	4064
371.760	5884
371.843	4669
371.926	11300
372.009	20008
372.091	13061
372.174	6333
372.257	9734
372.340	6761
372.423	6305
372.505	6988
372.588	3702
372.671	4331
372.754	6118
372.836	4569
372.919	5850
373.002	7612
373.085	3933
373.167	5449
373.250	5072
373.332	7041
373.415	12460
373.498	21866
373.580	12475
373.663	31481
373.746	33427
373.828	7175
373.911	4585
373.993	3618
374.076	6179
374.159	4717
374.241	3695
374.324	5705
374.406	5396
374.489	6651
374.571	16601
374.654	6460
374.736	4972
374.819	9691
374.901	15899
374.983	16148
375.066	5587
375.148	3215
375.231	7226
375.313	8909
375.395	4287
375.478	3606
375.560	4302
375.643	3835
375.725	4877
375.807	11644
375.890	11361
375.972	3509
376.054	4370
376.136	4273
376.219	3442
376.301	4763
376.383	8833
376.465	4369
376.548	3110
376.630	3481
376.712	7946
376.794	3577
376.877	1911
376.959	535
377.041	1909
377.123	2391
377.205	3363
377.287	665
377.369	3232
377.452	1061
377.534	2198
377.616	1761
377.698	2299
377.780	1217
377.862	1585
377.944	2699
378.026	1230
378.108	2090
378.190	1617
378.272	2426
378.354	2450
378.436	1713
378.518	900
378.600	2428
378.682	2513
378.764	2620
378.846	3887
378.928	1805
379.010	773
379.091	3111
379.173	2292
379.255	811
379.337	1950
379.419	2470
379.501	5541
379.583	2160
379.664	2839
379.746	1063
379.828	4840
379.910	4264
379.991	5095
380.073	2659
380.155	1953
380.237	2191
380.318	2175
380.400	2123
380.482	3515
380.564	2947
380.645	2456
380.727	2715
380.809	3736
380.890	1305
380.972	1724
381.053	2931
381.135	3912
381.217	2259
381.298	5905
381.380	3349
381.461	3920
381.543	7327
381.624	9429
381.706	3194
381.787	3685
381.869	4486
381.951	6958
382.032	16737
382.113	14399
382.195	3405
382.276	7321
382.358	6305
382.439	10936
382.521	14373
382.602	20694
382.684	15508
382.765	26208
382.846	71108
382.928	171076
383.009	97328
383.090	69603
383.172	198456
383.253	254168
383.334	89165
383.416	36713
383.497	27741
383.578	30685
383.659	58386
383.741	171169
383.822	320345
383.903	180152
383.984	52354
384.066	30427
384.147	18051
384.228	12658
384.309	10451
384.390	9070
384.471	8109
384.553	8046
384.634	6887
384.715	7729
384.796	6239
384.877	6824
384.958	8543
385.039	6839
385.120	5811
385.201	5986
385.282	5626
385.363	7711
385.444	6840
385.525	8607
385.606	9511
385.687	9483
385.768	5786
385.849	4493
385.930	11694
386.011	16277
386.092	6749
386.173	5878
386.254	5266
386.335	4552
386.416	3982
386.496	5435
386.577	5612
386.658	4346
386.739	4575
386.820	5413
386.901	4432
386.981	5502
387.062	6730
387.143	6189
387.224	7891
387.304	10014
387.385	9103
387.466	6448
387.547	8420
387.627	8105
387.708	8976
387.789	11804
387.869	10249
387.950	7805
388.031	5388
388.111	3546
388.192	6591
388.273	8446
388.353	6239
388.434	3139
388.514	3149
388.595	8472
388.676	9147
388.756	5670
388.837	4630
388.917	3206
388.998	1246
389.078	2993
389.159	2163
389.239	740
389.320	4841
389.400	1675
389.480	3863
389.561	4625
389.641	4057
389.722	3840
389.802	2077
389.883	2812
389.963	6243
390.043	4771
390.124	1970
390.204	3377
390.284	4000
390.365	2656
390.445	5219
390.525	6044
390.605	5561
390.686	2534
390.766	3415
390.846	3822
390.927	2106
391.007	2061
391.087	4163
391.167	3205
391.247	1502
391.328	3947
391.408	4119
391.488	3402
391.568	1891
391.648	4234
391.728	3656
391.808	4693
391.888	3541
391.969	5601
392.049	5622
392.129	7197
392.209	5923
392.289	9997
392.369	8046
392.449	8342
392.529	7542
392.609	9698
392.689	10851
392.769	13723
392.849	16292
392.929	21086
393.009	29324
393.089	40979
393.169	75395
393.248	185489
393.328	386575
393.408	385928
393.488	187487
393.568	75257
393.648	38770
393.728	24212
393.807	15658
393.887	14277
393.967	10703
394.047	9350
394.127	7100
394.206	8174
394.286	13398
394.366	48339
394.446	51342
394.525	11534
394.605	5927
394.685	5524
394.764	8540
394.844	13536
394.924	16040
395.003	7152
395.083	3295
395.163	4136
395.242	3635
395.322	4935
395.402	2443
395.481	5600
395.561	6186
395.640	21410
395.720	37822
395.799	19997
395.879	8676
395.958	6494
396.038	15151
396.117	64126
396.197	67597
396.276	19075
396.356	10355
396.435	12829
396.515	17293
396.594	25454
396.673	56355
396.753	168307
396.832	348844
396.912	262113
396.991	87012
397.070	35567
397.150	18736
397.229	18158
397.308	30558
397.388	55464
397.467	24713
397.546	9634
397.625	3757
397.705	7841
397.784	4739
397.863	4163
397.942	3428
398.022	3799
398.101	3538
398.180	7795
398.259	4669
398.338	3370
398.417	2459
398.497	2403
398.576	3251
398.655	1555
398.734	2968
398.813	2412
398.892	3570
398.971	7339
399.050	2832
399.129	2069
399.208	2106
399.287	2687
399.366	782
399.445	1503
399.524	1678
399.603	183
399.682	1790
399.761	1983
399.840	7446
399.919	5648
399.998	1293
400.077	595
400.156	209
400.235	3665
400.313	938
400.392	1189
400.471	2516
400.550	3620
400.629	840
400.708	2390
400.786	619
400.865	1970
400.944	994
401.023	2896
401.102	592
401.180	1184
401.259	826
401.338	346
401.416	1162
401.495	388
401.574	1818
401.652	519
401.731	1923
401.810	-176
401.888	1058
401.967	815
402.046	1488
402.124	1511
402.203	-858
402.281	1363
402.360	1014
402.438	2743
402.517	-330
402.596	1537
402.674	613
402.753	1380
402.831	1143
402.910	2009
402.988	751
403.066	3335
403.145	3321
403.223	2317
403.302	1863
403.380	2648
403.459	3144
403.537	1525
403.615	738
403.694	-191
403.772	2721
403.850	1098
403.929	774
404.007	476
404.085	2352
404.164	388
404.242	832
404.320	3440
404.398	5123
404.477	4887
404.555	9169
404.633	8099
404.711	4536
404.789	3043
404.868	915
404.946	489
405.024	1081
405.102	530
405.180	-234
405.258	-129
405.336	1661
405.415	202
405.493	1309
405.571	1393
405.649	296
405.727	84
405.805	2343
405.883	1519
405.961	1477
406.039	769
406.117	-810
406.195	980
406.273	452
406.351	5575
406.429	3910
406.507	671
406.585	-437
406.663	668
406.740	275
406.818	-52
406.896	-202
406.974	1341
407.052	-878
407.130	3507
407.208	4621
407.285	1517
407.363	-183
407.441	578
407.519	153
407.596	954
407.674	1538
407.752	5075
407.830	5012
407.907	1634
407.985	-440
408.063	802
408.141	359
408.218	2218
408.296	-323
408.373	-51
408.451	1379
408.529	1626
408.606	-515
408.684	1417
408.762	995
408.839	1722
408.917	919
408.994	2210
409.072	1769
409.149	2536
409.227	6655
409.304	10226
409.382	9817
409.459	11565
409.537	15561
409.614	12991
409.692	9342
409.769	9313
409.846	15846
409.924	20543
410.001	11316
410.079	7777
410.156	5870
410.233	3518
410.311	2651
410.388	2303
410.465	2008
410.543	1216
410.620	3471
410.697	2768
410.775	2632
410.852	2026
410.929	3924
411.006	3778
411.083	2002
411.161	2213
411.238	2190
411.315	1743
411.392	1760
411.469	2383
411.547	1474
411.624	-578
411.701	110
411.778	1276
411.855	1236
411.932	-221
412.009	-577
412.086	1398
412.163	1133
412.240	288
412.317	1323
412.394	875
412.471	1017
412.548	726
412.625	601
412.702	1133
412.779	807
412.856	1100
412.933	-447
413.010	924
413.087	580
413.164	1094
413.241	1748
413.318	-383
413.395	262
413.471	241
413.548	747
413.625	942
413.702	-672
413.779	1001
413.855	239
413.932	454
414.009	-822
414.086	57
414.162	136
414.239	652
414.316	753
414.393	2759
414.469	-196
414.546	16
414.623	-77
414.699	-78
414.776	157
414.853	566
414.929	-313
415.006	-346
415.082	263
415.159	536
415.236	-193
415.312	895
415.389	586
415.465	49
415.542	94
415.618	-255
415.695	880
415.771	-403
415.848	487
415.924	-189
416.000	65
416.077	1230
416.153	-765
416.230	-784
416.306	-321
416.383	-65
416.459	232
416.535	-476
416.612	-64
416.688	612
416.764	850
416.841	238
416.917	-274
416.993	449
417.069	215
417.146	-595
417.222	134
417.298	842
417.374	-502
417.451	678
417.527	-259
417.603	396
417.679	23
417.755	8
417.831	-807
417.908	980
417.984	210
418.060	-511
418.136	-575
418.212	-676
418.288	368
418.364	23
418.440	-587
418.516	859
418.592	459
418.668	88
418.744	168
418.820	778
418.896	-530
418.972	-604
419.048	70
419.124	1517
419.200	-1072
419.276	777
419.352	-408
419.428	200
419.504	-180
419.579	722
419.655	-157
419.731	955
419.807	340
419.883	949
419.959	746
420.034	1017
420.110	1308
420.186	1532
420.262	1985
420.337	1216
420.413	1032
420.489	1762
420.565	1815
420.640	1655
420.716	1705
420.792	1348
420.867	2687
420.943	1618
421.019	2670
421.094	2075
421.170	2558
421.245	3335
421.321	4128
421.397	3592
421.472	4819
421.548	6851
421.623	6654
421.699	5972
421.774	7180
421.850	7185
421.925	9743
422.001	12807
422.076	13513
422.152	18776
422.227	24084
422.302	35778
422.378	53864
422.453	87956
422.529	150053
422.604	187218
422.679	153515
422.755	175727
422.830	152345
422.905	93706
422.981	58106
423.056	41161
423.131	29211
423.207	21620
423.282	17443
423.357	14302
423.432	10726
423.508	8960
423.583	7346
423.658	7672
423.733	6495
423.808	6054
423.883	5084
423.959	6392
424.034	8221
424.109	8377
424.184	4520
424.259	3467
424.334	3492
424.409	2385
424.484	1760
424.559	2172
424.634	1456
424.709	1617
424.784	1608
424.859	1579
424.934	1407
425.009	1810
425.084	2161
425.159	1084
425.234	1805
425.309	899
425.384	892
425.459	515
425.534	1053
425.609	814
425.683	14
425.758	758
425.833	581
425.908	1469
425.983	586
426.058	2194
426.132	978
426.207	693
426.282	1442
426.357	752
426.431	-187
426.506	510
426.581	371
426.655	805
426.730	121
426.805	46
426.879	916
426.954	89
427.029	155
427.103	1773
427.178	2531
427.253	1731
427.327	968
427.402	224
427.476	492
427.551	-152
427.625	11
427.700	844
427.774	-48
427.849	658
427.923	-1063
427.998	223
428.072	347
428.147	3359
428.221	21958
428.296	68579
428.370	35626
428.444	4240
428.519	982
428.593	1937
428.667	1710
428.742	2082
428.816	7641
428.890	41685
428.965	62810
429.039	15006
429.113	1898
429.188	931
429.262	-158
429.336	783
429.410	747
429.485	738
429.559	1734
429.633	386
429.707	1226
429.781	6429
429.855	39262
429.930	56095
430.004	14450
430.078	9443
430.152	26744
430.226	91116
430.300	86851
430.374	16849
430.448	3841
430.522	3490
430.596	5859
430.670	13648
430.744	52790
430.818	56036
430.892	8647
430.966	472
431.040	551
431.114	-707
431.188	-632
431.262	-688
431.336	-611
431.410	656
431.484	207
431.557	176
431.631	384
431.705	2658
431.779	16562
431.853	65217
431.927	41497
432.000	4622
432.074	76
432.148	96
432.222	-777
432.295	-524
432.369	-307
432.443	-296
432.516	732
432.590	3327
432.664	508
432.737	-925
432.811	-1497
432.885	-642
432.958	-331
433.032	-1123
433.106	-1048
433.179	-916
433.253	-1747
433.326	-796
433.400	-1671
433.473	-1106
433.547	-1442
433.620	-895
433.694	-1128
433.767	-864
433.841	-1128
433.914	-823
433.988	-808
434.061	-1276
434.134	-619
434.208	-45
434.281	-1163
434.355	-1504
434.428	-853
434.501	-1355
434.575	-1277
434.648	-63
434.721	-791
434.795	-812
434.868	-1121
434.941	-1045
435.014	-926
435.088	-656
435.161	727
435.234	1211
435.307	1937
435.381	1569
435.454	2836
435.527	7634
435.600	7955
435.673	5959
435.746	3539
435.819	1856
435.892	786
435.966	626
436.039	-705
436.112	263
436.185	-1116
436.258	-923
436.331	-1101
436.404	-328
436.477	-1035
436.550	-1281
436.623	-1069
436.696	-1070
436.769	-1971
436.842	-854
436.915	-736
436.987	-839
437.060	-308
437.133	-1180
437.206	-1531
437.279	-690
437.352	-1394
437.425	-1300
437.498	-912
437.570	-1118
437.643	-1838
437.716	-1856
437.789	-1197
437.861	-1581
437.934	-797
438.007	-707
438.080	-2029
438.152	-1009
438.225	-88
438.298	1424
438.370	6641
438.443	2064
438.516	-829
438.588	-897
438.661	-1229
438.734	-635
438.806	-1279
438.879	-707
438.951	-1029
439.024	-410
439.096	-1473
439.169	-1201
439.241	-907
439.314	-1185
439.386	-1400
439.459	-902
439.531	-1304
439.604	-1113
439.676	-1285
439.749	-907
439.821	-1488
439.893	-946
439.966	-1609
440.038	-1195
440.110	-1180
440.183	-1617
440.255	-1408
440.327	29
440.400	-497
440.472	2339
440.544	487
440.617	-578
440.689	-333
440.761	-817
440.833	-798
440.905	-541
440.978	-2178
441.050	-1184
441.122	-1010
441.194	-1276
441.266	-1592
441.338	-1348
441.411	-788
441.483	480
441.555	-587
441.627	-700
441.699	-315
441.771	-539
441.843	-714
441.915	-426
441.987	-889
442.059	-1456
442.131	35
442.203	640
442.275	1071
442.347	2793
442.419	8585
442.491	50849
442.563	103782
442.635	37551
442.706	4988
442.778	1865
442.850	729
442.922	307
442.994	503
443.066	359
443.137	1384
443.209	2077
443.281	4646
443.353	13463
443.425	55233
443.496	159452
443.568	160203
443.640	60909
443.711	11070
443.783	4386
443.855	2198
443.926	1571
443.998	524
444.070	939
444.141	-416
444.213	261
444.285	422
444.356	202
444.428	-415
444.499	-72
444.571	-1041
444.642	345
444.714	-384
444.785	627
444.857	708
444.928	1078
445.000	1209
445.071	1687
445.143	2723
445.214	4429
445.285	10281
445.357	29072
445.428	105652
445.500	187338
445.571	143707
445.642	92202
445.714	28372
445.785	8406
445.856	2018
445.928	909
445.999	775
446.070	663
446.141	-268
446.213	-39
446.284	-1003
446.355	-613
446.426	-386
446.497	-381
446.569	-1267
446.640	-602
446.711	-692
446.782	-527
446.853	-555
446.924	-1036
446.995	-1004
447.066	-1086
447.138	-1248
447.209	-897
447.280	-2195
447.351	-1916
447.422	-1301
447.493	-1416
447.564	-1528
447.635	-1910
447.706	-1574
447.777	-1367
447.847	-1615
447.918	-1846
447.989	-1394
448.060	-545
448.131	-599
448.202	-743
448.273	-2214
448.344	-1303
448.414	-1360
448.485	-725
448.556	-1714
448.627	-1760
448.698	-1049
448.768	-1040
448.839	-2042
448.910	-1707
448.981	-1355
449.051	-1794
449.122	-1519
449.193	-1374
449.263	-1591
449.334	-2216
449.405	-1582
449.475	-1015
449.546	-1394
449.616	-859
449.687	-850
449.758	-1460
449.828	-1380
449.899	-1267
449.969	-1820
450.040	-1540
450.110	-1516
450.181	-997
450.251	-959
450.322	-1419
450.392	-567
450.463	-1077
450.533	-2080
450.604	-1573
450.674	-1773
450.744	-830
450.815	-424
450.885	-784
450.955	-783
451.026	-1047
451.096	-1983
451.166	-578
451.237	-1088
451.307	875
451.377	-1212
451.447	-558
451.518	-1623
451.588	-1705
451.658	-1804
451.728	-1178
451.799	-344
451.869	-854
451.939	-1705
452.009	-1647
452.079	-1552
452.149	-1045
452.219	-1715
452.289	-461
452.360	-1504
452.430	-1686
452.500	-924
452.570	136
452.640	4394
452.710	15364
452.780	14592
452.850	5633
452.920	631
452.990	241
453.060	-521
453.129	-772
453.199	-1523
453.269	132
453.339	563
453.409	991
453.479	2918
453.549	3458
453.619	2911
453.688	-731
453.758	-1553
453.828	-1656
453.898	-1592
453.968	-1484
454.037	-1490
454.087	-1934
454.107	-2130
454.168	-1817
454.177	-1792
454.247	-1469
454.249	-1464
454.316	-1853
454.330	-1711
454.386	-1222
454.411	-1514
454.456	-2095
454.492	-1366
454.525	-739
454.574	-1166
454.595	-1352
454.655	-1246
454.665	-1256
454.734	-1564
454.736	-1528
454.804	-645
454.817	-601
454.873	-542
454.898	-733
454.943	-1100
454.979	-1192
455.013	-1338
455.060	-614
455.082	-249
455.141	-1008
455.152	-1177
455.221	-1174
455.222	-1150
455.291	-830
455.303	-871
455.360	-1121
455.384	-810
455.430	-394
455.465	-166
455.499	80
455.546	-148
455.569	-300
455.627	-410
455.638	-438
455.707	-1728
455.708	-1708
455.777	-775
455.789	-784
455.846	-892
455.869	-940
455.916	-1091
455.950	-809
455.985	-531
456.031	-1057
456.054	-1329
456.112	-537
456.124	-406
456.193	-800
456.193	-815
456.262	-297
456.274	-360
456.332	-756
456.355	-714
456.401	-636
456.436	-513
456.470	-466
456.516	-614
456.540	-708
456.597	-745
456.609	-789
456.678	-311
456.678	-320
456.747	-1330
456.759	-1225
456.817	-704
456.840	-678
456.886	-813
456.920	-520
456.955	-186
457.001	-189
457.024	-203
457.082	234
457.093	251
457.162	427
457.163	441
457.232	-170
457.243	-119
457.301	320
457.324	424
457.370	558
457.405	858
457.439	1049
457.485	1001
457.508	1038
457.566	1314
457.577	1519
457.646	3225
457.647	3266
457.715	10142
457.727	11729
457.784	21467
457.808	29077
457.853	37521
457.889	41890
457.922	39566
457.969	24171
457.991	24434
458.050	34159
458.060	36012
458.129	64373
458.130	65131
458.198	56701
458.211	49640
458.267	23436
458.292	14666
458.336	9815
458.372	10175
458.405	16673
458.453	27824
458.474	35921
458.533	66117
458.543	67803
458.611	98562
458.614	98815
458.680	51918
458.694	38858
458.749	14976
458.775	10037
458.818	5836
458.855	4108
458.887	3395
458.936	2665
458.955	2274
459.016	1371
459.024	1327
459.093	1918
459.097	1900
459.162	1302
459.177	1395
459.230	1426
459.257	1364
459.299	1607
459.338	1683
459.368	1472
459.418	1122
459.437	1160
459.499	1976
459.505	1972
459.574	1522
459.579	1486
459.643	1672
459.659	1682
459.711	1150
459.740	996
459.780	1241
459.820	1523
459.849	1476
459.900	1323
459.917	1359
459.981	992
459.986	922
460.054	1224
460.061	1169
460.123	1138
460.141	1289
460.191	1427
460.222	1598
460.260	1695
460.302	1329
460.328	1105
460.382	1142
460.397	1226
460.462	1794
460.465	1848
460.534	2697
460.543	2817
460.602	6964
460.623	8730
460.671	13116
460.703	16817
460.739	14812
460.783	10866
460.808	9046
460.864	2748
460.876	2362
460.944	2403
460.945	2387
461.013	2117
461.024	1885
461.081	1491
461.104	1731
461.150	1745
461.184	1605
461.218	1830
461.264	1933
461.286	1845
461.345	1586
461.355	1497
461.423	1324
461.425	1312
461.491	933
461.505	1038
461.559	2212
461.585	2383
461.628	2300
461.665	2526
461.696	2723
461.745	2705
461.764	2489
461.825	1876
461.832	1895
461.901	2314
461.905	2333
461.969	1630
461.985	1433
462.037	2181
462.065	2630
462.105	1951
462.145	1486
462.173	1782
462.225	2001
462.241	1987
462.305	2106
462.310	2112
462.378	2137
462.385	2130
462.446	1920
462.465	1840
462.514	1925
462.545	2033
462.582	2144
462.625	2246
462.650	2138
462.705	1969
462.718	1954
462.785	1975
462.786	1983
462.854	1962
462.865	1994
462.922	2214
462.945	2367
462.990	2557
463.025	2622
463.058	2750
463.104	2684
463.126	2372
463.184	1860
463.194	1928
463.262	2039
463.264	2053
463.330	2202
463.344	2182
463.398	2619
463.424	2797
463.466	2634
463.504	2673
463.533	2650
463.583	2344
463.601	2282
463.663	2088
463.669	2085
463.737	2223
463.743	2205
463.805	2626
463.823	2813
463.873	3378
463.903	3624
463.940	3166
463.982	2753
464.008	2848
464.062	2993
464.076	2964
464.142	2816
464.144	2802
464.211	1851
464.221	1750
464.279	1604
464.301	1480
464.347	1927
464.381	2394
464.414	2470
464.461	2352
464.482	2373
464.540	2427
464.550	2381
464.617	2059
464.620	2048
464.685	3149
464.699	3318
464.753	2492
464.779	2214
464.820	2534
464.859	2704
464.888	2505
464.938	2266
464.956	2654
465.018	3813
465.023	3740
465.091	2788
465.098	2678
465.158	2674
465.177	2716
465.226	3312
465.257	3587
465.293	3299
465.336	2969
465.361	3043
465.416	3141
465.428	3193
465.495	3678
465.496	3689
465.563	3814
465.575	3864
465.631	4225
465.654	4380
465.698	4111
465.734	3746
465.765	3308
465.813	2698
465.833	2875
465.893	3475
465.900	3496
465.968	3482
465.972	3474
466.035	3298
466.052	3230
466.102	3049
466.131	2969
466.170	3050
466.210	3084
466.237	3221
466.290	3487
466.304	3509
466.369	3499
466.372	3512
466.439	3608
466.449	3606
466.506	3700
466.528	3743
466.573	3664
466.607	3533
466.641	3947
466.687	4587
466.708	4895
466.766	5632
466.775	5483
466.842	4297
466.845	4228
466.909	4018
466.925	3959
466.977	4277
467.004	4430
467.044	4022
467.083	3605
467.111	3716
467.163	3879
467.178	3885
467.242	3871
467.245	3934
467.312	5053
467.321	5192
467.379	3869
467.400	3372
467.446	4275
467.480	4918
467.559	4714
467.638	4152
467.717	4608
467.796	4972
467.875	4546
467.955	4792
468.034	6307
468.113	7605
468.192	9772
468.271	9053
468.350	13800
468.429	20243
468.508	21651
468.588	13017
468.667	7153
468.746	6156
468.825	5401
468.904	6272
468.983	5004
469.062	5043
469.141	5862
469.220	4176
469.299	4860
469.378	3146
469.456	5450
469.535	5534
469.614	3974
469.693	4542
469.772	6105
469.851	5303
469.930	5078
470.009	4538
470.088	5363
470.166	8151
470.245	14664
470.324	18875
470.403	10908
470.482	7429
470.560	6098
470.639	4741
470.718	5162
470.797	4576
470.875	4918
470.954	3766
471.033	4873
471.111	3922
471.190	4564
471.269	4412
471.347	4388
471.426	4524
471.505	4537
471.583	3669
471.662	4064
471.740	4739
471.819	4072
471.898	3833
471.976	4908
472.055	3650
472.133	4235
472.212	4305
472.290	3543
472.369	4037
472.447	4285
472.526	3634
472.604	4439
472.683	5034
472.761	4025
472.839	3642
472.918	4560
472.996	4741
473.075	5432
473.153	4412
473.231	4285
473.310	4855
473.388	4534
473.466	4014
473.545	4303
473.623	3989
473.701	4381
473.780	4862
473.858	3722
473.936	6199
474.014	4649
474.093	5136
474.171	5050
474.249	5755
474.327	4902
474.405	3953
474.484	4583
474.562	4077
474.640	4028
474.718	5096
474.796	4226
474.874	5424
474.952	3948
475.030	3437
475.108	4040
475.187	4689
475.265	4472
475.343	4917
475.421	4709
475.499	4255
475.577	4267
475.655	5916
475.733	4189
475.811	5532
475.889	5423
475.966	5518
476.044	3968
476.122	3859
476.200	3576
476.278	3959
476.356	4317
476.434	4593
476.512	4141
476.590	3652
476.667	4978
476.745	3861
476.823	3588
476.901	4467
476.979	4173
477.056	4781
477.134	3996
477.212	4343
477.290	3780
477.367	3927
477.445	3906
477.523	3481
477.601	4225
477.678	4125
477.756	3866
477.834	4130
477.911	4022
477.989	4249
478.066	4394
478.144	4237
478.222	3980
478.299	4723
478.377	3985
478.454	3666
478.532	3752
478.609	3907
478.687	4906
478.764	3299
478.842	3985
478.919	3776
478.997	4549
479.074	4511
479.152	4139
479.229	4145
479.307	3786
479.384	4315
479.461	4277
479.539	4269
479.616	3637
479.694	4147
479.771	4128
479.848	3837
479.926	2971
480.003	5387
480.080	4192
480.157	4756
480.235	3501
480.312	4146
480.389	4264
480.467	3957
480.544	4852
480.621	5644
480.698	5206
480.775	4674
480.853	4639
480.930	4482
481.007	4495
481.084	4454
481.161	4762
481.238	4487
481.315	3596
481.392	4124
481.470	4331
481.547	4520
481.624	3584
481.701	4035
481.778	3153
481.855	5167
481.932	4550
482.009	6374
482.086	5084
482.163	7054
482.240	7876
482.317	7980
482.393	5463
482.470	6142
482.547	5437
482.624	5542
482.701	5203
482.778	4889
482.855	4622
482.932	4298
483.009	5098
483.085	6806
483.162	6636
483.239	8032
483.316	7780
483.393	8254
483.469	6517
483.546	6309
483.623	5961
483.699	5195
483.776	4121
483.853	4090
483.930	5070
484.006	5412
484.083	7883
484.160	6074
484.236	6313
484.313	6233
484.389	4971
484.466	8290
484.543	7472
484.619	10755
484.696	13447
484.772	8654
484.849	6694
484.925	4792
485.002	5416
485.078	5912
485.155	4831
485.231	4281
485.308	4767
485.384	5146
485.461	5054
485.537	4843
485.614	6223
485.690	5033
485.766	4635
485.843	5018
485.919	4647
485.995	4844
486.072	4273
486.148	4501
486.224	3541
486.301	4540
486.377	4225
486.453	3510
486.530	5191
486.606	5747
486.682	4068
486.758	6048
486.835	5451
486.911	5319
486.987	7697
487.063	8091
487.139	7157
487.215	7818
487.292	9191
487.368	10343
487.444	12738
487.520	18589
487.596	27124
487.672	75585
487.748	238723
487.824	344900
487.900	99949
487.976	24989
488.052	13232
488.128	10683
488.204	8269
488.280	7852
488.356	6834
488.432	8235
488.508	9148
488.584	6137
488.660	5539
488.736	4810
488.812	4766
488.888	4857
488.964	3648
489.039	5382
489.115	6570
489.191	5818
489.267	5205
489.343	4927
489.418	4712
489.494	4264
489.570	3544
489.646	6464
489.722	4004
489.797	4756
489.873	5554
489.949	6798
490.024	6223
490.100	4326
490.176	4586
490.251	4393
490.327	6014
490.403	4562
490.478	4065
490.554	4762
490.629	4506
490.705	4392
490.781	4387
490.856	4964
490.932	3973
491.007	4711
491.083	4106
491.158	3823
491.234	4481
491.309	5240
491.385	5496
491.460	4342
491.536	4480
491.611	4194
491.686	4387
491.762	4262
491.837	4452
491.913	5654
491.988	6660
492.063	6184
492.139	5478
492.214	5064
492.289	4552
492.365	4049
492.440	4759
492.515	3584
492.590	4479
492.666	4116
492.741	4210
492.816	5038
492.891	3098
492.967	4144
493.042	4447
493.117	3421
493.192	5166
493.267	5160
493.342	6079
493.418	8340
493.493	4650
493.568	4485
493.643	4714
493.718	4426
493.793	4462
493.868	4688
493.943	4518
494.018	4425
494.093	4187
494.168	4772
494.243	3738
494.318	4479
494.393	3962
494.468	4059
494.543	5464
494.618	5086
494.693	4965
494.768	5515
494.842	4986
494.917	5043
494.992	5070
495.067	4598
495.142	3730
495.217	4846
495.292	5074
495.366	3756
495.441	4295
495.516	5656
495.591	3762
495.665	6861
495.740	9803
495.815	6638
495.890	4279
495.964	4500
496.039	7398
496.114	6221
496.188	5791
496.263	6096
496.338	5136
496.412	5085
496.487	5446
496.561	5468
496.636	4317
496.710	4988
496.785	5101
496.860	5988
496.934	4722
497.009	6674
497.083	5415
497.158	5974
497.232	6044
497.307	6990
497.381	7349
497.455	7476
497.530	5658
497.604	5771
497.679	5222
497.753	6314
497.827	5385
497.902	5984
497.976	6081
498.050	9272
498.125	23590
498.199	25966
498.273	6492
498.348	6140
498.422	7445
498.496	8185
498.570	8290
498.645	5545
498.719	3725
498.793	5088
498.867	5478
498.941	7171
499.016	12427
499.090	24044
499.164	13000
499.238	6188
499.312	6230
499.386	6866
499.460	7330
499.534	8034
499.609	10471
499.683	7641
499.757	5904
499.831	6163
499.905	16900
499.979	15934
500.053	5929
500.127	5671
500.201	3652
500.275	5628
500.349	5730
500.422	6310
500.496	7435
500.570	9278
500.644	16857
500.718	22810
500.792	7553
500.866	4245
500.940	4192
501.013	3430
501.087	3918
501.161	3866
501.235	2951
501.309	8781
501.382	14044
501.456	15374
501.530	5097
501.603	6006
501.677	3888
501.751	2947
501.825	4574
501.898	4939
501.972	6383
502.046	6082
502.119	3047
502.193	5350
502.266	7425
502.340	6273
502.413	5291
502.487	7724
502.561	4408
502.634	3853
502.708	2839
502.781	2094
502.855	4359
502.928	3473
503.002	3444
503.075	3471
503.149	3994
503.222	2992
503.295	4066
503.369	4614
503.442	4510
503.516	7707
503.589	14320
503.662	12072
503.736	8410
503.809	13413
503.882	14977
503.956	22918
504.029	45975
504.102	133279
504.175	189893
504.249	64358
504.322	21395
504.395	11126
504.468	8452
504.542	5470
504.615	3296
504.688	4896
504.761	1505
504.834	5632
504.907	3603
504.980	3322
505.053	3342
505.127	1405
505.200	5956
505.273	3742
505.346	3089
505.419	1559
505.492	3385
505.565	3574
505.638	2846
505.711	2636
505.784	1853
505.857	2969
505.930	3718
506.003	1943
506.076	4508
506.149	2205
506.221	1678
506.294	4288
506.367	2255
506.440	8744
506.513	5877
506.586	3041
506.659	2660
506.731	2600
506.804	2024
506.877	2446
506.950	1662
507.022	3641
507.095	1323
507.168	3383
507.241	2713
507.313	2061
507.386	965
507.459	2991
507.531	1976
507.604	1532
507.677	3005
507.749	1229
507.822	3413
507.894	1836
507.967	3198
508.040	2164
508.112	3323
508.185	3076
508.257	528
508.330	3403
508.402	1431
508.475	2936
508.547	1922
508.620	2213
508.692	3559
508.765	2701
508.837	1886
508.909	2514
508.982	2640
509.054	2872
509.127	2087
509.199	1787
509.271	838
509.344	2513
509.416	2701
509.488	2017
509.560	3123
509.633	2309
509.705	2145
509.777	2512
509.849	3118
509.922	1690
509.994	1865
510.066	2960
510.138	327
510.210	4362
510.283	2131
510.355	2357
510.427	3143
510.499	2755
510.571	2305
510.643	1866
510.715	2963
510.787	1281
510.859	3576
510.931	2942
511.003	2010
511.076	4275
511.148	1266
511.219	1734
511.291	3248
511.363	4533
511.435	2547
511.507	1779
511.579	3253
511.651	4358
511.723	3293
511.795	1757
511.867	1807
511.939	3234
512.010	2803
512.082	3824
512.154	772
512.226	2889
512.298	3594
512.369	2976
512.441	3032
512.513	3535
512.585	791
512.656	4197
512.728	1532
512.800	2604
512.871	3039
512.943	3145
513.015	1259
513.086	3559
513.158	3184
513.230	1609
513.301	1990
513.373	4258
513.444	2173
513.516	3095
513.588	2192
513.659	3553
513.731	2136
513.802	1010
513.874	4988
513.945	3482
514.016	1829
514.088	3259
514.159	845
514.231	2793
514.302	1985
514.374	3757
514.445	2158
514.516	6187
514.588	1733
514.659	2524
514.730	2823
514.802	3654
514.873	653
514.944	6216
515.016	3888
515.087	2649
515.158	2778
515.229	4620
515.301	2087
515.372	3962
515.443	1739
515.514	3630
515.585	1653
515.656	4335
515.728	4053
515.799	2066
515.870	4084
515.941	4846
516.012	3239
516.083	5596
516.154	4674
516.225	6802
516.296	8826
516.367	7559
516.438	9949
516.509	13563
516.580	23538
516.651	94060
516.722	289564
516.793	103840
516.864	19180
516.935	17434
517.006	20645
517.077	30105
517.148	76409
517.219	352940
517.289	471525
517.360	72609
517.431	20141
517.502	11371
517.573	9525
517.643	9266
517.714	9048
517.785	10395
517.856	11320
517.926	16615
517.997	18057
518.068	23549
518.138	32987
518.209	60825
518.280	234069
518.350	698514
518.421	261726
518.492	44444
518.562	27149
518.633	30103
518.703	38403
518.774	93281
518.845	247628
518.915	213516
518.986	54899
519.056	22338
519.127	14808
519.197	11121
519.268	12963
519.338	12692
519.408	5988
519.479	5301
519.549	4320
519.620	6721
519.690	4204
519.760	3552
519.831	3862
519.901	3565
519.971	3789
520.042	3571
520.112	1657
520.182	3939
520.253	4089
520.323	3214
520.393	2467
520.463	5597
520.534	918
520.604	5834
520.674	4558
520.744	2434
520.814	2875
520.885	4820
520.955	4571
521.025	10080
521.095	6222
521.165	5885
521.235	2201
521.305	2828
521.375	3601
521.445	3975
521.515	2221
521.585	3709
521.655	1286
521.725	3540
521.795	4066
521.865	1169
521.935	5846
522.005	2956
522.075	2144
522.145	4455
522.215	1947
522.285	4060
522.355	3639
522.424	4770
522.494	3313
522.564	4243
522.634	3646
522.704	7128
522.774	2897
522.843	3504
522.913	3398
522.983	4106
523.053	2657
523.122	4304
523.192	3171
523.262	2817
523.331	2565
523.401	3593
523.471	3294
523.540	3454
523.610	3187
523.680	4099
523.749	3809
523.819	4464
523.888	3098
523.958	3663
524.027	3713
524.097	4068
524.166	3722
524.236	2941
524.305	5192
524.375	2506
524.444	2650
524.514	5833
524.583	3027
524.653	3282
524.722	4305
524.791	2808
524.861	5183
524.930	2698
524.999	3763
525.069	4551
525.138	4418
525.207	4279
525.277	4659
525.346	5193
525.415	5785
525.484	7048
525.554	7039
525.623	9688
525.692	10507
525.761	14066
525.830	17012
525.900	23288
525.969	37557
526.038	73539
526.107	162399
526.176	449296
526.245	317686
526.314	93477
526.383	223857
526.452	285993
526.522	418005
526.591	342920
526.660	53502
526.729	31662
526.797	36064
526.867	54443
526.935	172528
527.004	607707
527.073	345366
527.142	44133
527.211	17873
527.280	13871
527.349	9686
527.418	6851
527.487	7793
527.555	4719
527.624	5401
527.693	3983
527.762	6221
527.831	3056
527.899	5293
527.968	4327
528.037	2176
528.106	4225
528.174	4437
528.243	4835
528.312	3764
528.380	4217
528.449	2784
528.518	5185
528.586	2817
528.655	4811
528.723	3408
528.792	3405
528.861	3953
528.929	3150
528.998	3952
529.066	3621
529.135	5740
529.203	5834
529.272	6064
529.340	8189
529.409	8408
529.477	6222
529.545	5552
529.614	9160
529.682	6186
529.751	9733
529.819	11191
529.887	10388
529.956	9203
530.024	10761
530.092	7580
530.161	8949
530.229	8007
530.297	8374
530.365	10224
530.434	9872
530.502	9905
530.570	9452
530.638	7110
530.707	9136
530.775	9321
530.843	7899
530.911	8676
530.979	9954
531.047	9243
531.115	9886
531.183	7686
531.252	9483
531.320	8633
531.388	7138
531.456	9184
531.524	9308
531.592	10762
531.660	12360
531.728	9276
531.796	8868
531.864	8959
531.932	9307
532.000	9033
532.067	10382
532.135	11172
532.203	12563
532.271	10829
532.339	12853
532.407	11264
532.475	12223
532.542	11536
532.610	10664
532.678	10376
532.746	14770
532.814	17695
532.881	13412
532.949	11525
533.017	10943
533.084	10716
533.152	10170
533.220	9772
533.287	10340
533.355	10787
533.423	10889
533.490	11243
533.558	11867
533.625	10759
533.693	9956
533.761	10723
533.828	11067
533.896	9515
533.963	12154
534.031	11627
534.098	13680
534.166	14051
534.233	13686
534.300	14837
534.368	14790
534.435	13627
534.503	14434
534.570	16418
534.637	17801
534.705	19889
534.772	24702
534.840	47139
534.907	203217
534.974	220219
535.041	29802
535.109	15912
535.176	12687
535.243	13064
535.310	12584
535.378	10981
535.445	12265
535.512	11698
535.579	11773
535.646	10351
535.714	11877
535.781	12577
535.848	11779
535.915	12031
535.982	11437
536.049	10894
536.116	12808
536.183	9831
536.250	10428
536.317	10218
536.384	11720
536.451	12523
536.518	11935
536.585	10129
536.652	12794
536.719	12430
536.786	10352
536.853	9612
536.920	12535
536.987	11322
537.053	9810
537.120	13544
537.187	14317
537.254	12306
537.321	12118
537.388	13314
537.454	10500
537.521	9987
537.588	10897
537.654	10844
537.721	12162
537.788	12320
537.855	11037
537.921	11205
537.988	10451
538.055	11703
538.121	10383
538.188	9315
538.254	9677
538.321	9550
538.388	11687
538.454	12170
538.521	12628
538.587	12699
538.654	11701
538.720	11148
538.787	12254
538.853	11561
538.920	11742
538.986	10001
539.053	10225
539.119	10222
539.185	9961
539.252	11399
539.318	10793
539.385	13919
539.451	10527
539.517	11354
539.583	12346
539.650	11356
539.716	11648
539.782	9961
539.849	9964
539.915	11537
539.981	10596
540.047	9994
540.114	10567
540.180	12444
540.246	10047
540.312	11832
540.378	10776
540.444	12577
540.510	13274
540.576	13378
540.643	11030
540.709	9694
540.775	10975
540.841	9778
540.907	10812
540.973	11209
541.039	10463
541.105	10889
541.171	11896
541.237	11085
541.303	12234
541.369	13273
541.435	11761
541.500	11262
541.566	9876
541.632	9570
541.698	10863
541.764	12135
541.830	11100
541.896	10102
541.961	11362
542.027	10244
542.093	12701
542.159	12348
542.224	9709
542.290	12214
542.356	10384
542.421	11092
542.487	10775
542.553	9127
542.618	10025
542.684	10672
542.750	10143
542.815	11469
542.881	11112
542.947	13116
543.012	12667
543.078	10489
543.143	9715
543.209	10793
543.274	9924
543.340	10591
543.405	11097
543.471	11174
543.536	10617
543.602	12034
543.667	9065
543.732	11669
543.798	10554
543.863	12257
543.928	11807
543.994	10217
544.059	11719
544.124	12681
544.190	12060
544.255	12246
544.320	12250
544.386	11315
544.451	12768
544.516	12147
544.581	11375
544.646	12578
544.712	15289
544.777	14066
544.842	13014
544.907	12416
544.972	12386
545.037	12611
545.102	14455
545.168	13396
545.233	14202
545.298	15060
545.363	14232
545.428	14315
545.493	16356
545.558	15144
545.623	16067
545.688	14275
545.753	15861
545.818	15661
545.883	18132
545.947	16907
546.012	19100
546.077	18574
546.142	21234
546.207	19693
546.272	21644
546.337	21303
546.401	23048
546.466	23925
546.531	24667
546.596	26576
546.661	28363
546.725	29185
546.790	30738
546.855	34497
546.919	36134
546.984	40434
547.049	44532
547.113	50533
547.178	54681
547.243	64078
547.307	73973
547.372	80544
547.436	81873
547.501	86398
547.565	92921
547.630	83527
547.695	81252
547.759	81461
547.823	83005
547.888	83175
547.952	86542
548.017	89734
548.081	92092
548.146	91158
548.210	94466
548.274	101136
548.339	99051
548.403	90164
548.468	84963
548.532	83739
548.596	86253
548.660	86294
548.725	96332
548.789	102719
548.853	100061
548.917	95787
548.982	92453
549.046	83294
549.110	75526
549.174	79446
549.238	92568
549.303	98739
549.367	103691
549.431	96155
549.495	90669
549.559	93196
549.623	107654
549.687	116946
549.751	112069
549.815	135610
549.879	137511
549.943	133646
550.007	140031
550.071	136573
550.135	122437
550.199	117686
550.263	114975
550.327	109285
550.391	112968
550.455	125541
550.519	132137
550.582	139905
550.646	156730
550.710	158105
550.774	155745
550.838	158615
550.901	162446
550.965	171393
551.029	180093
551.093	191515
551.156	204275
551.220	227904
551.284	251029
551.347	198841
551.411	171709
551.475	166328
551.538	171939
551.602	161271
551.666	153658
551.729	144366
551.793	140824
551.856	138364
551.920	136420
551.983	136041
552.047	134155
552.110	136588
552.174	135024
552.237	139775
552.301	131189
552.364	125676
552.428	123812
552.491	126465
552.554	129162
552.618	129117
552.681	132660
552.745	127244
552.808	145085
552.871	157217
552.934	141188
552.998	131014
553.061	127604
553.124	122299
553.187	121731
553.251	125524
553.314	125660
553.377	125601
553.440	133689
553.503	137686
553.567	140301
553.630	136708
553.693	135641
553.756	136256
553.819	134923
553.882	129466
553.945	131960
554.008	131219
554.071	133199
554.134	132686
554.197	125872
554.260	124787
554.323	126676
554.386	127699
554.449	132255
554.512	131411
554.575	125921
554.638	125806
554.701	124773
554.764	122100
554.827	120703
554.889	115282
554.952	109050
555.015	106391
555.078	110379
555.141	109971
555.203	108229
555.266	108057
555.329	107284
555.391	102108
555.454	101921
555.517	98158
555.580	94877
555.642	91130
555.705	89914
555.768	88851
555.830	86586
555.893	80669
555.955	80154
556.018	78425
556.080	78370
556.143	80647
556.206	80077
556.268	78263
556.330	75178
556.393	74212
556.455	71767
556.518	70285
556.580	68086
556.643	64676
556.705	63903
556.767	63043
556.830	62800
556.892	59544
556.955	58167
557.017	56895
557.079	57410
557.142	55442
557.204	55296
557.266	54739
557.328	51725
557.391	47619
557.453	47773
557.515	46695
557.577	46902
557.639	47593
557.701	47693
557.764	47163
557.826	47666
557.888	48089
557.950	50820
558.012	56743
558.074	69236
558.136	145579
558.198	299582
558.260	106045
558.322	51426
558.384	50117
558.446	53922
558.508	53877
558.570	60095
558.632	69669
558.694	89621
558.756	149723
558.818	398480
558.880	734666
558.942	305649
559.003	316594
559.065	143762
559.127	61767
559.189	59921
559.251	67898
559.312	98039
559.374	220333
559.436	574911
559.498	268719
559.559	70343
559.621	59681
559.683	70441
559.744	115385
559.806	331369
559.868	422719
559.929	98562
559.991	66539
560.052	111546
560.114	293508
560.176	173497
560.237	176095
560.299	253066
560.360	56676
560.422	27824
560.483	24002
560.545	22843
560.606	21394
560.667	20936
560.729	19304
560.790	18769
560.852	18832
560.913	18072
560.974	18000
561.036	16938
561.097	16974
561.158	17980
561.220	17200
561.281	16379
561.342	15662
561.403	16891
561.465	15906
561.526	17000
561.587	16185
561.648	15408
561.709	14559
561.771	14581
561.832	13802
561.893	15023
561.954	13422
562.015	13478
562.076	12575
562.137	13811
562.198	13096
562.259	13534
562.320	12607
562.381	13640
562.442	13682
562.503	13518
562.564	12584
562.625	12677
562.686	11784
562.747	11461
562.808	12227
562.869	12438
562.930	12132
562.991	10854
563.051	11375
563.112	12630
563.173	11120
563.234	11046
563.294	10841
563.355	12104
563.416	11744
563.477	11581
563.537	10256
563.598	11085
563.659	10700
563.720	10854
563.780	10468
563.841	10555
563.901	10200
563.962	10635
564.023	11022
564.083	10751
564.144	10596
564.204	10794
564.265	9865
564.325	10585
564.386	10515
564.446	11392
564.507	10188
564.567	9867
564.628	9293
564.688	9722
564.749	9518
564.809	10860
564.869	10248
564.930	9357
564.990	10013
565.050	9086
565.111	9037
565.171	9565
565.231	9838
565.292	10007
565.352	8979
565.412	10223
565.472	8871
565.532	8950
565.593	7852
565.653	9029
565.713	8989
565.773	10409
565.833	9511
565.893	10994
565.953	7991
566.013	8510
566.074	8793
566.134	9623
566.194	9334
566.254	10515
566.314	9271
566.374	8494
566.434	9538
566.494	9058
566.554	7854
566.614	9464
566.673	8784
566.733	9967
566.793	9140
566.853	9761
566.913	9607
566.973	9158
567.033	9355
567.092	10539
567.152	8920
567.212	10131
567.272	9792
567.331	10229
567.391	9367
567.451	10004
567.511	9778
567.570	10384
567.630	10292
567.690	8566
567.749	8187
567.809	10275
567.868	9524
567.928	9770
567.988	8792
568.047	9949
568.107	8756
568.166	10115
568.226	9224
568.285	9800
568.345	9532
568.404	10560
568.464	9328
568.523	9472
568.582	10345
568.642	9049
568.701	8748
568.761	9456
568.820	10637
568.879	10257
568.939	10110
568.998	9846
569.057	8839
569.116	8725
569.176	9086
569.235	9389
569.294	8827
569.353	8493
569.413	8932
569.472	7981
569.531	8907
569.590	8530
569.649	7613
569.708	8304
569.767	9102
569.827	9280
569.886	8883
569.945	8709
570.004	9032
570.063	9183
570.122	9032
570.181	8437
570.240	9426
570.299	9663
570.358	9092
570.417	9187
570.475	9240
570.534	9864
570.593	10098
570.652	9905
570.711	9925
570.770	8320
570.829	9372
570.887	9914
570.946	9822
571.005	10195
571.064	9978
571.122	10361
571.181	10125
571.240	8803
571.299	8796
571.357	9518
571.416	8547
571.475	8733
571.533	8509
571.592	9435
571.650	9155
571.709	10021
571.768	10935
571.826	10536
571.885	11551
571.943	9319
572.002	9535
572.060	9480
572.119	8465
572.177	9517
572.236	8816
572.294	9257
572.352	10192
572.411	10323
572.469	9172
572.528	8547
572.586	9141
572.644	8751
572.703	9342
572.761	8433
572.819	7969
572.877	7948
572.936	7448
572.994	7816
573.052	7746
573.110	8713
573.169	9022
573.227	8598
573.285	8521
573.343	8309
573.401	8416
573.459	8762
573.517	8432
573.576	8966
573.634	8555
573.692	8511
573.750	9121
573.808	7799
573.866	7970
573.924	8177
573.982	7557
574.040	8026
574.098	8138
574.155	8164
574.213	7673
574.271	8307
574.329	8524
574.387	7957
574.445	7016
574.503	7340
574.560	5576
574.618	7341
574.676	6460
574.734	7035
574.792	6951
574.849	7028
574.907	6275
574.965	6497
575.022	6039
575.080	6668
575.138	6105
575.195	5342
575.253	5380
575.311	6042
575.368	6601
575.426	5945
575.483	5475
575.541	6537
575.598	5948
575.656	6550
575.713	5399
575.771	7066
575.828	6155
575.886	6131
575.943	5520
576.001	5245
576.058	5500
576.115	4698
576.173	5540
576.230	7080
576.287	5913
576.345	5873
576.402	6148
576.459	7119
576.517	5520
576.574	5519
576.631	5933
576.688	5101
576.746	6075
576.803	6056
576.860	4935
576.917	5431
576.974	5716
577.031	5790
577.089	4961
577.146	5626
577.203	4024
577.260	5788
577.317	4647
577.374	4716
577.431	5215
577.488	5062
577.545	5049
577.602	6399
577.659	4906
577.716	6272
577.773	4897
577.830	5889
577.886	5178
577.943	4865
578.000	4828
578.057	5305
578.114	5696
578.171	5798
578.227	5560
578.284	5451
578.341	5686
578.398	5484
578.454	5866
578.511	5095
578.568	5603
578.625	4558
578.681	4601
578.738	5129
578.794	5621
578.851	5846
578.908	4662
578.964	5071
579.021	5180
579.077	4661
579.134	5822
579.190	5112
579.247	4535
579.303	4949
579.360	5667
579.416	5812
579.473	5111
579.529	5191
579.586	5666
579.642	5908
579.698	5217
579.755	6301
579.811	4731
579.867	6140
579.924	5206
579.980	5382
580.036	5793
580.093	6741
580.149	6347
580.205	7296
580.261	5676
580.317	6177
580.374	5543
580.430	6244
580.486	6572
580.542	6263
580.598	5801
580.619	6308
580.654	7195
580.692	6675
580.710	6429
580.765	6228
580.767	6225
580.823	6629
580.838	6819
580.879	7356
580.911	6423
580.935	5753
580.984	6148
580.991	6209
581.047	6445
581.057	6411
581.103	6245
581.130	6649
581.159	7101
581.203	7085
581.215	7077
581.270	6774
581.276	6660
581.326	5696
581.349	5752
581.382	5784
581.422	5940
581.438	6035
581.494	6614
581.494	6607
581.550	6127
581.567	6388
581.606	7005
581.640	6570
581.661	6300
581.713	5996
581.717	5976
581.773	6298
581.786	6295
581.829	6283
581.859	6530
581.885	6775
581.932	6993
581.940	7021
581.996	6939
582.004	6835
582.052	6333
582.077	6647
582.107	6984
582.150	6548
582.163	6433
582.219	6430
582.223	6394
582.274	5966
582.296	6215
582.330	6653
582.368	6740
582.386	6792
582.441	6638
582.441	6638
582.497	6065
582.514	6108
582.552	6285
582.587	6237
582.608	6227
582.659	7218
582.663	7284
582.719	6916
582.732	6965
582.774	7326
582.805	7134
582.830	6884
582.877	7299
582.885	7392
582.941	7952
582.950	8019
582.996	8168
583.023	8284
583.052	8714
583.095	9247
583.107	9240
583.162	8672
583.168	8690
583.218	9117
583.240	8354
583.273	7132
583.313	7376
583.328	7570
583.384	8151
583.385	8136
583.439	7298
583.458	7209
583.494	7221
583.531	7331
583.549	7420
583.603	7567
583.605	7563
583.660	7680
583.676	7426
583.715	7033
583.748	7117
583.770	7119
583.820	7642
583.825	7669
583.881	7445
583.893	7202
583.936	6587
583.965	6931
583.991	7185
584.038	7223
584.046	7230
584.101	7064
584.110	7140
584.156	7478
584.183	7686
584.211	8026
584.255	7678
584.266	7560
584.321	7671
584.328	7632
584.376	7440
584.400	7963
584.431	8504
584.472	8467
584.486	8508
584.541	8400
584.545	8426
584.596	8711
584.617	8562
584.651	8554
584.689	9407
584.706	9644
584.761	9379
584.762	9380
584.816	9642
584.834	9950
584.871	10639
584.906	10595
584.926	10496
584.978	10478
584.980	10482
585.035	11880
585.051	12167
585.090	13229
585.123	13973
585.145	14303
585.195	15366
585.200	15556
585.254	18164
585.267	18775
585.309	20541
585.340	22209
585.364	23949
585.412	28479
585.419	29163
585.473	36491
585.484	38756
585.528	51562
585.556	64127
585.583	88354
585.628	144961
585.637	165324
585.692	343185
585.700	370630
585.747	455922
585.772	385307
585.801	236361
585.845	82444
585.856	64409
585.910	32388
585.917	29379
585.965	22889
585.989	20707
586.019	18971
586.061	16734
586.074	16279
586.128	15329
586.133	15254
586.183	14981
586.205	14676
586.237	14020
586.277	13832
586.292	13885
586.346	13802
586.349	13755
586.401	12691
586.421	12777
586.455	13118
586.493	13599
586.509	14042
586.564	13772
586.565	13814
586.618	15652
586.637	15945
586.672	17346
586.709	19402
586.727	20291
586.781	22860
586.781	22860
586.835	16382
586.853	15022
586.889	13671
586.925	12842
586.944	12773
586.996	12879
586.998	12893
587.052	13156
587.068	13314
587.106	13782
587.140	13759
587.161	13581
587.212	13564
587.215	13584
587.269	13645
587.284	13682
587.323	13652
587.356	13739
587.377	14067
587.427	14870
587.431	14903
587.485	15055
587.499	15034
587.539	14981
587.571	15463
587.593	16096
587.643	16512
587.648	16506
587.702	16848
587.715	16855
587.755	16822
587.786	16856
587.810	17155
587.858	17241
587.864	17179
587.917	17575
587.930	17440
587.971	17454
588.001	17817
588.025	18004
588.073	17813
588.079	17845
588.133	17938
588.145	18050
588.187	18622
588.217	19170
588.241	19701
588.288	20226
588.295	20246
588.348	20889
588.360	20891
588.402	21319
588.431	21941
588.456	22544
588.503	23387
588.510	23629
588.564	25770
588.575	26189
588.617	27459
588.646	28642
588.671	30649
588.718	35046
588.725	35970
588.778	44475
588.789	46746
588.832	72842
588.861	94074
588.886	136311
588.932	227925
588.939	236026
588.993	286156
589.004	284327
589.047	157420
589.075	83967
589.100	63446
589.147	36415
589.154	35511
589.207	31041
589.218	30150
589.261	30777
589.290	31530
589.314	32643
589.361	35950
589.368	37498
589.421	51662
589.433	55201
589.475	98305
589.504	132634
589.528	173352
589.576	256867
589.582	248798
589.635	129382
589.647	105557
589.689	58300
589.718	31441
589.742	28454
589.790	23363
589.795	23254
589.849	22486
589.861	22324
589.902	21917
589.932	21565
589.955	21469
590.004	20667
590.009	20571
590.062	20223
590.075	19941
590.115	19806
590.146	20090
590.168	20129
590.218	19700
590.222	19712
590.275	19797
590.289	19870
590.328	20624
590.360	20883
590.381	20801
590.431	20941
590.435	20973
590.488	20854
590.503	20773
590.541	21152
590.574	21764
590.594	21988
590.645	22434
590.647	22502
590.700	23582
590.716	23839
590.753	23695
590.787	23585
590.806	24007
590.859	25172
590.859	25205
590.912	25440
590.930	25529
590.965	26106
591.001	26622
591.018	26473
591.071	25827
591.072	25790
591.124	25349
591.143	25182
591.177	25069
591.214	24950
591.230	25488
591.283	27268
591.285	27296
591.336	26663
591.356	26409
591.389	26724
591.427	26998
591.442	26778
591.495	25826
591.498	25730
591.547	26413
591.569	26654
591.600	26952
591.640	27281
591.653	27325
591.706	27397
591.711	27378
591.759	27856
591.782	27983
591.811	28717
591.853	29854
591.864	29819
591.917	29300
591.924	29206
591.969	29502
591.995	29557
592.022	29322
592.066	28958
592.075	29358
592.127	31608
592.137	31990
592.180	31981
592.208	31905
592.233	32411
592.279	33276
592.285	33420
592.338	34337
592.350	34482
592.390	34161
592.421	33886
592.443	34283
592.491	35048
592.495	35120
592.548	35534
592.562	35617
592.600	35440
592.633	35202
592.653	35282
592.704	35207
592.705	35425
592.775	36327
592.846	38068
592.916	37865
592.987	38887
593.058	39040
593.128	39945
593.199	39648
593.270	40296
593.341	42557
593.411	43031
593.482	43702
593.553	46417
593.623	45673
593.694	47819
593.764	47702
593.835	46317
593.906	46461
593.976	48063
594.047	48331
594.117	52390
594.188	52493
594.258	53188
594.329	53399
594.399	53878
594.470	55951
594.540	57830
594.611	58534
594.681	57406
594.751	58549
594.822	60104
594.892	62254
594.963	64119
595.033	66792
595.103	68110
595.174	68944
595.244	70935
595.314	72619
595.384	74946
595.455	77254
595.525	78789
595.595	81034
595.665	83011
595.736	80014
595.806	82067
595.876	83093
595.946	83917
596.016	86869
596.087	90727
596.157	90290
596.227	90655
596.297	96407
596.367	102222
596.437	109464
596.507	107746
596.577	107990
596.647	112432
596.717	118433
596.787	120015
596.857	118327
596.927	119784
596.997	119709
597.067	122548
597.137	123986
597.207	123245
597.277	124593
597.347	120881
597.417	116274
597.487	118481
597.557	120340
597.626	123596
597.696	124675
597.766	122544
597.836	115684
597.906	111590
597.975	109357
598.045	111107
598.115	114902
598.185	125458
598.254	139879
598.324	153613
598.394	153737
598.464	148635
598.533	146404
598.603	136867
598.672	132026
598.742	136156
598.812	135249
598.881	141111
598.951	138827
599.020	142272
599.090	146683
599.159	150686
599.229	145360
599.299	141520
599.368	144740
599.437	144915
599.507	131591
599.576	128145
599.646	126112
599.715	125043
599.785	123498
599.854	120293
599.924	119079
599.993	119272
600.062	121849
600.132	124508
600.201	132827
600.270	154118
600.340	161362
600.409	158373
600.478	157897
600.547	163007
600.617	144858
600.686	118769
600.755	106992
600.824	103499
600.894	102048
600.963	103821
601.032	101907
601.101	98697
601.170	95659
601.239	93430
601.308	93151
601.378	93533
601.447	95060
601.516	95566
601.585	97440
601.654	98691
601.723	98463
601.792	102815
601.861	105692
601.930	111260
601.999	112307
602.068	111175
602.137	111627
602.206	114926
602.275	115175
602.343	117139
602.412	116491
602.481	120377
602.550	120286
602.619	123795
602.688	122820
602.756	126349
602.825	125948
602.894	131054
602.963	131368
603.032	133507
603.100	133551
603.169	134353
603.238	137041
603.307	133587
603.375	137705
603.444	140245
603.513	138334
603.581	143589
603.650	145167
603.719	137265
603.787	138766
603.856	143518
603.924	146925
603.993	153040
604.061	157487
604.130	163994
604.198	168229
604.267	169765
604.335	173589
604.404	174404
604.472	177985
604.541	180177
604.609	181577
604.678	186091
604.746	185724
604.815	192366
604.883	193808
604.951	193160
605.020	196379
605.088	196700
605.156	197036
605.225	202205
605.293	200599
605.361	201393
605.429	201772
605.498	208386
605.566	210871
605.634	221763
605.702	229331
605.771	237144
605.839	236977
605.907	231067
605.975	224052
606.043	218042
606.111	217787
606.180	220442
606.248	215075
606.316	213147
606.384	216643
606.452	210248
606.520	210447
606.588	218106
606.656	219828
606.724	215882
606.792	204419
606.860	183615
606.928	167095
606.996	160377
607.064	157238
607.132	161617
607.200	171055
607.267	178715
607.335	182876
607.403	185708
607.471	179416
607.539	175309
607.607	174968
607.674	154798
607.742	154513
607.810	151664
607.878	151275
607.946	155993
608.013	164512
608.081	166345
608.149	166198
608.216	173937
608.284	180667
608.352	180895
608.419	176607
608.487	174338
608.555	168795
608.622	175178
608.690	189872
608.757	206285
608.825	211421
608.893	204207
608.960	191793
609.028	184529
609.095	185288
609.163	183880
609.230	163862
609.298	151560
609.365	159521
609.432	171850
609.500	185744
609.567	215254
609.635	244997
609.702	258145
609.769	243160
609.837	187487
609.904	162862
609.971	166155
610.039	182094
610.106	226437
610.173	379558
610.241	758074
610.308	439757
610.375	204983
610.442	176882
610.509	169500
610.577	171007
610.644	172341
610.711	177241
610.778	182206
610.845	192349
610.912	202960
610.980	208598
611.047	211813
611.114	206841
611.181	198641
611.248	199086
611.315	212756
611.382	217121
611.449	225787
611.516	229523
611.583	225195
611.650	224469
611.717	227990
611.784	230290
611.851	241893
611.918	250012
611.984	282271
612.051	363212
612.118	599601
612.185	1148845
612.252	775217
612.319	340054
612.386	292559
612.452	269650
612.519	255536
612.586	249829
612.653	256817
612.719	266499
612.786	255645
612.853	236326
612.919	233413
612.986	237227
613.053	221346
613.120	208096
613.186	202221
613.253	203903
613.319	204954
613.386	205580
613.453	208979
613.519	207169
613.586	204873
613.652	208530
613.719	204811
613.785	208323
613.852	212564
613.918	210089
613.985	212854
614.051	222036
614.118	218733
614.184	209911
614.250	210610
614.317	214571
614.383	212906
614.449	217568
614.516	215032
614.582	215583
614.648	212202
614.715	210195
614.781	204818
614.847	205121
614.914	203988
614.980	199549
615.046	199707
615.112	206093
615.179	205892
615.245	209128
615.311	207032
615.377	208276
615.443	211721
615.509	213836
615.575	221528
615.642	216517
615.708	222506
615.774	231102
615.840	242419
615.906	254028
615.972	292191
616.038	395273
616.104	701380
616.170	1261101
616.236	1042151
616.302	443825
616.368	363327
616.434	274677
616.500	258876
616.565	283813
616.631	346151
616.697	286165
616.763	296087
616.829	422516
616.895	700297
616.961	633254
617.026	305376
617.092	231310
617.158	221726
617.224	216534
617.289	201282
617.355	191578
617.421	189985
617.487	191198
617.552	182280
617.618	181474
617.684	180892
617.749	182547
617.815	175478
617.880	172502
617.946	171559
618.012	176464
618.077	177310
618.143	170499
618.208	172230
618.274	183429
618.339	184250
618.405	153391
618.470	153432
618.536	153641
618.601	150408
618.667	140202
618.732	133966
618.798	132632
618.863	132869
618.928	131860
618.994	134426
619.059	132205
619.124	134212
619.190	130497
619.255	130744
619.320	129394
619.386	130734
619.451	128178
619.516	127174
619.581	127966
619.647	132630
619.712	132981
619.777	127949
619.842	127381
619.907	131207
619.972	132533
620.038	131653
620.103	128198
620.168	127987
620.233	130630
620.298	132189
620.363	133258
620.428	137516
620.493	140384
620.558	142442
620.623	143845
620.688	142057
620.753	142018
620.818	143917
620.883	144396
620.948	144332
621.013	140310
621.078	139750
621.143	140593
621.207	141721
621.272	137933
621.337	134152
621.402	133716
621.467	133112
621.532	132865
621.596	133512
621.661	129405
621.726	127355
621.791	129723
621.855	130470
621.920	127153
621.985	131228
622.049	132885
622.114	133395
622.179	134334
622.243	137792
622.308	143251
622.373	148532
622.437	143921
622.502	135738
622.566	134677
622.631	134931
622.695	137973
622.760	136129
622.824	136551
622.889	136311
622.953	136323
623.018	144892
623.082	146905
623.147	145366
623.211	140305
623.276	141803
623.340	135786
623.404	132569
623.469	132069
623.533	136070
623.597	130806
623.662	129723
623.726	120578
623.790	114958
623.854	110071
623.919	111951
623.983	113727
624.047	116706
624.111	117145
624.176	119860
624.240	119920
624.304	123630
624.368	119588
624.432	120331
624.496	123304
624.560	129779
624.625	128853
624.689	130028
624.753	134302
624.817	128910
624.881	124594
624.945	112882
625.009	110039
625.073	112536
625.137	114976
625.201	119746
625.265	120382
625.329	115401
625.393	116447
625.456	117269
625.520	121806
625.584	121497
625.648	125376
625.712	128693
625.776	127970
625.839	120549
625.903	102996
625.967	95225
626.031	104662
626.095	121992
626.158	111977
626.222	87943
626.286	83042
626.349	78484
626.413	73495
626.477	74726
626.540	74776
626.604	73503
626.668	73892
626.731	71397
626.795	72171
626.858	72587
626.922	70021
626.986	70868
627.049	69155
627.113	74529
627.176	71489
627.240	68543
627.303	68487
627.366	67837
627.430	68119
627.493	67470
627.557	65672
627.620	68865
627.684	70656
627.747	72223
627.810	62474
627.874	59692
627.937	56152
628.000	59304
628.064	56576
628.127	50037
628.190	50964
628.253	49595
628.317	45988
628.380	44897
628.443	43054
628.506	42966
628.569	41169
628.632	39272
628.696	39532
628.759	38390
628.822	37210
628.885	37039
628.948	35777
629.011	35662
629.074	34348
629.137	33573
629.200	32463
629.263	33816
629.326	30215
629.389	32710
629.452	31458
629.515	31189
629.578	29266
629.641	31615
629.704	29571
629.767	30209
629.830	29807
629.892	29242
629.955	28126
630.018	31826
630.081	27040
630.144	29359
630.207	27216
630.269	30073
630.332	26745
630.395	27674
630.458	26719
630.520	25466
630.583	27741
630.646	28026
630.708	26560
630.771	27327
630.834	29100
630.896	28490
630.959	28272
631.021	26963
631.084	26408
631.146	28257
631.209	27994
631.272	27179
631.334	28623
631.397	28735
631.459	27060
631.522	30525
631.584	29784
631.646	31903
631.709	33948
631.771	33242
631.834	31526
631.896	31845
631.958	28383
632.021	29345
632.083	26116
632.145	27072
632.208	25268
632.270	27860
632.332	25315
632.395	25713
632.457	26472
632.519	25039
632.581	25947
632.643	24277
632.706	24762
632.768	24689
632.830	25745
632.892	26286
632.954	25579
633.016	26833
633.078	25445
633.141	26048
633.203	24953
633.265	26393
633.327	25001
633.389	24955
633.451	25727
633.513	25131
633.575	26655
633.637	26276
633.698	25463
633.760	27841
633.822	29046
633.884	29110
633.946	29582
634.008	30491
634.070	31291
634.132	33732
634.193	35890
634.255	40002
634.317	39988
634.379	39864
634.441	34767
634.502	31847
634.564	29536
634.626	27212
634.687	25485
634.749	25726
634.811	24388
634.873	24598
634.934	24874
634.996	25815
635.057	24460
635.119	23974
635.181	24572
635.242	26641
635.304	23793
635.365	27671
635.427	24135
635.488	25122
635.550	24457
635.611	25613
635.673	23834
635.734	29098
635.796	28529
635.857	31611
635.918	33236
635.980	38555
636.041	38956
636.102	42924
636.164	42014
636.225	41425
636.286	33460
636.348	31897
636.409	28604
636.470	26424
636.531	26059
636.593	24825
636.654	24649
636.715	23633
636.776	22288
636.838	21801
636.899	22498
636.960	22486
637.021	20634
637.082	20935
637.143	21186
637.204	20623
637.265	20580
637.326	20848
637.387	21711
637.448	21304
637.509	20949
637.570	21407
637.631	21312
637.692	18989
637.753	18563
637.814	20110
637.875	19520
637.936	20001
637.997	19437
638.058	18208
638.119	20417
638.179	19770
638.240	18317
638.301	20110
638.362	17823
638.423	18421
638.483	18710
638.544	17167
638.605	17883
638.666	17234
638.726	18288
638.787	19850
638.848	17705
638.908	17746
638.969	17502
639.030	16640
639.090	15798
639.151	17516
639.211	18317
639.272	17466
639.332	18913
639.393	19084
639.453	18958
639.514	20597
639.574	17483
639.635	16553
639.695	16569
639.756	15492
639.816	16182
639.877	16132
639.937	16262
639.997	16074
640.058	14595
640.118	15469
640.178	17397
640.239	15688
640.299	15086
640.359	15985
640.420	18222
640.480	19798
640.540	21585
640.600	21820
640.661	19335
640.721	18381
640.781	18094
640.841	15166
640.901	16875
640.961	16699
641.021	17516
641.082	17161
641.142	15375
641.202	17617
641.262	13692
641.322	15824
641.382	14411
641.442	15659
641.502	14949
641.562	15839
641.622	15719
641.682	17892
641.742	19390
641.802	18162
641.861	16380
641.921	14210
641.981	15457
642.041	14278
642.101	13488
642.161	13109
642.221	12708
642.280	14325
642.340	13582
642.400	13922
642.460	15258
642.519	14691
642.579	14429
642.639	16157
642.698	12876
642.758	17801
642.818	14923
642.877	13808
642.937	14572
642.997	15147
643.056	15093
643.116	14413
643.175	16158
643.235	16304
643.294	15653
643.354	17120
643.414	18448
643.473	21490
643.532	24572
643.592	32579
643.651	51317
643.711	84844
643.770	160815
643.830	367183
643.889	653675
643.948	186039
644.008	46263
644.067	28272
644.126	22000
644.186	19650
644.245	18159
644.304	15468
644.363	17391
644.423	14489
644.482	15337
644.541	17075
644.600	15034
644.659	21918
644.719	26266
644.778	38609
644.837	65768
644.896	137801
644.955	293269
645.014	92616
645.073	24782
645.132	18224
645.191	17379
645.250	17292
645.309	18546
645.368	20557
645.427	27253
645.486	47105
645.545	79295
645.604	23310
645.663	15457
645.722	15816
645.781	17615
645.840	19600
645.898	22601
645.957	30469
646.016	46303
646.075	81639
646.134	151906
646.192	389857
646.251	503956
646.310	96184
646.369	33911
646.427	27603
646.486	20399
646.545	16934
646.603	16050
646.662	14144
646.721	13719
646.779	14207
646.838	12744
646.896	18831
646.955	25764
647.014	41145
647.072	78885
647.131	209323
647.189	90367
647.248	17056
647.306	14155
647.365	12466
647.423	9479
647.481	11760
647.540	8927
647.598	11680
647.657	10022
647.715	11059
647.773	9711
647.832	10571
647.890	8155
647.948	8543
648.007	10309
648.065	8087
648.123	8568
648.181	9502
648.240	8967
648.298	7949
648.356	7674
648.414	8961
648.472	8666
648.531	8393
648.589	7952
648.647	7911
648.705	7863
648.763	8469
648.821	9017
648.879	8787
648.937	9968
648.995	12992
649.053	15273
649.111	23783
649.169	38146
649.227	69244
649.285	144094
649.343	380802
649.401	169269
649.459	25567
649.516	15346
649.574	11713
649.632	12738
649.690	14554
649.748	18569
649.806	28187
649.863	53393
649.921	153457
649.979	90718
650.037	14097
650.094	7732
650.152	8752
650.210	6011
650.268	7011
650.325	6082
650.383	6233
650.440	4514
650.498	5533
650.556	4787
650.613	5188
650.671	6089
650.728	5505
650.786	6346
650.843	10054
650.901	5135
650.958	6262
651.016	5424
651.073	4985
651.131	3823
651.188	4028
651.246	4705
651.303	5024
651.360	4141
651.418	4310
651.475	4802
651.532	4181
651.590	4784
651.647	3970
651.704	3919
651.762	3933
651.819	3920
651.876	4174
651.933	3034
651.990	4172
652.048	2594
652.105	3519
652.162	4644
652.219	3530
652.276	4098
652.333	4312
652.390	2765
652.448	3636
652.505	3378
652.562	3549
652.619	3825
652.676	3367
652.733	3738
652.790	3558
652.847	2350
652.904	3698
652.961	1730
653.017	3193
653.074	3458
653.131	3483
653.188	2639
653.245	4054
653.302	3282
653.359	2737
653.415	3658
653.472	3146
653.529	3439
653.586	3596
653.642	2173
653.699	3686
653.756	2182
653.813	2762
653.869	3971
653.926	4109
653.983	2881
654.039	4161
654.096	1727
654.152	4506
654.209	1672
654.266	3417
654.322	1902
654.379	2631
654.435	3062
654.492	3352
654.548	2771
654.605	2632
654.661	3502
654.717	3334
654.774	3230
654.830	3041
654.887	2879
654.943	2881
655.000	3652
655.056	3869
655.112	2071
655.168	2265
655.225	1915
655.281	3098
655.337	2576
655.394	2799
655.450	2033
655.506	2870
655.562	2082
655.618	4283
655.675	1161
655.731	3068
655.787	1714
655.843	4418
655.899	1930
655.955	4145
656.011	3238
656.067	2410
656.123	3073
656.179	2705
656.235	3764
656.291	2522
656.347	3438
656.403	2637
656.459	2374
656.515	2927
656.571	2165
656.627	2574
656.683	2445
656.739	2938
656.795	2855
656.850	2610
656.906	1975
656.962	3462
657.018	2235
657.074	4767
657.129	6100
657.185	11367
657.241	25652
657.297	13100
657.352	3706
657.408	3347
657.464	2818
657.519	2975
657.575	2435
657.630	2727
657.686	2720
657.742	2983
657.797	2004
657.853	2854
657.908	2486
657.964	1709
658.019	2921
658.075	2615
658.130	2051
658.186	1911
658.241	3005
658.297	1470
658.352	2258
658.407	2444
658.463	1723
658.518	3330
658.573	1325
658.629	1871
658.684	1724
658.739	3307
658.795	2068
658.850	2629
658.905	1529
658.960	2358
659.016	1567
659.071	2298
659.126	2409
659.181	1501
659.236	3233
659.291	3047
659.346	2382
659.401	2110
659.457	2564
659.512	2077
659.567	2867
659.622	1951
659.677	1597
659.732	1806
659.787	1763
659.842	2358
659.897	1876
659.952	3248
660.007	1983
660.061	2003
660.116	1398
660.171	1504
660.226	2180
660.281	3149
660.336	1423
660.391	2934
660.445	1247
660.500	1716
660.555	2511
660.610	1687
660.664	2035
660.719	1671
660.774	2017
660.828	1751
660.883	1648
660.938	2613
660.992	588
661.047	2449
661.101	1408
661.156	1287
661.211	1533
661.265	2119
661.320	1796
661.374	1547
661.429	1895
661.483	2045
661.538	539
661.592	2578
661.647	1690
661.701	2995
661.755	2283
661.810	1898
661.864	1157
661.919	1090
661.973	2236
662.027	1520
662.081	1147
662.136	852
662.190	2049
662.244	2647
662.299	1603
662.353	1755
662.407	1378
662.461	1907
662.515	1701
662.569	1596
662.624	2542
662.678	1493
662.732	734
662.786	1505
662.840	1889
662.894	1996
662.948	911
663.002	1816
663.056	1544
663.110	1395
663.164	722
663.218	1607
663.272	1101
663.326	1444
663.380	1413
663.434	1834
663.488	1015
663.542	1818
663.595	1593
663.649	1112
663.703	1692
663.757	2078
663.811	823
663.864	1186
663.918	1178
663.972	1991
664.026	1684
664.079	1154
664.133	1228
664.187	1465
664.240	1358
664.294	1684
664.348	1484
664.401	1875
664.455	1400
664.508	1222
664.562	1574
664.615	1833
664.669	1115
664.722	1963
664.776	807
664.829	1233
664.883	936
664.936	1663
664.990	809
665.043	2022
665.097	1526
665.150	2116
665.203	1266
665.257	1716
665.310	1717
665.363	1287
665.417	1240
665.470	2100
665.523	1887
665.576	2027
665.630	136
665.683	2396
665.736	1537
665.789	1915
665.842	513
665.895	1231
665.949	2042
666.002	1818
666.055	517
666.108	2376
666.161	672
666.214	2460
666.267	1211
666.320	2159
666.373	2478
666.426	1628
666.479	2037
666.532	2399
666.585	1634
666.638	2207
666.691	2028
666.744	1773
666.796	1164
666.849	2117
666.902	1564
666.955	1151
667.008	1407
667.060	1838
667.113	1385
667.166	2257
667.219	1702
667.271	2052
667.324	1896
667.377	2013
667.430	2073
667.482	2177
667.535	1452
667.587	2111
667.640	698
667.693	1611
667.745	1460
667.798	1986
667.850	1863
667.903	1859
667.955	2677
668.008	1835
668.060	1967
668.113	1249
668.165	1294
668.218	1782
668.270	2296
668.322	1354
668.375	886
668.427	1609
668.479	1719
668.532	2371
668.584	1331
668.636	1547
668.689	1185
668.741	1800
668.793	1015
668.845	1597
668.898	1415
668.950	1848
669.002	1558
669.054	1527
669.106	1157
669.158	1612
669.211	1244
669.263	2004
669.315	1525
669.367	2001
669.419	567
669.471	2462
669.523	1632
669.575	2585
669.627	905
669.679	1435
669.731	1298
669.783	2148
669.835	1882
669.886	1171
669.938	1700
669.990	1662
670.042	109
670.094	2505
670.146	2073
670.197	2252
670.249	2059
670.301	1376
670.353	1583
670.404	3185
670.456	3835
670.508	5801
670.560	8607
670.611	14493
670.663	25333
670.715	65052
670.766	92495
670.818	21771
670.869	4659
670.921	2941
670.972	3057
671.024	2159
671.075	1408
671.127	2562
671.178	1970
671.230	3087
671.281	2289
671.333	2599
671.384	3774
671.436	4439
671.487	7759
671.538	11512
671.590	20261
671.641	34222
671.692	63306
671.744	119894
671.795	72046
671.846	21329
671.897	9730
671.949	5870
672.000	3807
672.051	3316
672.102	2894
672.153	2408
672.204	2589
672.256	2953
672.307	2007
672.358	2549
672.409	1707
672.460	1705
672.511	1027
672.562	1318
672.613	154
672.664	562
672.715	966
672.766	971
672.817	1514
672.868	761
672.919	1362
672.970	885
673.021	688
673.071	784
673.122	388
673.173	1740
673.224	1048
673.275	1733
673.326	757
673.376	1631
673.427	1037
673.478	1710
673.528	882
673.579	956
673.630	514
673.680	2145
673.731	643
673.782	917
673.832	764
673.883	1489
673.934	1712
673.984	1037
674.035	1051
674.085	1575
674.136	1203
674.186	1352
674.237	1053
674.287	966
674.338	1024
674.388	863
674.438	657
674.489	1717
674.539	1340
674.589	1249
674.640	1441
674.690	1781
674.740	872
674.791	1467
674.841	753
674.891	1053
674.942	593
674.992	706
675.042	709
675.092	1105
675.142	118
675.193	589
675.243	76
675.293	1119
675.343	898
675.393	1443
675.443	508
675.493	454
675.543	109
675.593	787
675.643	37
675.693	1138
675.743	718
675.793	1447
675.843	-341
675.893	242
675.943	914
675.993	901
676.043	1042
676.093	339
676.142	-158
676.192	1166
676.242	500
676.292	1018
676.341	615
676.391	643
676.441	419
676.491	567
676.540	503
676.590	820
676.640	820
676.689	647
676.739	-393
676.789	253
676.838	471
676.888	1058
676.937	361
676.987	510
677.037	-163
677.086	482
677.136	-622
677.185	-171
677.235	701
677.284	338
677.333	-159
677.383	316
677.432	-23
677.482	1005
677.531	845
677.580	-224
677.630	596
677.679	947
677.728	-415
677.778	876
677.827	-187
677.876	627
677.925	-202
677.975	229
678.024	784
678.073	1401
678.122	909
678.171	961
678.220	194
678.269	436
678.319	1447
678.368	1426
678.417	806
678.466	1077
678.515	-61
678.564	248
678.613	-361
678.662	279
678.711	-93
678.760	932
678.809	-511
678.857	640
678.906	454
678.955	256
679.004	94
679.053	-76
679.102	-563
679.151	-145
679.199	-1066
679.248	277
679.297	-25
679.346	153
679.394	-1010
679.443	354
679.492	-456
679.540	-154
679.589	707
679.638	-338
679.686	-222
679.735	486
679.784	611
679.832	1195
679.881	294
679.929	843
679.978	-414
680.026	661
680.075	116
680.123	-122
680.172	-481
680.220	499
680.268	126
680.317	-180
680.365	-710
680.414	191
680.462	-341
680.510	403
680.559	-599
680.607	510
680.655	-107
680.703	366
680.752	-384
680.800	323
680.848	-149
680.896	231
680.945	-106
680.993	-234
681.041	49
681.089	-43
681.137	-1017
681.185	-188
681.233	-662
681.258	36
681.281	683
681.329	-727
681.377	-461
681.380	-401
681.425	442
681.473	52
681.502	-147
681.521	-313
681.569	40
681.617	-93
681.624	37
681.665	769
681.713	210
681.745	440
681.761	531
681.809	-101
681.857	6
681.867	-97
681.904	-530
681.952	271
681.989	380
682.000	397
682.048	372
682.096	262
682.111	359
682.143	503
682.191	559
682.233	571
682.239	565
682.286	414
682.334	277
682.354	337
682.382	360
682.430	373
682.476	-32
682.477	-53
682.525	285
682.572	273
682.598	211
682.620	137
682.667	281
682.715	774
682.720	746
682.763	277
682.810	879
682.841	551
682.857	409
682.905	720
682.952	727
682.963	771
683.000	788
683.047	-179
683.085	924
683.095	1226
683.142	373
683.190	1316
683.206	1235
683.237	979
683.284	1332
683.328	873
683.332	829
683.379	894
683.426	700
683.449	835
683.473	972
683.521	568
683.568	1077
683.571	1117
683.615	1445
683.662	1101
683.693	973
683.709	897
683.757	1524
683.804	1665
683.814	1448
683.851	639
683.898	858
683.936	940
683.945	952
683.992	1489
684.039	1333
684.057	1298
684.086	1221
684.133	1142
684.179	634
684.180	607
684.227	1295
684.274	1759
684.300	1920
684.321	2057
684.368	1466
684.415	1695
684.422	1663
684.462	1366
684.509	1204
684.543	1188
684.556	1188
684.603	1737
684.649	1078
684.665	1387
684.696	1986
684.743	1765
684.786	2549
684.790	2602
684.837	1384
684.883	1699
684.908	1430
684.930	1245
684.977	1808
685.023	2084
685.029	2079
685.070	1877
685.117	1643
685.150	1410
685.164	1311
685.210	1564
685.257	2395
685.272	2247
685.303	1962
685.350	2296
685.393	1772
685.396	1723
685.443	2137
685.490	2128
685.514	2192
685.536	2227
685.583	2106
685.629	2135
685.636	2071
685.675	1710
685.722	2211
685.757	2356
685.768	2373
685.815	1827
685.861	2213
685.878	2047
685.908	1806
685.954	2024
686.000	2252
686.000	2252
686.047	2213
686.093	2566
686.121	2876
686.139	3082
686.185	2644
686.232	2604
686.242	2614
686.278	2614
686.324	2350
686.363	2946
686.370	3055
686.416	2699
686.463	2747
686.484	2754
686.509	2715
686.555	3227
686.601	2601
686.606	2630
686.647	2892
686.693	2611
686.727	2871
686.739	2975
686.785	2447
686.831	2507
686.848	2598
686.877	2719
686.923	3248
686.969	2829
686.969	2827
687.015	3093
687.061	2934
687.090	3616
687.107	3902
687.153	3382
687.199	3176
687.211	3159
687.245	3140
687.291	3488
687.332	2933
687.336	2887
687.382	3436
687.428	2867
687.453	3159
687.474	3386
687.520	3242
687.565	3827
687.574	3665
687.611	3083
687.657	3950
687.695	3496
687.702	3417
687.748	4246
687.794	3825
687.816	3962
687.839	3992
687.885	3887
687.931	3774
687.937	3784
687.976	3940
688.022	3791
688.058	3774
688.067	3755
688.113	3766
688.158	2827
688.179	3244
688.204	3891
688.249	3885
688.295	4444
688.300	4403
688.340	3917
688.386	4719
688.421	4201
688.431	4072
688.477	4071
688.522	4361
688.542	4270
688.567	4342
688.613	4220
688.658	4885
688.663	4889
688.703	4477
688.749	4450
688.784	4592
688.794	4704
688.839	4469
688.884	4367
688.905	4498
688.930	4547
688.975	4560
689.020	4054
689.026	4043
689.065	4118
689.110	4214
689.146	4100
689.155	4093
689.201	4503
689.246	3927
689.267	4158
689.291	4327
689.336	4198
689.381	3844
689.388	3848
689.426	4012
689.471	4364
689.509	4156
689.516	4147
689.561	4366
689.606	4265
689.630	4293
689.651	4329
689.696	4318
689.741	4945
689.750	4961
689.785	4808
689.830	4862
689.871	4667
689.875	4680
689.920	4936
689.965	4761
689.992	5006
690.010	5061
690.054	4640
690.099	4780
690.112	4638
690.144	4458
690.189	4770
690.233	4435
690.233	4440
690.278	4645
690.323	4581
690.354	4408
690.367	4453
690.412	4601
690.457	5052
690.474	5014
690.501	4795
690.546	4831
690.590	4823
690.595	4813
690.635	4823
690.680	4662
690.716	4550
690.724	4566
690.769	4415
690.813	5223
690.836	5172
690.857	5386
690.902	6174
690.946	6747
690.957	6902
690.991	7587
691.035	8268
691.077	9248
691.080	9237
691.124	8201
691.168	7736
691.198	6843
691.213	6449
691.257	6376
691.301	4965
691.318	4898
691.346	5235
691.390	4666
691.434	5276
691.439	5270
691.478	5246
691.522	5286
691.559	5044
691.567	5056
691.611	5802
691.655	5510
691.680	5732
691.699	5781
691.743	5475
691.787	5273
691.800	5240
691.831	5260
691.875	5305
691.919	5420
691.921	5410
691.964	5496
692.008	5287
692.041	5550
692.052	5635
692.096	5025
692.139	5660
692.162	5582
692.183	5381
692.227	5076
692.271	4574
692.282	4548
692.315	4966
692.359	4938
692.402	5639
692.403	5654
692.447	5306
692.490	5609
692.523	5127
692.534	5011
692.578	5172
692.622	5080
692.643	5054
692.666	5071
692.709	5142
692.753	5460
692.763	5436
692.797	5406
692.840	5484
692.884	5508
692.884	5521
692.928	5487
692.971	5450
693.004	5228
693.015	5204
693.059	5331
693.102	5351
693.124	5373
693.146	5470
693.189	5655
693.233	5688
693.245	5727
693.276	5827
693.320	6055
693.363	6017
693.365	5995
693.407	5636
693.450	5889
693.485	5668
693.493	5708
693.537	6107
693.580	6397
693.605	6518
693.624	7001
693.667	8024
693.710	9345
693.725	9743
693.753	11435
693.797	14213
693.840	16723
693.845	16999
693.883	15115
693.926	12643
693.966	10721
693.970	10627
694.013	9157
694.056	8238
694.086	7014
694.099	6797
694.142	6601
694.185	6265
694.206	5942
694.229	5779
694.272	6050
694.315	6169
694.326	6103
694.358	6074
694.401	6254
694.444	6325
694.446	6320
694.487	6379
694.530	6082
694.566	5943
694.573	5962
694.616	5877
694.659	6279
694.686	6296
694.702	6317
694.745	6320
694.787	6380
694.806	6292
694.830	6136
694.873	5893
694.916	6129
694.926	6081
694.959	6345
695.002	6437
695.044	6673
695.046	6675
695.087	6774
695.130	6573
695.166	6611
695.172	6690
695.215	6605
695.258	7015
695.286	6905
695.301	6839
695.343	7286
695.386	7340
695.406	7322
695.428	7648
695.471	8376
695.514	9109
695.526	9299
695.556	9875
695.599	10616
695.641	11237
695.646	11298
695.684	10773
695.726	9834
695.766	9259
695.769	9271
695.811	8887
695.854	8660
695.886	8311
695.896	8351
695.938	8669
695.981	8648
696.005	8810
696.023	9174
696.065	9742
696.108	10477
696.125	10736
696.150	10854
696.192	11104
696.235	11197
696.245	11213
696.277	11249
696.319	11160
696.361	11088
696.365	11051
696.404	11039
696.446	11156
696.485	10973
696.488	10982
696.530	10928
696.572	10685
696.604	10689
696.614	10797
696.656	10893
696.698	11075
696.724	11149
696.740	11172
696.783	11189
696.825	11160
696.844	11137
696.867	11201
696.909	11187
696.951	11192
696.964	11177
696.992	11505
697.034	11890
697.076	12264
697.083	12316
697.118	12603
697.160	12810
697.202	12966
697.203	12938
697.244	12836
697.286	12594
697.323	12404
697.327	12456
697.369	12687
697.411	12724
697.442	12760
697.453	12746
697.494	12620
697.536	12443
697.562	12322
697.578	12384
697.620	12418
697.661	12460
697.682	12450
697.703	12632
697.744	12945
697.786	13302
697.801	13345
697.828	13528
697.869	13816
697.911	14114
697.921	14158
697.952	13954
697.994	13561
698.035	13229
698.040	13157
698.077	13186
698.118	13091
698.160	12999
698.160	12963
698.201	13534
698.243	13984
698.279	14422
698.284	14501
698.325	14810
698.367	15214
698.399	15412
698.408	15464
698.449	15565
698.491	15644
698.518	15679
698.532	15685
698.573	15555
698.614	15456
698.638	15332
698.656	15374
698.697	15400
698.738	15409
698.757	15379
698.779	15485
698.820	15602
698.862	15733
698.877	15733
698.903	15848
698.944	15968
698.985	16093
698.996	16086
699.026	16318
699.067	16573
699.116	16836
699.235	16533
699.354	14632
699.474	14281
699.593	13590
699.713	14152
699.832	14618
699.951	15266
700.070	14885
700.190	13967
700.309	13633
700.428	12711
700.547	13193
700.667	13554
700.786	13287
700.905	12037
701.024	12467
701.143	12445
701.262	13805
701.381	13775
701.500	13645
701.619	13953
701.738	13439
701.857	13531
701.976	11870
702.095	13242
702.214	12673
702.333	12559
702.452	13547
702.571	13451
702.690	12703
702.809	13126
702.928	12925
703.047	11503
703.165	11662
703.284	11446
703.403	11348
703.522	10897
703.640	11207
703.759	10659
703.878	11176
703.997	11439
704.115	11102
704.234	11329
704.353	11748
704.471	10167
704.590	10675
704.708	10288
704.827	11010
704.946	10508
705.064	10531
705.183	10391
705.301	10688
705.420	10396
705.538	10248
705.656	9003
705.775	9226
705.893	10404
706.012	9429
706.130	9110
706.249	9755
706.367	9208
706.485	8975
706.604	7875
706.722	8513
706.840	10124
706.958	9919
707.077	8534
707.195	8184
707.313	8385
707.431	8705
707.549	7480
707.668	7863
707.786	9188
707.904	7650
708.022	9012
708.140	8215
708.258	7306
708.376	8870
708.494	7743
708.612	9522
708.730	8573
708.848	7751
708.966	8496
709.084	8373
709.202	8007
709.320	6561
709.438	7684
709.556	7502
709.674	7128
709.791	6406
709.909	6543
710.027	7617
710.145	6599
710.263	7604
710.380	6392
710.498	7614
710.616	6606
710.733	6497
710.851	6783
710.969	6994
711.086	5817
711.204	7516
711.322	6206
711.439	6632
711.557	5497
711.674	6492
711.792	5661
711.909	5877
712.027	5730
712.144	6289
712.262	6026
712.379	6628
712.497	5096
712.614	6267
712.732	5900
712.849	6243
712.966	6238
713.084	6803
713.201	5217
713.318	5703
713.436	6182
713.553	6298
713.670	7275
713.787	6579
713.905	6319
714.022	7113
714.139	6704
714.256	9106
714.373	13792
714.490	28064
714.608	84257
714.725	355340
714.842	281086
714.959	22630
715.076	9498
715.193	8039
715.310	7411
715.427	6185
715.544	6702
715.661	6163
715.778	5477
715.895	5985
716.011	6124
716.128	6115
716.245	4733
716.362	5993
716.479	5030
716.596	5120
716.713	5348
716.829	4891
716.946	4364
717.063	4538
717.180	4166
717.296	5214
717.413	4571
717.530	4407
717.646	3901
717.763	4705
717.880	4244
717.996	4313
718.113	4358
718.229	4398
718.346	3587
718.462	4377
718.579	4516
718.695	4022
718.812	4131
718.928	4189
719.045	4486
719.161	4027
719.277	4332
719.394	6035
719.510	4923
719.626	5634
719.743	6776
719.859	12302
719.975	28792
720.092	128053
720.208	242746
720.324	22096
720.440	7634
720.557	5984
720.673	5440
720.789	4740
720.905	4491
721.021	4111
721.137	4141
721.253	3721
721.369	3649
721.486	3705
721.602	3933
721.718	4024
721.834	3034
721.950	3031
722.066	3011
722.181	3240
722.297	3028
722.413	4013
722.529	2823
722.645	3783
722.761	3537
722.877	3622
722.993	3564
723.108	5630
723.224	3769
723.340	3550
723.456	3590
723.571	3869
723.687	2158
723.803	4188
723.918	2891
724.034	3156
724.150	3189
724.265	3723
724.381	3628
724.497	1948
724.612	2530
724.728	2798
724.843	2538
724.959	3308
725.074	3270
725.190	3343
725.305	3023
725.421	2715
725.536	3642
725.651	4707
725.767	2314
725.882	3170
725.997	3343
726.113	4100
726.228	2943
726.343	3074
726.459	2823
726.574	2460
726.689	2990
726.804	2872
726.920	2319
727.035	3715
727.150	3350
727.265	2594
727.380	2603
727.495	3258
727.610	3147
727.725	3513
727.841	2276
727.956	3619
728.071	2332
728.186	2666
728.301	2314
728.416	3196
728.531	2915
728.645	2524
728.760	2430
728.875	3151
728.990	3418
729.105	2533
729.220	2637
729.335	2393
729.449	2180
729.564	2917
729.679	2453
729.794	3153
729.908	2837
730.023	2438
730.138	2700
730.253	2730
730.367	2601
730.482	3176
730.596	2430
730.711	3860
730.826	4174
730.940	4222
731.055	3332
731.169	3998
731.284	3199
731.398	4784
731.513	3625
731.627	4749
731.742	6231
731.856	7281
731.970	7696
732.085	8850
732.199	12019
732.313	21815
732.428	65319
732.542	207357
732.656	99452
732.771	17037
732.885	10148
732.999	9792
733.113	10613
733.227	10125
733.342	8957
733.456	8738
733.570	9357
733.684	8758
733.798	8436
733.912	8350
734.026	8670
734.140	8310
734.254	7766
734.368	7818
734.482	7582
734.596	7699
734.710	7391
734.824	7417
734.938	7658
735.052	6968
735.166	7756
735.280	8252
735.393	7334
735.507	7654
735.621	6351
735.735	7063
735.849	7210
735.962	6463
736.076	6925
736.190	7017
736.303	8055
736.417	7089
736.531	6577
736.644	7802
736.758	6541
736.872	6650
736.985	6271
737.099	6947
737.212	6262
737.326	6043
737.439	6382
737.553	5451
737.666	7198
737.780	5892
737.893	5869
738.007	5772
738.120	5670
738.233	5755
738.347	6041
738.460	5984
738.573	6853
738.687	5163
738.800	6315
738.913	6454
739.026	6133
739.140	6015
739.253	4923
739.366	5893
739.479	5378
739.592	5672
739.705	4393
739.818	6706
739.932	5046
740.045	5529
740.158	4994
740.271	5764
740.384	4881
740.497	4332
740.610	5411
740.723	4952
740.836	4476
740.949	5016
741.062	5587
741.174	4426
741.287	4920
741.400	5097
741.513	4643
741.626	5810
741.739	4884
741.851	4164
741.964	5396
742.077	4719
742.189	3541
742.302	4540
742.415	4599
742.527	4476
742.640	4643
742.753	3742
742.865	3921
742.978	4538
743.090	4308
743.203	4669
743.316	3535
743.428	3643
743.541	5028
743.653	3078
743.766	3835
743.878	4012
743.990	3642
744.103	4374
744.215	3958
744.327	4235
744.440	5171
744.552	3505
744.664	2448
744.777	4212
744.889	3719
745.001	4727
745.113	3468
745.226	3793
745.338	4018
745.450	4517
745.562	3461
745.674	4084
745.786	4468
745.898	3759
746.010	3160
746.122	4107
746.234	3731
746.347	4492
746.459	4191
746.570	3169
746.682	4389
746.794	4919
746.906	2196
747.018	3537
747.130	4042
747.242	3269
747.354	3073
747.466	3503
747.577	2685
747.689	3720
747.801	2974
747.913	2657
748.024	3193
748.136	3048
748.248	3112
748.359	3088
748.471	4293
748.583	2589
748.694	2723
748.806	3116
748.918	2199
749.029	3100
749.141	3002
749.252	3994
749.364	2744
749.475	2930
749.587	1926
749.698	2929
749.809	2725
749.921	3129
750.032	3595
750.144	3023
750.255	3018
750.366	3012
750.478	2820
750.589	3094
750.700	3130
750.811	3277
750.923	2594
751.034	2327
751.145	4002
751.256	2455
751.367	2347
751.479	3419
751.590	2659
751.701	2713
751.812	1765
751.923	2536
752.034	3275
752.145	2857
752.256	3558
752.367	2233
752.478	2401
752.589	2900
752.700	3056
752.811	2451
752.922	2124
753.032	2576
753.143	3195
753.254	2553
753.365	3765
753.476	2981
753.586	1890
753.697	2721
753.808	2597
753.919	2083
754.029	1825
754.140	2902
754.251	2299
754.361	2795
754.472	2861
754.582	2020
754.693	2385
754.804	3560
754.914	1659
755.025	1364
755.135	2460
755.246	2870
755.356	2461
755.466	2766
755.577	2637
755.687	2765
755.798	1718
755.908	2732
756.018	1952
756.129	1978
756.239	2129
756.349	2979
756.460	1891
756.570	2955
756.680	2675
756.790	1568
756.900	2550
757.011	2551
757.121	1799
757.231	1643
757.341	2690
757.451	1725
757.561	1785
757.671	2939
757.781	1380
757.891	2172
758.001	1966
758.111	2956
758.221	2595
758.331	2485
758.441	2570
758.551	2218
758.661	2612
758.771	2813
758.880	2596
758.990	1836
759.100	1675
759.210	2529
759.320	2682
759.429	1952
759.539	2450
759.649	3375
759.758	2494
759.868	3276
759.978	3325
760.087	3437
760.197	3966
760.307	3145
760.416	2758
760.526	2966
760.635	3542
760.745	2533
760.854	4229
760.964	4337
761.073	4488
761.182	4027
761.292	3177
761.401	3142
761.511	2033
761.620	2641
761.729	2303
761.839	2055
761.948	2370
762.057	1481
762.166	2539
762.276	972
762.385	3363
762.494	2337
762.603	1923
762.712	1858
762.822	1656
762.931	2190
763.040	678
763.149	1989
763.258	1924
763.367	1731
763.476	2548
763.585	1708
763.694	2335
763.803	2500
763.912	2977
764.021	2126
764.130	1976
764.238	2864
764.347	2916
764.456	2472
764.565	3471
764.674	2814
764.783	2655
764.891	2616
765.000	4432
765.109	4399
765.217	3934
765.326	4511
765.435	5385
765.543	6839
765.652	7959
765.761	9877
765.869	14620
765.978	22792
766.086	38307
766.195	73674
766.303	165256
766.412	287183
766.520	225999
766.629	116709
766.737	50505
766.846	28478
766.954	18530
767.062	13970
767.171	10504
767.279	9909
767.387	6363
767.496	6260
767.604	4945
767.712	4887
767.820	4351
767.928	4071
768.037	3461
768.145	4378
768.253	3370
768.361	3075
768.469	4195
768.577	3172
768.685	4529
768.793	4318
768.901	3682
769.009	4385
769.117	5489
769.225	6677
769.333	9776
769.441	15819
769.549	28865
769.657	64883
769.765	169550
769.873	230362
769.981	117037
770.088	39482
770.196	19454
770.304	12768
770.412	8997
770.519	7427
770.627	6122
770.735	5436
770.842	4964
770.950	3794
771.058	3855
771.165	4971
771.273	4333
771.380	4768
771.488	5738
771.595	6615
771.703	5318
771.810	5492
771.918	4341
772.025	7069
772.133	6786
772.240	6511
772.348	7857
772.455	7770
772.562	6383
772.670	6219
772.777	6402
772.884	7013
772.991	5913
773.099	7067
773.206	5476
773.313	6218
773.420	5580
773.528	6441
773.635	5338
773.742	6671
773.849	6136
773.956	5856
774.063	5283
774.170	6290
774.277	5173
774.384	6115
774.491	4803
774.598	6038
774.705	5541
774.812	5468
774.919	5085
775.026	5486
775.133	5955
775.239	4646
775.346	3819
775.453	5479
775.560	4388
775.667	4587
775.773	5160
775.880	5655
775.987	4441
776.093	5197
776.200	5846
776.307	3870
776.413	4627
776.520	5986
776.627	5068
776.733	4548
776.840	3406
776.946	5417
777.053	4119
777.159	4769
777.266	3706
777.372	5591
777.478	4692
777.585	5017
777.691	3870
777.798	4728
777.904	3797
778.010	3198
778.117	5044
778.223	4435
778.329	3489
778.435	2669
778.542	3872
778.648	3567
778.754	2925
778.860	2884
778.966	3903
779.072	3247
779.178	3845
779.284	2787
779.391	3542
779.497	2833
779.603	6010
779.708	3402
779.815	4836
779.920	8743
780.026	13290
780.132	4356
780.238	2869
780.344	2808
780.450	5095
780.556	2642
780.661	2144
780.767	3335
780.873	2898
780.979	2544
781.085	3453
781.190	2994
781.296	2237
781.402	2910
781.507	2686
781.613	2660
781.719	2524
781.824	3766
781.930	3182
782.035	2604
782.141	3616
782.246	2125
782.352	3251
782.457	3328
782.563	3269
782.668	3000
782.773	2220
782.879	1301
782.984	2851
783.090	3172
783.195	2653
783.300	3644
783.405	2195
783.511	2222
783.616	2842
783.721	3271
783.826	2089
783.932	1901
784.037	2397
784.142	2890
784.247	1569
784.352	2996
784.457	1775
784.562	3191
784.667	2792
784.772	1772
784.877	1853
784.982	3483
785.087	2819
785.192	2232
785.297	2118
785.402	2776
785.507	1879
785.611	1973
785.716	1406
785.821	2597
785.926	1945
786.031	2336
786.135	2074
786.240	1849
786.345	931
786.450	2743
786.554	2219
786.659	2255
786.763	972
786.868	2092
786.973	3159
787.077	1355
787.182	1699
787.286	2563
787.391	2848
787.495	901
787.600	1068
787.704	573
787.809	2898
787.913	1429
788.017	1463
788.122	3030
788.226	1567
788.330	926
788.435	1384
788.539	1984
788.643	1966
788.747	1097
788.852	1135
788.956	1274
789.060	2288
789.164	1539
789.268	925
789.372	2669
789.476	1228
789.580	810
789.684	1300
789.788	2272
789.892	1394
789.996	1379
790.100	730
790.204	1987
790.308	2005
790.412	540
790.516	1353
790.620	1377
790.724	2581
790.828	1357
790.931	-385
791.035	2263
791.139	588
791.242	870
791.346	2306
791.450	1830
791.554	760
791.657	421
791.761	1188
791.864	2047
791.968	1292
792.072	1218
792.175	761
792.279	369
792.382	961
792.486	695
792.589	1013
792.693	990
792.796	657
792.899	2182
793.003	1942
793.106	-480
793.209	307
793.313	1472
793.416	-362
793.519	1979
793.623	1204
793.726	992
793.829	989
793.932	437
794.035	-679
794.138	1773
794.242	1974
794.345	-36
794.448	1087
794.551	1075
794.654	3720
794.757	6540
794.860	949
794.963	721
795.066	65
795.169	1019
795.272	513
795.375	1375
795.477	-292
795.580	450
795.683	-75
795.786	1284
795.889	-273
795.991	1956
796.094	1625
796.197	-85
796.300	1466
796.402	662
796.505	-154
796.608	1331
796.710	1345
796.813	1393
796.915	309
797.018	1613
797.120	441
797.223	-137
797.326	2280
797.428	486
797.530	387
797.633	158
797.735	1932
797.838	547
797.940	1897
798.042	138
798.145	560
798.247	1753
798.349	-288
798.452	1232
798.554	405
798.656	171
798.758	2434
798.860	843
798.962	170
799.065	41
799.167	-471
799.269	1008
799.371	1857
799.473	2052
799.575	196
799.677	-255
799.779	2443
799.881	-354
799.983	1005
800.085	1178
800.187	-74
800.289	-252
800.390	428
800.492	1518
800.594	1569
800.696	770
800.798	449
800.899	343
801.001	649
801.103	988
801.205	344
801.306	287
801.408	187
801.509	308
801.611	1249
801.713	1507
801.814	-29
801.916	-592
802.017	224
802.119	-286
802.220	435
802.322	-931
802.423	999
802.525	-1065
802.626	-325
802.727	1272
802.829	848
802.930	-2906
803.031	1474
803.133	76
803.234	30
803.335	765
803.436	-182
803.538	472
803.639	-766
803.740	1278
803.841	-437
803.942	542
804.043	1526
804.144	-745
804.245	-340
804.346	595
804.447	-490
804.548	-89
804.649	1482
804.750	116
804.851	-483
804.952	107
805.053	1066
805.154	-991
805.255	1433
805.355	-550
805.456	-111
805.557	515
805.658	-781
805.758	778
805.859	590
805.960	234
806.061	-504
806.161	-376
806.262	219
806.362	-286
806.463	-193
806.564	693
806.664	-80
806.765	-195
806.865	-72
806.966	-586
807.066	-405
807.166	1045
807.267	433
807.367	-688
807.468	623
807.568	-326
807.668	203
807.769	804
807.869	-360
807.969	649
808.069	-26
808.170	137
808.270	161
808.370	-304
808.470	-472
808.570	-744
808.670	-82
808.770	-578
808.870	-1335
808.970	838
809.070	298
809.170	-336
809.271	521
809.370	459
809.470	258
809.570	-571
809.670	-163
809.770	-155
809.870	1344
809.970	237
810.070	219
810.169	-86
810.269	-961
810.369	465
810.469	145
810.568	-650
810.668	-696
810.768	449
810.867	-697
810.967	-346
811.066	196
811.166	-464
811.265	953
811.365	-139
811.464	602
811.564	309
811.663	677
811.763	-1150
811.862	167
811.962	857
812.061	-290
812.160	-102
812.260	583
812.359	706
812.458	-903
812.557	248
812.657	-708
812.756	607
812.855	462
812.954	404
813.053	-100
813.153	408
813.252	-336
813.351	17
813.450	-296
813.549	181
813.648	413
813.747	-352
813.846	261
813.945	-632
814.044	367
814.143	246
814.242	495
814.341	407
814.439	725
814.538	390
814.637	-140
814.736	43
814.835	805
814.933	742
815.032	677
815.131	1588
815.229	3642
815.328	5706
815.427	2969
815.525	3679
815.624	3263
815.722	2537
815.821	3047
815.919	3114
816.018	2511
816.116	3155
816.215	2898
816.313	3609
816.412	3386
816.510	3820
816.609	4920
816.707	5277
816.805	3878
816.904	2890
817.002	4548
817.100	4878
817.198	5057
817.296	3459
817.395	4181
817.493	4249
817.591	3596
817.689	4115
817.787	3724
817.885	4458
817.983	3583
818.081	4299
818.179	4803
818.277	9644
818.375	5675
818.473	4340
818.571	2298
818.669	3738
818.767	4278
818.865	2919
818.963	2605
819.061	3806
819.158	3808
819.256	6166
819.354	5994
819.452	13407
819.549	6682
819.647	4338
819.745	3648
819.842	3162
819.940	3052
820.038	3354
820.135	2909
820.233	3913
820.330	2656
820.428	2531
820.525	3715
820.623	2237
820.720	1047
820.818	3367
820.915	3261
821.012	2609
821.110	1784
821.207	3344
821.304	2178
821.402	2991
821.499	2945
821.596	2725
821.693	1923
821.791	2866
821.888	2370
821.985	2648
822.082	1631
822.179	2486
822.276	2494
822.373	2555
822.470	1735
822.567	2360
822.664	757
822.761	3183
822.858	2703
822.955	3196
823.052	2357
823.149	2376
823.246	2838
823.343	1907
823.440	2436
823.536	2441
823.633	2118
823.730	1829
823.827	1981
823.923	3395
824.020	1830
824.117	2769
824.213	1262
824.310	1866
824.407	1961
824.503	1608
824.600	1170
824.696	1244
824.793	2425
824.889	1714
824.986	982
825.082	1699
825.179	1489
825.275	1331
825.371	2495
825.468	2210
825.564	333
825.660	2117
825.757	3278
825.853	2071
825.949	1519
826.045	1517
826.142	638
826.238	1742
826.334	1910
826.430	1280
826.526	1059
826.622	368
826.718	2289
826.814	1489
826.910	1800
827.006	144
827.102	471
827.198	2186
827.294	2622
827.390	2005
827.486	1149
827.582	377
827.678	-333
827.774	1966
827.869	-61
827.965	1652
828.061	55
828.157	1945
828.252	1634
828.348	665
828.444	748
828.539	250
828.635	420
828.731	2044
828.826	186
828.922	1378
829.017	1431
829.113	1779
829.208	313
829.304	652
829.399	2325
829.495	1168
829.590	2084
829.685	1071
829.781	2005
829.876	1529
829.971	-201
830.066	-181
830.162	246
830.257	1826
830.352	1093
830.447	1278
830.543	1082
830.638	-838
830.733	2626
830.828	72
830.923	901
831.018	816
831.113	1356
831.208	-635
831.303	564
831.398	647
831.493	649
831.588	2329
831.683	211
831.778	1004
831.873	1336
831.967	2319
832.062	895
832.157	-418
832.252	472
832.346	953
832.441	733
832.536	886
832.631	741
832.725	545
832.820	-237
832.914	296
833.009	-58
833.104	36
833.198	-265
833.293	668
833.387	527
833.482	1003
833.576	885
833.670	807
833.765	439
833.859	961
833.954	1494
834.048	1364
834.142	610
834.237	-886
834.331	998
834.425	1156
834.519	-416
834.613	26
834.708	247
834.802	724
834.896	452
834.990	-111
835.084	878
835.178	133
835.272	-150
835.366	1454
835.460	1638
835.554	468
835.648	160
835.742	-184
835.836	693
835.930	-558
836.024	950
836.117	1619
836.211	140
836.305	-24
836.399	145
836.493	-450
836.586	1725
836.680	-594
836.774	-430
836.867	1142
836.961	-887
837.055	82
837.148	-33
837.242	759
837.335	-360
837.429	850
837.522	-298
837.616	608
837.709	-131
837.803	-330
837.896	712
837.989	212
838.083	241
838.176	-756
838.269	-1207
838.363	994
838.456	65
838.549	594
838.642	-46
838.735	459
838.829	1013
838.922	495
839.015	16
839.108	-156
839.201	-46
839.294	1412
839.387	363
839.480	-739
839.573	268
839.666	-978
839.759	-80
839.852	-682
839.945	141
840.038	-1015
840.131	-414
840.223	-916
840.316	406
840.409	-105
840.502	-346
840.594	1881
840.687	-965
840.780	-686
840.873	-1504
840.965	-279
841.058	50
841.150	625
841.243	-980
841.336	214
841.428	-280
841.521	-449
841.613	-871
841.706	219
841.798	-656
841.890	-88
841.983	-1148
842.075	69
842.167	-815
842.260	19
842.352	52
842.444	-79
842.537	-585
842.629	345
842.721	-79
842.813	-448
842.905	-876
842.997	586
843.090	-543
843.182	-415
843.274	-952
843.366	414
843.458	358
843.550	3
843.642	-1106
843.734	387
843.826	-278
843.918	-783
844.009	-418
844.101	-773
844.193	-636
844.285	-363
844.377	280
844.469	-48
844.560	-955
844.652	563
844.744	-73
844.835	-501
844.927	870
845.019	-687
845.110	-1084
845.202	-337
845.293	-685
845.385	-1385
845.476	-2
845.568	-3
845.659	-953
845.751	293
845.842	-866
845.934	-453
846.025	-490
846.116	-1091
846.208	-1506
846.299	-375
846.390	-1254
846.482	-378
846.573	-1067
846.664	-261
846.755	-1274
846.846	84
846.937	-2058
847.029	-848
847.120	-564
847.211	-271
847.302	-599
847.393	-1039
847.484	0
847.575	-1200
847.666	-1099
847.757	-575
847.847	-314
847.938	-410
848.029	-400
848.120	-339
848.211	-1002
848.302	-1061
848.392	-834
848.483	526
848.574	-1329
848.664	-1495
848.755	-207
848.846	347
848.936	-1666
849.027	-398
849.118	-467
849.208	-1223
849.299	224
849.389	995
849.480	4202
849.570	9189
849.661	18063
849.751	28837
849.841	7543
849.932	-195
850.022	-286
850.112	-23
850.203	-1299
850.293	-213
850.383	-1108
850.474	-1440
850.564	-1087
850.654	-851
850.744	-982
850.834	-286
850.924	-378
851.014	-1171
851.104	-515
851.194	-805
851.284	-861
851.374	374
851.464	-1720
851.554	-61
851.644	-551
851.734	-591
851.824	-695
851.914	-798
852.004	-1294
852.094	-836
852.183	-723
852.273	-833
852.363	-770
852.452	-715
852.542	-63
852.632	-1291
852.721	-789
852.811	-769
852.901	790
852.990	-25
853.080	-444
853.169	-205
853.259	-71
853.348	-837
853.438	530
853.527	894
853.617	1456
853.706	4777
853.795	8331
853.885	22025
853.974	38704
854.063	77219
854.152	102650
854.242	33631
854.331	6027
854.420	2736
854.509	203
854.598	635
854.687	97
854.777	328
854.866	-508
854.955	434
855.044	-798
855.133	-97
855.222	-373
855.311	-1085
855.400	44
855.488	-995
855.577	-1256
855.666	-1141
855.755	306
855.844	-261
855.933	-1578
856.021	-536
856.110	-408
856.199	-1053
856.288	-749
856.376	-832
856.465	-1303
856.554	-1038
856.642	-906
856.731	-261
856.819	-910
856.908	-981
856.996	-425
857.085	-755
857.173	-110
857.262	-533
857.350	-828
857.438	-850
857.527	-1018
857.615	-893
857.703	-266
857.792	-563
857.880	-768
857.968	-882
858.056	-966
858.145	-775
858.233	-808
858.321	-506
858.409	-457
858.497	-541
858.585	-703
858.673	-758
858.761	-1379
858.849	-1137
858.937	-1311
859.025	-177
859.113	384
859.201	-408
859.289	574
859.377	-168
859.465	-1028
859.552	-191
859.640	-885
859.728	267
859.816	-904
859.903	-712
859.991	-1678
860.079	-725
860.166	-1271
860.254	-1016
860.342	411
860.429	-581
860.517	-1274
860.604	-805
860.692	-1029
860.779	-1708
860.867	-1092
860.954	-418
861.042	-246
861.129	-487
861.216	-1220
861.304	-404
861.391	-71
861.478	-375
861.565	-548
861.653	161
861.740	-1358
861.827	-319
861.914	-844
862.001	-1099
862.089	-834
862.176	-624
862.263	-897
862.350	-448
862.437	-1193
862.524	-944
862.611	-831
862.698	-146
862.785	-1568
862.871	-193
862.958	-217
863.045	-285
863.132	-633
863.219	-490
863.306	-1953
863.392	-281
863.479	-617
863.566	-976
863.652	8
863.739	-789
863.826	110
863.912	59
863.999	-668
864.086	-440
864.172	-1255
864.259	-596
864.345	-592
864.432	-95
864.518	372
864.604	-509
864.691	183
864.777	-290
864.863	786
864.950	1379
865.036	2001
865.122	5703
865.209	5627
865.295	4504
865.381	3378
865.467	4351
865.553	4136
865.639	5574
865.726	6681
865.812	14233
865.898	24522
865.984	35284
866.070	64203
866.156	61724
866.242	16911
866.328	6614
866.414	3451
866.499	4649
866.585	3745
866.671	4258
866.757	3598
866.843	3290
866.928	3000
867.014	3565
867.100	2971
867.186	3049
867.271	2698
867.357	3130
867.442	2261
867.528	3066
867.614	3159
867.699	2977
867.785	2681
867.870	3999
867.956	2665
868.041	2892
868.127	2160
868.212	2995
868.297	2944
868.383	3104
868.468	2182
868.553	2687
868.639	2088
868.724	3103
868.809	2771
868.894	1889
868.979	2696
869.065	2201
869.150	752
869.235	2711
869.320	1393
869.405	2032
869.490	2612
869.575	2368
869.660	1708
869.745	2288
869.830	3223
869.915	1661
870.000	676
870.085	1814
870.169	3081
870.254	3144
870.339	920
870.424	1781
870.509	1635
870.593	3149
870.678	1897
870.763	1689
870.847	1284
870.932	2104
871.016	2628
871.101	761
871.186	1621
871.270	3518
871.355	672
871.439	2131
871.523	2401
871.608	1578
871.692	1112
871.777	2359
871.861	2449
871.945	2285
872.030	1829
872.114	1900
872.198	1475
872.282	1352
872.367	1224
872.451	1669
872.535	2183
872.619	1704
872.703	1448
872.787	1377
872.871	1344
872.955	1257
873.039	-288
873.123	1058
873.207	2000
873.291	1084
873.375	702
873.459	2342
873.543	1272
873.627	924
873.711	554
873.794	1379
873.878	1267
873.962	123
874.045	1297
874.129	1209
874.137	1238
874.213	1521
874.245	1399
874.296	1207
874.352	971
874.380	854
874.460	547
874.464	534
874.547	1160
874.568	1116
874.631	977
874.676	960
874.714	949
874.784	1747
874.798	1902
874.881	1766
874.892	1596
874.965	450
874.999	709
875.048	1059
875.107	1280
875.131	1358
875.215	557
875.215	557
875.298	675
875.323	690
875.381	768
875.430	1479
875.465	1944
875.538	747
875.548	574
875.631	503
875.646	477
875.714	482
875.753	738
875.798	1039
875.861	1265
875.881	1321
875.964	1532
875.968	1480
876.047	577
876.076	977
876.130	1721
876.183	1096
876.213	741
876.291	1625
876.296	1682
876.379	80
876.398	213
876.462	652
876.506	613
876.545	618
876.613	363
876.628	334
876.711	993
876.721	1050
876.794	1409
876.828	1223
876.877	842
876.935	898
876.960	998
877.043	-412
877.043	-404
877.125	1554
877.150	1630
877.208	1744
877.258	989
877.291	537
877.365	523
877.374	509
877.456	539
877.472	526
877.539	676
877.579	969
877.622	1247
877.687	1081
877.704	1036
877.787	1196
877.794	1213
877.869	1168
877.901	1100
877.952	1056
878.008	570
878.034	384
878.115	389
878.117	394
878.199	1180
878.222	1084
878.282	727
878.329	948
878.364	1046
878.437	1312
878.447	1355
878.529	124
878.544	205
878.611	450
878.651	573
878.694	1082
878.758	1972
878.776	2057
878.858	1368
878.865	1313
878.941	819
878.972	647
879.023	567
879.078	893
879.105	1065
879.185	1091
879.187	1091
879.269	1642
879.292	1547
879.351	1303
879.399	1259
879.433	1140
879.506	1151
879.516	1190
879.598	876
879.613	793
879.680	277
879.720	776
879.762	1491
879.827	1174
879.844	1054
879.926	1091
879.933	1122
880.007	1192
880.040	1067
880.089	1064
880.147	1507
880.171	1759
880.253	2676
880.254	2677
880.335	3005
880.360	3333
880.417	4517
880.467	6298
880.499	7566
880.574	8149
880.580	7994
880.662	4132
880.680	3432
880.744	1690
880.787	1284
880.825	1184
880.893	720
880.907	644
880.989	538
881.000	579
881.070	1238
881.106	1438
881.152	1303
881.213	886
881.233	844
881.315	1200
881.319	1200
881.396	1163
881.426	1229
881.478	1733
881.532	2421
881.559	2496
881.639	1708
881.641	1687
881.722	699
881.745	570
881.803	1086
881.852	1474
881.885	1433
881.958	1424
881.966	1425
882.047	1160
882.064	1120
882.129	1230
882.171	967
882.210	558
882.277	822
882.291	992
882.372	1729
882.383	1795
882.454	2101
882.489	2033
882.535	2035
882.596	2259
882.616	2200
882.697	1862
882.702	1830
882.778	1486
882.808	1466
882.859	1279
882.914	795
882.940	715
883.020	931
883.021	937
883.102	887
883.127	1006
883.183	1825
883.233	2157
883.264	1784
883.339	1010
883.345	986
883.426	640
883.445	583
883.507	836
883.551	1126
883.587	1510
883.657	2118
883.668	2179
883.749	2435
883.763	2418
883.830	1059
883.869	479
883.910	877
883.975	1125
883.991	1010
884.072	1089
884.081	1058
884.152	1855
884.187	2229
884.233	2280
884.292	2372
884.314	2073
884.394	430
884.398	370
884.475	854
884.504	818
884.555	360
884.610	453
884.636	728
884.716	1283
884.716	1292
884.797	2071
884.821	2127
884.877	2038
884.927	2141
884.958	1822
885.033	844
885.038	834
885.118	713
885.139	633
885.199	406
885.244	495
885.279	954
885.350	1693
885.359	1810
885.439	2940
885.456	3060
885.520	2103
885.561	1491
885.600	1069
885.667	687
885.680	844
885.760	1745
885.773	1872
885.840	1097
885.878	507
885.920	1002
885.984	2026
886.000	1962
886.080	1467
886.089	1403
886.160	1399
886.195	1389
886.240	1462
886.300	1478
886.320	1633
886.400	2534
886.406	2559
886.480	1221
886.511	782
886.560	1191
886.616	1519
886.640	1591
886.720	1803
886.722	1803
886.800	1556
886.827	1433
886.879	1529
886.932	1639
886.959	1905
887.038	2649
887.039	2644
887.119	1295
887.143	998
887.198	1465
887.248	1818
887.278	1750
887.354	1462
887.358	1456
887.437	1279
887.459	1212
887.517	1744
887.564	2114
887.596	1823
887.669	1196
887.676	1173
887.755	899
887.774	803
887.835	933
887.880	1103
887.914	1222
887.985	1300
887.994	1394
888.073	2288
888.090	2461
888.153	3409
888.195	3951
888.232	3235
888.300	1924
888.311	1867
888.391	1502
888.405	1417
888.470	1206
888.510	1088
888.549	1198
888.615	1333
888.628	1540
888.708	2731
888.720	2912
888.787	2718
888.825	2554
888.866	2065
888.930	1370
888.945	1418
889.024	1578
889.035	1602
889.103	2210
889.140	2487
889.182	2039
889.245	1415
889.261	1493
889.340	1822
889.349	1857
889.419	1777
889.454	1713
889.498	1688
889.559	1668
889.577	1841
889.656	2572
889.664	2638
889.735	2384
889.768	2252
889.814	1728
889.873	1023
889.978	1584
890.083	2056
890.187	2121
890.292	2692
890.397	1898
890.501	1489
890.606	1113
890.710	2227
890.815	2923
890.919	1876
891.024	2152
891.128	1175
891.233	1139
891.337	2733
891.442	3124
891.546	1494
891.650	979
891.755	1878
891.859	2226
891.963	2022
892.068	2454
892.172	1509
892.276	348
892.380	962
892.484	1543
892.589	2565
892.693	1187
892.797	1205
892.901	918
893.005	1396
893.109	2361
893.213	2842
893.317	1296
893.421	747
893.525	544
893.629	1168
893.733	1514
893.837	1752
893.941	1109
894.045	1537
894.148	931
894.252	1320
894.356	1933
894.460	3664
894.564	665
894.667	1715
894.771	593
894.875	-76
894.978	1492
895.082	1331
895.186	1846
895.289	1812
895.393	973
895.496	2221
895.600	1251
895.703	509
895.807	1759
895.910	1965
896.014	1348
896.117	1209
896.221	1556
896.324	2230
896.427	990
896.531	854
896.634	1815
896.737	1112
896.840	460
896.944	1765
897.047	1996
897.150	1476
897.253	734
897.356	993
897.460	381
897.563	805
897.666	1663
897.769	1558
897.872	690
897.975	265
898.078	1795
898.181	1437
898.284	726
898.387	1429
898.490	1906
898.593	129
898.695	142
898.798	455
898.901	2080
899.004	1419
899.107	249
899.209	469
899.312	1553
899.415	173
899.518	-10
899.620	150
899.723	1130
899.826	652
899.928	117
900.031	1176
900.133	1456
900.236	135
900.338	1126
900.441	-96
900.543	580
900.646	679
900.748	656
900.851	1316
900.953	1080
901.055	118
901.158	912
901.260	136
901.362	937
901.465	-166
901.567	1333
901.669	1513
901.771	1220
901.873	1270
901.976	1332
902.078	1613
902.180	828
902.282	781
902.384	1001
902.486	1651
902.588	1139
902.690	1235
902.792	108
902.894	928
902.996	2055
903.098	1063
903.200	46
903.302	1109
903.404	711
903.505	469
903.607	628
903.709	1733
903.811	1266
903.913	225
904.014	397
904.116	1394
904.218	334
904.319	980
904.421	2235
904.523	1838
904.624	1033
904.726	1140
904.827	351
904.929	337
905.030	404
905.132	1238
905.233	1515
905.335	630
905.436	-21
905.537	299
905.639	643
905.740	1138
905.841	890
905.943	1297
906.044	1378
906.145	414
906.247	511
906.348	139
906.449	926
906.550	1672
906.651	450
906.752	1103
906.854	810
906.955	176
907.056	1348
907.157	1917
907.258	1061
907.359	-156
907.460	863
907.561	251
907.662	234
907.762	321
907.863	464
907.964	1478
908.065	228
908.166	303
908.267	537
908.367	601
908.468	255
908.569	504
908.670	1405
908.770	1542
908.871	714
908.971	1260
909.072	1461
909.173	487
909.273	418
909.374	972
909.474	722
909.575	1413
909.675	899
909.776	807
909.876	1557
909.977	489
910.077	1682
910.177	2003
910.278	710
910.378	848
910.478	546
910.579	588
910.679	755
910.779	740
910.879	1159
910.980	1268
911.080	1551
911.180	1178
911.280	338
911.380	310
911.480	209
911.580	1120
911.680	724
911.780	530
911.880	1822
911.980	786
912.080	969
912.180	1041
912.280	1572
912.380	1151
912.480	404
912.580	527
912.679	640
912.779	1303
912.879	1102
912.979	209
913.078	1044
913.178	934
913.278	616
913.377	850
913.477	301
913.577	1036
913.676	1460
913.776	915
913.875	887
913.975	886
914.074	849
914.174	1123
914.273	544
914.373	722
914.472	1141
914.572	661
914.671	1028
914.770	866
914.870	362
914.969	756
915.068	772
915.167	1802
915.267	564
915.366	525
915.465	364
915.564	863
915.663	1772
915.763	569
915.862	1471
915.961	1597
916.060	122
916.159	787
916.258	-179
916.357	909
916.456	1507
916.555	1526
916.654	1491
916.752	1652
916.851	521
916.950	914
917.049	1048
917.148	647
917.247	687
917.345	1233
917.444	711
917.543	212
917.642	795
917.740	1136
917.839	1630
917.937	2350
918.036	1859
918.135	1354
918.233	1038
918.332	1191
918.430	525
918.529	1120
918.627	777
918.726	2542
918.824	2265
918.923	1004
919.021	1056
919.119	1722
919.218	1061
919.316	909
919.414	740
919.512	1870
919.611	1759
919.709	1094
919.807	2217
919.905	2452
920.003	2343
920.102	840
920.200	2002
920.298	2369
920.396	1665
920.494	1523
920.592	1234
920.690	2127
920.788	1691
920.886	1856
920.984	1646
921.082	2100
921.180	2491
921.277	2272
921.375	3454
921.473	3866
921.571	3779
921.669	3822
921.766	3033
921.864	4491
921.962	3170
922.060	3130
922.157	3986
922.255	3950
922.352	3423
922.450	4243
922.548	4336
922.645	4878
922.743	6516
922.840	10849
922.938	12449
923.035	9729
923.133	10650
923.230	10960
923.327	14448
923.425	12933
923.522	13125
923.619	11060
923.717	10550
923.814	10397
923.911	10424
924.008	10923
924.106	10115
924.203	10198
924.300	9478
924.397	10201
924.494	10092
924.591	10144
924.688	9427
924.786	10292
924.883	10076
924.979	10814
925.077	8762
925.173	9328
925.270	10386
925.367	9440
925.464	10918
925.561	10482
925.658	10250
925.755	8639
925.852	10628
925.948	9497
926.045	9691
926.142	9630
926.239	9487
926.335	7795
926.432	9948
926.529	9853
926.625	10783
926.722	8225
926.818	8627
926.915	10709
927.011	9645
927.108	9116
927.204	9463
927.301	8529
927.397	9891
927.494	10987
927.590	6601
927.687	8123
927.783	10519
927.879	9732
927.976	8873
928.072	7198
928.168	9321
928.264	8505
928.361	7879
928.457	9817
928.553	7359
928.649	8097
928.745	8865
928.841	6964
928.937	8215
929.033	8329
929.129	8953
929.225	9288
929.321	7483
929.417	7511
929.513	8800
929.609	8089
929.705	6915
929.801	9435
929.897	5919
929.993	7830
930.089	7757
930.184	6634
930.280	7806
930.376	9753
930.471	7132
930.567	6685
930.663	7859
930.758	6609
930.854	6935
930.950	7080
931.045	6515
931.141	5981
931.236	8928
931.332	7636
931.427	5321
931.523	8713
931.618	8369
931.714	5305
931.809	7027
931.905	8624
932.000	4905
932.095	3914
932.191	6601
932.286	10194
932.381	7365
932.476	5669
932.572	6483
932.667	5320
932.762	4903
932.857	6930
932.952	7403
933.047	6608
933.142	4319
933.237	7301
933.332	7103
933.427	7240
933.522	5913
933.617	4674
933.712	5788
933.807	7537
933.902	7623
933.997	8156
934.092	4707
934.187	5606
934.282	6322
934.376	6910
934.471	7918
934.566	5725
934.661	5514
934.755	6652
934.850	8019
934.945	6126
935.039	4286
935.134	4956
935.228	6262
935.323	8573
935.417	5246
935.512	3696
935.606	4573
935.701	5704
935.795	6759
935.890	6185
935.984	5018
936.079	3977
936.173	5765
936.267	4538
936.362	3923
936.456	5826
936.550	7435
936.644	5960
936.738	4217
936.833	4197
936.927	3379
937.021	4837
937.115	4969
937.209	4986
937.303	6039
937.397	3916
937.491	4623
937.585	6201
937.679	4499
937.773	3705
937.867	3620
937.961	4587
938.055	6591
938.149	6371
938.243	3391
938.337	3381
938.430	4299
938.524	6102
938.618	4448
938.712	3220
938.805	4218
938.899	5147
938.993	6862
939.086	3279
939.180	2781
939.274	3954
939.367	4633
939.461	5680
939.554	4186
939.648	2953
939.741	3706
939.835	4817
939.928	5424
940.022	5347
940.115	3903
940.208	5612
940.302	5771
940.395	6155
940.488	3117
940.582	3578
940.675	3212
940.768	3546
940.861	4741
940.954	5552
941.048	2755
941.141	2652
941.234	2857
941.327	3587
941.420	4175
941.513	4632
941.606	2891
941.699	4115
941.792	4485
941.885	4744
941.978	4134
942.071	4270
942.164	2507
942.257	3115
942.349	3247
942.442	4385
942.535	2608
942.628	3298
942.721	3106
942.813	3342
942.906	4388
942.999	3111
943.091	3420
943.184	2732
943.277	2124
943.369	2567
943.462	1980
943.554	3140
943.647	3319
943.739	4101
943.832	5078
943.924	1670
944.017	2684
944.109	2060
944.201	2702
944.294	3732
944.386	3898
944.478	3087
944.571	3046
944.663	2536
944.755	2914
944.847	4149
944.940	3213
945.032	1750
945.124	2409
945.216	3655
945.308	2640
945.400	2932
945.492	3163
945.584	4399
945.676	4495
945.768	3664
945.860	3199
945.952	4428
946.044	3172
946.136	2699
946.228	2001
946.320	2413
946.412	3067
946.503	4752
946.595	4075
946.687	1769
946.779	982
946.870	1862
946.962	1852
947.054	2599
947.145	2913
947.237	1959
947.329	2849
947.420	3330
947.512	2773
947.603	1710
947.695	1424
947.786	1694
947.878	1685
947.969	3304
948.061	3643
948.152	2417
948.243	1174
948.335	1694
948.426	1423
948.517	2626
948.609	3407
948.700	2941
948.791	2031
948.882	1608
948.973	1740
949.065	2252
949.156	2102
949.247	868
949.338	2665
949.429	1440
949.520	1753
949.611	2312
949.702	3151
949.793	2440
949.884	2208
949.975	1449
950.066	208
950.157	1097
950.247	1555
950.338	1434
950.429	1665
950.520	2179
950.611	1504
950.701	2489
950.792	3388
950.883	2528
950.973	1708
951.064	2872
951.155	2293
951.245	2985
951.336	2948
951.427	1679
951.517	3364
951.608	2252
951.698	1496
951.788	1246
951.879	403
951.969	1225
952.060	1675
952.150	1676
952.240	3385
952.331	1227
952.421	2859
952.511	1171
952.602	493
952.692	859
952.782	1096
952.872	1243
952.962	2836
953.052	1065
953.143	720
953.233	2114
953.323	1981
953.413	2215
953.503	2476
953.593	1411
953.683	1616
953.773	119
953.863	1180
953.953	290
954.042	1520
954.132	766
954.222	2273
954.312	645
954.402	1660
954.492	967
954.581	1223
954.671	1073
954.761	1220
954.850	1627
954.940	594
955.030	556
955.119	268
955.209	1855
955.298	317
955.388	1450
955.477	3079
955.567	253
955.656	1430
955.746	1282
955.835	1310
955.925	193
956.014	1000
956.103	2345
956.193	2836
956.282	2082
956.371	1407
956.461	1159
956.550	1703
956.639	558
956.728	734
956.817	1113
956.906	910
956.995	2293
957.085	730
957.174	1386
957.263	1038
957.352	961
957.441	1085
957.530	1387
957.619	1025
957.708	760
957.796	1366
957.885	478
957.974	277
958.063	1972
958.152	-28
958.241	715
958.329	497
958.418	644
958.507	974
958.596	1478
958.684	434
958.773	1923
958.861	385
958.950	506
959.039	-236
959.127	569
959.216	1306
959.304	686
959.393	970
959.481	934
959.570	927
959.658	876
959.746	368
959.835	860
959.923	580
960.011	967
960.100	933
960.188	1417
960.276	204
960.365	517
960.453	288
960.541	6
960.629	1129
960.717	280
960.805	-30
960.893	1181
960.981	234
961.069	2645
961.158	1799
961.245	2297
961.333	1496
961.421	687
961.509	1546
961.597	1389
961.685	1257
961.773	1584
961.861	939
961.949	1670
962.036	568
962.124	1018
962.212	594
962.299	481
962.387	328
962.475	247
962.562	135
962.650	1309
962.738	413
962.825	-67
962.913	213
963.000	762
963.088	993
963.175	766
963.263	-96
963.350	787
963.438	832
963.525	208
963.612	1369
963.700	473
963.787	1831
963.874	840
963.962	643
964.049	-58
964.136	343
964.223	630
964.310	1043
964.398	598
964.485	907
964.572	1410
964.659	683
964.746	223
964.833	-15
964.920	750
965.007	829
965.094	812
965.181	673
965.268	1403
965.355	1399
965.441	137
965.528	209
965.615	1360
965.702	1020
965.789	-58
965.875	699
965.962	690
966.049	596
966.136	1008
966.222	600
966.309	1686
966.395	1250
966.482	1700
966.569	1072
966.655	1329
966.742	48
966.828	446
966.915	-3
967.001	696
967.087	-34
967.174	103
967.260	852
967.347	-171
967.433	555
967.519	970
967.605	-32
967.692	122
967.778	-90
967.864	95
967.950	329
968.036	10
968.123	1383
968.209	349
968.295	-959
968.381	1379
968.467	97
968.553	-668
968.639	1363
968.725	215
968.811	1029
968.897	961
968.983	213
969.069	-15
969.154	315
969.240	1382
969.326	31
969.412	617
969.497	-332
969.583	-156
969.669	1433
969.755	1488
969.840	-274
969.926	2317
970.012	2573
970.097	2727
970.183	1392
970.268	1357
970.354	1283
970.439	118
970.525	1575
970.610	-213
970.696	1088
970.781	763
970.866	-953
970.952	597
971.037	473
971.122	1216
971.208	187
971.293	1207
971.378	3
971.463	942
971.549	771
971.634	1137
971.719	563
971.804	17
971.889	1114
971.974	346
972.059	530
972.144	681
972.229	1295
972.314	449
972.399	183
972.484	597
972.569	827
972.654	-297
972.739	1085
972.824	644
972.908	-33
972.993	-246
973.078	843
973.163	791
973.247	198
973.332	-272
973.417	2051
973.501	697
973.586	1784
973.671	1121
973.755	396
973.840	990
973.924	1404
974.009	1656
974.093	1604
974.178	2144
974.262	1021
974.346	889
974.431	505
974.515	195
974.600	1323
974.684	772
974.768	757
974.852	2194
974.937	-750
975.021	903
975.105	863
975.189	824
975.273	941
975.358	166
975.442	291
975.526	1481
975.610	-390
975.694	59
975.778	2212
975.862	1197
975.946	-779
976.030	2099
976.114	278
976.198	1220
976.281	678
976.365	1563
976.449	671
976.533	1014
976.617	479
976.700	1208
976.784	527
976.868	765
976.951	490
977.035	1151
977.119	987
977.202	1158
977.286	1478
977.369	1567
977.453	3219
977.536	2385
977.620	1604
977.703	1828
977.787	103
977.870	1754
977.953	1528
978.037	280
978.120	1920
978.203	490
978.287	1184
978.370	1293
978.453	1135
978.536	696
978.620	1446
978.703	2249
978.786	377
978.869	697
978.952	193
979.035	1989
979.118	1430
979.201	575
979.284	1440
979.367	870
979.450	1228
979.533	536
979.616	1719
979.699	791
979.782	1187
979.865	1198
979.948	329
980.030	333
980.113	71
980.196	272
980.279	1696
980.361	1059
980.444	692
980.526	2083
980.609	2848
980.692	3954
980.774	2607
980.857	1543
980.939	1950
981.022	1909
981.104	1568
981.187	907
981.269	1576
981.352	1735
981.434	122
981.516	698
981.599	2310
981.681	1000
981.763	1743
981.846	1707
981.928	1476
982.010	1482
982.092	576
982.174	1705
982.256	1879
982.339	898
982.421	372
982.503	1107
982.585	-603
982.667	1302
982.749	1499
982.831	1171
982.913	544
982.995	2880
983.077	1170
983.158	2756
983.240	860
983.322	2431
983.404	3638
983.486	2621
983.568	3088
983.649	1910
983.731	2929
983.813	2170
983.894	1820
983.976	1892
984.058	1852
984.139	2465
984.221	936
984.302	2341
984.384	1854
984.465	911
984.547	1977
984.628	801
984.710	2317
984.791	2928
984.872	1224
984.954	1941
985.035	1697
985.116	2018
985.198	1789
985.279	2670
985.360	1338
985.441	1461
985.522	2103
985.604	2439
985.685	465
985.766	3206
985.847	3067
985.928	1922
986.009	2135
986.090	1040
986.171	2524
986.252	1482
986.333	2015
986.414	1676
986.495	2863
986.576	1588
986.656	2568
986.737	3239
986.818	2454
986.899	1731
986.980	1987
987.060	2420
987.141	2427
987.222	2565
987.302	3466
987.383	3864
987.464	2399
987.544	3700
987.625	2967
987.705	3612
987.786	3476
987.866	2800
987.947	2679
988.027	2468
988.108	2572
988.188	3591
988.268	2852
988.349	3408
988.429	1681
988.509	2533
988.589	2331
988.670	1656
988.750	3849
988.830	3355
988.910	2939
988.990	2499
989.070	2589
989.151	2782
989.231	2009
989.311	2573
989.391	1860
989.471	2986
989.551	2949
989.631	2776
989.711	3064
989.791	2217
989.870	2707
989.950	2615
990.030	2379
990.110	2207
990.190	1447
990.269	1850
990.349	1642
990.429	2616
990.509	2135
990.588	1433
990.668	2122
990.747	1839
990.827	2143
990.907	2252
990.986	2405
991.066	1879
991.145	847
991.225	2110
991.304	1683
991.383	2065
991.463	1765
991.542	2545
991.622	1628
991.701	1582
991.780	1387
991.859	1599
991.939	2331
992.018	1954
992.097	2270
992.176	2028
992.256	1040
992.335	942
992.414	2097
992.493	1367
992.572	1917
992.651	2583
992.730	1059
992.809	2197
992.888	1576
992.967	1690
993.046	1435
993.125	659
993.203	1258
993.282	1799
993.361	1658
993.440	792
993.519	877
993.597	1324
993.676	1020
993.755	1840
993.834	1470
993.912	698
993.991	1923
994.069	411
994.148	950
994.226	670
994.305	974
994.384	1061
994.462	2171
994.540	1039
994.619	358
994.697	890
994.776	1043
994.854	2306
994.932	857
995.011	1357
995.089	688
995.167	1051
995.245	1175
995.324	-309
995.402	1185
995.480	654
995.558	1813
995.636	579
995.714	664
995.792	2454
995.870	171
995.948	920
996.026	1774
996.104	48
996.182	750
996.260	-438
996.338	1066
996.416	716
996.494	681
996.572	1797
996.649	270
996.727	675
996.805	595
996.883	1029
996.960	1131
997.038	1798
997.116	973
997.193	-446
997.271	199
997.348	-561
997.426	119
997.504	88
997.581	1319
997.658	769
997.736	-349
997.813	-884
997.891	1145
997.968	145
998.046	323
998.123	331
998.200	1700
998.277	402
998.355	323
998.432	-831
998.509	-135
998.586	1288
998.663	437
998.741	388
998.818	957
998.895	-18
998.972	72
999.049	1547
999.126	1210
999.203	536
999.280	755
999.357	-723
999.434	-376
999.511	390
999.587	841
999.664	-491
999.741	756
999.818	889
999.895	-606
999.971	98
1000.048	-11
1000.125	320
1000.202	-124
1000.278	134
1000.355	353
1000.431	384
1000.508	-310
1000.584	-78
1000.661	381
1000.738	7
1000.814	-385
1000.890	201
1000.967	381
1001.043	388
1001.120	-1243
1001.196	62
1001.272	-631
1001.349	26
1001.425	127
1001.501	-255
1001.577	-40
1001.654	1339
1001.730	-719
1001.806	433
1001.882	-1277
1001.958	930
1002.034	338
1002.110	95
1002.186	-663
1002.262	-746
1002.338	-114
1002.414	384
1002.490	460
1002.566	-3
1002.642	-707
1002.718	328
1002.794	-319
1002.870	-60
1002.945	-240
1003.021	-506
1003.097	-454
1003.173	395
1003.248	309
1003.324	317
1003.400	-23
1003.475	-132
1003.551	367
1003.626	402
1003.702	-292
1003.777	-367
1003.853	-186
1003.928	-813
1004.004	-64
1004.079	34
1004.155	-467
1004.230	-1016
1004.305	616
1004.381	-457
1004.456	-1055
1004.531	-164
1004.607	-703
1004.682	-174
1004.757	-223
1004.832	-1518
1004.907	-468
1004.982	-846
1005.057	-439
1005.133	-774
1005.208	-1259
1005.283	-1024
1005.358	245
1005.433	-721
1005.508	-321
1005.583	-360
1005.657	-408
1005.732	191
1005.807	-1293
1005.882	-201
1005.957	-743
1006.032	-91
1006.106	-766
1006.181	-195
1006.256	143
1006.331	-260
1006.405	24
1006.480	-1216
1006.554	-415
1006.629	-170
1006.704	-484
1006.778	-231
1006.853	254
1006.927	-70
1007.002	-2214
1007.076	-101
1007.150	-1060
1007.225	-164
1007.299	-988
1007.373	-429
1007.448	-658
1007.522	-462
1007.596	-627
1007.671	-785
1007.745	290
1007.819	-1535
1007.893	-1227
1007.967	-1353
1008.041	-1062
1008.115	438
1008.190	-1170
1008.264	-365
1008.338	-1883
1008.412	-723
1008.486	-679
1008.560	-905
1008.633	-1508
1008.707	-294
1008.781	-231
1008.855	-699
1008.929	-234
1009.003	-1484
1009.076	-973
1009.150	-1249
1009.224	-127
1009.298	-222
1009.371	-1907
1009.445	-571
1009.519	-977
1009.592	-1528
1009.666	-862
1009.739	-406
1009.813	-1904
1009.886	388
1009.960	-1504
1010.033	-142
1010.107	-641
1010.180	-1473
1010.253	-690
1010.327	-676
1010.400	-799
1010.473	-1516
1010.547	-179
1010.620	-176
1010.693	-707
1010.766	-888
1010.840	-404
1010.913	-1606
1010.986	-1487
1011.059	-1625
1011.132	-1316
1011.205	-1286
1011.278	-1080
1011.351	-824
1011.424	-873
1011.497	-1173
1011.570	-1129
1011.643	-1263
1011.716	-1112
1011.789	-914
1011.862	-179
1011.934	-604
1012.007	-2679
1012.080	-173
1012.153	-540
1012.225	-138
1012.298	-370
1012.371	-808
1012.443	-705
1012.516	-1946
1012.588	-1192
1012.661	-1594
1012.733	-2459
1012.806	-378
1012.879	-1094
1012.951	-475
1013.023	-750
1013.096	-688
1013.168	-1686
1013.241	57
1013.313	-1440
1013.385	-1470
1013.458	-757
1013.530	-1065
1013.602	-2018
1013.674	-793
1013.746	-1623
1013.819	-962
1013.891	-238
1013.963	-1331
1014.035	-1524
1014.107	-907
1014.179	-831
1014.251	-1342
1014.323	-726
1014.395	-565
1014.467	-993
1014.539	-1275
1014.611	-799
1014.683	-1347
1014.754	-1190
1014.826	-1592
1014.898	-2103
1014.970	-1425
1015.042	-921
1015.113	-894
1015.185	-1509
1015.257	-2065
1015.328	-839
1015.400	-933
1015.471	-1052
1015.543	-2187
1015.615	-961
1015.686	-1078
1015.757	-1807
1015.829	-1037
1015.901	-1328
1015.972	-485
1016.043	-1902
1016.115	-586
1016.186	-1891
1016.257	-1101
1016.328	-1572
1016.400	-956
1016.471	-1589
1016.542	-866
1016.613	-328
1016.685	-626
1016.756	-1171
1016.827	-935
1016.898	-2642
1016.969	-61
1017.040	-1106
1017.111	-2163
1017.182	-383
1017.253	-1297
1017.324	-1619
1017.395	-1145
1017.466	-1355
1017.537	-1463
1017.608	-1064
1017.678	-1043
1017.749	-1789
1017.820	-870
1017.891	-1611
1017.961	-1426
1018.032	-1403
1018.103	-757
1018.173	-617
1018.244	-2056
1018.315	-1462
1018.385	-1054
1018.456	-1713
1018.526	-2557
1018.597	-970
1018.667	-1600
1018.738	-1553
1018.808	-1716
1018.878	-705
1018.949	-1077
1019.019	-1727
1019.089	-1367
1019.160	-1992
1019.230	-2051
1019.300	-999
1019.371	-1723
1019.441	-247
1019.511	-990
1019.581	-976
1019.651	-677
1019.721	-680
1019.791	-2048
1019.861	-1636
1019.931	-1216
1020.001	-2308
1020.071	-650
1020.141	-1465
1020.211	-968
1020.281	-1661
1020.351	-1713
1020.421	-1146
1020.491	-1233
1020.560	-1940
1020.630	-1519
1020.700	-1468
1020.770	-543
1020.839	-1351
1020.909	-1116
1020.979	-1813
1021.048	-1508
1021.118	-1876
1021.187	-997
1021.257	-1941
1021.326	-1199
1021.396	-962
1021.465	-1039
1021.535	-1693
1021.604	-1915
1021.674	-1018
1021.743	-903
1021.812	-1138
1021.882	-1885
1021.951	-1309
1022.020	-2097
1022.089	-724
1022.159	-2084
1022.228	-992
1022.297	-1024
1022.366	-1281
1022.435	-1351
1022.504	-1371
1022.573	-2052
1022.642	-875
1022.711	-1367
1022.781	-1828
1022.849	-1200
1022.918	-1600
1022.987	-2127
1023.056	-1573
1023.125	-970
1023.194	-1696
1023.263	-1637
1023.331	-1580
1023.400	-1258
1023.469	-1955
1023.538	-1264
1023.606	-2352
1023.675	-1562
1023.744	-1700
1023.812	-1315
1023.881	-1658
1023.949	-1024
1024.018	-1650
1024.086	-968
1024.155	-1639
1024.223	-1497
1024.292	-1043
1024.360	-1296
1024.429	-2024
1024.497	-1626
1024.565	-1532
1024.634	-1201
1024.702	-1750
1024.770	-1311
1024.838	-1727
1024.907	-1647
1024.975	-2053
1025.043	-1991
1025.111	-1409
1025.179	-2160
1025.247	-1445
1025.315	-1926
1025.383	-1523
1025.451	-1899
1025.519	-1784
1025.587	-2027
1025.655	-2000
1025.723	-2608
1025.791	-1338
1025.859	-1358
1025.927	-1744
1025.995	-1210
1026.062	-673
1026.130	-1874
1026.198	-2089
1026.266	-1896
1026.333	-627
1026.401	-1092
1026.469	-1537
1026.536	-1769
1026.604	-1387
1026.671	-2144
1026.739	-1811
1026.806	-1614
1026.874	-1394
1026.941	-1429
1027.009	-1431
1027.076	-2231
1027.144	-2106
1027.211	-1383
1027.278	-2534
1027.345	-2023
1027.413	-2273
1027.480	-2049
1027.547	-1342
1027.614	-1583
1027.682	-1504
1027.749	-1626
1027.816	-1638
1027.883	-1462
1027.950	-1892
1028.017	-1807
1028.084	-1880
1028.151	-2312
1028.218	-1793
1028.285	-1406
1028.352	-2109
1028.419	-1149
1028.486	-1370
1028.553	-892
1028.619	-2328
1028.686	-2257
1028.753	-2032
1028.820	-1790
1028.886	-1993
1028.953	-1582
1029.020	-1908
1029.086	-1655
1029.153	-2200
1029.220	-2213
1029.286	-2208
1029.353	-2117
1029.419	-2629
1029.486	-1734
1029.552	-1843
1029.619	-1595
1029.685	-1671
1029.751	-2111
1029.818	-1286
1029.884	-1711
1029.951	-1191
1030.017	-1872
1030.083	-2178
1030.149	-1402
1030.216	-2053
1030.282	-2001
1030.348	-2129
1030.414	-1611
1030.480	-2077
1030.546	-1599
1030.612	-1827
1030.678	-2120
1030.744	-1966
1030.810	-1656
1030.876	-1833
1030.942	-1639
1031.008	-2023
1031.074	-1981
1031.140	-1264
1031.206	-1991
1031.272	-2278
1031.337	-2233
1031.403	-1243
1031.469	-1659
1031.534	-1502
1031.600	-1466
1031.666	-1970
1031.731	-2426
1031.797	-2072
1031.863	-2303
1031.928	-1867
1031.994	-2585
1032.059	-1895
1032.125	-1516
1032.190	-1952
1032.256	-2086
1032.321	-2518
1032.386	-1194
1032.452	-1752
1032.517	-2547
1032.582	-1220
1032.647	-1853
1032.713	-1962
1032.778	-2036
1032.843	-1775
1032.908	-1578
1032.974	-2126
1033.039	-2222
1033.104	-1600
1033.169	-2357
1033.234	-2145
1033.299	-1390
1033.364	-1134
1033.429	-2080
1033.494	-1217
1033.559	-1962
1033.624	-1366
1033.688	-1254
1033.753	-2399
1033.818	-2323
1033.883	-1721
1033.948	-1626
1034.013	-2141
1034.077	-1278
1034.142	-302
1034.207	-629
1034.271	-113
1034.336	-199
1034.400	-1217
1034.465	-1572
1034.530	-1015
1034.594	-1560
1034.658	-1622
1034.723	-1707
1034.787	-1960
1034.852	-2170
1034.916	-1910
1034.981	-2157
1035.045	-1797
1035.109	-1658
1035.173	-1002
1035.238	-2452
1035.302	-2124
1035.366	-2432
1035.430	-1861
1035.495	-1846
1035.559	-1915
1035.623	-2363
1035.687	-1976
1035.751	-2332
1035.815	-2319
1035.879	-2310
1035.943	-2125
1036.007	-1636
1036.071	-1935
1036.135	-2057
1036.198	-1161
1036.262	-2219
1036.326	-2068
1036.390	-1582
1036.454	-1892
1036.517	-1181
1036.581	-1974
1036.645	-2060
1036.709	-1271
1036.772	-1939
1036.836	-1894
1036.900	-2335
1036.963	-1398
1037.026	-1203
1037.090	-1937
1037.154	-1830
1037.217	-1601
1037.280	-2069
1037.344	-2096
1037.407	-2100
1037.471	-2234
1037.534	-1383
1037.597	-1714
1037.661	-2585
1037.724	-1688
1037.787	-2278
1037.850	-1896
1037.913	-1394
1037.977	-1669
1038.040	-1455
1038.103	-1691
1038.166	-2042
1038.229	-2205
1038.292	-2083
1038.355	-1828
1038.418	-1036
1038.481	-1537
1038.544	-2095
1038.607	-2087
1038.670	-1955
1038.732	-1907
1038.795	-2118
1038.858	-2214
1038.921	-1734
1038.984	-1959
1039.046	-1488
1039.109	-2002
1039.172	-1819
1039.234	-2420
1039.297	-2281
1039.360	-1288
1039.422	-1742
1039.485	-1842
1039.547	-1928
1039.610	-1831
1039.672	-1237
1039.734	-1461
1039.797	-2382
1039.859	-1783
1039.922	-1578
1039.984	-2268
1040.046	-2461
1040.109	-1693
1040.171	-1992
1040.233	-1466
1040.295	-1016
1040.358	-1966
1040.420	-2273
1040.482	-2169
1040.544	-1909
1040.606	-2189
1040.668	-1804
1040.730	-2242
1040.792	-2069
1040.854	-1406
1040.916	-2813
1040.978	-1650
1041.040	-1114
1041.102	-2760
1041.164	-1306
1041.225	-1873
1041.287	-1576
1041.349	-2019
1041.411	-1959
1041.472	-2590
1041.534	-1919
1041.596	-2044
1041.657	-1240
1041.719	-1687
1041.781	-1560
1041.842	-2174
1041.904	-2110
1041.965	-1703
1042.027	-1430
1042.088	-2006
1042.150	-2553
1042.211	-1565
1042.272	-760
1042.334	-2224
1042.395	-1477
1042.456	-1728
1042.518	-2009
1042.579	-1282
1042.640	-1193
1042.701	-2186
1042.763	-1665
1042.824	-1479
1042.885	-2181
1042.946	-2094
1043.007	-2035
1043.068	-2065
1043.129	-1155
1043.190	-2407
1043.251	-918
1043.312	-2130
1043.373	-1495
1043.434	-1877
1043.495	-1293
1043.556	-1064
1043.616	-1225
1043.677	-1838
1043.738	-2147
1043.799	-2385
1043.859	-1622
1043.920	-1658
1043.981	-1566
1044.041	-1748
1044.102	-1704
1044.162	-1911
1044.223	-2094
1044.284	-1934
1044.344	-2073
1044.405	-1435
1044.465	-1596
1044.525	-1793
1044.586	-992
1044.646	-1790
1044.707	-1561
1044.767	-1160
1044.827	-1306
1044.887	-1914
1044.948	-2293
1045.008	-1136
1045.068	-872
1045.128	-1703
1045.188	-2079
1045.249	-1704
1045.309	-644
1045.369	-1243
1045.429	-1313
1045.489	-1694
1045.549	-1421
1045.609	-2023
1045.669	-1405
1045.729	-1966
1045.789	-1131
1045.848	-1611
1045.908	-1458
1045.968	-919
1046.028	-531
1046.088	-1241
1046.147	-1229
1046.207	-722
1046.267	-1162
1046.326	-931
1046.386	-1661
1046.446	-1045
1046.505	-456
1046.565	-175
1046.624	-1082
1046.684	-369
1046.743	-426
1046.803	31
1046.862	-125
1046.922	0
