'Start Wavelength	183.907
'End Wavelength	1046.922
'Gate Delay	5.000
'Gate Width (ms)	1.050
'Laser Output Level	0.000
'X Position	0.000
'Y Position	0.000
'Z Position	0.000
'Grid Point Number	1.000
'Shot Number	100.000
183.907	153.000
183.977	-37.000
184.047	-1
184.116	780
184.186	237
184.256	585
184.325	339
184.395	-1008
184.465	360
184.534	246
184.604	41
184.674	678
184.743	-665
184.813	802
184.883	-386
184.952	953
185.022	-10
185.092	468
185.161	-161
185.231	356
185.301	156
185.370	470
185.440	-130
185.509	832
185.579	161
185.649	935
185.718	298
185.788	740
185.857	-315
185.927	-135
185.996	-385
186.066	-63
186.136	-185
186.205	-114
186.275	-151
186.344	1003
186.414	344
186.483	-112
186.553	1284
186.622	440
186.692	150
186.761	-334
186.831	290
186.900	677
186.970	690
187.039	622
187.109	283
187.178	345
187.248	140
187.317	227
187.387	320
187.456	1143
187.526	179
187.595	254
187.664	382
187.734	1483
187.803	-316
187.873	1050
187.942	-168
188.012	1131
188.081	81
188.150	652
188.220	236
188.289	816
188.358	-64
188.428	795
188.497	558
188.567	854
188.636	-914
188.705	411
188.775	62
188.844	-66
188.913	1067
188.983	273
189.052	-230
189.121	428
189.191	215
189.260	1128
189.329	706
189.399	560
189.468	17
189.537	105
189.606	-177
189.676	220
189.745	-219
189.814	233
189.883	662
189.953	809
190.022	1094
190.091	782
190.161	253
190.230	69
190.299	246
190.368	930
190.437	-114
190.507	573
190.576	-344
190.645	259
190.714	-118
190.783	216
190.853	-86
190.922	573
190.991	-137
191.060	725
191.129	-463
191.198	585
191.268	496
191.337	430
191.406	528
191.475	480
191.544	-397
191.613	694
191.682	2
191.752	333
191.821	484
191.890	579
191.959	169
192.028	543
192.097	-14
192.166	599
192.235	-497
192.304	800
192.373	505
192.442	453
192.511	-149
192.580	429
192.650	34
192.719	58
192.788	15
192.857	1355
192.926	253
192.995	586
193.064	-105
193.133	366
193.202	736
193.271	798
193.340	1064
193.409	859
193.478	440
193.547	1463
193.615	1359
193.684	2110
193.753	558
193.822	1050
193.891	434
193.960	866
194.029	-67
194.098	904
194.167	-117
194.236	999
194.305	910
194.374	541
194.443	-139
194.512	693
194.580	802
194.649	899
194.718	310
194.787	637
194.856	-106
194.925	841
194.994	130
195.062	689
195.131	-242
195.200	978
195.269	-321
195.338	1023
195.407	-60
195.475	406
195.544	291
195.613	700
195.682	347
195.751	930
195.819	272
195.888	278
195.957	242
196.026	225
196.094	629
196.163	282
196.232	741
196.301	781
196.369	813
196.438	443
196.507	-247
196.576	-181
196.644	497
196.713	182
196.782	-390
196.850	823
196.919	-140
196.988	895
197.056	372
197.125	644
197.194	49
197.262	271
197.331	44
197.400	127
197.468	96
197.537	261
197.606	-209
197.674	778
197.743	708
197.812	676
197.880	737
197.949	976
198.017	632
198.086	538
198.155	398
198.223	739
198.292	841
198.360	702
198.429	-60
198.497	651
198.566	961
198.635	1180
198.703	710
198.772	973
198.840	-148
198.909	1414
198.977	417
199.046	563
199.114	-132
199.183	682
199.251	-107
199.320	153
199.388	-623
199.457	1042
199.525	1246
199.594	679
199.662	340
199.731	555
199.799	615
199.867	1468
199.936	-93
200.004	298
200.073	591
200.141	798
200.210	-443
200.278	612
200.346	308
200.415	800
200.483	592
200.552	1765
200.620	572
200.688	763
200.757	-100
200.825	919
200.893	233
200.962	549
201.030	11
201.098	876
201.167	612
201.235	1137
201.303	232
201.372	1718
201.440	214
201.508	1543
201.577	183
201.645	1201
201.713	-433
201.781	587
201.850	1026
201.918	597
201.986	-272
202.055	615
202.123	278
202.191	357
202.259	1063
202.327	167
202.396	54
202.464	265
202.532	160
202.600	1821
202.669	1023
202.737	1034
202.805	484
202.873	788
202.941	465
203.009	937
203.078	625
203.146	697
203.214	-216
203.282	178
203.350	-159
203.418	1274
203.487	879
203.555	315
203.623	-95
203.691	1097
203.759	100
203.827	841
203.895	451
203.963	586
204.031	-357
204.099	783
204.168	480
204.236	176
204.304	-425
204.372	1053
204.440	-387
204.508	497
204.576	119
204.644	898
204.712	209
204.780	801
204.848	716
204.916	268
204.984	505
205.052	1218
205.120	197
205.188	662
205.256	-155
205.324	1616
205.392	238
205.460	1058
205.528	-326
205.596	1198
205.664	654
205.732	311
205.799	814
205.867	2627
205.935	-33
206.003	884
206.071	502
206.139	207
206.207	730
206.275	912
206.343	218
206.411	1019
206.478	1018
206.546	1000
206.614	451
206.682	733
206.750	469
206.818	1263
206.885	898
206.953	33
207.021	1252
207.089	1610
207.157	252
207.225	1281
207.292	182
207.360	685
207.428	354
207.496	494
207.563	179
207.631	1368
207.699	-332
207.767	264
207.834	-59
207.902	703
207.970	630
208.038	1050
208.105	100
208.173	945
208.241	-63
208.309	1268
208.376	555
208.444	910
208.512	769
208.579	-384
208.647	603
208.715	2153
208.782	2
208.850	1439
208.918	-229
208.985	-162
209.053	754
209.120	996
209.188	-306
209.256	1051
209.323	-533
209.391	869
209.459	1930
209.526	955
209.594	133
209.661	975
209.729	89
209.796	1752
209.864	562
209.932	63
209.999	1583
210.067	933
210.134	1209
210.202	538
210.269	830
210.337	1470
210.404	162
210.472	1924
210.539	1257
210.607	1347
210.674	562
210.742	1127
210.809	-17
210.877	1143
210.944	1231
211.012	386
211.079	2096
211.146	1817
211.214	618
211.281	2157
211.349	679
211.416	1748
211.484	667
211.551	1403
211.618	458
211.686	1937
211.753	483
211.821	1363
211.888	886
211.955	1038
212.023	959
212.090	1275
212.157	936
212.225	1138
212.292	1774
212.359	2815
212.427	5128
212.494	2355
212.561	1297
212.629	2236
212.696	148
212.763	1917
212.831	502
212.898	1682
212.965	-42
213.032	1250
213.100	1752
213.167	1146
213.234	1186
213.301	2069
213.369	1089
213.436	1521
213.503	444
213.570	1575
213.638	744
213.705	925
213.772	305
213.839	1197
213.906	892
213.973	2101
214.041	-202
214.108	1096
214.175	1177
214.242	1602
214.309	876
214.376	1018
214.444	483
214.511	1538
214.578	1054
214.645	1420
214.712	1210
214.779	1199
214.846	123
214.913	2143
214.980	1813
215.048	2348
215.115	2597
215.182	1631
215.249	1412
215.316	1083
215.383	1045
215.450	1268
215.517	1415
215.584	1292
215.651	1336
215.718	904
215.785	858
215.852	857
215.919	1741
215.986	1588
216.053	150
216.120	929
216.187	674
216.254	1345
216.321	667
216.388	1461
216.455	728
216.522	2121
216.589	894
216.656	2418
216.722	1714
216.789	1548
216.856	1854
216.923	1674
216.990	818
217.057	1717
217.124	2158
217.191	1991
217.258	2226
217.324	2683
217.391	3209
217.458	3206
217.525	1965
217.592	1680
217.659	366
217.725	2789
217.792	972
217.859	1761
217.926	187
217.993	1504
218.059	1497
218.126	1846
218.193	403
218.260	452
218.327	416
218.393	388
218.460	1376
218.527	953
218.594	-100
218.660	1659
218.727	1561
218.794	883
218.860	734
218.927	726
218.994	448
219.061	529
219.127	652
219.194	1560
219.261	554
219.327	387
219.394	594
219.461	160
219.527	448
219.594	1997
219.661	481
219.727	-187
219.794	786
219.860	705
219.927	478
219.994	1795
220.060	2880
220.127	3607
220.193	2074
220.260	1385
220.326	2483
220.393	4447
220.460	4103
220.526	4075
220.593	1192
220.659	3294
220.726	1803
220.792	4233
220.859	3926
220.925	5720
220.992	7521
221.058	7025
221.125	4353
221.191	3759
221.258	1725
221.324	3474
221.391	1199
221.457	1005
221.524	1135
221.590	2895
221.657	3579
221.723	1801
221.789	1586
221.856	2949
221.922	-44
221.989	1376
222.055	357
222.121	767
222.188	2200
222.254	1539
222.321	984
222.387	601
222.453	990
222.520	1141
222.586	681
222.652	1858
222.719	-204
222.785	1439
222.851	236
222.918	1082
222.984	1227
223.050	350
223.116	-1044
223.183	1666
223.249	339
223.315	130
223.382	-83
223.448	1076
223.514	78
223.580	767
223.647	116
223.713	536
223.779	-31
223.845	97
223.911	1723
223.978	121
224.044	24
224.110	664
224.176	293
224.242	974
224.309	-524
224.375	482
224.441	414
224.507	-36
224.573	-1082
224.639	973
224.705	-385
224.772	592
224.838	383
224.904	1059
224.970	128
225.036	738
225.102	-546
225.168	1036
225.234	214
225.300	719
225.366	573
225.432	1292
225.499	-205
225.565	1271
225.631	800
225.697	434
225.763	1502
225.829	1761
225.895	1524
225.961	2056
226.027	1124
226.093	1919
226.159	1709
226.225	4332
226.291	7714
226.357	11766
226.423	6504
226.489	4007
226.554	2357
226.620	2880
226.686	2084
226.752	3945
226.818	7213
226.884	12916
226.950	12128
227.016	6116
227.082	3166
227.148	2211
227.214	1625
227.279	1999
227.345	1542
227.411	2268
227.477	2969
227.543	4895
227.609	5049
227.674	3788
227.740	1735
227.806	2299
227.872	1118
227.938	1597
228.003	891
228.069	1576
228.135	703
228.201	1578
228.267	65
228.332	2052
228.398	-523
228.464	1377
228.530	230
228.595	1267
228.661	-403
228.727	557
228.792	2489
228.858	805
228.924	-1142
228.990	3345
229.055	91
229.121	1999
229.187	390
229.252	378
229.318	32
229.384	1282
229.449	410
229.515	-642
229.581	-918
229.646	1975
229.712	373
229.777	1317
229.843	1541
229.909	2042
229.974	1924
230.040	1746
230.105	784
230.171	1315
230.236	1458
230.302	2414
230.368	1057
230.433	1050
230.499	1088
230.564	2121
230.630	775
230.695	1149
230.761	621
230.826	128
230.892	1864
230.957	846
231.023	1304
231.088	1363
231.154	271
231.219	1643
231.284	224
231.350	1947
231.415	-293
231.481	1441
231.546	214
231.612	973
231.677	582
231.742	-406
231.808	1834
231.873	996
231.939	-1564
232.004	1846
232.069	1809
232.135	167
232.200	356
232.265	1147
232.331	545
232.396	639
232.461	-320
232.527	511
232.592	-813
232.657	675
232.723	31
232.788	338
232.853	1086
232.918	413
232.984	-11
233.049	740
233.114	-177
233.179	2084
233.245	917
233.310	1920
233.375	-14
233.440	1634
233.506	199
233.571	771
233.636	744
233.701	650
233.766	-50
233.832	653
233.897	-645
233.962	-556
234.027	990
234.092	719
234.157	830
234.222	1091
234.288	857
234.353	1960
234.418	1793
234.483	2850
234.548	2022
234.613	1101
234.678	819
234.743	299
234.808	1928
234.873	295
234.938	2167
235.004	1733
235.069	680
235.134	805
235.199	1073
235.264	753
235.329	-417
235.394	1284
235.459	2223
235.524	590
235.589	594
235.654	407
235.719	-292
235.784	1996
235.849	958
235.913	1487
235.978	928
236.043	2336
236.108	711
236.173	887
236.238	1559
236.303	992
236.368	290
236.433	1419
236.498	1389
236.563	2496
236.627	5142
236.692	16489
236.757	14818
236.822	5865
236.887	2380
236.952	4325
237.017	1184
237.081	4374
237.146	3556
237.211	9784
237.276	15687
237.341	22047
237.405	12242
237.470	6554
237.535	3498
237.600	2691
237.664	1973
237.729	1525
237.794	1373
237.859	7388
237.923	3957
237.988	1958
238.053	2351
238.118	1988
238.182	2744
238.247	4363
238.312	181
238.376	1365
238.441	-757
238.506	1884
238.570	-341
238.635	2118
238.700	119
238.764	521
238.829	1430
238.893	1607
238.958	1435
239.023	1445
239.087	713
239.152	2243
239.216	286
239.281	1573
239.346	1190
239.410	1153
239.475	629
239.539	3123
239.604	842
239.668	2314
239.733	1225
239.797	4691
239.862	9808
239.926	7649
239.991	2746
240.055	1671
240.120	1089
240.184	2810
240.249	158
240.313	868
240.378	762
240.442	2007
240.507	3200
240.571	1194
240.635	-225
240.700	1346
240.764	969
240.829	953
240.893	-124
240.957	897
241.022	1513
241.086	3147
241.151	522
241.215	167
241.279	1600
241.344	1100
241.408	2151
241.472	1097
241.537	2244
241.601	1272
241.665	-409
241.730	1015
241.794	1590
241.858	411
241.922	1374
241.987	1512
242.051	778
242.115	704
242.179	1203
242.244	1066
242.308	680
242.372	858
242.436	466
242.501	1519
242.565	117
242.629	290
242.693	1935
242.757	1190
242.822	-2
242.886	1255
242.950	1142
243.014	659
243.078	400
243.142	1003
243.206	242
243.271	1506
243.335	653
243.399	2850
243.463	4495
243.527	17252
243.591	5971
243.655	2020
243.719	1070
243.783	2867
243.847	1722
243.911	3535
243.975	1619
244.040	1348
244.104	2302
244.168	1545
244.232	720
244.296	3328
244.360	3020
244.424	1333
244.488	579
244.552	1921
244.615	-1157
244.679	1358
244.743	276
244.807	1358
244.871	537
244.935	1401
244.999	-1153
245.063	1511
245.127	1718
245.191	2400
245.255	1724
245.319	2313
245.383	-396
245.446	2696
245.510	271
245.574	796
245.638	1960
245.702	-22
245.766	2705
245.829	3067
245.893	7
245.957	1015
246.021	1716
246.085	871
246.149	825
246.212	4049
246.276	4505
246.340	2479
246.404	1945
246.467	2718
246.531	979
246.595	3625
246.659	2085
246.722	621
246.786	1462
246.850	2328
246.913	1802
246.977	204
247.041	1050
247.104	1425
247.168	1473
247.232	3077
247.295	6271
247.359	4050
247.423	1073
247.486	3162
247.550	2374
247.614	687
247.677	1314
247.741	1008
247.804	144
247.868	1575
247.932	1498
247.995	7012
248.059	1767
248.122	846
248.186	2317
248.249	3425
248.313	9579
248.376	11418
248.440	6316
248.503	1937
248.567	3037
248.630	2609
248.694	3754
248.757	6067
248.821	10186
248.884	8059
248.948	4656
249.011	8206
249.075	11374
249.138	11516
249.202	4099
249.265	2737
249.328	3154
249.392	2404
249.455	3086
249.519	2650
249.582	2355
249.645	3706
249.709	2917
249.772	2199
249.835	1791
249.899	1754
249.962	2115
250.025	1857
250.089	2855
250.152	6488
250.215	2631
250.279	1703
250.342	1679
250.405	2580
250.468	2577
250.532	3570
250.595	4033
250.658	13953
250.721	28814
250.785	10689
250.848	6643
250.911	2750
250.974	3859
251.038	3226
251.101	7123
251.164	4264
251.227	3853
251.290	3547
251.354	6194
251.417	21322
251.480	23679
251.543	15297
251.606	37970
251.669	33814
251.732	13105
251.795	10825
251.859	11388
251.922	24897
251.985	17747
252.048	6920
252.111	4158
252.174	4140
252.237	6016
252.300	13434
252.363	13746
252.426	33181
252.489	13295
252.552	6553
252.615	3947
252.678	4336
252.741	10186
252.804	13925
252.867	33694
252.930	21013
252.993	10182
253.056	6957
253.119	3388
253.182	2199
253.245	5678
253.308	4282
253.371	2402
253.434	2880
253.497	2973
253.559	6977
253.622	3808
253.685	3616
253.748	4556
253.811	2551
253.874	2979
253.937	2407
254.000	2284
254.062	3697
254.125	6621
254.188	7502
254.251	5004
254.314	2845
254.376	3357
254.439	4413
254.502	2801
254.565	4113
254.628	7379
254.690	4300
254.753	2143
254.816	750
254.878	1761
254.941	3987
255.004	4830
255.067	2249
255.129	1041
255.192	1823
255.255	719
255.317	1179
255.380	1371
255.443	558
255.505	1078
255.568	430
255.631	545
255.693	2050
255.756	505
255.819	2143
255.881	1016
255.944	1052
256.006	638
256.069	1921
256.132	478
256.194	1819
256.257	1815
256.319	2254
256.382	938
256.444	3290
256.507	2266
256.569	1815
256.632	1864
256.694	3114
256.757	9006
256.819	30513
256.882	12845
256.944	5457
257.007	3563
257.069	3370
257.132	2317
257.194	3010
257.257	2048
257.319	1567
257.381	2213
257.444	8169
257.506	29298
257.569	36577
257.631	13564
257.693	7336
257.756	3115
257.818	2171
257.880	2334
257.943	3163
258.005	1084
258.067	1800
258.130	1773
258.192	2079
258.254	2515
258.317	2285
258.379	1590
258.441	4157
258.503	3504
258.566	3353
258.628	4168
258.690	1496
258.753	2199
258.815	3593
258.877	437
258.939	2502
259.001	2209
259.064	1930
259.126	698
259.188	2711
259.250	1650
259.312	1466
259.375	2349
259.437	2686
259.499	464
259.561	2013
259.623	2049
259.685	1904
259.747	2095
259.809	2520
259.872	4753
259.934	8021
259.996	10503
260.058	4154
260.120	850
260.182	1753
260.244	961
260.306	1665
260.368	1304
260.430	1287
260.492	2896
260.554	5848
260.616	1296
260.678	4390
260.740	5730
260.802	1886
260.864	1872
260.926	832
260.988	999
261.050	1034
261.112	4554
261.174	10689
261.236	4715
261.298	2964
261.359	2269
261.421	3925
261.483	543
261.545	2938
261.607	-115
261.669	1213
261.731	875
261.793	4116
261.854	891
261.916	2408
261.978	2111
262.040	2128
262.102	982
262.164	1238
262.225	1564
262.287	1392
262.349	2193
262.411	2494
262.472	1434
262.534	966
262.596	3201
262.658	1842
262.719	224
262.781	1818
262.843	1669
262.904	2687
262.966	1656
263.028	2354
263.090	6607
263.151	24157
263.213	8330
263.275	5057
263.336	1919
263.398	1925
263.459	62
263.521	1435
263.583	2922
263.644	2766
263.706	1303
263.767	90
263.829	1340
263.891	1389
263.952	493
264.014	1532
264.075	2012
264.137	8509
264.198	3861
264.260	1515
264.321	854
264.383	3553
264.444	11134
264.506	3701
264.567	2254
264.629	4262
264.690	9012
264.752	4401
264.813	1385
264.875	1644
264.936	1821
264.998	1870
265.059	1616
265.120	2988
265.182	2498
265.243	15728
265.305	19677
265.366	5358
265.427	2143
265.489	2138
265.550	689
265.611	1331
265.673	917
265.734	1350
265.795	1345
265.857	1525
265.918	1249
265.979	4388
266.040	23747
266.102	25325
266.163	5807
266.224	4016
266.286	2676
266.347	1727
266.408	1564
266.469	1393
266.530	1148
266.592	1946
266.653	1769
266.714	3558
266.775	1403
266.836	1079
266.898	187
266.959	2258
267.020	1653
267.081	2673
267.142	1472
267.203	1950
267.264	699
267.326	2225
267.387	1556
267.448	1038
267.509	841
267.570	1469
267.631	901
267.692	1112
267.753	1648
267.814	221
267.875	2491
267.936	5306
267.997	3510
268.058	2224
268.119	629
268.180	1402
268.241	147
268.302	1227
268.363	946
268.424	426
268.485	1134
268.546	981
268.607	792
268.668	773
268.729	354
268.790	605
268.851	74
268.912	3077
268.972	3645
269.033	2173
269.094	67
269.155	976
269.216	773
269.277	652
269.338	403
269.398	1019
269.459	367
269.520	1794
269.581	1465
269.642	1868
269.702	424
269.763	1795
269.824	971
269.885	1223
269.945	2130
270.006	1805
270.067	7
270.128	1285
270.188	813
270.249	201
270.310	-108
270.370	709
270.431	364
270.492	1427
270.553	686
270.613	1983
270.674	4251
270.734	2924
270.795	831
270.856	1213
270.916	298
270.977	1663
271.038	1056
271.098	2332
271.159	1139
271.219	1927
271.280	1349
271.340	768
271.401	-328
271.462	2629
271.522	1290
271.583	1582
271.643	921
271.704	1082
271.764	1073
271.825	2819
271.885	9647
271.946	14807
272.006	5536
272.066	6480
272.127	11494
272.187	6610
272.248	2712
272.308	2512
272.369	7207
272.429	5680
272.489	2890
272.550	3753
272.610	3391
272.671	3011
272.731	1357
272.791	2986
272.852	2090
272.912	2712
272.972	1474
273.033	1764
273.093	1675
273.153	3182
273.214	2037
273.274	3298
273.334	6867
273.394	13113
273.455	5079
273.515	5556
273.575	11232
273.635	6714
273.696	5255
273.756	10896
273.816	5566
273.876	3760
273.936	3373
273.997	7189
274.057	3064
274.117	2141
274.177	3025
274.237	13245
274.297	12346
274.358	5274
274.418	7761
274.478	7286
274.538	1641
274.598	1367
274.658	2999
274.718	4402
274.778	1871
274.838	2217
274.898	1497
274.958	6455
275.018	8043
275.078	7542
275.138	2548
275.198	2045
275.258	635
275.318	1751
275.378	2402
275.438	4066
275.498	2188
275.558	3485
275.618	6943
275.678	7325
275.738	4058
275.798	4328
275.858	2417
275.918	1392
275.978	891
276.038	2309
276.098	574
276.157	2778
276.217	7265
276.277	4232
276.337	1892
276.397	1511
276.457	1803
276.517	1194
276.576	1215
276.636	1481
276.696	2041
276.756	4465
276.815	2893
276.875	2917
276.935	1655
276.995	2533
277.055	1323
277.114	2045
277.174	1618
277.234	6580
277.293	3081
277.353	2318
277.413	826
277.472	1657
277.532	864
277.592	3858
277.651	8950
277.711	20736
277.771	6975
277.830	20140
277.890	19438
277.950	10544
278.009	33291
278.069	15784
278.128	13140
278.188	21852
278.248	9746
278.307	21826
278.367	15378
278.426	5530
278.486	2643
278.545	2925
278.605	2036
278.664	2322
278.724	1976
278.783	4658
278.843	12506
278.902	4530
278.962	2189
279.021	2830
279.081	3313
279.140	4736
279.199	3294
279.259	4107
279.318	4725
279.378	6682
279.437	7494
279.496	22193
279.556	73030
279.615	70172
279.675	20100
279.734	10698
279.793	10627
279.853	15351
279.912	6638
279.971	5207
280.031	4035
280.090	6824
280.149	11338
280.208	11478
280.268	51001
280.327	61942
280.386	15873
280.445	9065
280.505	7144
280.564	4840
280.623	3363
280.682	4756
280.742	7697
280.801	2932
280.860	1698
280.919	2580
280.978	1803
281.037	2176
281.097	1295
281.156	3025
281.215	946
281.274	2434
281.333	6856
281.392	6120
281.451	2417
281.510	2245
281.569	1453
281.628	1906
281.688	1091
281.747	1656
281.806	710
281.865	1703
281.924	1268
281.983	1340
282.042	525
282.101	1393
282.160	1430
282.219	1629
282.278	803
282.337	3732
282.396	3171
282.454	2682
282.513	1696
282.572	5891
282.631	4197
282.690	2252
282.749	937
282.808	1833
282.867	1957
282.926	2255
282.985	2070
283.043	1795
283.102	1566
283.161	2320
283.220	2528
283.279	7832
283.338	3332
283.396	3207
283.455	1600
283.514	2902
283.573	2920
283.631	2960
283.690	2328
283.749	2555
283.808	3602
283.866	4976
283.925	2203
283.984	3208
284.043	2706
284.101	4084
284.160	3019
284.219	4072
284.277	4609
284.336	5576
284.395	10449
284.453	10828
284.512	6431
284.570	8100
284.629	7964
284.688	8849
284.746	10372
284.805	14076
284.863	15705
284.922	21434
284.981	25768
285.039	36433
285.098	54014
285.156	80696
285.215	69236
285.273	66846
285.332	85022
285.390	65651
285.449	44491
285.507	32468
285.566	23305
285.624	19581
285.683	14909
285.741	11879
285.799	9493
285.858	9125
285.916	7294
285.975	6830
286.033	5648
286.091	5292
286.150	3472
286.208	4662
286.267	4152
286.325	3266
286.383	4542
286.442	4078
286.500	3495
286.558	3434
286.616	2362
286.675	3793
286.733	2631
286.791	2684
286.850	3338
286.908	3104
286.966	4575
287.024	2958
287.083	1708
287.141	2196
287.199	1901
287.257	2991
287.315	2501
287.374	3114
287.432	4000
287.490	4082
287.548	1290
287.606	1884
287.664	1280
287.723	2760
287.781	3501
287.839	2872
287.897	1148
287.955	3114
288.013	4927
288.071	8710
288.129	30365
288.187	93161
288.245	48277
288.303	15230
288.361	7968
288.419	6255
288.477	3499
288.535	3323
288.593	2417
288.651	3099
288.709	1071
288.767	1839
288.825	1134
288.883	1974
288.941	1472
288.999	1728
289.057	915
289.115	1146
289.173	1132
289.231	1281
289.289	947
289.346	1090
289.404	1701
289.462	2018
289.520	2501
289.578	2055
289.636	545
289.694	1142
289.751	431
289.809	1171
289.867	88
289.925	1866
289.983	648
290.040	1970
290.098	325
290.156	1061
290.214	525
290.271	880
290.329	1073
290.387	1166
290.444	200
290.502	1154
290.560	689
290.617	1396
290.675	338
290.733	1301
290.790	525
290.848	1638
290.906	561
290.963	887
291.021	510
291.078	1480
291.136	960
291.194	3243
291.251	9645
291.309	3292
291.366	1033
291.424	1595
291.481	525
291.539	1567
291.596	1396
291.654	647
291.711	1010
291.769	1165
291.826	813
291.884	1502
291.941	-326
291.999	872
292.056	219
292.114	1360
292.171	708
292.228	1740
292.286	1108
292.343	2071
292.401	1955
292.458	1847
292.515	367
292.573	1738
292.630	900
292.687	1504
292.745	1415
292.802	1844
292.859	5747
292.917	8822
292.974	4089
293.031	1813
293.089	1454
293.146	606
293.203	717
293.260	1145
293.318	647
293.375	2860
293.432	1444
293.489	1965
293.546	972
293.604	1503
293.661	4345
293.718	13221
293.775	7496
293.832	4597
293.889	3501
293.947	2595
294.004	1217
294.061	1972
294.118	3127
294.175	10303
294.232	17287
294.289	8084
294.346	2304
294.403	2827
294.460	1744
294.517	1745
294.574	819
294.631	2445
294.688	1299
294.745	4150
294.802	13766
294.859	22329
294.916	8160
294.973	3745
295.030	2733
295.087	3180
295.144	1614
295.201	1979
295.258	1652
295.315	1559
295.372	4290
295.429	10556
295.486	4707
295.542	3283
295.599	7983
295.656	18802
295.713	9910
295.770	11707
295.827	3732
295.883	2393
295.940	726
295.997	3353
296.054	2673
296.111	2506
296.167	1572
296.224	1739
296.281	838
296.338	992
296.394	1329
296.451	1738
296.508	3674
296.564	9895
296.621	6583
296.678	9786
296.734	16732
296.791	7481
296.848	2741
296.904	3035
296.961	5725
297.018	10542
297.074	9396
297.131	4715
297.187	2549
297.244	3789
297.301	9034
297.357	20206
297.414	7371
297.470	4114
297.527	1982
297.583	1924
297.640	1536
297.696	2510
297.753	1574
297.809	1590
297.866	321
297.922	1332
297.979	1127
298.035	1780
298.092	1853
298.148	6413
298.204	6924
298.261	3229
298.317	4729
298.374	14532
298.430	8299
298.486	4199
298.543	1663
298.599	2625
298.656	2546
298.712	4794
298.768	11298
298.824	10113
298.881	2114
298.937	2892
298.993	1466
299.050	2306
299.106	1707
299.162	1876
299.218	1765
299.275	1437
299.331	2221
299.387	2918
299.443	11398
299.500	19762
299.556	12262
299.612	4744
299.668	3310
299.724	9926
299.780	13171
299.837	5756
299.893	4133
299.949	12751
300.005	19103
300.061	14671
300.117	24460
300.173	12736
300.229	5153
300.285	5412
300.341	5115
300.397	3510
300.453	973
300.510	2688
300.566	1959
300.622	4781
300.678	15351
300.734	26587
300.790	15018
300.845	14872
300.901	12276
300.957	19828
301.013	11203
301.069	5116
301.125	3407
301.181	3292
301.237	2207
301.293	1906
301.349	1965
301.405	1315
301.461	1030
301.516	2704
301.572	1259
301.628	3643
301.684	2099
301.740	4793
301.796	6665
301.851	5164
301.907	6497
301.963	7810
302.019	9561
302.074	30543
302.130	32557
302.186	16378
302.242	5391
302.297	4302
302.353	3465
302.409	7225
302.464	6465
302.520	5159
302.576	10367
302.631	13686
302.687	8070
302.743	3841
302.798	1850
302.854	2397
302.910	1849
302.965	3418
303.021	3860
303.076	4185
303.132	3224
303.187	6253
303.243	2891
303.299	2228
303.354	1471
303.410	2131
303.465	1474
303.521	2059
303.576	2005
303.632	1882
303.687	2659
303.743	10146
303.798	9248
303.853	4871
303.909	2097
303.964	3336
304.020	2924
304.075	4423
304.130	3136
304.186	6242
304.241	7683
304.297	5366
304.352	3636
304.358	3547
304.407	2825
304.449	2804
304.463	2797
304.518	1967
304.539	1910
304.573	1797
304.629	2612
304.630	2598
304.684	2215
304.720	5710
304.739	7396
304.794	12688
304.811	11181
304.850	7326
304.902	3329
304.905	3090
304.960	2691
304.992	2858
305.015	2963
305.071	2954
305.083	2812
305.126	2217
305.173	1889
305.181	1860
305.236	1136
305.264	1726
305.292	2323
305.347	2260
305.354	2318
305.402	2739
305.445	2498
305.457	2390
305.512	3974
305.535	3728
305.567	3449
305.622	3480
305.626	3553
305.678	6794
305.716	13032
305.733	14746
305.788	15935
305.807	14105
305.843	11636
305.897	13148
305.898	13143
305.953	13973
305.988	9528
306.008	7339
306.063	5019
306.078	4524
306.118	3431
306.168	2543
306.173	2483
306.228	2825
306.259	2727
306.283	2763
306.338	1540
306.349	1904
306.393	3480
306.440	3739
306.448	3736
306.503	4003
306.530	3646
306.558	4467
306.613	9359
306.620	9947
306.668	13464
306.711	16654
306.723	16419
306.778	12310
306.801	9450
306.833	6865
306.888	4139
306.892	4034
306.943	3698
306.982	3070
306.997	2918
307.052	3671
307.072	3492
307.107	3760
307.162	5485
307.163	5490
307.217	6723
307.253	7711
307.272	7762
307.327	8429
307.343	7962
307.381	7024
307.434	5971
307.436	6192
307.491	12544
307.524	17797
307.546	18270
307.600	17115
307.614	15607
307.655	10645
307.704	6898
307.710	6977
307.765	7721
307.795	9526
307.819	11646
307.874	17200
307.885	17731
307.929	16019
307.975	13886
307.984	14619
308.038	21614
308.065	25229
308.093	43105
308.148	86522
308.156	94748
308.202	134355
308.246	164294
308.257	157840
308.312	91978
308.336	63253
308.366	48574
308.421	29293
308.426	27622
308.475	19799
308.517	14556
308.530	13865
308.585	12880
308.607	12428
308.639	12649
308.694	13476
308.697	13489
308.748	20203
308.787	27618
308.803	27326
308.857	22483
308.877	20257
308.912	20191
308.967	21410
308.967	21401
309.021	31893
309.058	39807
309.076	49115
309.130	79858
309.148	90290
309.185	137383
309.238	213886
309.239	214816
309.293	230184
309.328	228210
309.348	203469
309.402	120572
309.418	97440
309.457	74435
309.508	48413
309.511	48271
309.566	48779
309.598	49984
309.620	60647
309.674	91150
309.688	98906
309.729	94138
309.778	82580
309.783	80686
309.837	53409
309.868	38797
309.892	38472
309.946	38694
309.959	39360
310.001	44907
310.049	50046
310.055	48291
310.109	30381
310.139	19892
310.163	16981
310.218	12206
310.229	11221
310.272	10186
310.319	9541
310.326	9402
310.381	7861
310.409	7298
310.435	7367
310.489	7100
310.499	7102
310.543	7308
310.589	7149
310.598	7200
310.652	7912
310.679	8073
310.706	7517
310.760	6231
310.769	6023
310.814	5462
310.859	4942
310.868	5053
310.923	5562
310.948	5841
310.977	6177
311.031	6659
311.038	6715
311.085	6232
311.128	5550
311.139	5641
311.193	6288
311.218	6442
311.247	6171
311.301	5883
311.308	5800
311.356	6278
311.398	6741
311.410	6588
311.464	5675
311.488	5343
311.518	5480
311.572	5422
311.578	5419
311.626	7255
311.668	8743
311.680	8865
311.734	9329
311.758	9458
311.788	8924
311.842	7994
311.847	7860
311.896	10757
311.937	13300
311.950	13027
312.004	11585
312.027	10908
312.058	9474
312.112	6854
312.117	6572
312.165	6680
312.207	6737
312.297	9555
312.386	8362
312.476	7458
312.566	11995
312.656	7042
312.745	6370
312.835	7003
312.925	7979
313.015	7365
313.104	8673
313.194	7428
313.284	7571
313.374	8871
313.463	7865
313.553	7374
313.643	6989
313.732	7258
313.822	7346
313.912	8740
314.001	10434
314.091	10260
314.180	12786
314.270	10143
314.360	11241
314.449	9968
314.539	7774
314.628	9289
314.718	9166
314.808	11017
314.897	8867
314.987	9308
315.076	9554
315.166	9922
315.255	10776
315.345	10509
315.434	9599
315.524	9550
315.613	10564
315.703	13376
315.792	21828
315.881	70188
315.971	23944
316.060	15171
316.150	18576
316.239	18252
316.328	10055
316.418	8733
316.507	8675
316.597	10179
316.686	10266
316.775	13116
316.865	20230
316.954	8627
317.043	8487
317.133	7752
317.222	6866
317.311	6510
317.400	6263
317.490	8705
317.579	9627
317.668	9610
317.757	13872
317.847	34335
317.936	115830
318.025	37264
318.114	26178
318.203	15479
318.293	16306
318.382	27958
318.471	24619
318.560	33863
318.649	66955
318.738	15222
318.828	9939
318.917	11024
319.006	11519
319.095	25267
319.184	76319
319.273	36228
319.362	17051
319.451	8508
319.540	7927
319.629	14134
319.718	20621
319.807	12837
319.896	24072
319.985	91369
320.074	30055
320.163	10938
320.252	13402
320.341	14373
320.430	13256
320.519	14470
320.608	10895
320.697	10990
320.786	11452
320.875	12576
320.964	14435
321.053	18827
321.142	24383
321.230	24920
321.319	22604
321.408	43184
321.497	22927
321.586	21102
321.675	23927
321.764	24927
321.852	19172
321.941	26337
322.030	19800
322.119	22039
322.207	41953
322.296	35771
322.385	24494
322.474	25761
322.562	51222
322.651	30689
322.740	21262
322.829	25532
322.917	27177
323.006	18348
323.095	16691
323.183	15012
323.272	22493
323.361	28072
323.449	72219
323.538	23675
323.626	50743
323.715	30487
323.804	15472
323.892	44963
323.981	23879
324.069	11286
324.158	26980
324.246	23792
324.335	12141
324.424	14649
324.512	9431
324.601	11410
324.689	19259
324.778	32811
324.866	18754
324.954	8703
325.043	7535
325.131	12958
325.220	20591
325.308	21734
325.397	16839
325.485	11081
325.574	6507
325.662	7109
325.750	6935
325.839	7433
325.927	6664
326.015	7599
326.104	9777
326.192	12878
326.280	6931
326.369	7558
326.457	9443
326.545	13412
326.634	7760
326.722	6099
326.810	7502
326.898	7765
326.987	8762
327.075	12515
327.163	13560
327.251	9102
327.340	14955
327.428	21181
327.516	9073
327.604	9197
327.692	8282
327.781	7873
327.869	11359
327.957	8721
328.045	8230
328.133	6443
328.221	7326
328.309	6602
328.397	5925
328.485	8108
328.574	11746
328.662	27485
328.750	16450
328.838	9118
328.926	7843
329.014	7204
329.102	8699
329.190	21153
329.278	13122
329.366	6200
329.454	5763
329.542	6801
329.630	5925
329.718	7199
329.806	7538
329.893	8538
329.981	8243
330.069	10259
330.157	30241
330.245	82031
330.333	40848
330.421	10691
330.509	10126
330.597	28089
330.684	20118
330.772	10937
330.860	14594
330.948	19187
331.036	9541
331.123	6375
331.211	7478
331.299	8464
331.387	17684
331.475	26814
331.562	10377
331.650	7117
331.738	7597
331.825	9378
331.913	6600
332.001	6576
332.089	7443
332.176	13455
332.264	24875
332.352	19459
332.439	9657
332.527	8474
332.614	6645
332.702	9038
332.790	7879
332.877	13694
332.965	31238
333.052	16728
333.140	17267
333.228	45170
333.315	14255
333.403	9011
333.490	18433
333.578	22098
333.665	61195
333.753	26510
333.840	9741
333.928	10268
334.015	20847
334.103	31832
334.190	92599
334.278	31933
334.365	22854
334.452	21096
334.540	15444
334.627	17292
334.715	22239
334.802	34144
334.889	104788
334.977	107258
335.064	34729
335.151	19283
335.239	16425
335.326	18271
335.413	53233
335.501	68832
335.588	16764
335.675	15560
335.762	20669
335.850	31964
335.937	32155
336.024	56354
336.111	141065
336.199	78919
336.286	30388
336.373	19568
336.460	12931
336.547	11757
336.635	11965
336.722	10485
336.809	10212
336.896	12616
336.983	30771
337.070	71546
337.157	96701
337.245	59345
337.332	40926
337.419	10710
337.506	8667
337.593	9706
337.680	26419
337.767	76031
337.854	21115
337.941	23198
338.028	22581
338.115	10855
338.202	13448
338.289	19360
338.376	53516
338.463	19774
338.550	44675
338.637	44895
338.724	14585
338.811	19048
338.898	7818
338.984	7053
339.071	8775
339.158	9811
339.245	16838
339.332	12398
339.419	14746
339.506	14147
339.593	5765
339.679	7649
339.766	6631
339.853	8410
339.940	12448
340.027	7719
340.113	7662
340.200	8500
340.287	7621
340.374	8327
340.460	11707
340.547	6670
340.634	9975
340.720	28006
340.807	16705
340.894	6489
340.980	6683
341.067	5924
341.154	8319
341.240	9064
341.327	15357
341.414	8546
341.500	8945
341.587	7992
341.674	6868
341.760	11202
341.847	12895
341.933	6125
342.020	5178
342.106	5859
342.193	6744
342.279	10018
342.366	8577
342.452	11632
342.539	7412
342.625	13648
342.712	29193
342.798	12727
342.885	8515
342.971	5148
343.058	4208
343.144	5956
343.230	5289
343.317	6522
343.403	5701
343.490	5386
343.576	5578
343.662	5560
343.749	7329
343.835	7878
343.921	10110
344.008	49303
344.094	110287
344.180	25599
344.267	11370
344.353	35469
344.439	34862
344.525	17916
344.612	23335
344.698	28136
344.784	15693
344.870	7946
344.957	6519
345.043	8794
345.129	6825
345.215	11367
345.301	8289
345.387	7378
345.474	6068
345.560	5268
345.646	6227
345.732	6795
345.818	7618
345.904	6487
345.990	6509
346.076	6612
346.162	10993
346.249	7337
346.335	5437
346.421	6821
346.507	15426
346.593	48707
346.679	13763
346.765	8876
346.851	9781
346.937	8614
347.023	7563
347.108	7919
347.194	7203
347.280	7650
347.366	9153
347.452	22710
347.538	66141
347.624	45210
347.710	35574
347.796	9461
347.882	7870
347.967	8153
348.053	10134
348.139	7171
348.225	6269
348.311	5943
348.397	6373
348.482	7395
348.568	8740
348.654	8387
348.740	19100
348.825	21836
348.911	14525
348.997	28399
349.083	52309
349.168	11586
349.254	8186
349.340	7698
349.425	5947
349.511	8576
349.597	8554
349.682	12557
349.768	36278
349.854	18332
349.939	8421
350.025	6510
350.110	7042
350.196	6724
350.282	4934
350.367	5847
350.453	7359
350.538	8811
350.624	7881
350.709	8247
350.795	5772
350.880	6122
350.966	7315
351.051	8068
351.137	6889
351.222	6658
351.308	12425
351.393	30925
351.479	10772
351.564	5683
351.649	6424
351.735	6389
351.820	5778
351.906	5967
351.991	8002
352.076	20006
352.162	29756
352.247	8102
352.332	7331
352.418	11368
352.503	12302
352.588	41065
352.673	31709
352.759	10694
352.844	6308
352.929	7839
353.014	8345
353.100	7192
353.185	7473
353.270	11645
353.355	12556
353.441	6703
353.526	6391
353.611	11058
353.696	12387
353.781	9268
353.866	6343
353.952	7831
354.037	11143
354.122	20971
354.207	18491
354.292	10105
354.377	6414
354.462	6581
354.547	6957
354.632	7163
354.717	9855
354.802	9187
354.887	7139
354.972	7015
355.057	6300
355.142	6357
355.227	7218
355.312	9663
355.397	14756
355.482	30979
355.567	16676
355.652	15770
355.737	14955
355.822	41115
355.907	33969
355.991	10765
356.076	7172
356.161	8599
356.246	7775
356.331	8605
356.416	12574
356.501	62758
356.585	63522
356.670	13691
356.755	12374
356.840	13901
356.924	40911
357.009	134481
357.094	52613
357.179	17322
357.263	14213
357.348	13738
357.433	13771
357.517	13769
357.602	12934
357.687	11202
357.771	15897
357.856	40001
357.941	25599
358.025	35479
358.110	134200
358.195	64878
358.279	17619
358.364	15066
358.448	31009
358.533	73850
358.617	52718
358.702	54806
358.787	23396
358.871	15618
358.956	14152
359.040	10346
359.125	7726
359.209	9222
359.294	20969
359.378	34001
359.462	15374
359.547	8140
359.631	6600
359.716	6324
359.800	6047
359.885	11123
359.969	6787
360.053	7844
360.138	7680
360.222	8309
360.306	11917
360.391	11616
360.475	19968
360.559	37374
360.644	27372
360.728	20265
360.812	33652
360.896	90555
360.981	40608
361.065	23505
361.149	9323
361.233	9524
361.318	8160
361.402	9714
361.486	10185
361.570	7903
361.654	10051
361.739	15368
361.823	57795
361.907	91334
361.991	21935
362.075	17389
362.159	27609
362.243	32141
362.327	56321
362.411	74042
362.495	34252
362.580	18498
362.664	16684
362.748	18594
362.832	28975
362.916	54914
363.000	141290
363.084	215145
363.168	152413
363.252	43314
363.336	22081
363.420	24008
363.503	70627
363.587	82588
363.671	18932
363.755	15780
363.839	19973
363.923	15863
364.007	22987
364.091	30371
364.175	49398
364.258	153998
364.342	199797
364.426	281684
364.510	148652
364.594	54599
364.677	36911
364.761	87797
364.845	61396
364.929	23433
365.013	20465
365.096	17075
365.180	18848
365.264	30582
365.347	106939
365.431	47256
365.515	14550
365.598	8746
365.682	10897
365.766	15488
365.849	20045
365.933	10575
366.017	15071
366.100	12830
366.184	8314
366.267	9625
366.351	8692
366.435	8167
366.518	6049
366.602	7378
366.685	7913
366.769	8737
366.852	13288
366.936	19394
367.019	11949
367.103	12244
367.186	21680
367.270	8639
367.353	6888
367.436	9086
367.520	8217
367.603	9181
367.687	10519
367.770	15951
367.853	11671
367.937	27610
368.020	42981
368.104	12419
368.187	12670
368.270	15986
368.353	14762
368.437	17401
368.520	37240
368.603	22959
368.687	30750
368.770	54088
368.853	14900
368.936	18111
369.020	18104
369.103	9275
369.186	7236
369.269	7231
369.352	12014
369.436	14038
369.519	11529
369.602	6549
369.685	9000
369.768	7690
369.851	8284
369.934	6357
370.018	8054
370.101	12390
370.184	13535
370.267	10924
370.350	15472
370.433	20432
370.516	48189
370.599	70505
370.682	25795
370.765	31516
370.848	37478
370.931	67690
371.014	30099
371.097	10840
371.180	9333
371.263	8015
371.346	6840
371.429	9900
371.511	8842
371.594	11932
371.677	17811
371.760	23626
371.843	17870
371.926	55969
372.009	116704
372.091	47765
372.174	32574
372.257	66662
372.340	32389
372.423	29228
372.505	35345
372.588	17180
372.671	25789
372.754	66268
372.836	36353
372.919	37081
373.002	70423
373.085	24113
373.167	17560
373.250	31586
373.332	62773
373.415	76367
373.498	150051
373.580	60357
373.663	96740
373.746	120171
373.828	28316
373.911	16864
373.993	17483
374.076	64351
374.159	56738
374.241	22737
374.324	55637
374.406	38092
374.489	44655
374.571	126370
374.654	54153
374.736	27907
374.819	77979
374.901	108931
374.983	111471
375.066	24782
375.148	14548
375.231	51826
375.313	97049
375.395	37013
375.478	12643
375.560	10807
375.643	12815
375.725	26303
375.807	97602
375.890	78736
375.972	34356
376.054	21709
376.136	31628
376.219	16993
376.301	31378
376.383	86054
376.465	33621
376.548	21337
376.630	26307
376.712	75033
376.794	36096
376.877	9368
376.959	6553
377.041	8626
377.123	17377
377.205	20402
377.287	7671
377.369	8049
377.452	7566
377.534	7677
377.616	6787
377.698	6962
377.780	6325
377.862	7828
377.944	7700
378.026	5280
378.108	7093
378.190	6275
378.272	7120
378.354	6718
378.436	6639
378.518	10855
378.600	27931
378.682	22080
378.764	39552
378.846	32339
378.928	13057
379.010	15044
379.091	10527
379.173	7705
379.255	6658
379.337	8085
379.419	20194
379.501	55977
379.583	23904
379.664	9554
379.746	15466
379.828	38992
379.910	50873
379.991	45844
380.073	11342
380.155	9810
380.237	7918
380.318	6990
380.400	8011
380.482	12534
380.564	15597
380.645	13979
380.727	14567
380.809	11953
380.890	9604
380.972	8585
381.053	8556
381.135	11097
381.217	16753
381.298	42616
381.380	22655
381.461	19903
381.543	72241
381.624	90671
381.706	21919
381.787	16327
381.869	17028
381.951	35730
382.032	115910
382.113	76773
382.195	22837
382.276	21503
382.358	31445
382.439	72365
382.521	79911
382.602	121087
382.684	70155
382.765	128255
382.846	223385
382.928	421890
383.009	247162
383.090	187867
383.172	524724
383.253	692649
383.334	253831
383.416	157235
383.497	99116
383.578	87961
383.659	163445
383.741	462432
383.822	868849
383.903	493050
383.984	168801
384.066	160734
384.147	99840
384.228	37875
384.309	29916
384.390	25201
384.471	21950
384.553	21379
384.634	23136
384.715	23100
384.796	17609
384.877	20617
384.958	44482
385.039	49822
385.120	23214
385.201	16452
385.282	19139
385.363	23337
385.444	23402
385.525	27299
385.606	60982
385.687	52924
385.768	21569
385.849	23168
385.930	59948
386.011	101337
386.092	33016
386.173	15580
386.254	14035
386.335	14842
386.416	14787
386.496	29895
386.577	43902
386.658	21710
386.739	15750
386.820	17832
386.901	15663
386.981	14967
387.062	13411
387.143	17844
387.224	42672
387.304	43343
387.385	22001
387.466	18433
387.547	22550
387.627	17769
387.708	24584
387.789	71087
387.869	85578
387.950	30313
388.031	14558
388.111	13423
388.192	25093
388.273	33515
388.353	21694
388.434	13056
388.514	17931
388.595	60931
388.676	77931
388.756	38990
388.837	37437
388.917	25060
388.998	9691
389.078	11987
389.159	10159
389.239	8172
389.320	12767
389.400	9447
389.480	19031
389.561	44744
389.641	23515
389.722	11728
389.802	15353
389.883	20556
389.963	50754
390.043	34230
390.124	15049
390.204	17928
390.284	44006
390.365	29764
390.445	45163
390.525	104224
390.605	82322
390.686	27492
390.766	14303
390.846	11267
390.927	8199
391.007	9516
391.087	11006
391.167	12483
391.247	9977
391.328	12844
391.408	20524
391.488	16438
391.568	9603
391.648	11618
391.728	14678
391.808	14772
391.888	14407
391.969	27879
392.049	42750
392.129	25656
392.209	25727
392.289	54107
392.369	35468
392.449	38488
392.529	28391
392.609	23590
392.689	28255
392.769	60098
392.849	57349
392.929	56389
393.009	102297
393.089	105659
393.169	145893
393.248	371340
393.328	853371
393.408	878165
393.488	390022
393.568	144446
393.648	74825
393.728	48538
393.807	35092
393.887	30624
393.967	26412
394.047	26046
394.127	28380
394.206	39322
394.286	104974
394.366	372653
394.446	407221
394.525	121768
394.605	39937
394.685	29825
394.764	49233
394.844	82069
394.924	68264
395.003	24254
395.083	16680
395.163	15207
395.242	14808
395.322	15522
395.402	12656
395.481	17617
395.561	35424
395.640	95016
395.720	104796
395.799	109667
395.879	78992
395.958	55627
396.038	155526
396.117	474508
396.197	519775
396.276	206109
396.356	81430
396.435	62689
396.515	52355
396.594	62203
396.673	116441
396.753	344204
396.832	783797
396.912	614410
396.991	193452
397.070	70197
397.150	41627
397.229	33506
397.308	55880
397.388	106165
397.467	54679
397.546	20040
397.625	13576
397.705	16128
397.784	14265
397.863	11663
397.942	10252
398.022	11536
398.101	27490
398.180	73597
398.259	41266
398.338	13952
398.417	9640
398.497	8682
398.576	10004
398.655	6690
398.734	8232
398.813	8847
398.892	25327
398.971	78101
399.050	38621
399.129	7559
399.208	6659
399.287	7323
399.366	6143
399.445	6194
399.524	6559
399.603	5994
399.682	9292
399.761	22228
399.840	78915
399.919	63574
399.998	10134
400.077	5375
400.156	4005
400.235	8185
400.313	4992
400.392	6393
400.471	21386
400.550	32300
400.629	10371
400.708	7504
400.786	7182
400.865	18545
400.944	19998
401.023	10121
401.102	4362
401.180	4912
401.259	5640
401.338	6264
401.416	7220
401.495	6282
401.574	6757
401.652	5505
401.731	7054
401.810	6093
401.888	4531
401.967	3852
402.046	5439
402.124	8053
402.203	6903
402.281	6459
402.360	8522
402.438	23473
402.517	16362
402.596	7403
402.674	6872
402.753	5454
402.831	5041
402.910	6337
402.988	11519
403.066	33609
403.145	20864
403.223	12989
403.302	27669
403.380	21070
403.459	20358
403.537	10495
403.615	7480
403.694	4129
403.772	5806
403.850	5813
403.929	4407
404.007	6355
404.085	8941
404.164	9279
404.242	11211
404.320	35852
404.398	103173
404.477	105285
404.555	112728
404.633	100704
404.711	82447
404.789	60761
404.868	17311
404.946	8647
405.024	6424
405.102	6533
405.180	4193
405.258	4381
405.336	5566
405.415	4972
405.493	8679
405.571	7490
405.649	3504
405.727	4620
405.805	8176
405.883	6559
405.961	7038
406.039	8782
406.117	5340
406.195	5663
406.273	20928
406.351	77464
406.429	47920
406.507	10926
406.585	5837
406.663	5491
406.740	5793
406.818	4451
406.896	4590
406.974	4898
407.052	8015
407.130	46502
407.208	63388
407.285	14501
407.363	4082
407.441	4976
407.519	4228
407.596	5124
407.674	10792
407.752	32125
407.830	32625
407.907	14978
407.985	5556
408.063	4955
408.141	3637
408.218	8227
408.296	6163
408.373	4670
408.451	5259
408.529	5803
408.606	4141
408.684	4406
408.762	4930
408.839	4953
408.917	4722
408.994	5599
409.072	5418
409.149	7435
409.227	11313
409.304	16817
409.382	17302
409.459	19930
409.537	25775
409.614	24541
409.692	19469
409.769	19345
409.846	24583
409.924	30628
410.001	25928
410.079	19468
410.156	15302
410.233	11523
410.311	9555
410.388	8462
410.465	9103
410.543	7547
410.620	7512
410.697	7054
410.775	7609
410.852	5196
410.929	8534
411.006	9078
411.083	6369
411.161	11348
411.238	12066
411.315	8890
411.392	5853
411.469	6957
411.547	7354
411.624	5254
411.701	4921
411.778	6570
411.855	8268
411.932	5962
412.009	4895
412.086	5453
412.163	5466
412.240	5627
412.317	7126
412.394	7174
412.471	4696
412.548	4093
412.625	4454
412.702	6116
412.779	8481
412.856	7097
412.933	3936
413.010	5014
413.087	6231
413.164	18928
413.241	26734
413.318	8080
413.395	6858
413.471	7569
413.548	5848
413.625	5042
413.702	5065
413.779	4308
413.855	3252
413.932	2917
414.009	3181
414.086	3469
414.162	4625
414.239	5364
414.316	17372
414.393	38935
414.469	13344
414.546	3442
414.623	3342
414.699	3994
414.776	3394
414.853	3261
414.929	3730
415.006	3762
415.082	5538
415.159	3938
415.236	3908
415.312	4181
415.389	5866
415.465	6183
415.542	4288
415.618	3639
415.695	5969
415.771	4112
415.848	3628
415.924	4420
416.000	4065
416.077	4401
416.153	1956
416.230	2703
416.306	2783
416.383	3561
416.459	2874
416.535	2698
416.612	2702
416.688	3461
416.764	3513
416.841	3569
416.917	3738
416.993	4494
417.069	4782
417.146	5558
417.222	8155
417.298	5230
417.374	3330
417.451	4177
417.527	4379
417.603	3866
417.679	3867
417.755	3772
417.831	2032
417.908	2421
417.984	2380
418.060	2540
418.136	6185
418.212	8162
418.288	4607
418.364	3162
418.440	2659
418.516	5052
418.592	6849
418.668	10484
418.744	12229
418.820	9895
418.896	4347
418.972	2897
419.048	3402
419.124	7577
419.200	6053
419.276	4015
419.352	1920
419.428	3364
419.504	4548
419.579	4535
419.655	4046
419.731	5135
419.807	8882
419.883	14069
419.959	10685
420.034	5916
420.110	9255
420.186	26590
420.262	20831
420.337	7344
420.413	6023
420.489	5437
420.565	6155
420.640	5745
420.716	6503
420.792	5657
420.867	7566
420.943	6492
421.019	9317
421.094	9108
421.170	8263
421.245	8332
421.321	9528
421.397	10006
421.472	14099
421.548	23990
421.623	20950
421.699	15531
421.774	17578
421.850	17530
421.925	22445
422.001	24852
422.076	30487
422.152	38603
422.227	51441
422.302	68961
422.378	105906
422.453	175789
422.529	319343
422.604	447770
422.679	392852
422.755	443493
422.830	346419
422.905	193488
422.981	117642
423.056	79412
423.131	56857
423.207	43069
423.282	36024
423.357	33541
423.432	25558
423.508	22463
423.583	26194
423.658	21925
423.733	15811
423.808	16357
423.883	14977
423.959	15495
424.034	15975
424.109	15595
424.184	11562
424.259	9469
424.334	8331
424.409	8139
424.484	7635
424.559	7497
424.634	6811
424.709	7492
424.784	6413
424.859	6578
424.934	7618
425.009	18163
425.084	28003
425.159	12032
425.234	6423
425.309	5128
425.384	12042
425.459	17294
425.534	7310
425.609	4603
425.683	4968
425.758	3383
425.833	4995
425.908	5721
425.983	10596
426.058	28734
426.132	13648
426.207	5391
426.282	9316
426.357	7486
426.431	4460
426.506	4386
426.581	4158
426.655	3591
426.730	3793
426.805	3015
426.879	3516
426.954	3858
427.029	6332
427.103	26454
427.178	65706
427.253	29930
427.327	6166
427.402	8806
427.476	19984
427.551	10454
427.625	5097
427.700	5342
427.774	4617
427.849	5348
427.923	3434
427.998	4121
428.072	6073
428.147	13591
428.221	55734
428.296	169828
428.370	91669
428.444	13902
428.519	11885
428.593	19094
428.667	16557
428.742	20633
428.816	27262
428.890	109635
428.965	168032
429.039	48307
429.113	22622
429.188	10097
429.262	5641
429.336	6715
429.410	15325
429.485	12160
429.559	14936
429.633	13901
429.707	7847
429.781	21434
429.855	113079
429.930	164042
430.004	64962
430.078	83155
430.152	98053
430.226	212342
430.300	206205
430.374	43815
430.448	15196
430.522	27857
430.596	75353
430.670	54562
430.744	145991
430.818	177848
430.892	32296
430.966	7244
431.040	5076
431.114	3686
431.188	3413
431.262	3267
431.336	4143
431.410	8917
431.484	20054
431.557	12540
431.631	4876
431.705	9021
431.779	40479
431.853	156563
431.927	104304
432.000	15015
432.074	5648
432.148	4857
432.222	4010
432.295	3561
432.369	2688
432.443	4144
432.516	26548
432.590	64820
432.664	23286
432.737	3499
432.811	1341
432.885	1592
432.958	1459
433.032	1363
433.106	1683
433.179	2390
433.253	2077
433.326	1532
433.400	1215
433.473	2952
433.547	1695
433.620	1991
433.694	3433
433.767	3384
433.841	1171
433.914	1812
433.988	2337
434.061	2821
434.134	2165
434.208	1899
434.281	1172
434.355	1872
434.428	1989
434.501	2055
434.575	2092
434.648	1773
434.721	1421
434.795	1594
434.868	1888
434.941	2300
435.014	1601
435.088	3316
435.161	4575
435.234	6733
435.307	7649
435.381	6830
435.454	7774
435.527	10372
435.600	11921
435.673	11161
435.746	8883
435.819	6775
435.892	5997
435.966	5050
436.039	4580
436.112	4364
436.185	2652
436.258	2871
436.331	1668
436.404	1925
436.477	2161
436.550	1866
436.623	2253
436.696	2035
436.769	2167
436.842	1817
436.915	1787
436.987	3212
437.060	1707
437.133	1418
437.206	1675
437.279	1822
437.352	1563
437.425	1627
437.498	2080
437.570	4630
437.643	4173
437.716	1728
437.789	1424
437.861	3584
437.934	8860
438.007	4202
438.080	1392
438.152	2529
438.225	5086
438.298	32399
438.370	85361
438.443	31883
438.516	8800
438.588	2462
438.661	1164
438.734	1304
438.806	2495
438.879	2230
438.951	2677
439.024	5199
439.096	1740
439.169	1264
439.241	1124
439.314	1731
439.386	3254
439.459	4068
439.531	5360
439.604	2771
439.676	1944
439.749	1372
439.821	392
439.893	1692
439.966	1538
440.038	2266
440.110	2719
440.183	1874
440.255	1141
440.327	3221
440.400	14253
440.472	55363
440.544	31413
440.617	5705
440.689	4540
440.761	5056
440.833	7123
440.905	4590
440.978	1608
441.050	1773
441.122	1905
441.194	1504
441.266	1462
441.338	1877
441.411	4183
441.483	17365
441.555	22812
441.627	6283
441.699	5459
441.771	5261
441.843	2423
441.915	2033
441.987	2995
442.059	3027
442.131	4036
442.203	6779
442.275	8269
442.347	11432
442.419	25022
442.491	114083
442.563	242962
442.635	93203
442.706	31177
442.778	18039
442.850	7381
442.922	5495
442.994	6369
443.066	8332
443.137	8827
443.209	10721
443.281	17460
443.353	36966
443.425	132052
443.496	374109
443.568	372076
443.640	142567
443.711	31997
443.783	13391
443.855	9818
443.926	7061
443.998	6627
444.070	6543
444.141	5382
444.213	6568
444.285	5826
444.356	6180
444.428	5082
444.499	3947
444.571	3278
444.642	4142
444.714	4588
444.785	6513
444.857	8498
444.928	17314
445.000	11411
445.071	14412
445.143	17208
445.214	18360
445.285	30976
445.357	83086
445.428	248911
445.500	441683
445.571	334160
445.642	206608
445.714	70563
445.785	35966
445.856	13521
445.928	10485
445.999	8434
446.070	5852
446.141	5770
446.213	6161
446.284	4589
446.355	5256
446.426	3504
446.497	3217
446.569	5620
446.640	5683
446.711	4452
446.782	1794
446.853	3076
446.924	3693
446.995	2431
447.066	3034
447.138	5190
447.209	3822
447.280	1096
447.351	1483
447.422	1889
447.493	2519
447.564	2720
447.635	3636
447.706	1473
447.777	1506
447.847	915
447.918	921
447.989	3159
448.060	4201
448.131	8600
448.202	6658
448.273	4761
448.344	2267
448.414	965
448.485	1710
448.556	1803
448.627	797
448.698	1379
448.768	1226
448.839	862
448.910	5058
448.981	4031
449.051	1670
449.122	1605
449.193	1234
449.263	1210
449.334	1685
449.405	2317
449.475	5379
449.546	3427
449.616	5633
449.687	4443
449.758	1844
449.828	1658
449.899	1010
449.969	1245
450.040	1596
450.110	1590
450.181	2015
450.251	1837
450.322	1812
450.392	1525
450.463	1224
450.533	1491
450.604	1429
450.674	1595
450.744	2932
450.815	2464
450.885	2115
450.955	2393
451.026	1856
451.096	2900
451.166	2321
451.237	6748
451.307	15412
451.377	5441
451.447	1868
451.518	1749
451.588	1771
451.658	2696
451.728	3677
451.799	15861
451.869	14777
451.939	3144
452.009	1824
452.079	1789
452.149	1983
452.219	4213
452.289	17672
452.360	10741
452.430	3199
452.500	3771
452.570	5405
452.640	11335
452.710	28903
452.780	36014
452.850	19547
452.920	11250
452.990	5831
453.060	3859
453.129	4205
453.199	5116
453.269	19521
453.339	34525
453.409	49584
453.479	58413
453.549	79708
453.619	83994
453.688	25562
453.758	4311
453.828	2552
453.898	3084
453.968	2157
454.037	2139
454.087	1720
454.107	1545
454.168	1246
454.177	1192
454.247	1652
454.249	1627
454.316	873
454.330	1244
454.386	2611
454.411	4630
454.456	7962
454.492	9525
454.525	10965
454.574	5844
454.595	3635
454.655	1791
454.665	1491
454.734	2377
454.736	2443
454.804	4372
454.817	6381
454.873	14540
454.898	14399
454.943	14182
454.979	8760
455.013	3849
455.060	2895
455.082	2567
455.141	3406
455.152	3544
455.221	10972
455.222	11107
455.291	20410
455.303	20136
455.360	17883
455.384	26050
455.430	40242
455.465	28612
455.499	17708
455.546	14426
455.569	12945
455.627	7684
455.638	6753
455.707	2190
455.708	2196
455.777	1909
455.789	1967
455.846	2145
455.869	2034
455.916	1854
455.950	1955
455.985	2067
456.031	2297
456.054	2392
456.112	1873
456.124	1773
456.193	1720
456.193	1711
456.262	2610
456.274	2640
456.332	2408
456.355	2437
456.401	2474
456.436	2487
456.470	2479
456.516	2011
456.540	1844
456.597	1706
456.609	1685
456.678	1531
456.678	1522
456.747	1314
456.759	1313
456.817	1345
456.840	1378
456.886	1501
456.920	1731
456.955	1987
457.001	2145
457.024	2216
457.082	2241
457.093	2222
457.162	3432
457.163	3439
457.232	2956
457.243	2758
457.301	1908
457.324	2037
457.370	2244
457.405	2384
457.439	2535
457.485	2619
457.508	2790
457.566	3550
457.577	3722
457.646	4575
457.647	4604
457.715	9019
457.727	10169
457.784	16597
457.808	23263
457.853	33100
457.889	39908
457.922	43234
457.969	28755
457.991	25820
458.050	27470
458.060	27730
458.129	51018
458.130	51650
458.198	64639
458.211	58315
458.267	31753
458.292	22782
458.336	12957
458.372	12200
458.405	14584
458.453	20242
458.474	24547
458.533	45157
458.543	47070
458.611	90400
458.614	90522
458.680	65536
458.694	53860
458.749	22054
458.775	15955
458.818	9061
458.855	7465
458.887	6171
458.936	5100
458.955	4673
459.016	3501
459.024	3430
459.093	4086
459.097	4059
459.162	3080
459.177	3100
459.230	3393
459.257	3687
459.299	4219
459.338	4078
459.368	3628
459.418	3643
459.437	3688
459.499	3359
459.505	3387
459.574	3159
459.579	3207
459.643	3101
459.659	2996
459.711	3108
459.740	3363
459.780	3724
459.820	4122
459.849	4235
459.900	4141
459.917	4189
459.981	4566
459.986	4535
460.054	3868
460.061	3808
460.123	3951
460.141	4111
460.191	4690
460.222	4854
460.260	5077
460.302	5934
460.328	6166
460.382	6152
460.397	6092
460.462	5034
460.465	5060
460.534	6038
460.543	6199
460.602	12588
460.623	15599
460.671	22852
460.703	32427
460.739	34257
460.783	28366
460.808	25142
460.864	7788
460.876	5563
460.944	3852
460.945	3824
461.013	3498
461.024	3367
461.081	3184
461.104	3289
461.150	3043
461.184	2683
461.218	2814
461.264	3137
461.286	3051
461.345	2985
461.355	3034
461.423	3383
461.425	3374
461.491	2312
461.505	2362
461.559	4969
461.585	5918
461.628	8021
461.665	10688
461.696	11916
461.745	15798
461.764	15148
461.825	5514
461.832	5068
461.901	3308
461.905	3341
461.969	2463
461.985	2227
462.037	3719
462.065	4181
462.105	3372
462.145	2778
462.173	3952
462.225	6532
462.241	6876
462.305	9559
462.310	9476
462.378	6562
462.385	6016
462.446	3147
462.465	2721
462.514	3033
462.545	3294
462.582	2945
462.625	2586
462.650	2709
462.705	2756
462.718	2780
462.785	3453
462.786	3465
462.854	3501
462.865	3567
462.922	4521
462.945	5147
462.990	4641
463.025	3390
463.058	2939
463.104	2778
463.126	2636
463.184	2208
463.194	2268
463.262	2904
463.264	2933
463.330	3603
463.344	3673
463.398	3780
463.424	3798
463.466	3377
463.504	3063
463.533	3270
463.583	3647
463.601	3768
463.663	4035
463.669	4008
463.737	4011
463.743	4003
463.805	6713
463.823	7463
463.873	10190
463.903	12361
463.940	13237
463.982	14161
464.008	12218
464.062	6020
464.076	5564
464.142	3883
464.144	3833
464.211	2790
464.221	2626
464.279	3136
464.301	3352
464.347	3528
464.381	3677
464.414	4130
464.461	4914
464.482	4820
464.540	4289
464.550	4239
464.617	3919
464.620	3901
464.685	4179
464.699	4212
464.753	5718
464.779	6622
464.820	6975
464.859	7287
464.888	7197
464.938	6979
464.956	6760
465.018	5697
465.023	5732
465.091	6150
465.098	6171
465.158	4883
465.177	4599
465.226	5556
465.257	6047
465.293	5821
465.336	5578
465.361	5800
465.416	6274
465.428	6654
465.495	8681
465.496	8719
465.563	12865
465.575	13668
465.631	15835
465.654	16922
465.698	12077
465.734	6888
465.765	5746
465.813	4647
465.833	4467
465.893	4191
465.900	4274
465.968	4998
465.972	5037
466.035	4561
466.052	4437
466.102	4997
466.131	5323
466.170	5067
466.210	4718
466.237	4969
466.290	5529
466.304	5453
466.369	5042
466.372	5041
466.439	4837
466.449	4798
466.506	5124
466.528	5249
466.573	7911
466.607	9859
466.641	12758
466.687	16858
466.708	18635
466.766	23785
466.775	22137
466.842	9101
466.845	8472
466.909	5964
466.925	5436
466.977	5570
467.004	5682
467.044	6136
467.083	6574
467.111	7185
467.163	8302
467.178	8455
467.242	9060
467.245	8994
467.312	7469
467.321	7264
467.379	8246
467.400	8583
467.446	8942
467.480	9184
467.559	8495
467.638	7432
467.717	6205
467.796	8236
467.875	7959
467.955	7446
468.034	12044
468.113	23216
468.192	31302
468.271	12124
468.350	11444
468.429	14211
468.508	14706
468.588	10893
468.667	8936
468.746	8482
468.825	8243
468.904	6863
468.983	7434
469.062	9935
469.141	12281
469.220	6438
469.299	6592
469.378	6281
469.456	9067
469.535	8109
469.614	6789
469.693	8363
469.772	9956
469.851	11947
469.930	9088
470.009	7592
470.088	7546
470.166	9725
470.245	15568
470.324	18021
470.403	11251
470.482	8058
470.560	6776
470.639	7321
470.718	7960
470.797	6558
470.875	6798
470.954	9752
471.033	9553
471.111	7014
471.190	5365
471.269	5569
471.347	4980
471.426	5868
471.505	7123
471.583	7670
471.662	7191
471.740	6314
471.819	6149
471.898	6057
471.976	6202
472.055	6057
472.133	7054
472.212	8892
472.290	7885
472.369	5850
472.447	5258
472.526	5768
472.604	6005
472.683	5422
472.761	6169
472.839	5770
472.918	6281
472.996	6836
473.075	7554
473.153	6869
473.231	5812
473.310	7362
473.388	6683
473.466	5907
473.545	6781
473.623	8410
473.701	7160
473.780	7278
473.858	5577
473.936	8002
474.014	6634
474.093	7374
474.171	8430
474.249	11571
474.327	8467
474.405	5042
474.484	5291
474.562	5583
474.640	5463
474.718	5769
474.796	5216
474.874	6748
474.952	5608
475.030	4940
475.108	5228
475.187	5645
475.265	5399
475.343	6827
475.421	6587
475.499	5853
475.577	6231
475.655	8314
475.733	12456
475.811	20293
475.889	17618
475.966	13581
476.044	5515
476.122	5466
476.200	5376
476.278	6684
476.356	4915
476.434	5996
476.512	6115
476.590	7051
476.667	6537
476.745	5628
476.823	5928
476.901	5693
476.979	5861
477.056	6379
477.134	5524
477.212	5876
477.290	5166
477.367	6457
477.445	5937
477.523	5324
477.601	5162
477.678	6053
477.756	6548
477.834	6486
477.911	4567
477.989	5551
478.066	5481
478.144	5418
478.222	5439
478.299	5806
478.377	5931
478.454	4615
478.532	4403
478.609	4766
478.687	5527
478.764	5307
478.842	5009
478.919	5345
478.997	5621
479.074	4779
479.152	5465
479.229	7158
479.307	5109
479.384	4534
479.461	4804
479.539	5054
479.616	5548
479.694	5411
479.771	5601
479.848	5997
479.926	5628
480.003	8999
480.080	4841
480.157	5826
480.235	3941
480.312	5019
480.389	6118
480.467	7950
480.544	9439
480.621	6398
480.698	5970
480.775	6338
480.853	5460
480.930	5649
481.007	5412
481.084	5667
481.161	6534
481.238	6595
481.315	3876
481.392	5433
481.470	5899
481.547	6507
481.624	5515
481.701	5340
481.778	5282
481.855	6414
481.932	8838
482.009	11808
482.086	9616
482.163	6433
482.240	6680
482.317	8282
482.393	7510
482.470	5713
482.547	5760
482.624	5393
482.701	5146
482.778	5231
482.855	4441
482.932	5195
483.009	4797
483.085	6719
483.162	6592
483.239	7581
483.316	6832
483.393	7339
483.469	6649
483.546	6625
483.623	5898
483.699	5722
483.776	5082
483.853	5313
483.930	7826
484.006	17886
484.083	31519
484.160	19601
484.236	26126
484.313	20863
484.389	15929
484.466	15827
484.543	14918
484.619	16137
484.696	17786
484.772	16196
484.849	14853
484.925	14136
485.002	12713
485.078	13869
485.155	13200
485.231	11863
485.308	12179
485.384	12217
485.461	14603
485.537	21219
485.614	24260
485.690	12632
485.766	12048
485.843	12017
485.919	12338
485.995	13588
486.072	10712
486.148	10437
486.224	10535
486.301	11974
486.377	12197
486.453	11370
486.530	13108
486.606	17272
486.682	17929
486.758	19548
486.835	21130
486.911	17428
486.987	25060
487.063	23985
487.139	22448
487.215	19584
487.292	15299
487.368	15299
487.444	16781
487.520	20541
487.596	25838
487.672	53100
487.748	145319
487.824	221935
487.900	83425
487.976	27842
488.052	18990
488.128	17435
488.204	13792
488.280	13851
488.356	14441
488.432	24086
488.508	32908
488.584	14239
488.660	10686
488.736	11393
488.812	10260
488.888	13108
488.964	13408
489.039	19727
489.115	25711
489.191	18486
489.267	10375
489.343	10439
489.418	9624
489.494	9629
489.570	7553
489.646	10893
489.722	9361
489.797	10344
489.873	13280
489.949	26183
490.024	23190
490.100	10354
490.176	9631
490.251	10122
490.327	11296
490.403	8071
490.478	9417
490.554	8162
490.629	7977
490.705	8559
490.781	8397
490.856	9318
490.932	9098
491.007	8640
491.083	9040
491.158	8440
491.234	10546
491.309	20197
491.385	19670
491.460	8743
491.536	9193
491.611	7642
491.686	7992
491.762	9706
491.837	12544
491.913	20722
491.988	26180
492.063	29654
492.139	14543
492.214	11828
492.289	7132
492.365	6774
492.440	7729
492.515	8497
492.590	8123
492.666	6897
492.741	9882
492.816	12148
492.891	7770
492.967	8521
493.042	6916
493.117	7559
493.192	8126
493.267	15840
493.342	48637
493.418	65757
493.493	12898
493.568	7490
493.643	6478
493.718	8112
493.793	9759
493.868	10194
493.943	7020
494.018	7019
494.093	6403
494.168	8147
494.243	5515
494.318	6064
494.393	6931
494.468	5459
494.543	6091
494.618	6959
494.693	5368
494.768	6929
494.842	6825
494.917	6550
494.992	6122
495.067	5963
495.142	5298
495.217	7017
495.292	6319
495.366	6784
495.441	6929
495.516	8716
495.591	9870
495.665	23006
495.740	46203
495.815	23713
495.890	8294
495.964	6235
496.039	9604
496.114	7782
496.188	8565
496.263	8200
496.338	8179
496.412	7926
496.487	9328
496.561	8692
496.636	8909
496.710	8336
496.785	8522
496.860	9179
496.934	7648
497.009	8160
497.083	7596
497.158	10459
497.232	10494
497.307	11445
497.381	9405
497.455	10523
497.530	13426
497.604	9292
497.679	9107
497.753	14092
497.827	16006
497.902	12712
497.976	16507
498.050	46353
498.125	169532
498.199	172445
498.273	21075
498.348	13384
498.422	11950
498.496	12580
498.570	12196
498.645	10698
498.719	8209
498.793	11421
498.867	15284
498.941	23973
499.016	72344
499.090	181685
499.164	68373
499.238	10267
499.312	8208
499.386	10204
499.460	9330
499.534	9897
499.609	11655
499.683	14533
499.757	13638
499.831	31728
499.905	119444
499.979	115462
500.053	17343
500.127	15391
500.201	9888
500.275	8808
500.349	8853
500.422	9457
500.496	11412
500.570	21894
500.644	65099
500.718	125113
500.792	31706
500.866	9569
500.940	9947
501.013	9383
501.087	7797
501.161	10911
501.235	14917
501.309	39213
501.382	104721
501.456	94975
501.530	20297
501.603	33266
501.677	15431
501.751	5503
501.825	9166
501.898	15503
501.972	39904
502.046	27527
502.119	7226
502.193	20275
502.266	43876
502.340	24137
502.413	20256
502.487	38352
502.561	21200
502.634	9057
502.708	6346
502.781	5346
502.855	5924
502.928	5030
503.002	5894
503.075	4682
503.149	5772
503.222	6255
503.295	6500
503.369	8168
503.442	9954
503.516	31542
503.589	76635
503.662	52987
503.736	18997
503.809	38619
503.882	33751
503.956	51233
504.029	60859
504.102	81280
504.175	121147
504.249	51661
504.322	20612
504.395	13082
504.468	8735
504.542	6834
504.615	5584
504.688	6266
504.761	3320
504.834	6093
504.907	5846
504.980	7966
505.053	4815
505.127	3384
505.200	9317
505.273	7651
505.346	4867
505.419	3964
505.492	5018
505.565	3708
505.638	4662
505.711	2855
505.784	2620
505.857	3178
505.930	5344
506.003	2923
506.076	6216
506.149	5602
506.221	5970
506.294	7719
506.367	15650
506.440	56263
506.513	32308
506.586	7768
506.659	3958
506.731	3564
506.804	3299
506.877	5930
506.950	5297
507.022	3441
507.095	3005
507.168	7081
507.241	4580
507.313	3855
507.386	2852
507.459	4562
507.531	3161
507.604	2727
507.677	4306
507.749	2462
507.822	6513
507.894	7931
507.967	12338
508.040	7279
508.112	7085
508.185	6740
508.257	5529
508.330	8662
508.402	5569
508.475	6518
508.547	6705
508.620	6170
508.692	8749
508.765	6416
508.837	3843
508.909	5294
508.982	5623
509.054	5974
509.127	5170
509.199	4159
509.271	3320
509.344	4847
509.416	5064
509.488	5107
509.560	5296
509.633	4506
509.705	5800
509.777	5900
509.849	7938
509.922	5515
509.994	6023
510.066	7389
510.138	6329
510.210	14403
510.283	10327
510.355	8599
510.427	8073
510.499	7405
510.571	6945
510.643	6439
510.715	9354
510.787	6446
510.859	8436
510.931	7375
511.003	8181
511.076	9767
511.148	6195
511.219	7128
511.291	11307
511.363	12228
511.435	8040
511.507	6309
511.579	7057
511.651	7279
511.723	6038
511.795	6136
511.867	5642
511.939	7186
512.010	12288
512.082	10998
512.154	5290
512.226	6726
512.298	8583
512.369	11693
512.441	11027
512.513	9191
512.585	6125
512.656	8357
512.728	7704
512.800	6575
512.871	7486
512.943	7241
513.015	4358
513.086	7180
513.158	6553
513.230	6085
513.301	7263
513.373	9107
513.444	7015
513.516	5632
513.588	6508
513.659	6334
513.731	7142
513.802	6114
513.874	10127
513.945	12741
514.016	7457
514.088	6318
514.159	3880
514.231	8004
514.302	10497
514.374	9852
514.445	7809
514.516	15811
514.588	10719
514.659	8142
514.730	11760
514.802	10903
514.873	5647
514.944	9108
515.016	7474
515.087	7173
515.158	10097
515.229	14235
515.301	6496
515.372	9848
515.443	7067
515.514	7399
515.585	5421
515.656	7247
515.728	7929
515.799	6619
515.870	7273
515.941	7872
516.012	6615
516.083	11372
516.154	10399
516.225	11783
516.296	13167
516.367	11644
516.438	13209
516.509	16954
516.580	27275
516.651	94088
516.722	306693
516.793	138683
516.864	27163
516.935	23533
517.006	27174
517.077	35919
517.148	86147
517.219	379596
517.289	583480
517.360	134828
517.431	39662
517.502	16369
517.573	14340
517.643	13777
517.714	14453
517.785	16156
517.856	16447
517.926	22743
517.997	24092
518.068	28507
518.138	38749
518.209	64805
518.280	256667
518.350	841102
518.421	346573
518.492	48256
518.562	29651
518.633	28194
518.703	33050
518.774	66142
518.845	158411
518.915	157235
518.986	49650
519.056	24857
519.127	23238
519.197	28673
519.268	64360
519.338	48566
519.408	13822
519.479	12824
519.549	9546
519.620	10884
519.690	7648
519.760	8001
519.831	7812
519.901	8495
519.971	7742
520.042	8581
520.112	7483
520.182	9305
520.253	9116
520.323	7297
520.393	9007
520.463	14239
520.534	8164
520.604	18376
520.674	11423
520.744	10359
520.814	16781
520.885	17518
520.955	23723
521.025	77824
521.095	34096
521.165	9218
521.235	7142
521.305	6645
521.375	6904
521.445	7667
521.515	6955
521.585	9341
521.655	6364
521.725	8191
521.795	8379
521.865	5334
521.935	10926
522.005	7699
522.075	5733
522.145	8455
522.215	6966
522.285	10613
522.355	12077
522.424	21081
522.494	17588
522.564	9883
522.634	11576
522.704	27183
522.774	13536
522.843	7553
522.913	6584
522.983	7127
523.053	6002
523.122	6853
523.192	7529
523.262	14250
523.331	14612
523.401	8426
523.471	5387
523.540	6788
523.610	5147
523.680	6513
523.749	6105
523.819	8128
523.888	6666
523.958	5681
524.027	5923
524.097	7348
524.166	5835
524.236	5681
524.305	7515
524.375	5071
524.444	4895
524.514	8731
524.583	6467
524.653	7065
524.722	8158
524.791	5274
524.861	7217
524.930	4839
524.999	5435
525.069	8952
525.138	6547
525.207	8622
525.277	7357
525.346	7227
525.415	8603
525.484	8932
525.554	8431
525.623	10716
525.692	11276
525.761	13624
525.830	15871
525.900	18694
525.969	28586
526.038	53536
526.107	115030
526.176	337992
526.245	283321
526.314	80707
526.383	163936
526.452	238669
526.522	354789
526.591	351837
526.660	60544
526.729	32915
526.797	34345
526.867	57216
526.935	202279
527.004	606003
527.073	393614
527.142	45995
527.211	19234
527.280	13795
527.349	11227
527.418	7238
527.487	8742
527.555	6199
527.624	5814
527.693	5270
527.762	6841
527.831	5621
527.899	6272
527.968	6412
528.037	4978
528.106	6413
528.174	7511
528.243	7936
528.312	8900
528.380	11874
528.449	5786
528.518	7038
528.586	3182
528.655	6932
528.723	5159
528.792	5621
528.861	4572
528.929	5626
528.998	7839
529.066	9674
529.135	17632
529.203	15828
529.272	20418
529.340	28015
529.409	25720
529.477	21429
529.545	22387
529.614	26121
529.682	28427
529.751	32876
529.819	35143
529.887	39289
529.956	34488
530.024	33500
530.092	30654
530.161	30046
530.229	30631
530.297	33941
530.365	33860
530.434	36011
530.502	35912
530.570	32074
530.638	28156
530.707	27203
530.775	25998
530.843	26139
530.911	30770
530.979	30307
531.047	33550
531.115	33835
531.183	29158
531.252	27779
531.320	25862
531.388	26696
531.456	30578
531.524	31137
531.592	33799
531.660	40974
531.728	33737
531.796	32905
531.864	32484
531.932	33072
532.000	32883
532.067	36092
532.135	37885
532.203	40109
532.271	41866
532.339	43347
532.407	47391
532.475	42843
532.542	38133
532.610	37461
532.678	39575
532.746	57123
532.814	89163
532.881	52668
532.949	39467
533.017	37241
533.084	36321
533.152	34918
533.220	33994
533.287	34548
533.355	37404
533.423	37713
533.490	37966
533.558	36624
533.625	34933
533.693	32074
533.761	32588
533.828	32134
533.896	31280
533.963	40575
534.031	41000
534.098	43958
534.166	38650
534.233	33798
534.300	34640
534.368	32639
534.435	30668
534.503	31714
534.570	33375
534.637	33373
534.705	36047
534.772	38923
534.840	52768
534.907	168585
534.974	217448
535.041	43062
535.109	29224
535.176	25194
535.243	26464
535.310	26469
535.378	24160
535.445	25117
535.512	23218
535.579	22474
535.646	21023
535.714	21886
535.781	22450
535.848	23505
535.915	25558
535.982	26920
536.049	27116
536.116	24987
536.183	21531
536.250	21374
536.317	19879
536.384	20464
536.451	20819
536.518	21498
536.585	18809
536.652	22016
536.719	21256
536.786	16849
536.853	17670
536.920	20151
536.987	21183
537.053	19448
537.120	39562
537.187	38200
537.254	17854
537.321	16906
537.388	17928
537.454	15190
537.521	15491
537.588	14921
537.654	14949
537.721	16416
537.788	15790
537.855	14795
537.921	15353
537.988	15665
538.055	15263
538.121	13407
538.188	14214
538.254	14766
538.321	16918
538.388	15795
538.454	13064
538.521	14488
538.587	13797
538.654	14063
538.720	12476
538.787	13218
538.853	13842
538.920	13904
538.986	12887
539.053	12923
539.119	12159
539.185	11965
539.252	13559
539.318	14972
539.385	15007
539.451	13445
539.517	12936
539.583	13888
539.650	16907
539.716	28589
539.782	15139
539.849	10897
539.915	11956
539.981	11636
540.047	11804
540.114	12061
540.180	13252
540.246	10665
540.312	12205
540.378	14446
540.444	16139
540.510	17253
540.576	29825
540.643	16056
540.709	9820
540.775	11441
540.841	11156
540.907	13142
540.973	16238
541.039	13599
541.105	11878
541.171	10977
541.237	10455
541.303	11184
541.369	13613
541.435	12549
541.500	13845
541.566	11383
541.632	9382
541.698	9817
541.764	10702
541.830	9694
541.896	7958
541.961	10758
542.027	8719
542.093	10221
542.159	10531
542.224	9906
542.290	12806
542.356	13706
542.421	13743
542.487	11553
542.553	11102
542.618	10645
542.684	9558
542.750	9162
542.815	10862
542.881	12664
542.947	26233
543.012	22488
543.078	9563
543.143	9030
543.209	10199
543.274	8782
543.340	9011
543.405	14536
543.471	17547
543.536	9525
543.602	9599
543.667	8595
543.732	11465
543.798	9435
543.863	10281
543.928	9351
543.994	8770
544.059	9946
544.124	9903
544.190	10092
544.255	10131
544.320	10606
544.386	9045
544.451	11442
544.516	10387
544.581	11607
544.646	19337
544.712	27617
544.777	12541
544.842	11543
544.907	11397
544.972	11198
545.037	11001
545.102	11346
545.168	11712
545.233	12642
545.298	13288
545.363	12880
545.428	14365
545.493	17257
545.558	23352
545.623	16042
545.688	12555
545.753	13143
545.818	12769
545.883	14693
545.947	13301
546.012	15642
546.077	13981
546.142	15588
546.207	14090
546.272	16304
546.337	16260
546.401	17317
546.466	16610
546.531	15871
546.596	18944
546.661	19301
546.725	19686
546.790	18690
546.855	20561
546.919	23177
546.984	25362
547.049	26647
547.113	31042
547.178	32949
547.243	36249
547.307	41432
547.372	47772
547.436	48403
547.501	47292
547.565	52161
547.630	46712
547.695	46679
547.759	47256
547.823	47691
547.888	46022
547.952	48495
548.017	50191
548.081	52721
548.146	52783
548.210	54942
548.274	55482
548.339	55095
548.403	49250
548.468	46362
548.532	46015
548.596	47399
548.660	46978
548.725	52334
548.789	57423
548.853	57566
548.917	52448
548.982	54953
549.046	49945
549.110	42911
549.174	42609
549.238	50901
549.303	54247
549.367	57315
549.431	54838
549.495	51155
549.559	50398
549.623	58415
549.687	66129
549.751	64754
549.815	74482
549.879	76716
549.943	72790
550.007	76707
550.071	75404
550.135	69913
550.199	64466
550.263	64834
550.327	61854
550.391	65312
550.455	68193
550.519	72737
550.582	77504
550.646	88122
550.710	89296
550.774	86328
550.838	87645
550.901	91500
550.965	95785
551.029	102285
551.093	111794
551.156	124038
551.220	149525
551.284	165537
551.347	121608
551.411	115759
551.475	112542
551.538	96973
551.602	89681
551.666	83864
551.729	77865
551.793	77490
551.856	75881
551.920	75427
551.983	75168
552.047	73627
552.110	73377
552.174	74794
552.237	77005
552.301	72582
552.364	68441
552.428	66256
552.491	68958
552.554	71469
552.618	71158
552.681	73079
552.745	71608
552.808	85258
552.871	98759
552.934	83253
552.998	72920
553.061	71326
553.124	67784
553.187	68163
553.251	69975
553.314	70480
553.377	72586
553.440	84120
553.503	119000
553.567	155644
553.630	84224
553.693	73733
553.756	74613
553.819	73245
553.882	69676
553.945	70552
554.008	69690
554.071	69867
554.134	72035
554.197	68122
554.260	65676
554.323	67845
554.386	67610
554.449	70073
554.512	71017
554.575	67317
554.638	67867
554.701	67524
554.764	65035
554.827	64317
554.889	61014
554.952	58828
555.015	56878
555.078	57741
555.141	59327
555.203	57005
555.266	56647
555.329	58471
555.391	54711
555.454	54359
555.517	52323
555.580	50494
555.642	49263
555.705	48238
555.768	48830
555.830	48249
555.893	44656
555.955	44261
556.018	42752
556.080	43211
556.143	43580
556.206	43710
556.268	42866
556.330	42781
556.393	40949
556.455	40719
556.518	40647
556.580	42183
556.643	37376
556.705	35906
556.767	34812
556.830	35794
556.892	34732
556.955	35755
557.017	33322
557.079	33269
557.142	31844
557.204	32818
557.266	35178
557.328	33533
557.391	28663
557.453	28087
557.515	27865
557.577	29848
557.639	31111
557.701	30265
557.764	30375
557.826	31145
557.888	32958
557.950	34192
558.012	37963
558.074	51549
558.136	112965
558.198	272542
558.260	104652
558.322	38835
558.384	38468
558.446	40185
558.508	44605
558.570	50082
558.632	62091
558.694	83943
558.756	139243
558.818	399689
558.880	878412
558.942	338269
559.003	287040
559.065	146484
559.127	53523
559.189	50258
559.251	59655
559.312	87315
559.374	208120
559.436	631435
559.498	328933
559.559	63549
559.621	50633
559.683	61296
559.744	103868
559.806	324303
559.868	482858
559.929	104134
559.991	57816
560.052	93312
560.114	259573
560.176	175970
560.237	148581
560.299	243740
560.360	57949
560.422	23380
560.483	18774
560.545	18956
560.606	18461
560.667	17120
560.729	15866
560.790	15248
560.852	14770
560.913	15141
560.974	14452
561.036	14633
561.097	13953
561.158	14720
561.220	14000
561.281	13492
561.342	13325
561.403	14498
561.465	14165
561.526	20018
561.587	22235
561.648	13789
561.709	12709
561.771	13221
561.832	12404
561.893	11739
561.954	12319
562.015	11784
562.076	10842
562.137	11861
562.198	12504
562.259	12573
562.320	11774
562.381	12879
562.442	13806
562.503	12856
562.564	12131
562.625	12277
562.686	11501
562.747	11730
562.808	11341
562.869	11137
562.930	12929
562.991	12434
563.051	11567
563.112	11890
563.173	11675
563.234	10810
563.294	11118
563.355	10194
563.416	10697
563.477	10702
563.537	10744
563.598	12075
563.659	10927
563.720	10657
563.780	11175
563.841	11516
563.901	10790
563.962	11701
564.023	10269
564.083	11339
564.144	10698
564.204	10872
564.265	10819
564.325	12107
564.386	16624
564.446	16059
564.507	10967
564.567	10707
564.628	10804
564.688	10569
564.749	9299
564.809	11756
564.869	11782
564.930	11204
564.990	9877
565.050	10269
565.111	9338
565.171	9589
565.231	9611
565.292	11124
565.352	10235
565.412	10565
565.472	9861
565.532	11249
565.593	10200
565.653	9927
565.713	9838
565.773	10290
565.833	11444
565.893	12903
565.953	10315
566.013	9732
566.074	10288
566.134	12658
566.194	15271
566.254	15581
566.314	11787
566.374	9635
566.434	10506
566.494	10752
566.554	10126
566.614	11714
566.673	11924
566.733	11814
566.793	11369
566.853	11756
566.913	11651
566.973	11894
567.033	11823
567.092	12316
567.152	11889
567.212	11919
567.272	11243
567.331	12694
567.391	11469
567.451	13183
567.511	14863
567.570	15649
567.630	11097
567.690	11788
567.749	10341
567.809	12291
567.868	12581
567.928	12848
567.988	13018
568.047	13564
568.107	14861
568.166	16256
568.226	19011
568.285	22561
568.345	22313
568.404	21419
568.464	17863
568.523	18506
568.582	18513
568.642	19097
568.701	20834
568.761	25320
568.820	30641
568.879	33486
568.939	31642
568.998	25241
569.057	21358
569.116	17824
569.176	16703
569.235	15223
569.294	13333
569.353	13379
569.413	12447
569.472	12538
569.531	12053
569.590	12190
569.649	10897
569.708	10638
569.767	11108
569.827	12277
569.886	11404
569.945	10612
570.004	10294
570.063	10649
570.122	10920
570.181	11014
570.240	11200
570.299	12040
570.358	10926
570.417	11376
570.475	10490
570.534	10895
570.593	11075
570.652	11138
570.711	10802
570.770	10851
570.829	11116
570.887	9857
570.946	10509
571.005	10597
571.064	10038
571.122	12038
571.181	12084
571.240	11608
571.299	11033
571.357	10247
571.416	9900
571.475	11616
571.533	11769
571.592	11652
571.650	10426
571.709	10668
571.768	11194
571.826	11967
571.885	11625
571.943	11000
572.002	10029
572.060	10884
572.119	9912
572.177	9335
572.236	9890
572.294	11187
572.352	10215
572.411	10511
572.469	9963
572.528	9412
572.586	9875
572.644	10355
572.703	11186
572.761	10315
572.819	9266
572.877	9816
572.936	9114
572.994	9983
573.052	9808
573.110	8689
573.169	9325
573.227	9220
573.285	9104
573.343	9533
573.401	9374
573.459	10092
573.517	9744
573.576	9897
573.634	9598
573.692	10189
573.750	10004
573.808	8809
573.866	9804
573.924	12336
573.982	9990
574.040	9172
574.098	9301
574.155	8710
574.213	7787
574.271	9437
574.329	9238
574.387	8821
574.445	9142
574.503	8952
574.560	7247
574.618	7396
574.676	8454
574.734	9006
574.792	8705
574.849	8413
574.907	8078
574.965	8553
575.022	6999
575.080	8087
575.138	7581
575.195	8572
575.253	7545
575.311	6700
575.368	8157
575.426	8230
575.483	8073
575.541	7770
575.598	8068
575.656	8498
575.713	8097
575.771	8370
575.828	7500
575.886	8772
575.943	7970
576.001	9055
576.058	7459
576.115	8101
576.173	8826
576.230	9476
576.287	9216
576.345	8533
576.402	8324
576.459	9451
576.517	7426
576.574	9303
576.631	9341
576.688	8791
576.746	7959
576.803	7883
576.860	7504
576.917	8249
576.974	7519
577.031	8576
577.089	7514
577.146	7649
577.203	7708
577.260	9283
577.317	8415
577.374	9669
577.431	8445
577.488	9139
577.545	7979
577.602	8901
577.659	8738
577.716	10063
577.773	10337
577.830	9137
577.886	8470
577.943	8823
578.000	9730
578.057	11042
578.114	10031
578.171	13644
578.227	18022
578.284	18548
578.341	14767
578.398	12610
578.454	11826
578.511	10893
578.568	10676
578.625	9795
578.681	8690
578.738	8878
578.794	8140
578.851	9216
578.908	8917
578.964	9540
579.021	9752
579.077	9669
579.134	8485
579.190	9606
579.247	8987
579.303	8174
579.360	8744
579.416	9114
579.473	9030
579.529	9533
579.586	8657
579.642	10168
579.698	10448
579.755	10968
579.811	10930
579.867	11417
579.924	11867
579.980	14876
580.036	16099
580.093	21328
580.149	29261
580.205	33114
580.261	26314
580.317	21768
580.374	17959
580.430	16582
580.486	15118
580.542	13937
580.598	13876
580.619	13875
580.654	13866
580.692	12890
580.710	12394
580.765	13598
580.767	13629
580.823	13517
580.838	13525
580.879	13505
580.911	13442
580.935	13388
580.984	14263
580.991	14376
581.047	15626
581.057	15629
581.103	15701
581.130	16149
581.159	16523
581.203	18510
581.215	19009
581.270	18471
581.276	18459
581.326	18242
581.349	17946
581.382	17440
581.422	17384
581.438	17347
581.494	16693
581.494	16707
581.550	16856
581.567	16861
581.606	16830
581.640	17653
581.661	18154
581.713	17728
581.717	17679
581.773	17930
581.786	18027
581.829	18245
581.859	18659
581.885	18997
581.932	18862
581.940	18849
581.996	19509
582.004	19557
582.052	19493
582.077	20243
582.107	21191
582.150	20779
582.163	20613
582.219	21553
582.223	21616
582.274	22362
582.296	22720
582.330	23163
582.368	23558
582.386	23800
582.441	23741
582.441	23726
582.497	25125
582.514	25230
582.552	25738
582.587	26696
582.608	27028
582.659	27462
582.663	27489
582.719	27976
582.732	28282
582.774	29677
582.805	30683
582.830	31567
582.877	33297
582.885	33700
582.941	37390
582.950	38458
582.996	44415
583.023	47202
583.052	49955
583.095	52361
583.107	52597
583.162	52880
583.168	52971
583.218	53114
583.240	51819
583.273	49173
583.313	45154
583.328	43693
583.384	41100
583.385	40996
583.439	38400
583.458	37614
583.494	36579
583.531	36014
583.549	35685
583.603	34551
583.605	34524
583.660	34390
583.676	34215
583.715	34278
583.748	34950
583.770	35328
583.820	34232
583.825	34160
583.881	35770
583.893	35410
583.936	34134
583.965	34900
583.991	35743
584.038	36712
584.046	36871
584.101	36023
584.110	36122
584.156	37298
584.183	38039
584.211	38346
584.255	37641
584.266	37854
584.321	41685
584.328	41888
584.376	42576
584.400	42349
584.431	42189
584.472	42336
584.486	42739
584.541	45602
584.545	45658
584.596	46159
584.617	46266
584.651	47019
584.689	48677
584.706	49457
584.761	50401
584.762	50352
584.816	50899
584.834	51177
584.871	51698
584.906	51719
584.926	52052
584.978	53126
584.980	53240
585.035	54361
585.051	54850
585.090	56126
585.123	56875
585.145	57669
585.195	59504
585.200	59922
585.254	63796
585.267	64866
585.309	69540
585.340	72957
585.364	75855
585.412	81667
585.419	82892
585.473	93595
585.484	96368
585.528	119169
585.556	137907
585.583	184140
585.628	278623
585.637	319377
585.692	613150
585.700	662094
585.747	821373
585.772	787424
585.801	552689
585.845	242123
585.856	210341
585.910	120328
585.917	110343
585.965	94214
585.989	87555
586.019	84379
586.061	79833
586.074	79149
586.128	74650
586.133	74235
586.183	72226
586.205	70961
586.237	69025
586.277	66477
586.292	66027
586.346	63171
586.349	62949
586.401	63234
586.421	63031
586.455	62603
586.493	62035
586.509	63682
586.564	68775
586.565	68805
586.618	81402
586.637	83704
586.672	77648
586.709	70557
586.727	69825
586.781	70329
586.781	70488
586.835	64649
586.853	62899
586.889	60235
586.925	57643
586.944	57534
586.996	57066
586.998	57210
587.052	57798
587.068	57584
587.106	58061
587.140	57964
587.161	58081
587.212	58130
587.215	58354
587.269	60264
587.284	60455
587.323	60981
587.356	61292
587.377	62064
587.427	63355
587.431	63655
587.485	65426
587.499	65729
587.539	67985
587.571	69255
587.593	70462
587.643	73324
587.648	73856
587.702	76337
587.715	76790
587.755	78794
587.786	80425
587.810	82381
587.858	85053
587.864	85844
587.917	91716
587.930	92796
587.971	97563
588.001	100619
588.025	104166
588.073	110304
588.079	111655
588.133	121235
588.145	123006
588.187	132931
588.217	139472
588.241	147042
588.288	160989
588.295	163980
588.348	185522
588.360	189657
588.402	210536
588.431	224515
588.456	241964
588.503	274023
588.510	281233
588.564	335443
588.575	345925
588.617	410670
588.646	455734
588.671	523670
588.718	654080
588.725	692071
588.778	983545
588.789	1043350
588.832	1431622
588.861	1700345
588.886	1860604
588.932	2143065
588.939	2141522
588.993	1993909
589.004	1957518
589.047	1930134
589.075	1871614
589.100	1600350
589.147	1095254
589.154	1061079
589.207	787109
589.218	730067
589.261	672108
589.290	633345
589.314	663445
589.361	722086
589.368	756915
589.421	1036168
589.433	1094856
589.475	1503810
589.504	1794634
589.528	1895110
589.576	2029538
589.582	2017116
589.635	1796574
589.647	1735672
589.689	1236185
589.718	888235
589.742	750943
589.790	481599
589.795	471092
589.849	361045
589.861	334821
589.902	295047
589.932	263746
589.955	245591
590.004	204260
590.009	202798
590.062	179983
590.075	173677
590.115	161856
590.146	151874
590.168	148437
590.218	138789
590.222	138772
590.275	131765
590.289	129426
590.328	125772
590.360	121969
590.381	120489
590.431	115174
590.435	115378
590.488	111427
590.503	109831
590.541	108431
590.574	106649
590.594	106404
590.645	103980
590.647	104326
590.700	102658
590.716	101688
590.753	101266
590.787	100332
590.806	100812
590.859	100425
590.859	100800
590.912	98887
590.930	97842
590.965	98176
591.001	97908
591.018	97641
591.071	95264
591.072	94853
591.124	94831
591.143	94283
591.177	94703
591.214	94478
591.230	94991
591.283	95284
591.285	94900
591.336	95615
591.356	95432
591.389	94615
591.427	92668
591.442	92962
591.495	92760
591.498	92347
591.547	91979
591.569	91353
591.600	91866
591.640	91472
591.653	92214
591.706	94018
591.711	93797
591.759	96160
591.782	96813
591.811	99644
591.853	102710
591.864	102294
591.917	97967
591.924	96928
591.969	97900
591.995	97845
592.022	97837
592.066	96648
592.075	97900
592.127	103147
592.137	103689
592.180	107545
592.208	109293
592.233	107622
592.279	103095
592.285	103605
592.338	104248
592.350	103966
592.390	103711
592.421	102716
592.443	103549
592.491	103986
592.495	104562
592.548	106325
592.562	106359
592.600	106131
592.633	105084
592.653	105779
592.704	105827
592.705	106492
592.775	109121
592.846	109631
592.916	110492
592.987	111984
593.058	113128
593.128	112386
593.199	111825
593.270	113169
593.341	112356
593.411	116639
593.482	121113
593.553	121703
593.623	121931
593.694	126684
593.764	128726
593.835	126059
593.906	127385
593.976	129053
594.047	132733
594.117	142989
594.188	145251
594.258	137359
594.329	139370
594.399	141470
594.470	144239
594.540	148254
594.611	148869
594.681	151133
594.751	150911
594.822	156436
594.892	163340
594.963	167885
595.033	170236
595.103	173910
595.174	180070
595.244	193482
595.314	207183
595.384	188665
595.455	191567
595.525	198046
595.595	205768
595.665	206089
595.736	202262
595.806	205679
595.876	209855
595.946	212912
596.016	218910
596.087	226875
596.157	226933
596.227	229083
596.297	241597
596.367	253312
596.437	266085
596.507	275803
596.577	287902
596.647	276503
596.717	286891
596.787	290395
596.857	292701
596.927	296488
596.997	299811
597.067	308582
597.137	318023
597.207	317217
597.277	321540
597.347	311722
597.417	307346
597.487	309123
597.557	317721
597.626	327421
597.696	332193
597.766	341848
597.836	340850
597.906	317776
597.975	314708
598.045	319741
598.115	331014
598.185	351523
598.254	380016
598.324	405788
598.394	412170
598.464	411008
598.533	408102
598.603	396694
598.672	390921
598.742	402531
598.812	408112
598.881	420948
598.951	422417
599.020	432622
599.090	444127
599.159	455962
599.229	450218
599.299	450586
599.368	468071
599.437	467790
599.507	458400
599.576	454600
599.646	461238
599.715	469150
599.785	468747
599.854	469205
599.924	476559
599.993	481905
600.062	492774
600.132	506333
600.201	526543
600.270	569610
600.340	590668
600.409	592114
600.478	602430
600.547	618965
600.617	602563
600.686	565738
600.755	560736
600.824	559794
600.894	570423
600.963	583675
601.032	591180
601.101	601238
601.170	603132
601.239	612641
601.308	623851
601.378	642768
601.447	655545
601.516	671481
601.585	685753
601.654	704883
601.723	720122
601.792	743519
601.861	772733
601.930	810288
601.999	836026
602.068	821374
602.137	828311
602.206	833147
602.275	841479
602.343	846804
602.412	851649
602.481	861694
602.550	858866
602.619	879336
602.688	870451
602.756	888926
602.825	876845
602.894	901959
602.963	888140
603.032	910131
603.100	906357
603.169	882341
603.238	926947
603.307	873709
603.375	881878
603.444	924643
603.513	845533
603.581	886568
603.650	931007
603.719	764602
603.787	733919
603.856	746966
603.924	757014
603.993	777000
604.061	795826
604.130	815100
604.198	833701
604.267	841383
604.335	857981
604.404	854221
604.472	889900
604.541	882489
604.609	922810
604.678	948680
604.746	971948
604.815	1013719
604.883	958239
604.951	934713
605.020	958776
605.088	866519
605.156	815966
605.225	817216
605.293	807297
605.361	823030
605.429	801876
605.498	828758
605.566	806134
605.634	845559
605.702	831221
605.771	841826
605.839	862525
605.907	789345
605.975	844739
606.043	785263
606.111	758887
606.180	851879
606.248	745279
606.316	742900
606.384	813361
606.452	585046
606.520	463827
606.588	469707
606.656	470329
606.724	461525
606.792	436234
606.860	399597
606.928	372600
606.996	360720
607.064	356548
607.132	366386
607.200	385769
607.267	399083
607.335	406526
607.403	415067
607.471	404375
607.539	391727
607.607	388710
607.674	353881
607.742	356804
607.810	348476
607.878	349652
607.946	353832
608.013	365549
608.081	372955
608.149	371697
608.216	378401
608.284	387963
608.352	383875
608.419	381029
608.487	378143
608.555	359267
608.622	364979
608.690	378529
608.757	406316
608.825	411042
608.893	400895
608.960	379660
609.028	368054
609.095	374747
609.163	363275
609.230	324259
609.298	298615
609.365	315929
609.432	340017
609.500	367897
609.567	422210
609.635	479635
609.702	503049
609.769	480730
609.837	384627
609.904	343202
609.971	363895
610.039	419574
610.106	568771
610.173	1066116
610.241	2261888
610.308	1894359
610.375	911455
610.442	486904
610.509	389379
610.577	366198
610.644	361312
610.711	365147
610.778	366609
610.845	381984
610.912	403293
610.980	424044
611.047	441416
611.114	414314
611.181	392577
611.248	392470
611.315	410275
611.382	423701
611.449	435690
611.516	441335
611.583	437442
611.650	440851
611.717	449691
611.784	458008
611.851	482460
611.918	510616
611.984	601711
612.051	829575
612.118	1515319
612.185	3038420
612.252	2248866
612.319	855448
612.386	633365
612.452	557059
612.519	518053
612.586	510415
612.653	509056
612.719	520730
612.786	494494
612.853	461236
612.919	451409
612.986	458420
613.053	431668
613.120	402861
613.186	392211
613.253	396250
613.319	392190
613.386	394493
613.453	403970
613.519	406317
613.586	401366
613.652	414385
613.719	404254
613.785	407855
613.852	409796
613.918	408935
613.985	413578
614.051	442544
614.118	480594
614.184	456769
614.250	408714
614.317	415590
614.383	406590
614.449	413988
614.516	412667
614.582	414824
614.648	405878
614.715	403728
614.781	394530
614.847	396088
614.914	396949
614.980	385479
615.046	385934
615.112	396631
615.179	397816
615.245	405749
615.311	404406
615.377	417901
615.443	429768
615.509	425082
615.575	434596
615.642	429161
615.708	444357
615.774	467940
615.840	499290
615.906	539606
615.972	656160
616.038	968400
616.104	1804331
616.170	3333701
616.236	2996083
616.302	1250478
616.368	873958
616.434	643473
616.500	562925
616.565	600952
616.631	741968
616.697	650015
616.763	639632
616.829	910953
616.895	1553892
616.961	1581022
617.026	803914
617.092	522425
617.158	462094
617.224	437018
617.289	402448
617.355	381903
617.421	377703
617.487	372628
617.552	354412
617.618	351623
617.684	351500
617.749	353957
617.815	339996
617.880	329434
617.946	332834
618.012	339444
618.077	346966
618.143	331178
618.208	332919
618.274	359637
618.339	361556
618.405	305388
618.470	306250
618.536	302491
618.601	303507
618.667	283050
618.732	271654
618.798	267041
618.863	268562
618.928	264402
618.994	269786
619.059	269488
619.124	277387
619.190	269683
619.255	265218
619.320	265592
619.386	266868
619.451	266124
619.516	257089
619.581	264992
619.647	272444
619.712	270441
619.777	261263
619.842	264221
619.907	267420
619.972	271231
620.038	269260
620.103	264674
620.168	265112
620.233	269742
620.298	272057
620.363	274928
620.428	281684
620.493	287576
620.558	289762
620.623	294571
620.688	293861
620.753	291303
620.818	299696
620.883	299716
620.948	298536
621.013	295020
621.078	292239
621.143	298164
621.207	300188
621.272	295965
621.337	291098
621.402	289970
621.467	296130
621.532	297570
621.596	293882
621.661	282628
621.726	278278
621.791	284210
621.855	284521
621.920	283625
621.985	288775
622.049	297855
622.114	298150
622.179	301317
622.243	305538
622.308	310023
622.373	322920
622.437	315294
622.502	301244
622.566	298290
622.631	298661
622.695	305488
622.760	300847
622.824	303266
622.889	304224
622.953	304448
623.018	326723
623.082	327742
623.147	319627
623.211	312336
623.276	313466
623.340	295075
623.404	291614
623.469	293358
623.533	297812
623.597	291324
623.662	284138
623.726	266979
623.790	257234
623.854	256028
623.919	262634
623.983	257722
624.047	258330
624.111	261876
624.176	269302
624.240	273685
624.304	278473
624.368	265845
624.432	262016
624.496	269656
624.560	283944
624.625	286659
624.689	281909
624.753	291952
624.817	274563
624.881	269722
624.945	249686
625.009	246390
625.073	244557
625.137	253439
625.201	264247
625.265	262186
625.329	253408
625.393	257340
625.456	248551
625.520	257058
625.584	263707
625.648	279093
625.712	301998
625.776	366731
625.839	359762
625.903	244631
625.967	217744
626.031	251929
626.095	307100
626.158	242028
626.222	196981
626.286	182677
626.349	180225
626.413	171285
626.477	166624
626.540	166791
626.604	167548
626.668	165513
626.731	165046
626.795	167201
626.858	161058
626.922	155342
626.986	155054
627.049	155644
627.113	163487
627.176	161378
627.240	152822
627.303	151321
627.366	147436
627.430	151949
627.493	150836
627.557	154236
627.620	156117
627.684	151857
627.747	153008
627.810	141068
627.874	130954
627.937	129430
628.000	136808
628.064	130095
628.127	112688
628.190	113103
628.253	112024
628.317	106654
628.380	105456
628.443	102778
628.506	104154
628.569	95464
628.632	91541
628.696	93246
628.759	92223
628.822	87595
628.885	86946
628.948	84992
629.011	83273
629.074	83181
629.137	80943
629.200	81159
629.263	80848
629.326	77624
629.389	77495
629.452	78367
629.515	77759
629.578	78275
629.641	79404
629.704	78412
629.767	76836
629.830	74090
629.892	73193
629.955	71990
630.018	75936
630.081	74596
630.144	78430
630.207	72412
630.269	75619
630.332	74669
630.395	72481
630.458	69067
630.520	67064
630.583	68866
630.646	69216
630.708	68579
630.771	69831
630.834	72707
630.896	70944
630.959	71020
631.021	70566
631.084	71893
631.146	72106
631.209	76456
631.272	71546
631.334	72936
631.397	74031
631.459	73457
631.522	75939
631.584	79634
631.646	83076
631.709	85949
631.771	90430
631.834	84722
631.896	79866
631.958	74587
632.021	74268
632.083	71727
632.145	71028
632.208	68959
632.270	69452
632.332	67017
632.395	67616
632.457	70455
632.519	67017
632.581	68126
632.643	65226
632.706	65562
632.768	65708
632.830	66371
632.892	66292
632.954	68513
633.016	68692
633.078	66698
633.141	68503
633.203	67124
633.265	68296
633.327	65267
633.389	68291
633.451	70009
633.513	70652
633.575	72383
633.637	71368
633.698	70677
633.760	73630
633.822	75467
633.884	76653
633.946	77350
634.008	80198
634.070	84701
634.132	94343
634.193	95147
634.255	98569
634.317	99811
634.379	98172
634.441	90706
634.502	84223
634.564	78734
634.626	71691
634.687	69444
634.749	67866
634.811	67181
634.873	65426
634.934	66886
634.996	67230
635.057	65441
635.119	67574
635.181	68689
635.242	70687
635.304	66516
635.365	71598
635.427	68568
635.488	68186
635.550	68099
635.611	71063
635.673	69668
635.734	76308
635.796	78505
635.857	85307
635.918	87522
635.980	96796
636.041	100265
636.102	105891
636.164	107234
636.225	102535
636.286	91018
636.348	86014
636.409	76411
636.470	72459
636.531	70457
636.593	69993
636.654	66524
636.715	63274
636.776	62415
636.838	60577
636.899	60761
636.960	59740
637.021	60040
637.082	58212
637.143	57968
637.204	55360
637.265	55928
637.326	55430
637.387	58846
637.448	56494
637.509	56888
637.570	55739
637.631	56465
637.692	53863
637.753	52822
637.814	54178
637.875	53221
637.936	53285
637.997	52637
638.058	53910
638.119	54758
638.179	54106
638.240	53031
638.301	53318
638.362	52707
638.423	51760
638.483	53452
638.544	49021
638.605	51214
638.666	50079
638.726	51858
638.787	50507
638.848	50270
638.908	49286
638.969	48325
639.030	47816
639.090	47045
639.151	48456
639.211	49354
639.272	51512
639.332	58161
639.393	53626
639.453	53177
639.514	54426
639.574	49157
639.635	44773
639.695	46937
639.756	45874
639.816	46660
639.877	46991
639.937	53106
639.997	55518
640.058	44465
640.118	45854
640.178	46893
640.239	45885
640.299	44966
640.359	46517
640.420	48511
640.480	53012
640.540	57522
640.600	59168
640.661	56537
640.721	53743
640.781	56883
640.841	50332
640.901	47667
640.961	47157
641.021	49755
641.082	52526
641.142	51425
641.202	47107
641.262	42522
641.322	44681
641.382	43174
641.442	44367
641.502	43055
641.562	44511
641.622	44852
641.682	48807
641.742	52322
641.802	49807
641.861	45133
641.921	42918
641.981	43373
642.041	42570
642.101	44099
642.161	40662
642.221	40952
642.280	40767
642.340	40275
642.400	40186
642.460	43878
642.519	43177
642.579	42812
642.639	43625
642.698	40777
642.758	46428
642.818	42664
642.877	42964
642.937	44631
642.997	44823
643.056	48455
643.116	43620
643.175	44744
643.235	45751
643.294	45932
643.354	49010
643.414	52617
643.473	59258
643.532	69166
643.592	90561
643.651	133567
643.711	227627
643.770	439263
643.830	1024113
643.889	1743626
643.948	540012
644.008	143576
644.067	87585
644.126	67477
644.186	57486
644.245	52305
644.304	46194
644.363	47915
644.423	44158
644.482	44473
644.541	47637
644.600	47096
644.659	58139
644.719	72498
644.778	102691
644.837	174446
644.896	362817
644.955	792367
645.014	255656
645.073	79864
645.132	58445
645.191	52061
645.250	49578
645.309	51341
645.368	54166
645.427	72591
645.486	124553
645.545	201532
645.604	64400
645.663	45967
645.722	45446
645.781	48131
645.840	52973
645.898	62820
645.957	83317
646.016	126073
646.075	219182
646.134	423055
646.192	1072694
646.251	1354076
646.310	287119
646.369	102015
646.427	81137
646.486	60449
646.545	48951
646.603	44182
646.662	41780
646.721	41917
646.779	41451
646.838	43232
646.896	52544
646.955	69510
647.014	110187
647.072	212795
647.131	558407
647.189	243888
647.248	51389
647.306	41192
647.365	36909
647.423	33014
647.481	34916
647.540	31292
647.598	32629
647.657	31365
647.715	32140
647.773	29270
647.832	31085
647.890	28843
647.948	29242
648.007	28746
648.065	27804
648.123	29062
648.181	30250
648.240	34249
648.298	30940
648.356	27445
648.414	28358
648.472	26989
648.531	26359
648.589	27321
648.647	26500
648.705	27873
648.763	27423
648.821	28229
648.879	29474
648.937	32689
648.995	37057
649.053	45535
649.111	65799
649.169	106547
649.227	188937
649.285	401105
649.343	1038212
649.401	469122
649.459	96857
649.516	59279
649.574	49869
649.632	68897
649.690	77496
649.748	64417
649.806	97569
649.863	172895
649.921	412144
649.979	245132
650.037	44215
650.094	29601
650.152	28934
650.210	26154
650.268	25589
650.325	24221
650.383	25577
650.440	21616
650.498	22445
650.556	21534
650.613	20764
650.671	21163
650.728	22695
650.786	24749
650.843	31356
650.901	24180
650.958	20804
651.016	19012
651.073	19329
651.131	18939
651.188	18998
651.246	19791
651.303	18095
651.360	18975
651.418	18511
651.475	18119
651.532	17935
651.590	18853
651.647	17892
651.704	18355
651.762	19223
651.819	17797
651.876	18341
651.933	18132
651.990	18560
652.048	16683
652.105	17938
652.162	17869
652.219	16650
652.276	17464
652.333	18430
652.390	16969
652.448	17917
652.505	18142
652.562	17295
652.619	20195
652.676	28743
652.733	26804
652.790	17189
652.847	14838
652.904	17122
652.961	14966
653.017	16023
653.074	16771
653.131	15941
653.188	15065
653.245	16118
653.302	15316
653.359	15453
653.415	15651
653.472	15876
653.529	16344
653.586	15304
653.642	14817
653.699	17090
653.756	15366
653.813	15497
653.869	16974
653.926	15200
653.983	15677
654.039	15833
654.096	15121
654.152	15987
654.209	12471
654.266	16180
654.322	15057
654.379	16476
654.435	16894
654.492	16100
654.548	19003
654.605	22353
654.661	17887
654.717	15041
654.774	15425
654.830	15139
654.887	14909
654.943	14517
655.000	16752
655.056	16197
655.112	15664
655.168	14943
655.225	16034
655.281	17374
655.337	17599
655.394	23149
655.450	18498
655.506	17816
655.562	23736
655.618	20068
655.675	14182
655.731	14782
655.787	14927
655.843	15010
655.899	13981
655.955	14669
656.011	15426
656.067	14248
656.123	14362
656.179	16209
656.235	15618
656.291	14037
656.347	15749
656.403	14982
656.459	14417
656.515	15273
656.571	15832
656.627	15092
656.683	15246
656.739	14880
656.795	13945
656.850	15281
656.906	15640
656.962	16421
657.018	15403
657.074	18091
657.129	22965
657.185	32131
657.241	64904
657.297	35736
657.352	16685
657.408	14602
657.464	15508
657.519	15004
657.575	13180
657.630	13963
657.686	13866
657.742	13689
657.797	14494
657.853	14142
657.908	14515
657.964	13047
658.019	13879
658.075	14046
658.130	14248
658.186	13015
658.241	14600
658.297	12710
658.352	12504
658.407	13899
658.463	12639
658.518	14246
658.573	13826
658.629	12197
658.684	12070
658.739	13134
658.795	12230
658.850	13396
658.905	13476
658.960	12186
659.016	12323
659.071	13105
659.126	12958
659.181	14084
659.236	17557
659.291	16340
659.346	13711
659.401	16075
659.457	18412
659.512	21495
659.567	15991
659.622	12772
659.677	12631
659.732	11433
659.787	12821
659.842	14479
659.897	15348
659.952	12819
660.007	12053
660.061	13681
660.116	12024
660.171	13373
660.226	12559
660.281	13448
660.336	12322
660.391	13808
660.445	11394
660.500	13101
660.555	12567
660.610	12201
660.664	12904
660.719	12703
660.774	11722
660.828	12041
660.883	12420
660.938	12875
660.992	12031
661.047	12453
661.101	12175
661.156	11115
661.211	11352
661.265	12286
661.320	12151
661.374	12419
661.429	12554
661.483	11861
661.538	11085
661.592	12402
661.647	12018
661.701	14654
661.755	12375
661.810	12490
661.864	11791
661.919	11783
661.973	12847
662.027	12736
662.081	10553
662.136	12208
662.190	11776
662.244	12988
662.299	11344
662.353	12169
662.407	11239
662.461	12814
662.515	12700
662.569	12184
662.624	13032
662.678	12143
662.732	12368
662.786	12615
662.840	11291
662.894	12402
662.948	11557
663.002	10989
663.056	12077
663.110	11751
663.164	11329
663.218	12242
663.272	11670
663.326	11074
663.380	12938
663.434	12166
663.488	12330
663.542	12490
663.595	12273
663.649	11945
663.703	12543
663.757	12250
663.811	10768
663.864	11380
663.918	11288
663.972	11628
664.026	12230
664.079	11993
664.133	11536
664.187	11847
664.240	11423
664.294	11389
664.348	12662
664.401	11620
664.455	11639
664.508	11458
664.562	12572
664.615	12345
664.669	10882
664.722	11281
664.776	11367
664.829	11978
664.883	12057
664.936	11452
664.990	13045
665.043	12826
665.097	12520
665.150	13675
665.203	11606
665.257	11644
665.310	12446
665.363	13034
665.417	13086
665.470	12580
665.523	12081
665.576	12240
665.630	12532
665.683	12033
665.736	13358
665.789	12437
665.842	11164
665.895	12284
665.949	12206
666.002	11629
666.055	13208
666.108	13608
666.161	12007
666.214	14070
666.267	13192
666.320	13739
666.373	12240
666.426	13477
666.479	11533
666.532	12789
666.585	14412
666.638	14645
666.691	13339
666.744	13833
666.796	13782
666.849	13461
666.902	13278
666.955	12494
667.008	12467
667.060	10985
667.113	11241
667.166	12380
667.219	13014
667.271	12963
667.324	13046
667.377	13247
667.430	13442
667.482	15243
667.535	14080
667.587	12596
667.640	13122
667.693	13376
667.745	15285
667.798	14349
667.850	13376
667.903	12702
667.955	12467
668.008	13179
668.060	13247
668.113	14217
668.165	13678
668.218	13222
668.270	12889
668.322	13402
668.375	13021
668.427	13577
668.479	11982
668.532	13394
668.584	13191
668.636	12152
668.689	12685
668.741	12825
668.793	13069
668.845	12627
668.898	13769
668.950	14508
669.002	13378
669.054	13408
669.106	12918
669.158	14108
669.211	13495
669.263	14451
669.315	17161
669.367	17366
669.419	14570
669.471	15775
669.523	16233
669.575	18711
669.627	16422
669.679	15376
669.731	15818
669.783	17423
669.835	17893
669.886	17637
669.938	17841
669.990	18513
670.042	19264
670.094	22166
670.146	23865
670.197	28126
670.249	33316
670.301	39857
670.353	50497
670.404	70388
670.456	97063
670.508	144770
670.560	224797
670.611	359131
670.663	613735
670.715	1018698
670.766	1066229
670.818	653700
670.869	238587
670.921	123402
670.972	81971
671.024	60060
671.075	45398
671.127	37523
671.178	32863
671.230	29884
671.281	28426
671.333	26543
671.384	26208
671.436	28977
671.487	34157
671.538	41769
671.590	57968
671.641	87630
671.692	142827
671.744	240531
671.795	189683
671.846	86474
671.897	46362
671.949	33398
672.000	25903
672.051	22254
672.102	20107
672.153	17412
672.204	16440
672.256	16775
672.307	15667
672.358	13959
672.409	13709
672.460	13221
672.511	14110
672.562	13152
672.613	12252
672.664	12290
672.715	12403
672.766	10788
672.817	11212
672.868	11272
672.919	11043
672.970	11150
673.021	11195
673.071	10490
673.122	11063
673.173	11113
673.224	11539
673.275	11298
673.326	9950
673.376	10513
673.427	10947
673.478	9926
673.528	10396
673.579	11455
673.630	10389
673.680	12134
673.731	10569
673.782	10417
673.832	10631
673.883	10409
673.934	9782
673.984	9630
674.035	10585
674.085	9731
674.136	10907
674.186	11414
674.237	12721
674.287	15685
674.338	11131
674.388	11734
674.438	10739
674.489	11521
674.539	11295
674.589	11109
674.640	10525
674.690	11217
674.740	10765
674.791	11121
674.841	10280
674.891	10637
674.942	9767
674.992	9667
675.042	8673
675.092	8470
675.142	7728
675.193	9072
675.243	8861
675.293	10298
675.343	9854
675.393	10343
675.443	10161
675.493	9484
675.543	8884
675.593	10091
675.643	9325
675.693	9617
675.743	9588
675.793	8933
675.843	9014
675.893	8651
675.943	8787
675.993	8983
676.043	9002
676.093	8936
676.142	8266
676.192	9580
676.242	8525
676.292	8838
676.341	9357
676.391	9555
676.441	8292
676.491	7829
676.540	7657
676.590	8907
676.640	7887
676.689	8803
676.739	7399
676.789	8020
676.838	7867
676.888	7449
676.937	8423
676.987	7276
677.037	7696
677.086	7718
677.136	8375
677.185	7150
677.235	7137
677.284	8225
677.333	7513
677.383	8067
677.432	7251
677.482	7839
677.531	7880
677.580	7393
677.630	6910
677.679	7300
677.728	7372
677.778	8237
677.827	7644
677.876	6940
677.925	8236
677.975	8243
678.024	8051
678.073	8320
678.122	8075
678.171	8990
678.220	8453
678.269	9679
678.319	9769
678.368	10381
678.417	9103
678.466	8593
678.515	8372
678.564	8585
678.613	7095
678.662	7617
678.711	7163
678.760	8447
678.809	8205
678.857	8396
678.906	8108
678.955	8143
679.004	7797
679.053	7522
679.102	7411
679.151	7035
679.199	6684
679.248	7698
679.297	8071
679.346	7453
679.394	6675
679.443	6991
679.492	8368
679.540	7897
679.589	7941
679.638	7573
679.686	7266
679.735	7732
679.784	8308
679.832	9297
679.881	7900
679.929	7328
679.978	7155
680.026	7491
680.075	7497
680.123	6371
680.172	7684
680.220	6267
680.268	7232
680.317	6930
680.365	6440
680.414	6552
680.462	7389
680.510	6569
680.559	6297
680.607	6441
680.655	6094
680.703	6816
680.752	7111
680.800	5978
680.848	6591
680.896	6352
680.945	6442
680.993	6373
681.041	5974
681.089	6508
681.137	7141
681.185	6005
681.233	5695
681.258	6215
681.281	6672
681.329	5940
681.377	6139
681.380	6219
681.425	7026
681.473	7405
681.502	7298
681.521	7153
681.569	7497
681.617	5967
681.624	6147
681.665	7026
681.713	7766
681.745	7336
681.761	7076
681.809	6559
681.857	8415
681.867	8163
681.904	7141
681.952	7411
681.989	7636
682.000	7654
682.048	7732
682.096	7921
682.111	7951
682.143	7918
682.191	7646
682.233	7802
682.239	7785
682.286	7978
682.334	7977
682.354	7952
682.382	7846
682.430	7775
682.476	8322
682.477	8301
682.525	8835
682.572	7794
682.598	7864
682.620	7860
682.667	7814
682.715	8802
682.720	8776
682.763	8176
682.810	8730
682.841	8749
682.857	8705
682.905	7865
682.952	8847
682.963	8847
683.000	8714
683.047	9038
683.085	9076
683.095	9057
683.142	8867
683.190	9102
683.206	9024
683.237	8772
683.284	9577
683.328	8697
683.332	8592
683.379	9084
683.426	9067
683.449	9203
683.473	9333
683.521	8729
683.568	9620
683.571	9596
683.615	8868
683.662	9733
683.693	9540
683.709	9351
683.757	9821
683.804	9918
683.814	9718
683.851	8981
683.898	10112
683.936	9681
683.945	9552
683.992	10081
684.039	9397
684.057	9466
684.086	9552
684.133	10203
684.179	9509
684.180	9460
684.227	10139
684.274	10112
684.300	10122
684.321	10072
684.368	10058
684.415	10444
684.422	10404
684.462	10119
684.509	10058
684.543	10521
684.556	10674
684.603	10782
684.649	10627
684.665	10866
684.696	11282
684.743	11107
684.786	10977
684.790	10942
684.837	11166
684.883	11632
684.908	11873
684.930	12134
684.977	12384
685.023	12067
685.029	12117
685.070	12101
685.117	12102
685.150	12209
685.164	12309
685.210	12195
685.257	13387
685.272	13372
685.303	13014
685.350	12145
685.393	11904
685.396	11893
685.443	12147
685.490	12468
685.514	12609
685.536	12715
685.583	13152
685.629	12574
685.636	12559
685.675	12313
685.722	12781
685.757	12928
685.768	12946
685.815	12926
685.861	12602
685.878	12729
685.908	13075
685.954	12895
686.000	13975
686.000	13983
686.047	13732
686.093	15302
686.121	15129
686.139	14835
686.185	14351
686.232	13403
686.242	13466
686.278	13735
686.324	13934
686.363	13723
686.370	13686
686.416	13444
686.463	14349
686.484	14359
686.509	14394
686.555	13561
686.601	13806
686.606	13858
686.647	14168
686.693	13586
686.727	13752
686.739	13847
686.785	13961
686.831	14260
686.848	14165
686.877	13932
686.923	13998
686.969	14256
686.969	14256
687.015	14548
687.061	14708
687.090	14960
687.107	14927
687.153	14501
687.199	15393
687.211	15019
687.245	14272
687.291	14155
687.332	15208
687.336	15322
687.382	15415
687.428	15102
687.453	15319
687.474	15301
687.520	15619
687.565	15158
687.574	14993
687.611	14796
687.657	15752
687.695	16165
687.702	16242
687.748	16531
687.794	17187
687.816	17395
687.839	17215
687.885	16598
687.931	15920
687.937	15858
687.976	15886
688.022	16132
688.058	16214
688.067	16256
688.113	15957
688.158	15275
688.179	15534
688.204	15859
688.249	16297
688.295	16415
688.300	16486
688.340	17004
688.386	16889
688.421	16338
688.431	16252
688.477	16757
688.522	17307
688.542	17442
688.567	17479
688.613	17520
688.658	17138
688.663	17113
688.703	16983
688.749	17013
688.784	16895
688.794	16898
688.839	16662
688.884	17213
688.905	17209
688.930	17206
688.975	17330
689.020	17591
689.026	17542
689.065	17242
689.110	17151
689.146	17437
689.155	17548
689.201	17350
689.246	17386
689.267	17443
689.291	17608
689.336	17827
689.381	18221
689.388	18225
689.426	18194
689.471	18642
689.509	18508
689.516	18479
689.561	18164
689.606	17916
689.630	18080
689.651	18412
689.696	18102
689.741	18528
689.750	18634
689.785	19073
689.830	19229
689.871	18864
689.875	18834
689.920	18703
689.965	19771
689.992	19479
690.010	19339
690.054	19436
690.099	19366
690.112	19443
690.144	19682
690.189	19531
690.233	19402
690.233	19426
690.278	20190
690.323	20560
690.354	21198
690.367	21547
690.412	22014
690.457	22482
690.474	22785
690.501	23424
690.546	23692
690.590	25189
690.595	25227
690.635	26616
690.680	28394
690.716	29931
690.724	30867
690.769	35898
690.813	41055
690.836	43746
690.857	50576
690.902	66376
690.946	82745
690.957	86995
690.991	118722
691.035	164608
691.077	206148
691.080	206225
691.124	190295
691.168	170697
691.198	159922
691.213	147353
691.257	111436
691.301	76039
691.318	62657
691.346	56696
691.390	46956
691.434	37170
691.439	36073
691.478	33433
691.522	31037
691.559	28297
691.567	28136
691.611	27684
691.655	26564
691.680	26138
691.699	25880
691.743	24838
691.787	24182
691.800	23937
691.831	23966
691.875	23896
691.919	23719
691.921	23674
691.964	23445
692.008	23427
692.041	23354
692.052	23382
692.096	23378
692.139	23365
692.162	23293
692.183	23116
692.227	22830
692.271	22470
692.282	22324
692.315	22324
692.359	22330
692.402	22386
692.403	22421
692.447	21951
692.490	21977
692.523	21710
692.534	21870
692.578	22829
692.622	23136
692.643	23331
692.666	23392
692.709	23620
692.753	23465
692.763	23445
692.797	23679
692.840	24347
692.884	24279
692.884	24322
692.928	24905
692.971	25343
693.004	25332
693.015	25431
693.059	25994
693.102	26269
693.124	26440
693.146	27093
693.189	28392
693.233	29542
693.245	29931
693.276	31975
693.320	34211
693.363	36741
693.365	36766
693.407	41247
693.450	46112
693.485	50015
693.493	52332
693.537	63742
693.580	76288
693.605	82951
693.624	96941
693.667	131088
693.710	166163
693.725	178906
693.753	237687
693.797	333270
693.840	427968
693.845	437276
693.883	407956
693.926	370207
693.966	338157
693.970	331019
694.013	252358
694.056	174785
694.086	121639
694.099	114723
694.142	92336
694.185	70154
694.206	59536
694.229	56378
694.272	50466
694.315	44505
694.326	42854
694.358	40615
694.401	37581
694.444	34906
694.446	34684
694.487	33107
694.530	31563
694.566	30170
694.573	30058
694.616	29107
694.659	27996
694.686	27333
694.702	27372
694.745	27162
694.787	26999
694.806	26917
694.830	26818
694.873	26619
694.916	26103
694.926	25971
694.959	25795
695.002	25576
695.044	25317
695.046	25253
695.087	25462
695.130	25621
695.166	25579
695.172	25580
695.215	25303
695.258	25276
695.286	24989
695.301	25050
695.343	25202
695.386	25305
695.406	25344
695.428	25692
695.471	26150
695.514	26743
695.526	26854
695.556	27471
695.599	28151
695.641	28779
695.646	28795
695.684	28220
695.726	27371
695.766	26834
695.769	26891
695.811	26634
695.854	26231
695.886	26209
695.896	26304
695.938	25966
695.981	25980
696.005	25818
696.023	26176
696.065	27082
696.108	27965
696.125	28217
696.150	28615
696.192	29159
696.235	29922
696.245	29989
696.277	30579
696.319	31341
696.361	32118
696.365	32115
696.404	32675
696.446	33174
696.485	33535
696.488	33535
696.530	32521
696.572	31585
696.604	30726
696.614	30587
696.656	29749
696.698	28893
696.724	28228
696.740	28245
696.783	28278
696.825	28263
696.844	28194
696.867	28323
696.909	28357
696.951	28494
696.964	28472
696.992	28747
697.034	28982
697.076	29247
697.083	29245
697.118	29781
697.160	30151
697.202	30619
697.203	30560
697.244	30203
697.286	29773
697.323	29233
697.327	29287
697.369	29266
697.411	29144
697.442	29037
697.453	29130
697.494	29258
697.536	29299
697.562	29305
697.578	29461
697.620	29624
697.661	29830
697.682	29856
697.703	30160
697.744	30608
697.786	31137
697.801	31216
697.828	31131
697.869	30898
697.911	30633
697.921	30518
697.952	30262
697.994	29775
698.035	29254
698.040	29128
698.077	29560
698.118	29978
698.160	30292
698.160	30219
698.201	30584
698.243	30907
698.279	31110
698.284	31228
698.325	31625
698.367	31996
698.399	32208
698.408	32318
698.449	32498
698.491	32626
698.518	32681
698.532	32805
698.573	32877
698.614	32982
698.638	32958
698.656	33035
698.697	33047
698.738	33027
698.757	32938
698.779	33251
698.820	33712
698.862	34149
698.877	34237
698.903	34321
698.944	34301
698.985	34291
698.996	34204
699.026	34026
699.067	33667
699.116	33157
699.235	31593
699.354	33274
699.474	30700
699.593	32347
699.713	32239
699.832	30884
699.951	33660
700.070	31971
700.190	30606
700.309	30806
700.428	30338
700.547	29558
700.667	29579
700.786	30497
700.905	28651
701.024	29490
701.143	28613
701.262	29854
701.381	30484
701.500	30147
701.619	29110
701.738	29658
701.857	28487
701.976	28413
702.095	28252
702.214	29273
702.333	29230
702.452	29455
702.571	29498
702.690	30181
702.809	29363
702.928	27985
703.047	28064
703.165	27603
703.284	27642
703.403	27414
703.522	27930
703.640	27544
703.759	27977
703.878	29234
703.997	27755
704.115	26723
704.234	27281
704.353	27025
704.471	25197
704.590	26242
704.708	25351
704.827	25445
704.946	25862
705.064	26898
705.183	25612
705.301	29034
705.420	32817
705.538	30722
705.656	29530
705.775	30687
705.893	49062
706.012	52011
706.130	29426
706.249	28587
706.367	27858
706.485	29683
706.604	27262
706.722	28333
706.840	27966
706.958	31707
707.077	28139
707.195	27342
707.313	26509
707.431	25865
707.549	25931
707.668	25716
707.786	26102
707.904	25343
708.022	26460
708.140	25855
708.258	25257
708.376	25367
708.494	24613
708.612	27766
708.730	32122
708.848	29778
708.966	29280
709.084	27992
709.202	28316
709.320	27880
709.438	27616
709.556	28310
709.674	26929
709.791	26579
709.909	26335
710.027	26387
710.145	26238
710.263	27460
710.380	27274
710.498	25805
710.616	26367
710.733	25666
710.851	25127
710.969	25946
711.086	25777
711.204	25212
711.322	25806
711.439	24836
711.557	23915
711.674	24895
711.792	26341
711.909	27085
712.027	28105
712.144	24405
712.262	25188
712.379	25802
712.497	32312
712.614	31909
712.732	28406
712.849	27380
712.966	26698
713.084	28904
713.201	28528
713.318	28831
713.436	28409
713.553	27834
713.670	29900
713.787	29182
713.905	29543
714.022	28866
714.139	29274
714.256	33570
714.373	42796
714.490	67865
714.608	165993
714.725	629551
714.842	497588
714.959	62122
715.076	35774
715.193	30450
715.310	28511
715.427	27255
715.544	24842
715.661	27119
715.778	25623
715.895	27794
716.011	26562
716.128	24613
716.245	25846
716.362	25202
716.479	24468
716.596	23805
716.713	24617
716.829	23764
716.946	23841
717.063	22260
717.180	23648
717.296	22818
717.413	23338
717.530	22574
717.646	22632
717.763	22871
717.880	22450
717.996	21704
718.113	20911
718.229	22163
718.346	21733
718.462	21001
718.579	22926
718.695	23451
718.812	23977
718.928	23595
719.045	20686
719.161	21452
719.277	20934
719.394	21083
719.510	22101
719.626	23660
719.743	28195
719.859	36176
719.975	64007
720.092	228309
720.208	409949
720.324	56096
720.440	26021
720.557	23953
720.673	24283
720.789	28984
720.905	40966
721.021	25055
721.137	20376
721.253	21111
721.369	20625
721.486	21498
721.602	23280
721.718	20508
721.834	19486
721.950	20112
722.066	19068
722.181	19173
722.297	19243
722.413	18628
722.529	18788
722.645	18725
722.761	19576
722.877	19176
722.993	19499
723.108	21109
723.224	20252
723.340	18784
723.456	18358
723.571	18111
723.687	17967
723.803	17872
723.918	16929
724.034	18251
724.150	17312
724.265	18404
724.381	23787
724.497	23431
724.612	18001
724.728	16622
724.843	17392
724.959	18845
725.074	23090
725.190	23483
725.305	18175
725.421	16989
725.536	15905
725.651	16564
725.767	16831
725.882	16720
725.997	16472
726.113	16898
726.228	15352
726.343	16525
726.459	16415
726.574	16883
726.689	16091
726.804	15986
726.920	15791
727.035	16216
727.150	16024
727.265	15878
727.380	16248
727.495	16319
727.610	15643
727.725	16274
727.841	18019
727.956	29806
728.071	23183
728.186	15510
728.301	14643
728.416	16422
728.531	15303
728.645	15244
728.760	15701
728.875	15528
728.990	15328
729.105	13872
729.220	15273
729.335	15252
729.449	15177
729.564	14806
729.679	14659
729.794	14930
729.908	15469
730.023	14168
730.138	14322
730.253	15357
730.367	14519
730.482	14510
730.596	15264
730.711	16212
730.826	17470
730.940	17798
731.055	16306
731.169	15786
731.284	16160
731.398	16464
731.513	18087
731.627	18330
731.742	20378
731.856	21943
731.970	21826
732.085	25146
732.199	33480
732.313	53210
732.428	129762
732.542	318328
732.656	152535
732.771	41187
732.885	27064
732.999	25549
733.113	25664
733.227	24684
733.342	23043
733.456	22251
733.570	22147
733.684	21181
733.798	19825
733.912	20247
734.026	20140
734.140	21335
734.254	20963
734.368	23349
734.482	24591
734.596	19455
734.710	19742
734.824	19131
734.938	19725
735.052	19325
735.166	20114
735.280	19544
735.393	18899
735.507	19497
735.621	19914
735.735	22019
735.849	19437
735.962	18940
736.076	19254
736.190	19357
736.303	20007
736.417	19821
736.531	18276
736.644	18439
736.758	18001
736.872	17898
736.985	17533
737.099	18337
737.212	17676
737.326	18093
737.439	18505
737.553	18178
737.666	17812
737.780	17312
737.893	16895
738.007	17186
738.120	18111
738.233	17575
738.347	17625
738.460	17305
738.573	17474
738.687	17271
738.800	17384
738.913	18432
739.026	17084
739.140	18065
739.253	17327
739.366	17769
739.479	16951
739.592	16421
739.705	16589
739.818	17235
739.932	17257
740.045	17445
740.158	16418
740.271	17956
740.384	15932
740.497	15841
740.610	17730
740.723	17279
740.836	16820
740.949	17177
741.062	17424
741.174	17073
741.287	16722
741.400	16843
741.513	15832
741.626	16564
741.739	16300
741.851	15682
741.964	17419
742.077	15513
742.189	15349
742.302	17645
742.415	15563
742.527	16453
742.640	15590
742.753	15182
742.865	16196
742.978	15472
743.090	14879
743.203	16170
743.316	16174
743.428	15768
743.541	16058
743.653	16290
743.766	15894
743.878	17328
743.990	15606
744.103	15915
744.215	15298
744.327	14849
744.440	16824
744.552	16192
744.664	15872
744.777	17275
744.889	15187
745.001	15197
745.113	15880
745.226	15642
745.338	15650
745.450	16339
745.562	15058
745.674	15099
745.786	16849
745.898	15562
746.010	16437
746.122	16681
746.234	15915
746.347	16603
746.459	16185
746.570	15696
746.682	16219
746.794	16384
746.906	15446
747.018	15899
747.130	15282
747.242	15424
747.354	16106
747.466	15902
747.577	15286
747.689	15288
747.801	16440
747.913	15428
748.024	15471
748.136	14908
748.248	15071
748.359	15933
748.471	15657
748.583	15723
748.694	16218
748.806	17799
748.918	15739
749.029	15492
749.141	15951
749.252	15938
749.364	15589
749.475	17171
749.587	14473
749.698	15487
749.809	16448
749.921	16231
750.032	16463
750.144	15743
750.255	15665
750.366	15081
750.478	15640
750.589	15659
750.700	15264
750.811	16697
750.923	15898
751.034	16491
751.145	17286
751.256	15399
751.367	15803
751.479	15539
751.590	15547
751.701	16328
751.812	16354
751.923	15303
752.034	17012
752.145	16773
752.256	16610
752.367	15893
752.478	16887
752.589	17270
752.700	17099
752.811	15837
752.922	16750
753.032	17401
753.143	17724
753.254	16568
753.365	18910
753.476	17766
753.586	16092
753.697	16628
753.808	17495
753.919	16740
754.029	16645
754.140	17632
754.251	17722
754.361	17195
754.472	18169
754.582	17950
754.693	18034
754.804	19004
754.914	18329
755.025	17155
755.135	17797
755.246	18525
755.356	18727
755.466	19397
755.577	18258
755.687	18767
755.798	18612
755.908	19365
756.018	19697
756.129	19555
756.239	19814
756.349	19185
756.460	20556
756.570	22022
756.680	20781
756.790	20081
756.900	21150
757.011	20415
757.121	20006
757.231	20938
757.341	21236
757.451	21402
757.561	21226
757.671	22161
757.781	21487
757.891	23507
758.001	22738
758.111	23035
758.221	24846
758.331	24566
758.441	24581
758.551	24818
758.661	24576
758.771	25359
758.880	25584
758.990	25713
759.100	25999
759.210	26506
759.320	27163
759.429	28211
759.539	27944
759.649	29129
759.758	31428
759.868	31457
759.978	30961
760.087	32654
760.197	32816
760.307	33458
760.416	33344
760.526	33417
760.635	34790
760.745	36523
760.854	36579
760.964	39251
761.073	39531
761.182	39911
761.292	39217
761.401	39772
761.511	40767
761.620	41641
761.729	41583
761.839	43579
761.948	45565
762.057	46015
762.166	47250
762.276	48972
762.385	51763
762.494	52699
762.603	54370
762.712	56516
762.822	58923
762.931	61494
763.040	62629
763.149	66450
763.258	69155
763.367	73038
763.476	77789
763.585	81083
763.694	85029
763.803	88846
763.912	94577
764.021	101323
764.130	107616
764.238	116907
764.347	124191
764.456	135209
764.565	146074
764.674	157510
764.783	172825
764.891	192400
765.000	215403
765.109	243444
765.217	277161
765.326	316383
765.435	370790
765.543	440588
765.652	531224
765.761	648522
765.869	806234
765.978	1013521
766.086	1257260
766.195	1468160
766.303	1351567
766.412	779441
766.520	1078267
766.629	1419151
766.737	1320171
766.846	1097236
766.954	890262
767.062	715978
767.171	582859
767.279	475905
767.387	394648
767.496	334710
767.604	290786
767.712	255641
767.820	229381
767.928	210072
768.037	194578
768.145	185797
768.253	176939
768.361	171696
768.469	172889
768.577	176555
768.685	185001
768.793	197972
768.901	219984
769.009	253493
769.117	302415
769.225	377616
769.333	496548
769.441	681262
769.549	970000
769.657	1292838
769.765	1212293
769.873	913298
769.981	1252666
770.088	1122102
770.196	859106
770.304	651935
770.412	507726
770.519	406123
770.627	331288
770.735	276863
770.842	236273
770.950	206033
771.058	180970
771.165	162856
771.273	146078
771.380	134415
771.488	124010
771.595	114519
771.703	105564
771.810	98452
771.918	91785
772.025	88481
772.133	84574
772.240	78489
772.348	76723
772.455	73078
772.562	68339
772.670	64942
772.777	64445
772.884	61460
772.991	57660
773.099	56994
773.206	54157
773.313	52764
773.420	51494
773.528	48582
773.635	46880
773.742	47090
773.849	45821
773.956	44254
774.063	42230
774.170	42203
774.277	41773
774.384	39970
774.491	38999
774.598	38955
774.705	36585
774.812	36241
774.919	35997
775.026	35240
775.133	33438
775.239	34384
775.346	32631
775.453	31128
775.560	31278
775.667	30791
775.773	30779
775.880	30938
775.987	29455
776.093	29635
776.200	29482
776.307	27529
776.413	27283
776.520	28155
776.627	26034
776.733	25323
776.840	23185
776.946	27119
777.053	24900
777.159	24751
777.266	22907
777.372	24086
777.478	24348
777.585	23904
777.691	22024
777.798	23333
777.904	22787
778.010	23705
778.117	22404
778.223	21897
778.329	22035
778.435	19997
778.542	21753
778.648	20085
778.754	19367
778.860	20610
778.966	19624
779.072	19225
779.178	19641
779.284	19490
779.391	20608
779.497	20225
779.603	25483
779.708	33585
779.815	67878
779.920	225962
780.026	282717
780.132	54492
780.238	24496
780.344	21240
780.450	21044
780.556	18025
780.661	17467
780.767	17110
780.873	15183
780.979	17257
781.085	16391
781.190	15806
781.296	15278
781.402	15659
781.507	15420
781.613	14447
781.719	14956
781.824	14957
781.930	14624
782.035	14958
782.141	14184
782.246	13326
782.352	13523
782.457	14045
782.563	13935
782.668	13528
782.773	13387
782.879	12300
782.984	13738
783.090	13053
783.195	13253
783.300	14655
783.405	12018
783.511	11676
783.616	13020
783.721	12627
783.826	12295
783.932	12000
784.037	12582
784.142	12698
784.247	12014
784.352	12831
784.457	11606
784.562	12233
784.667	12232
784.772	10876
784.877	10398
784.982	13544
785.087	11409
785.192	12072
785.297	11323
785.402	11311
785.507	10914
785.611	10788
785.716	10416
785.821	10180
785.926	10360
786.031	11114
786.135	11162
786.240	11009
786.345	9252
786.450	10112
786.554	9941
786.659	9892
786.763	9057
786.868	10368
786.973	10744
787.077	9329
787.182	9726
787.286	10211
787.391	10188
787.495	8401
787.600	9244
787.704	9735
787.809	10259
787.913	9118
788.017	9850
788.122	9763
788.226	8633
788.330	8231
788.435	9063
788.539	10246
788.643	8419
788.747	8473
788.852	8973
788.956	8133
789.060	8604
789.164	8534
789.268	8105
789.372	8699
789.476	8473
789.580	7088
789.684	7184
789.788	9052
789.892	8594
789.996	8366
790.100	6247
790.204	8365
790.308	9658
790.412	6749
790.516	8210
790.620	8008
790.724	8383
790.828	7504
790.931	7105
791.035	8991
791.139	8158
791.242	7039
791.346	7998
791.450	7404
791.554	7353
791.657	7084
791.761	7846
791.864	7834
791.968	8166
792.072	7262
792.175	7483
792.279	6401
792.382	7402
792.486	6912
792.589	6781
792.693	7529
792.796	5614
792.899	8377
793.003	7965
793.106	5741
793.209	5976
793.313	7245
793.416	5537
793.519	7865
793.623	8884
793.726	8059
793.829	7143
793.932	5463
794.035	5423
794.138	8116
794.242	9757
794.345	10621
794.448	16288
794.551	35280
794.654	121123
794.757	173114
794.860	29745
794.963	10330
795.066	7257
795.169	8681
795.272	6013
795.375	7320
795.477	6386
795.580	6627
795.683	5425
795.786	7004
795.889	4684
795.991	7081
796.094	6747
796.197	4584
796.300	6293
796.402	5716
796.505	4119
796.608	5257
796.710	6573
796.813	6126
796.915	5973
797.018	6633
797.120	5932
797.223	4254
797.326	7188
797.428	4989
797.530	4450
797.633	5678
797.735	6150
797.838	6455
797.940	6786
798.042	4969
798.145	4244
798.247	6217
798.349	3808
798.452	6209
798.554	5275
798.656	4060
798.758	6430
798.860	4919
798.962	4348
799.065	4728
799.167	4623
799.269	5569
799.371	5595
799.473	6860
799.575	5418
799.677	5240
799.779	6613
799.881	3933
799.983	5416
800.085	5142
800.187	5007
800.289	4540
800.390	4978
800.492	4866
800.594	5754
800.696	5108
800.798	5573
800.899	4489
801.001	4748
801.103	4933
801.205	4329
801.306	5177
801.408	3601
801.509	5242
801.611	5230
801.713	5646
801.814	4398
801.916	4188
802.017	3728
802.119	3840
802.220	3865
802.322	3682
802.423	6019
802.525	3799
802.626	4827
802.727	5006
802.829	4223
802.930	2369
803.031	6606
803.133	4112
803.234	4271
803.335	4413
803.436	2591
803.538	4582
803.639	2739
803.740	4914
803.841	3404
803.942	4872
804.043	4759
804.144	4223
804.245	4349
804.346	3965
804.447	3772
804.548	3847
804.649	5230
804.750	3863
804.851	4386
804.952	3526
805.053	3445
805.154	2571
805.255	4907
805.355	5130
805.456	4121
805.557	4080
805.658	2562
805.758	4288
805.859	3335
805.960	4864
806.061	3529
806.161	3994
806.262	3832
806.362	3540
806.463	3358
806.564	4095
806.664	3690
806.765	3805
806.865	3558
806.966	3946
807.066	3264
807.166	4271
807.267	3319
807.367	2944
807.468	4314
807.568	2756
807.668	3947
807.769	4968
807.869	3137
807.969	3740
808.069	3216
808.170	3163
808.270	3384
808.370	3726
808.470	4221
808.570	3344
808.670	3761
808.770	3686
808.870	3375
808.970	3876
809.070	2768
809.170	2635
809.271	4018
809.370	3320
809.470	3682
809.570	2903
809.670	2544
809.770	3154
809.870	2870
809.970	3465
810.070	3196
810.169	3646
810.269	1851
810.369	3905
810.469	3131
810.568	2547
810.668	2923
810.768	3007
810.867	3612
810.967	2772
811.066	2592
811.166	3358
811.265	3723
811.365	2747
811.464	2625
811.564	2837
811.663	3100
811.763	1474
811.862	3593
811.962	3843
812.061	3928
812.160	2744
812.260	3781
812.359	4723
812.458	8431
812.557	21182
812.657	27678
812.756	10317
812.855	4647
812.954	3507
813.053	3876
813.153	3370
813.252	2558
813.351	3275
813.450	2992
813.549	3356
813.648	3726
813.747	2597
813.846	3624
813.945	3030
814.044	2793
814.143	3566
814.242	2647
814.341	2256
814.439	4287
814.538	2878
814.637	3260
814.736	2988
814.835	4216
814.933	2957
815.032	3512
815.131	4330
815.229	6932
815.328	8582
815.427	6170
815.525	6724
815.624	6281
815.722	5765
815.821	6742
815.919	5916
816.018	6059
816.116	7013
816.215	6079
816.313	6857
816.412	7366
816.510	7978
816.609	9850
816.707	9304
816.805	8479
816.904	8412
817.002	8299
817.100	9294
817.198	9441
817.296	7347
817.395	8320
817.493	9691
817.591	8629
817.689	10385
817.787	10444
817.885	14466
817.983	19841
818.081	38248
818.179	80335
818.277	183256
818.375	151414
818.473	46943
818.571	22224
818.669	17172
818.767	15050
818.865	14761
818.963	16572
819.061	22437
819.158	33674
819.256	70114
819.354	154986
819.452	301153
819.549	189187
819.647	62243
819.745	27413
819.842	19720
819.940	14636
820.038	11624
820.135	10383
820.233	10515
820.330	8638
820.428	7360
820.525	8957
820.623	7227
820.720	6143
820.818	7385
820.915	7820
821.012	6924
821.110	5209
821.207	7566
821.304	6544
821.402	7359
821.499	6696
821.596	5962
821.693	5516
821.791	7026
821.888	5173
821.985	6980
822.082	5318
822.179	6306
822.276	4828
822.373	5076
822.470	5325
822.567	5774
822.664	5239
822.761	6056
822.858	5478
822.955	5337
823.052	4832
823.149	5488
823.246	4877
823.343	4407
823.440	5465
823.536	5387
823.633	4517
823.730	4801
823.827	5016
823.923	4989
824.020	5044
824.117	5493
824.213	4935
824.310	4220
824.407	4175
824.503	5777
824.600	5238
824.696	4397
824.793	5980
824.889	4166
824.986	4539
825.082	3341
825.179	4727
825.275	5187
825.371	5093
825.468	3500
825.564	3328
825.660	4623
825.757	5457
825.853	5013
825.949	3940
826.045	4201
826.142	3052
826.238	4460
826.334	4825
826.430	3649
826.526	3315
826.622	2835
826.718	5021
826.814	4435
826.910	4612
827.006	3283
827.102	3615
827.198	5266
827.294	4172
827.390	4173
827.486	3923
827.582	2916
827.678	3596
827.774	6059
827.869	2980
827.965	4588
828.061	2548
828.157	4875
828.252	4132
828.348	2829
828.444	4243
828.539	2980
828.635	4046
828.731	4633
828.826	3125
828.922	3833
829.017	4362
829.113	3997
829.208	2881
829.304	4041
829.399	5402
829.495	2931
829.590	3316
829.685	2793
829.781	4446
829.876	3567
829.971	3177
830.066	2745
830.162	3870
830.257	4096
830.352	3013
830.447	3780
830.543	3323
830.638	3647
830.733	5238
830.828	3111
830.923	3364
831.018	3316
831.113	4812
831.208	2361
831.303	2375
831.398	3034
831.493	3226
831.588	4435
831.683	2608
831.778	3180
831.873	2328
831.967	4166
832.062	2825
832.157	1876
832.252	3266
832.346	3410
832.441	3353
832.536	3933
832.631	4010
832.725	4393
832.820	2271
832.914	2919
833.009	2600
833.104	2643
833.198	2574
833.293	2324
833.387	3020
833.482	4387
833.576	2116
833.670	3701
833.765	4349
833.859	2571
833.954	3684
834.048	2713
834.142	3092
834.237	2339
834.331	2989
834.425	2502
834.519	2884
834.613	3594
834.708	2639
834.802	1907
834.896	2453
834.990	2240
835.084	2564
835.178	1923
835.272	1646
835.366	2881
835.460	2760
835.554	3146
835.648	2237
835.742	932
835.836	2627
835.930	2494
836.024	2654
836.117	2851
836.211	2342
836.305	2858
836.399	3407
836.493	1671
836.586	2466
836.680	1984
836.774	2022
836.867	3022
836.961	1576
837.055	1646
837.148	1960
837.242	2397
837.335	3369
837.429	2258
837.522	1150
837.616	2021
837.709	2487
837.803	2425
837.896	3034
837.989	2964
838.083	2685
838.176	3831
838.269	2409
838.363	2295
838.456	1991
838.549	3192
838.642	2881
838.735	3580
838.829	2760
838.922	1589
839.015	1817
839.108	1469
839.201	2375
839.294	2198
839.387	2306
839.480	2079
839.573	2164
839.666	1557
839.759	1490
839.852	1178
839.945	2552
840.038	1846
840.131	993
840.223	1250
840.316	1976
840.409	1931
840.502	1579
840.594	2562
840.687	241
840.780	1654
840.873	997
840.965	2217
841.058	2402
841.150	3968
841.243	1341
841.336	2002
841.428	1400
841.521	2019
841.613	525
841.706	2278
841.798	1426
841.890	1341
841.983	342
842.075	1661
842.167	1818
842.260	2123
842.352	3043
842.444	1885
842.537	2850
842.629	4075
842.721	2481
842.813	988
842.905	1294
842.997	2017
843.090	1831
843.182	2474
843.274	2909
843.366	6723
843.458	9017
843.550	7131
843.642	1340
843.734	2315
843.826	1034
843.918	1955
844.009	2305
844.101	1606
844.193	1228
844.285	1848
844.377	1441
844.469	2320
844.560	914
844.652	897
844.744	1259
844.835	2055
844.927	1818
845.019	1387
845.110	1538
845.202	2467
845.293	1379
845.385	1747
845.476	1922
845.568	3129
845.659	1820
845.751	1519
845.842	1682
845.934	1662
846.025	1401
846.116	2255
846.208	980
846.299	1428
846.390	1462
846.482	2253
846.573	1833
846.664	2711
846.755	1622
846.846	2364
846.937	654
847.029	1243
847.120	886
847.211	1670
847.302	2229
847.393	782
847.484	2464
847.575	1045
847.666	1964
847.757	1000
847.847	1258
847.938	2769
848.029	2137
848.120	1720
848.211	1549
848.302	1132
848.392	956
848.483	1418
848.574	314
848.664	1772
848.755	1206
848.846	1666
848.936	688
849.027	1958
849.118	949
849.208	1915
849.299	1915
849.389	3663
849.480	5437
849.570	10595
849.661	19195
849.751	27821
849.841	10084
849.932	2972
850.022	1840
850.112	2965
850.203	1479
850.293	1708
850.383	2441
850.474	1554
850.564	1137
850.654	1231
850.744	1489
850.834	2053
850.924	2023
851.014	1525
851.104	1926
851.194	1996
851.284	1194
851.374	2005
851.464	1629
851.554	1281
851.644	2223
851.734	3333
851.824	2608
851.914	2880
852.004	5490
852.094	4732
852.183	1872
852.273	1525
852.363	771
852.452	1686
852.542	1842
852.632	685
852.721	1694
852.811	1647
852.901	1725
852.990	1861
853.080	1260
853.169	1596
853.259	1476
853.348	1258
853.438	2658
853.527	3534
853.617	3991
853.706	7781
853.795	12784
853.885	27366
853.974	48478
854.063	87939
854.152	116165
854.242	44254
854.331	10292
854.420	5107
854.509	4052
854.598	3379
854.687	2841
854.777	2246
854.866	1837
854.955	2138
855.044	790
855.133	1654
855.222	2036
855.311	1619
855.400	1685
855.488	1349
855.577	846
855.666	2364
855.755	1825
855.844	2640
855.933	2192
856.021	1730
856.110	1568
856.199	369
856.288	112
856.376	607
856.465	1213
856.554	1320
856.642	915
856.731	1485
856.819	1191
856.908	1176
856.996	649
857.085	1382
857.173	415
857.262	942
857.350	660
857.438	1634
857.527	1308
857.615	838
857.703	1237
857.792	725
857.880	371
857.968	654
858.056	635
858.145	840
858.233	137
858.321	1026
858.409	1987
858.497	873
858.585	-453
858.673	1435
858.761	560
858.849	1010
858.937	707
859.025	902
859.113	1246
859.201	-390
859.289	1135
859.377	564
859.465	1049
859.552	1143
859.640	-18
859.728	1282
859.816	1254
859.903	732
859.991	613
860.079	980
860.166	572
860.254	944
860.342	1002
860.429	851
860.517	-316
860.604	1355
860.692	1366
860.779	374
860.867	797
860.954	697
861.042	989
861.129	1334
861.216	1212
861.304	467
861.391	1082
861.478	627
861.565	857
861.653	1838
861.740	340
861.827	537
861.914	716
862.001	67
862.089	1173
862.176	802
862.263	319
862.350	940
862.437	-57
862.524	208
862.611	720
862.698	1515
862.785	1427
862.871	1404
862.958	594
863.045	1028
863.132	512
863.219	901
863.306	-363
863.392	1120
863.479	1171
863.566	1633
863.652	752
863.739	955
863.826	1977
863.912	1178
863.999	351
864.086	987
864.172	651
864.259	620
864.345	780
864.432	1948
864.518	1141
864.604	1035
864.691	674
864.777	655
864.863	2286
864.950	3076
865.036	4193
865.122	6434
865.209	6410
865.295	5729
865.381	4801
865.467	5125
865.553	5179
865.639	6853
865.726	9637
865.812	16623
865.898	27797
865.984	39865
866.070	68612
866.156	66498
866.242	20236
866.328	8076
866.414	5636
866.499	5058
866.585	5243
866.671	4885
866.757	4778
866.843	4715
866.928	4929
867.014	4391
867.100	4881
867.186	3725
867.271	4382
867.357	4820
867.442	4905
867.528	4543
867.614	3541
867.699	4493
867.785	3775
867.870	4181
867.956	3740
868.041	4228
868.127	4026
868.212	4307
868.297	3689
868.383	3657
868.468	4056
868.553	5102
868.639	4171
868.724	4817
868.809	4913
868.894	3150
868.979	3655
869.065	4185
869.150	3140
869.235	3412
869.320	3015
869.405	3402
869.490	2954
869.575	3111
869.660	2723
869.745	3781
869.830	3282
869.915	3202
870.000	2128
870.085	3760
870.169	3884
870.254	3940
870.339	2038
870.424	2478
870.509	3107
870.593	4884
870.678	3590
870.763	2862
870.847	3585
870.932	3641
871.016	3085
871.101	2622
871.186	2595
871.270	4085
871.355	1813
871.439	3059
871.523	3390
871.608	2708
871.692	1304
871.777	4196
871.861	3108
871.945	2633
872.030	3165
872.114	2667
872.198	1629
872.282	2911
872.367	2680
872.451	2229
872.535	3249
872.619	3002
872.703	2918
872.787	2906
872.871	2790
872.955	2934
873.039	1627
873.123	2733
873.207	2932
873.291	1811
873.375	2260
873.459	3130
873.543	2664
873.627	2377
873.711	2325
873.794	3306
873.878	1178
873.962	1888
874.045	2061
874.129	2167
874.137	2210
874.213	2634
874.245	2450
874.296	2158
874.352	1940
874.380	1835
874.460	2250
874.464	2267
874.547	1280
874.568	1595
874.631	2534
874.676	2165
874.714	1841
874.784	2725
874.798	2909
874.881	2398
874.892	2427
874.965	2623
874.999	2522
875.048	2351
875.107	2654
875.131	2790
875.215	2070
875.215	2070
875.298	2110
875.323	2223
875.381	2433
875.430	2728
875.465	2975
875.538	1852
875.548	1696
875.631	1217
875.646	1219
875.714	1211
875.753	1376
875.798	1557
875.861	2214
875.881	2432
875.964	1573
875.968	1569
876.047	1488
876.076	1718
876.130	2143
876.183	2007
876.213	1947
876.291	2445
876.296	2468
876.379	1029
876.398	1177
876.462	1757
876.506	1478
876.545	1241
876.613	1313
876.628	1329
876.711	1151
876.721	1272
876.794	2103
876.828	1822
876.877	1412
876.935	1739
876.960	1901
877.043	1187
877.043	1188
877.125	1452
877.150	1820
877.208	2679
877.258	1902
877.291	1381
877.365	1327
877.374	1313
877.456	1650
877.472	1602
877.539	1534
877.579	1889
877.622	2192
877.687	2223
877.704	2219
877.787	1954
877.794	1917
877.869	1628
877.901	1676
877.952	1487
878.008	1179
878.034	1217
878.115	1985
878.117	1997
878.199	933
878.222	1117
878.282	1631
878.329	1836
878.364	1885
878.437	1156
878.447	1049
878.529	787
878.544	848
878.611	1486
878.651	1701
878.694	1743
878.758	1427
878.776	1341
878.858	1642
878.865	1629
878.941	1516
878.972	1300
879.023	960
879.078	1114
879.105	1197
879.185	1238
879.187	1235
879.269	1760
879.292	1517
879.351	997
879.399	870
879.433	801
879.506	1344
879.516	1397
879.598	1166
879.613	1119
879.680	1275
879.720	1453
879.762	1372
879.827	1193
879.844	1173
879.926	987
879.933	1038
880.007	1688
880.040	1666
880.089	1412
880.147	1765
880.171	1989
880.253	2885
880.254	2890
880.335	3354
880.360	3693
880.417	4607
880.467	6322
880.499	7505
880.574	8674
880.580	8622
880.662	3348
880.680	2747
880.744	1182
880.787	801
880.825	686
880.893	1215
880.907	1287
880.989	662
881.000	701
881.070	1117
881.106	1213
881.152	1295
881.213	1174
881.233	1097
881.315	819
881.319	814
881.396	873
881.426	989
881.478	1286
881.532	1573
881.559	1656
881.639	1030
881.641	1010
881.722	894
881.745	852
881.803	1017
881.852	1115
881.885	1030
881.958	460
881.966	416
882.047	552
882.064	523
882.129	727
882.171	814
882.210	741
882.277	885
882.291	925
882.372	1332
882.383	1337
882.454	1249
882.489	1187
882.535	959
882.596	959
882.616	1110
882.697	884
882.702	890
882.778	1053
882.808	1176
882.859	836
882.914	581
882.940	736
883.020	1010
883.021	1012
883.102	1354
883.127	1395
883.183	1194
883.233	536
883.264	303
883.339	723
883.345	741
883.426	401
883.445	493
883.507	1090
883.551	917
883.587	628
883.657	896
883.668	983
883.749	1272
883.763	1274
883.830	843
883.869	581
883.910	411
883.975	273
883.991	365
884.072	1372
884.081	1421
884.152	1142
884.187	939
884.233	834
884.292	1094
884.314	1105
884.394	555
884.398	549
884.475	669
884.504	627
884.555	576
884.610	737
884.636	834
884.716	985
884.716	985
884.797	1074
884.821	971
884.877	988
884.927	1040
884.958	1047
885.033	1211
885.038	1215
885.118	1388
885.139	1386
885.199	1023
885.244	788
885.279	893
885.350	1125
885.359	1151
885.439	1266
885.456	1229
885.520	607
885.561	525
885.600	837
885.667	1187
885.680	1184
885.760	1013
885.773	985
885.840	870
885.878	912
885.920	837
885.984	633
886.000	731
886.080	1171
886.089	1219
886.160	1163
886.195	1084
886.240	860
886.300	847
886.320	929
886.400	923
886.406	917
886.480	779
886.511	850
886.560	660
886.616	170
886.640	157
886.720	441
886.722	443
886.800	227
886.827	207
886.879	498
886.932	827
886.959	897
887.038	887
887.039	886
887.119	801
887.143	791
887.198	754
887.248	754
887.278	605
887.354	32
887.358	57
887.437	745
887.459	945
887.517	906
887.564	815
887.596	755
887.669	462
887.676	467
887.755	824
887.774	855
887.835	1150
887.880	1491
887.914	1179
887.985	439
887.994	515
888.073	1188
888.090	1308
888.153	883
888.195	643
888.232	744
888.300	1044
888.311	1131
888.391	1608
888.405	1693
888.470	1362
888.510	1131
888.549	934
888.615	705
888.628	648
888.708	249
888.720	182
888.787	784
888.825	1148
888.866	915
888.930	569
888.945	642
889.024	999
889.035	1048
889.103	1136
889.140	1171
889.182	860
889.245	474
889.261	532
889.340	762
889.349	794
889.419	1127
889.454	1288
889.498	960
889.559	525
889.577	615
889.656	1022
889.664	1066
889.735	813
889.768	691
889.814	844
889.873	1049
889.978	120
890.083	1227
890.187	985
890.292	1620
890.397	55
890.501	376
890.606	529
890.710	923
890.815	1108
890.919	148
891.024	943
891.128	1092
891.233	1275
891.337	777
891.442	1411
891.546	620
891.650	244
891.755	404
891.859	2160
891.963	954
892.068	903
892.172	882
892.276	462
892.380	1116
892.484	1378
892.589	1083
892.693	1166
892.797	572
892.901	759
893.005	687
893.109	864
893.213	634
893.317	594
893.421	793
893.525	531
893.629	415
893.733	651
893.837	800
893.941	151
894.045	1676
894.148	260
894.252	727
894.356	1365
894.460	939
894.564	714
894.667	566
894.771	-24
894.875	62
894.978	424
895.082	477
895.186	310
895.289	1774
895.393	890
895.496	1240
895.600	73
895.703	302
895.807	1093
895.910	536
896.014	230
896.117	510
896.221	268
896.324	996
896.427	574
896.531	603
896.634	537
896.737	1064
896.840	387
896.944	74
897.047	569
897.150	1369
897.253	-486
897.356	344
897.460	218
897.563	293
897.666	803
897.769	327
897.872	1043
897.975	171
898.078	523
898.181	622
898.284	176
898.387	164
898.490	382
898.593	999
898.695	360
898.798	314
898.901	867
899.004	1065
899.107	50
899.209	1082
899.312	421
899.415	31
899.518	856
899.620	130
899.723	501
899.826	344
899.928	421
900.031	1118
900.133	88
900.236	107
900.338	616
900.441	510
900.543	-385
900.646	192
900.748	400
900.851	612
900.953	662
901.055	531
901.158	-244
901.260	706
901.362	1096
901.465	336
901.567	100
901.669	370
901.771	266
901.873	404
901.976	270
902.078	-537
902.180	331
902.282	270
902.384	372
902.486	837
902.588	320
902.690	885
902.792	92
902.894	775
902.996	114
903.098	270
903.200	34
903.302	-126
903.404	610
903.505	181
903.607	821
903.709	153
903.811	334
903.913	227
904.014	322
904.116	-71
904.218	-42
904.319	754
904.421	245
904.523	-17
904.624	459
904.726	235
904.827	92
904.929	642
905.030	-23
905.132	552
905.233	717
905.335	129
905.436	213
905.537	-163
905.639	-472
905.740	314
905.841	-83
905.943	608
906.044	-443
906.145	615
906.247	171
906.348	-330
906.449	13
906.550	809
906.651	688
906.752	12
906.854	-423
906.955	197
907.056	-175
907.157	60
907.258	-8
907.359	67
907.460	727
907.561	-59
907.662	-55
907.762	-5
907.863	113
907.964	64
908.065	916
908.166	-151
908.267	-185
908.367	-413
908.468	-247
908.569	-22
908.670	166
908.770	837
908.871	-100
908.971	120
909.072	512
909.173	170
909.273	-13
909.374	222
909.474	273
909.575	-803
909.675	801
909.776	256
909.876	-638
909.977	281
910.077	862
910.177	212
910.278	-77
910.378	501
910.478	-57
910.579	10
910.679	14
910.779	-124
910.879	-87
910.980	-481
911.080	168
911.180	227
911.280	279
911.380	-99
911.480	145
911.580	-127
911.680	-285
911.780	579
911.880	173
911.980	444
912.080	-955
912.180	377
912.280	-202
912.380	265
912.480	-336
912.580	20
912.679	-125
912.779	148
912.879	-769
912.979	240
913.078	-471
913.178	232
913.278	-34
913.377	-227
913.477	206
913.577	-262
913.676	702
913.776	-809
913.875	-208
913.975	-51
914.074	-724
914.174	40
914.273	174
914.373	1017
914.472	-540
914.572	-575
914.671	-177
914.770	-181
914.870	-148
914.969	-29
915.068	-219
915.167	-352
915.267	413
915.366	-68
915.465	-314
915.564	-191
915.663	-184
915.763	-55
915.862	-103
915.961	-630
916.060	-36
916.159	256
916.258	-39
916.357	421
916.456	315
916.555	-366
916.654	540
916.752	224
916.851	-14
916.950	36
917.049	-743
917.148	-141
917.247	-632
917.345	-211
917.444	-616
917.543	-232
917.642	-548
917.740	-567
917.839	282
917.937	-348
918.036	324
918.135	-307
918.233	35
918.332	-836
918.430	-335
918.529	198
918.627	-113
918.726	-164
918.824	-545
918.923	-566
919.021	-74
919.119	-207
919.218	-187
919.316	434
919.414	-506
919.512	-537
919.611	437
919.709	243
919.807	195
919.905	450
920.003	-40
920.102	-175
920.200	9
920.298	-234
920.396	67
920.494	-235
920.592	158
920.690	-252
920.788	-109
920.886	248
920.984	195
921.082	60
921.180	-112
921.277	-109
921.375	123
921.473	527
921.571	-533
921.669	1049
921.766	-601
921.864	100
921.962	306
922.060	1358
922.157	19
922.255	285
922.352	215
922.450	1267
922.548	-92
922.645	749
922.743	324
922.840	550
922.938	1880
923.035	965
923.133	925
923.230	1850
923.327	1968
923.425	1267
923.522	2153
923.619	486
923.717	1026
923.814	1145
923.911	1434
924.008	1628
924.106	1691
924.203	1542
924.300	1687
924.397	1322
924.494	1579
924.591	1003
924.688	1371
924.786	1601
924.883	1553
924.979	849
925.077	1225
925.173	696
925.270	73
925.367	793
925.464	843
925.561	921
925.658	2471
925.755	923
925.852	1587
925.948	999
926.045	1132
926.142	1409
926.239	1078
926.335	1375
926.432	1379
926.529	1466
926.625	1913
926.722	629
926.818	747
926.915	1903
927.011	696
927.108	843
927.204	920
927.301	660
927.397	1848
927.494	589
927.590	761
927.687	1249
927.783	822
927.879	1035
927.976	734
928.072	935
928.168	1039
928.264	1297
928.361	613
928.457	1094
928.553	-2
928.649	1405
928.745	734
928.841	1311
928.937	583
929.033	1289
929.129	465
929.225	1321
929.321	567
929.417	391
929.513	157
929.609	246
929.705	467
929.801	1582
929.897	471
929.993	815
930.089	995
930.184	1238
930.280	972
930.376	1198
930.471	100
930.567	982
930.663	1005
930.758	293
930.854	960
930.950	700
931.045	1498
931.141	604
931.236	1608
931.332	669
931.427	88
931.523	749
931.618	654
931.714	-356
931.809	-200
931.905	278
932.000	159
932.095	159
932.191	1131
932.286	766
932.381	725
932.476	674
932.572	526
932.667	913
932.762	239
932.857	1548
932.952	1170
933.047	630
933.142	-75
933.237	591
933.332	536
933.427	1148
933.522	712
933.617	1074
933.712	751
933.807	1523
933.902	547
933.997	1419
934.092	241
934.187	156
934.282	867
934.376	1002
934.471	522
934.566	480
934.661	1076
934.755	689
934.850	747
934.945	197
935.039	553
935.134	428
935.228	-113
935.323	1172
935.417	856
935.512	730
935.606	-523
935.701	689
935.795	1151
935.890	46
935.984	765
936.079	883
936.173	908
936.267	40
936.362	-44
936.456	896
936.550	984
936.644	766
936.738	1532
936.833	794
936.927	425
937.021	-212
937.115	-218
937.209	348
937.303	340
937.397	-344
937.491	642
937.585	1032
937.679	5
937.773	-342
937.867	83
937.961	842
938.055	554
938.149	949
938.243	62
938.337	186
938.430	245
938.524	811
938.618	178
938.712	441
938.805	336
938.899	225
938.993	371
939.086	337
939.180	-412
939.274	396
939.367	562
939.461	859
939.554	956
939.648	35
939.741	319
939.835	705
939.928	773
940.022	856
940.115	64
940.208	-483
940.302	814
940.395	1157
940.488	330
940.582	670
940.675	298
940.768	127
940.861	623
940.954	304
941.048	212
941.141	88
941.234	217
941.327	1082
941.420	1259
941.513	1050
941.606	206
941.699	870
941.792	656
941.885	720
941.978	774
942.071	-338
942.164	17
942.257	807
942.349	520
942.442	614
942.535	207
942.628	945
942.721	79
942.813	-300
942.906	845
942.999	749
943.091	277
943.184	70
943.277	327
943.369	583
943.462	-557
943.554	-152
943.647	356
943.739	160
943.832	968
943.924	237
944.017	788
944.109	-907
944.201	31
944.294	674
944.386	404
944.478	-244
944.571	-368
944.663	-376
944.755	301
944.847	152
944.940	-22
945.032	-947
945.124	475
945.216	896
945.308	-320
945.400	1325
945.492	17
945.584	104
945.676	681
945.768	384
945.860	670
945.952	-238
946.044	372
946.136	-200
946.228	616
946.320	-495
946.412	613
946.503	298
946.595	802
946.687	-451
946.779	-389
946.870	385
946.962	-820
947.054	1033
947.145	-99
947.237	793
947.329	139
947.420	169
947.512	-451
947.603	131
947.695	-342
947.786	-560
947.878	-202
947.969	724
948.061	-212
948.152	-319
948.243	-188
948.335	550
948.426	293
948.517	-205
948.609	73
948.700	-123
948.791	109
948.882	568
948.973	255
949.065	-635
949.156	606
949.247	-706
949.338	28
949.429	-645
949.520	1010
949.611	-641
949.702	141
949.793	-486
949.884	309
949.975	-385
950.066	-46
950.157	-652
950.247	106
950.338	-11
950.429	-36
950.520	-496
950.611	219
950.701	13
950.792	84
950.883	-156
950.973	44
951.064	-29
951.155	1046
951.245	-28
951.336	41
951.427	-482
951.517	946
951.608	-12
951.698	-354
951.788	-41
951.879	-456
951.969	517
952.060	240
952.150	-68
952.240	751
952.331	-1520
952.421	1662
952.511	-313
952.602	906
952.692	-922
952.782	-604
952.872	-198
952.962	-517
953.052	-146
953.143	-472
953.233	115
953.323	404
953.413	-625
953.503	-356
953.593	-346
953.683	56
953.773	-1250
953.863	-636
953.953	310
954.042	-437
954.132	-679
954.222	530
954.312	-163
954.402	-84
954.492	-265
954.581	292
954.671	-1025
954.761	-303
954.850	-173
954.940	-867
955.030	-205
955.119	-38
955.209	7
955.298	-500
955.388	-420
955.477	303
955.567	-697
955.656	521
955.746	407
955.835	110
955.925	-591
956.014	-543
956.103	-298
956.193	24
956.282	427
956.371	-229
956.461	214
956.550	-395
956.639	-346
956.728	-672
956.817	98
956.906	102
956.995	229
957.085	159
957.174	139
957.263	-945
957.352	-139
957.441	-1246
957.530	-166
957.619	827
957.708	105
957.796	155
957.885	-265
957.974	124
958.063	1105
958.152	-757
958.241	237
958.329	297
958.418	33
958.507	-546
958.596	250
958.684	-122
958.773	330
958.861	-412
958.950	-276
959.039	-391
959.127	-414
959.216	282
959.304	-243
959.393	215
959.481	-378
959.570	-160
959.658	-608
959.746	49
959.835	73
959.923	559
960.011	-953
960.100	800
960.188	106
960.276	-430
960.365	-441
960.453	-147
960.541	-790
960.629	-323
960.717	-999
960.805	-628
960.893	407
960.981	-1019
961.069	729
961.158	24
961.245	373
961.333	609
961.421	-305
961.509	1055
961.597	-532
961.685	-959
961.773	-620
961.861	-283
961.949	707
962.036	-1041
962.124	494
962.212	-657
962.299	-816
962.387	-821
962.475	-765
962.562	-1280
962.650	-245
962.738	-398
962.825	159
962.913	-94
963.000	-236
963.088	-623
963.175	-533
963.263	78
963.350	-718
963.438	-230
963.525	-888
963.612	162
963.700	130
963.787	2089
963.874	-79
963.962	-479
964.049	-772
964.136	-958
964.223	-666
964.310	39
964.398	-69
964.485	-256
964.572	217
964.659	581
964.746	-754
964.833	-165
964.920	-463
965.007	166
965.094	-112
965.181	-288
965.268	-1430
965.355	-319
965.441	-319
965.528	-1284
965.615	-29
965.702	-347
965.789	-1168
965.875	-759
965.962	-708
966.049	-1269
966.136	-482
966.222	-637
966.309	-182
966.395	-478
966.482	-69
966.569	-322
966.655	-623
966.742	72
966.828	-195
966.915	-380
967.001	-516
967.087	-1199
967.174	-855
967.260	-755
967.347	-100
967.433	-250
967.519	597
967.605	-580
967.692	63
967.778	-768
967.864	-818
967.950	-647
968.036	258
968.123	39
968.209	-696
968.295	-1110
968.381	285
968.467	-56
968.553	-1642
968.639	933
968.725	-1304
968.811	159
968.897	-231
968.983	-672
969.069	-650
969.154	169
969.240	-44
969.326	-675
969.412	-1199
969.497	-632
969.583	-852
969.669	-269
969.755	-135
969.840	-726
969.926	295
970.012	-391
970.097	1090
970.183	-438
970.268	-407
970.354	168
970.439	29
970.525	1322
970.610	-1367
970.696	255
970.781	-651
970.866	-1252
970.952	246
971.037	-1016
971.122	-969
971.208	-345
971.293	-631
971.378	-942
971.463	-88
971.549	-114
971.634	-766
971.719	-604
971.804	-1235
971.889	362
971.974	-1091
972.059	-855
972.144	-321
972.229	-32
972.314	-812
972.399	175
972.484	-708
972.569	-178
972.654	-1046
972.739	-577
972.824	-108
972.908	-1073
972.993	-770
973.078	-1283
973.163	-1022
973.247	-273
973.332	-1262
973.417	847
973.501	-911
973.586	-944
973.671	-536
973.755	66
973.840	-1010
973.924	488
974.009	270
974.093	-1065
974.178	374
974.262	-786
974.346	-967
974.431	-604
974.515	86
974.600	-67
974.684	9
974.768	-297
974.852	994
974.937	-1115
975.021	120
975.105	-629
975.189	-324
975.273	-99
975.358	-623
975.442	-1586
975.526	368
975.610	-1833
975.694	-1163
975.778	288
975.862	-13
975.946	-2271
976.030	777
976.114	-1052
976.198	443
976.281	-496
976.365	-35
976.449	-28
976.533	-4
976.617	-655
976.700	-116
976.784	-1054
976.868	-406
976.951	-1265
977.035	-642
977.119	-203
977.202	-691
977.286	364
977.369	-662
977.453	-240
977.536	-692
977.620	-1120
977.703	-403
977.787	-724
977.870	324
977.953	-461
978.037	-2233
978.120	97
978.203	-564
978.287	-51
978.370	-511
978.453	-338
978.536	207
978.620	266
978.703	14
978.786	-1625
978.869	-187
978.952	-1555
979.035	541
979.118	304
979.201	-868
979.284	-125
979.367	-991
979.450	-328
979.533	-454
979.616	-812
979.699	-1121
979.782	434
979.865	40
979.948	-251
980.030	-890
980.113	-438
980.196	-531
980.279	-156
980.361	-545
980.444	-715
980.526	307
980.609	-428
980.692	-134
980.774	-479
980.857	-1843
980.939	389
981.022	-1164
981.104	-376
981.187	-80
981.269	-58
981.352	-316
981.434	-1203
981.516	-932
981.599	760
981.681	333
981.763	-188
981.846	-559
981.928	-704
982.010	-623
982.092	-580
982.174	540
982.256	-508
982.339	-344
982.421	-729
982.503	-646
982.585	-1400
982.667	-304
982.749	-765
982.831	76
982.913	-1009
982.995	994
983.077	-948
983.158	275
983.240	-1363
983.322	-593
983.404	124
983.486	-1487
983.568	-380
983.649	-1162
983.731	373
983.813	-578
983.894	-785
983.976	-1421
984.058	-131
984.139	137
984.221	-1369
984.302	445
984.384	-922
984.465	-96
984.547	-129
984.628	-515
984.710	129
984.791	76
984.872	-1116
984.954	-579
985.035	-293
985.116	-1574
985.198	-1603
985.279	491
985.360	-1035
985.441	-1093
985.522	136
985.604	-707
985.685	-2643
985.766	353
985.847	-81
985.928	-1661
986.009	-608
986.090	-45
986.171	-289
986.252	-550
986.333	-852
986.414	-566
986.495	-471
986.576	-584
986.656	-17
986.737	-165
986.818	-289
986.899	519
986.980	-1726
987.060	405
987.141	-1065
987.222	-555
987.302	-1387
987.383	-127
987.464	-772
987.544	58
987.625	-864
987.705	-63
987.786	-129
987.866	-49
987.947	-332
988.027	225
988.108	-1121
988.188	-416
988.268	-301
988.349	-641
988.429	-717
988.509	-797
988.589	-907
988.670	-1659
988.750	449
988.830	-851
988.910	-332
988.990	-116
989.070	-226
989.151	-1101
989.231	-1033
989.311	428
989.391	393
989.471	-634
989.551	-1483
989.631	-454
989.711	565
989.791	-1639
989.870	-1302
989.950	1405
990.030	-1328
990.110	-11
990.190	-123
990.269	-751
990.349	-778
990.429	355
990.509	-572
990.588	-1247
990.668	-331
990.747	-544
990.827	-1095
990.907	-736
990.986	-989
991.066	-165
991.145	-350
991.225	-392
991.304	-1161
991.383	122
991.463	-525
991.542	-363
991.622	-198
991.701	-839
991.780	-1123
991.859	-906
991.939	-284
992.018	-732
992.097	-1019
992.176	-693
992.256	-1151
992.335	-1842
992.414	200
992.493	-1269
992.572	-832
992.651	-320
992.730	-607
992.809	381
992.888	-1040
992.967	-1512
993.046	-518
993.125	-1621
993.203	-1493
993.282	-1005
993.361	-708
993.440	-635
993.519	-1662
993.597	-621
993.676	-1287
993.755	546
993.834	-901
993.912	-1904
993.991	433
994.069	-1162
994.148	-871
994.226	-803
994.305	-552
994.384	-1787
994.462	-172
994.540	-986
994.619	-2368
994.697	-762
994.776	-1477
994.854	-228
994.932	-1073
995.011	-856
995.089	-1749
995.167	-1143
995.245	-267
995.324	-1260
995.402	178
995.480	-1557
995.558	-1696
995.636	-1062
995.714	-1115
995.792	-2
995.870	-1607
995.948	-783
996.026	-558
996.104	-2121
996.182	-519
996.260	-401
996.338	-1217
996.416	-1831
996.494	-1437
996.572	-257
996.649	-1331
996.727	-2212
996.805	-991
996.883	-819
996.960	-1011
997.038	-744
997.116	-863
997.193	-1233
997.271	-348
997.348	-1179
997.426	-680
997.504	-2299
997.581	-409
997.658	-285
997.736	-1752
997.813	-2119
997.891	-718
997.968	-1328
998.046	-1032
998.123	-1135
998.200	-900
998.277	-1141
998.355	-820
998.432	-2246
998.509	-1536
998.586	-251
998.663	-453
998.741	-1340
998.818	-1574
998.895	-297
998.972	-748
999.049	-1099
999.126	-1243
999.203	-692
999.280	-774
999.357	-1572
999.434	-433
999.511	-1143
999.587	-63
999.664	-2083
999.741	-753
999.818	-912
999.895	-1672
999.971	-1150
1000.048	-1359
1000.125	41
1000.202	-849
1000.278	-1416
1000.355	-1255
1000.431	-975
1000.508	-1203
1000.584	-755
1000.661	-474
1000.738	-1782
1000.814	-1400
1000.890	-659
1000.967	-1961
1001.043	-700
1001.120	-1877
1001.196	-1078
1001.272	-1613
1001.349	-1681
1001.425	-322
1001.501	-738
1001.577	-1341
1001.654	-288
1001.730	-1705
1001.806	-316
1001.882	-1183
1001.958	-874
1002.034	-734
1002.110	-769
1002.186	-1555
1002.262	-1877
1002.338	-1229
1002.414	-290
1002.490	-749
1002.566	-1106
1002.642	-1473
1002.718	-265
1002.794	-734
1002.870	-1024
1002.945	-1393
1003.021	-1589
1003.097	-1732
1003.173	-1022
1003.248	-1070
1003.324	-1491
1003.400	-625
1003.475	-1598
1003.551	-761
1003.626	-1514
1003.702	-1148
1003.777	-469
1003.853	-217
1003.928	-1326
1004.004	-896
1004.079	-1348
1004.155	-1132
1004.230	-2224
1004.305	-489
1004.381	-1607
1004.456	-1404
1004.531	-1690
1004.607	-1040
1004.682	-546
1004.757	-1400
1004.832	-1204
1004.907	-1447
1004.982	-1074
1005.057	-1089
1005.133	-1695
1005.208	-1312
1005.283	-1156
1005.358	-1090
1005.433	-2059
1005.508	-1213
1005.583	-2081
1005.657	-1015
1005.732	-972
1005.807	-1466
1005.882	-1385
1005.957	-1533
1006.032	-966
1006.106	-782
1006.181	-2164
1006.256	-245
1006.331	-1933
1006.405	-680
1006.480	-1159
1006.554	-889
1006.629	-1523
1006.704	-1021
1006.778	-1593
1006.853	-704
1006.927	-1638
1007.002	-1787
1007.076	-1392
1007.150	-1457
1007.225	-1464
1007.299	-1178
1007.373	-1184
1007.448	-1959
1007.522	-775
1007.596	-935
1007.671	-1453
1007.745	-1011
1007.819	-1924
1007.893	-1255
1007.967	-1090
1008.041	-2006
1008.115	-1159
1008.190	-2128
1008.264	-730
1008.338	-1802
1008.412	-1099
1008.486	-1429
1008.560	-1062
1008.633	-1412
1008.707	-699
1008.781	-829
1008.855	-1604
1008.929	-670
1009.003	-2280
1009.076	-1413
1009.150	-914
1009.224	-1319
1009.298	-1365
1009.371	-1922
1009.445	-1380
1009.519	-530
1009.592	-2106
1009.666	-422
1009.739	-711
1009.813	-1758
1009.886	-595
1009.960	-1671
1010.033	-1242
1010.107	-885
1010.180	-2083
1010.253	-1183
1010.327	-1701
1010.400	-945
1010.473	-1365
1010.547	-275
1010.620	-1458
1010.693	-1051
1010.766	-1141
1010.840	-1205
1010.913	-1339
1010.986	-1750
1011.059	-1644
1011.132	-1729
1011.205	-949
1011.278	-1588
1011.351	-750
1011.424	-1818
1011.497	-1040
1011.570	-970
1011.643	-783
1011.716	-1766
1011.789	-1495
1011.862	-963
1011.934	-1015
1012.007	-1670
1012.080	-1193
1012.153	-952
1012.225	-236
1012.298	-1730
1012.371	-1263
1012.443	-607
1012.516	-1539
1012.588	-721
1012.661	-700
1012.733	-942
1012.806	-700
1012.879	-1092
1012.951	-1342
1013.023	-1421
1013.096	-635
1013.168	-1238
1013.241	20
1013.313	-990
1013.385	-1562
1013.458	-1646
1013.530	-204
1013.602	-1169
1013.674	-521
1013.746	-1767
1013.819	-727
1013.891	-1059
1013.963	-926
1014.035	-1419
1014.107	-1412
1014.179	-902
1014.251	-1906
1014.323	-1379
1014.395	-1170
1014.467	-1254
1014.539	-1481
1014.611	-1963
1014.683	-560
1014.754	-438
1014.826	-1998
1014.898	-1199
1014.970	-2015
1015.042	-354
1015.113	-313
1015.185	-843
1015.257	-1834
1015.328	-1041
1015.400	-1433
1015.471	-1352
1015.543	-1270
1015.615	-1330
1015.686	-1296
1015.757	-1476
1015.829	-824
1015.901	-761
1015.972	-1041
1016.043	-1394
1016.115	-533
1016.186	-1663
1016.257	-1569
1016.328	-1225
1016.400	-762
1016.471	-1945
1016.542	-1546
1016.613	-1986
1016.685	-1641
1016.756	-958
1016.827	-1009
1016.898	-2118
1016.969	-1127
1017.040	-1574
1017.111	-1496
1017.182	-1321
1017.253	-851
1017.324	-1224
1017.395	-1633
1017.466	-1153
1017.537	-2094
1017.608	-972
1017.678	-735
1017.749	-1034
1017.820	-1478
1017.891	-1420
1017.961	-1392
1018.032	-1032
1018.103	-1094
1018.173	-688
1018.244	-1349
1018.315	-1602
1018.385	-1414
1018.456	-2275
1018.526	-1038
1018.597	-1307
1018.667	-1161
1018.738	-448
1018.808	-1368
1018.878	-1384
1018.949	-1445
1019.019	-964
1019.089	-1273
1019.160	-473
1019.230	-1709
1019.300	-582
1019.371	-1659
1019.441	-585
1019.511	-1899
1019.581	-1078
1019.651	-807
1019.721	-1100
1019.791	-736
1019.861	-1652
1019.931	-1525
1020.001	-1288
1020.071	-1221
1020.141	-1579
1020.211	-1507
1020.281	-1612
1020.351	-1446
1020.421	-1763
1020.491	-1312
1020.560	-2172
1020.630	-1118
1020.700	-1698
1020.770	-1516
1020.839	-1471
1020.909	-705
1020.979	-1682
1021.048	-612
1021.118	-2321
1021.187	-1381
1021.257	-1321
1021.326	-1275
1021.396	-1763
1021.465	-1128
1021.535	-1438
1021.604	-1860
1021.674	-1584
1021.743	-1042
1021.812	-1005
1021.882	-1364
1021.951	-2200
1022.020	-1095
1022.089	-1790
1022.159	-1122
1022.228	-878
1022.297	-631
1022.366	-1577
1022.435	-806
1022.504	-1826
1022.573	-2074
1022.642	-640
1022.711	-2020
1022.781	-1537
1022.849	-785
1022.918	-1844
1022.987	-1150
1023.056	-1489
1023.125	-1682
1023.194	-1288
1023.263	-923
1023.331	-1153
1023.400	-2267
1023.469	-1782
1023.538	-999
1023.606	-1270
1023.675	-1351
1023.744	-1403
1023.812	-2500
1023.881	-1993
1023.949	-1343
1024.018	-681
1024.086	-1762
1024.155	-1582
1024.223	-1497
1024.292	-1441
1024.360	-912
1024.429	-1288
1024.497	-2314
1024.565	-752
1024.634	-1161
1024.702	-1610
1024.770	-1927
1024.838	-1815
1024.907	-1404
1024.975	-1713
1025.043	-1395
1025.111	-1619
1025.179	-1682
1025.247	-2166
1025.315	-1159
1025.383	-2032
1025.451	-2337
1025.519	-1675
1025.587	-2462
1025.655	-843
1025.723	-2057
1025.791	-1423
1025.859	-1925
1025.927	-1015
1025.995	-1508
1026.062	-2028
1026.130	-1078
1026.198	-1310
1026.266	-2170
1026.333	-1618
1026.401	-1403
1026.469	-1374
1026.536	-1259
1026.604	-1367
1026.671	-1864
1026.739	-1427
1026.806	-1011
1026.874	-2048
1026.941	-2104
1027.009	-2082
1027.076	-1447
1027.144	-1160
1027.211	-1955
1027.278	-1653
1027.345	-1695
1027.413	-1554
1027.480	-2320
1027.547	-1423
1027.614	-1670
1027.682	-1602
1027.749	-1709
1027.816	-2272
1027.883	-1484
1027.950	-1456
1028.017	-2460
1028.084	-1288
1028.151	-1917
1028.218	-1262
1028.285	-1957
1028.352	-2258
1028.419	-2356
1028.486	-2061
1028.553	-850
1028.619	-2256
1028.686	-1772
1028.753	-2030
1028.820	-1820
1028.886	-1951
1028.953	-2040
1029.020	-1116
1029.086	-2079
1029.153	-1896
1029.220	-2349
1029.286	-2006
1029.353	-1391
1029.419	-1705
1029.486	-1503
1029.552	-2616
1029.619	-2120
1029.685	-1530
1029.751	-1674
1029.818	-1115
1029.884	-2181
1029.951	236
1030.017	-1323
1030.083	-2292
1030.149	-1802
1030.216	-2192
1030.282	-1505
1030.348	-2261
1030.414	-2521
1030.480	-1888
1030.546	-1637
1030.612	-1378
1030.678	-2152
1030.744	-2517
1030.810	-1854
1030.876	-2344
1030.942	-2024
1031.008	-1887
1031.074	-1602
1031.140	-1609
1031.206	-1759
1031.272	-1857
1031.337	-1844
1031.403	-1002
1031.469	-2045
1031.534	-2721
1031.600	-1873
1031.666	-2431
1031.731	-1762
1031.797	-2299
1031.863	-1806
1031.928	-1347
1031.994	-2419
1032.059	-1865
1032.125	-1955
1032.190	-1408
1032.256	-2527
1032.321	-1594
1032.386	-2072
1032.452	-1037
1032.517	-1361
1032.582	-2163
1032.647	-1979
1032.713	-2071
1032.778	-1648
1032.843	-1727
1032.908	-2571
1032.974	-1361
1033.039	-2202
1033.104	-2026
1033.169	-2168
1033.234	-2192
1033.299	-1692
1033.364	-787
1033.429	-2669
1033.494	-1657
1033.559	-2039
1033.624	-1599
1033.688	-1923
1033.753	-2243
1033.818	-1793
1033.883	-1670
1033.948	-1810
1034.013	-1989
1034.077	-1537
1034.142	-588
1034.207	-1464
1034.271	-842
1034.336	-639
1034.400	-1421
1034.465	-1056
1034.530	-1575
1034.594	-1566
1034.658	-1692
1034.723	-1179
1034.787	-2051
1034.852	-1850
1034.916	-2079
1034.981	-2027
1035.045	-1708
1035.109	-1811
1035.173	-1440
1035.238	-2885
1035.302	-1529
1035.366	-2010
1035.430	-2500
1035.495	-2086
1035.559	-1414
1035.623	-2176
1035.687	-2181
1035.751	-2252
1035.815	-2177
1035.879	-2307
1035.943	-2022
1036.007	-2142
1036.071	-1466
1036.135	-1709
1036.198	-2297
1036.262	-1805
1036.326	-1818
1036.390	-1761
1036.454	-1780
1036.517	-2387
1036.581	-1723
1036.645	-2386
1036.709	-2058
1036.772	-2037
1036.836	-1311
1036.900	-2218
1036.963	-2480
1037.026	-1645
1037.090	-1843
1037.154	-2205
1037.217	-2507
1037.280	-1947
1037.344	-2220
1037.407	-2366
1037.471	-1591
1037.534	-2318
1037.597	-1607
1037.661	-1712
1037.724	-1627
1037.787	-1681
1037.850	-1627
1037.913	-2360
1037.977	-1570
1038.040	-2823
1038.103	-993
1038.166	-2563
1038.229	-1833
1038.292	-2373
1038.355	-1621
1038.418	-2185
1038.481	-1883
1038.544	-1608
1038.607	-1826
1038.670	-2027
1038.732	-1671
1038.795	-2468
1038.858	-2288
1038.921	-1675
1038.984	-1351
1039.046	-2460
1039.109	-2187
1039.172	-1747
1039.234	-2105
1039.297	-2702
1039.360	-1633
1039.422	-1825
1039.485	-1911
1039.547	-2278
1039.610	-1484
1039.672	-1809
1039.734	-1944
1039.797	-1673
1039.859	-2102
1039.922	-1458
1039.984	-2107
1040.046	-1239
1040.109	-1165
1040.171	-3307
1040.233	-2267
1040.295	-2469
1040.358	-1823
1040.420	-1823
1040.482	-1820
1040.544	-1703
1040.606	-1337
1040.668	-1944
1040.730	-2484
1040.792	-2247
1040.854	-2371
1040.916	-1322
1040.978	-1339
1041.040	-953
1041.102	-1456
1041.164	-2316
1041.225	-1703
1041.287	-1647
1041.349	-1486
1041.411	-3156
1041.472	-1787
1041.534	-1951
1041.596	-2904
1041.657	-1133
1041.719	-1398
1041.781	-2177
1041.842	-2611
1041.904	-2941
1041.965	-2544
1042.027	-1127
1042.088	-1463
1042.150	-2083
1042.211	-2039
1042.272	-1317
1042.334	-2334
1042.395	-1667
1042.456	-2160
1042.518	-1936
1042.579	-1076
1042.640	-2042
1042.701	-1300
1042.763	-2306
1042.824	-1194
1042.885	-2134
1042.946	-1330
1043.007	-433
1043.068	-1619
1043.129	-2182
1043.190	-1570
1043.251	-1202
1043.312	-1633
1043.373	-1137
1043.434	-1664
1043.495	-1204
1043.556	-1778
1043.616	-2285
1043.677	-1709
1043.738	-2159
1043.799	-1689
1043.859	-1677
1043.920	-1901
1043.981	-2351
1044.041	-1170
1044.102	-1589
1044.162	-1724
1044.223	-1781
1044.284	-1760
1044.344	-2046
1044.405	-1381
1044.465	-2639
1044.525	-2215
1044.586	-1618
1044.646	-2113
1044.707	-874
1044.767	-1550
1044.827	-2336
1044.887	-1911
1044.948	-1434
1045.008	-1517
1045.068	-1186
1045.128	-2062
1045.188	-1311
1045.249	-1320
1045.309	-1539
1045.369	-1259
1045.429	-1437
1045.489	-1719
1045.549	-1434
1045.609	-2047
1045.669	-2297
1045.729	-1700
1045.789	-724
1045.848	-1175
1045.908	-1146
1045.968	-1150
1046.028	-1338
1046.088	-1844
1046.147	-1200
1046.207	-1579
1046.267	-733
1046.326	-553
1046.386	-1114
1046.446	-632
1046.505	-637
1046.565	-1362
1046.624	-224
1046.684	-746
1046.743	-142
1046.803	-314
1046.862	262
1046.922	0
