'Start Wavelength	183.907
'End Wavelength	1046.922
'Gate Delay	5.000
'Gate Width (ms)	1.050
'Laser Output Level	0.000
'X Position	0.000
'Y Position	0.000
'Z Position	0.000
'Grid Point Number	1.000
'Shot Number	100.000
183.907	266.000
183.977	185.000
184.047	38
184.116	556
184.186	458
184.256	-443
184.325	918
184.395	-971
184.465	1038
184.534	-358
184.604	79
184.674	238
184.743	38
184.813	662
184.883	-193
184.952	293
185.022	-160
185.092	-392
185.161	-342
185.231	395
185.301	-762
185.370	417
185.440	-293
185.509	-296
185.579	219
185.649	463
185.718	221
185.788	102
185.857	328
185.927	-398
185.996	-325
186.066	-147
186.136	-450
186.205	-287
186.275	390
186.344	214
186.414	-33
186.483	-1210
186.553	534
186.622	986
186.692	41
186.761	48
186.831	520
186.900	-692
186.970	736
187.039	-363
187.109	584
187.178	107
187.248	-297
187.317	-78
187.387	-259
187.456	-94
187.526	-251
187.595	478
187.664	-128
187.734	-375
187.803	161
187.873	-217
187.942	166
188.012	213
188.081	-390
188.150	-318
188.220	-389
188.289	279
188.358	-28
188.428	28
188.497	-332
188.567	158
188.636	-502
188.705	494
188.775	-1076
188.844	287
188.913	572
188.983	-556
189.052	67
189.121	-272
189.191	-714
189.260	-171
189.329	67
189.399	-318
189.468	473
189.537	-509
189.606	543
189.676	-101
189.745	-118
189.814	482
189.883	-132
189.953	130
190.022	-601
190.091	-245
190.161	50
190.230	435
190.299	-148
190.368	184
190.437	212
190.507	-915
190.576	-792
190.645	1009
190.714	-468
190.783	-67
190.853	613
190.922	-193
190.991	-780
191.060	401
191.129	-291
191.198	-169
191.268	199
191.337	-186
191.406	179
191.475	-351
191.544	-661
191.613	592
191.682	-410
191.752	-215
191.821	-91
191.890	-1163
191.959	-339
192.028	-400
192.097	-138
192.166	192
192.235	-591
192.304	374
192.373	100
192.442	332
192.511	147
192.580	171
192.650	-106
192.719	-230
192.788	166
192.857	582
192.926	-368
192.995	-631
193.064	-223
193.133	-180
193.202	-683
193.271	141
193.340	33
193.409	-380
193.478	498
193.547	-630
193.615	-235
193.684	412
193.753	297
193.822	203
193.891	-60
193.960	-2
194.029	-205
194.098	278
194.167	-498
194.236	182
194.305	-387
194.374	993
194.443	56
194.512	-66
194.580	267
194.649	-225
194.718	-40
194.787	-69
194.856	-23
194.925	804
194.994	-167
195.062	-396
195.131	-593
195.200	409
195.269	-827
195.338	367
195.407	368
195.475	-1280
195.544	-340
195.613	-507
195.682	-168
195.751	-686
195.819	385
195.888	-322
195.957	-260
196.026	222
196.094	56
196.163	-668
196.232	278
196.301	-855
196.369	-82
196.438	7
196.507	528
196.576	-898
196.644	7
196.713	-233
196.782	115
196.850	-99
196.919	-141
196.988	-288
197.056	-195
197.125	-362
197.194	310
197.262	-221
197.331	-86
197.400	-601
197.468	-700
197.537	-438
197.606	100
197.674	177
197.743	196
197.812	-718
197.880	420
197.949	-74
198.017	473
198.086	-687
198.155	84
198.223	206
198.292	37
198.360	-631
198.429	-632
198.497	-930
198.566	-584
198.635	190
198.703	538
198.772	-345
198.840	122
198.909	-1142
198.977	-327
199.046	75
199.114	-59
199.183	-226
199.251	-556
199.320	-835
199.388	-223
199.457	-681
199.525	-661
199.594	-358
199.662	-240
199.731	-920
199.799	-298
199.867	286
199.936	-414
200.004	-4
200.073	-451
200.141	109
200.210	-636
200.278	-392
200.346	-796
200.415	11
200.483	-450
200.552	-164
200.620	-275
200.688	112
200.757	-89
200.825	-601
200.893	-91
200.962	-206
201.030	-678
201.098	-700
201.167	245
201.235	-184
201.303	-336
201.372	323
201.440	690
201.508	265
201.577	-125
201.645	-564
201.713	420
201.781	-1024
201.850	-427
201.918	-106
201.986	-620
202.055	273
202.123	594
202.191	-603
202.259	-329
202.327	-367
202.396	353
202.464	-472
202.532	-593
202.600	-72
202.669	-137
202.737	-357
202.805	-908
202.873	-9
202.941	-672
203.009	-460
203.078	-798
203.146	-253
203.214	-465
203.282	-1286
203.350	-331
203.418	-419
203.487	-144
203.555	-93
203.623	-292
203.691	-42
203.759	-214
203.827	-762
203.895	-302
203.963	42
204.031	-780
204.099	-784
204.168	-715
204.236	211
204.304	-522
204.372	-137
204.440	-161
204.508	-835
204.576	-1077
204.644	-426
204.712	-515
204.780	-419
204.848	118
204.916	-727
204.984	-100
205.052	-407
205.120	-683
205.188	325
205.256	-221
205.324	-281
205.392	-708
205.460	-85
205.528	-784
205.596	-585
205.664	-183
205.732	100
205.799	-536
205.867	275
205.935	-574
206.003	190
206.071	-376
206.139	-814
206.207	-268
206.275	-861
206.343	-594
206.411	-931
206.478	-151
206.546	-20
206.614	164
206.682	-978
206.750	-70
206.818	-67
206.885	251
206.953	-1549
207.021	445
207.089	-18
207.157	-104
207.225	-529
207.292	197
207.360	-513
207.428	-662
207.496	-635
207.563	-47
207.631	-747
207.699	-806
207.767	-148
207.834	-894
207.902	-74
207.970	-576
208.038	-455
208.105	-367
208.173	-1144
208.241	-1418
208.309	-216
208.376	-1197
208.444	302
208.512	-1270
208.579	-794
208.647	-199
208.715	-93
208.782	-581
208.850	-166
208.918	-727
208.985	-269
209.053	-830
209.120	-750
209.188	-461
209.256	-562
209.323	-877
209.391	-731
209.459	580
209.526	-380
209.594	-781
209.661	-787
209.729	-3
209.796	-616
209.864	-779
209.932	-1189
209.999	1310
210.067	-230
210.134	-645
210.202	-492
210.269	-303
210.337	168
210.404	-1170
210.472	-3
210.539	2
210.607	-1044
210.674	-790
210.742	7
210.809	115
210.877	-485
210.944	-90
211.012	-1256
211.079	958
211.146	-448
211.214	-1409
211.281	-646
211.349	-12
211.416	-151
211.484	182
211.551	-552
211.618	68
211.686	115
211.753	-1321
211.821	-360
211.888	-192
211.955	-587
212.023	178
212.090	-93
212.157	-521
212.225	-1044
212.292	-155
212.359	248
212.427	-765
212.494	-660
212.561	-319
212.629	-657
212.696	-667
212.763	-443
212.831	-976
212.898	197
212.965	-686
213.032	-199
213.100	-227
213.167	-700
213.234	207
213.301	-631
213.369	-427
213.436	-89
213.503	-248
213.570	-596
213.638	-718
213.705	-567
213.772	-1240
213.839	-650
213.906	-15
213.973	-434
214.041	-605
214.108	-577
214.175	-963
214.242	-699
214.309	93
214.376	-959
214.444	-377
214.511	-440
214.578	-518
214.645	427
214.712	-458
214.779	-225
214.846	-983
214.913	17
214.980	-7
215.048	-540
215.115	335
215.182	-1068
215.249	-1086
215.316	-869
215.383	214
215.450	-279
215.517	-505
215.584	-967
215.651	-189
215.718	-367
215.785	-230
215.852	-1063
215.919	438
215.986	-28
216.053	-295
216.120	-1139
216.187	-446
216.254	-916
216.321	-456
216.388	-450
216.455	-268
216.522	-630
216.589	-568
216.656	96
216.722	-1490
216.789	-879
216.856	-898
216.923	-412
216.990	-420
217.057	-772
217.124	-246
217.191	-1257
217.258	-197
217.324	-1227
217.391	-467
217.458	-405
217.525	-148
217.592	-1714
217.659	-1674
217.725	-450
217.792	-1345
217.859	-285
217.926	-320
217.993	-487
218.059	-322
218.126	-413
218.193	-10
218.260	-960
218.327	-12
218.393	-1113
218.460	-763
218.527	-1369
218.594	-248
218.660	-794
218.727	95
218.794	-728
218.860	410
218.927	-583
218.994	-699
219.061	-374
219.127	-69
219.194	-513
219.261	-459
219.327	-754
219.394	258
219.461	-1159
219.527	-275
219.594	-1020
219.661	-887
219.727	-439
219.794	113
219.860	-938
219.927	77
219.994	-828
220.060	-747
220.127	-106
220.193	-530
220.260	-1039
220.326	6
220.393	-1363
220.460	-1161
220.526	-1023
220.593	-506
220.659	1403
220.726	-733
220.792	-598
220.859	-919
220.925	-485
220.992	-663
221.058	-293
221.125	-818
221.191	-725
221.258	-1607
221.324	36
221.391	-1252
221.457	-966
221.524	-991
221.590	-104
221.657	258
221.723	-1125
221.789	-434
221.856	-66
221.922	-1608
221.989	-18
222.055	-387
222.121	-1865
222.188	328
222.254	-1305
222.321	-1058
222.387	-913
222.453	-95
222.520	-411
222.586	-1153
222.652	-511
222.719	-760
222.785	-449
222.851	-1277
222.918	-582
222.984	-795
223.050	-401
223.116	-2324
223.183	947
223.249	-770
223.315	-1145
223.382	-1381
223.448	-161
223.514	-907
223.580	-922
223.647	-484
223.713	-751
223.779	297
223.845	-672
223.911	-262
223.978	-1330
224.044	-446
224.110	-973
224.176	-237
224.242	-807
224.309	-1230
224.375	-477
224.441	-276
224.507	-673
224.573	-1810
224.639	691
224.705	-1071
224.772	218
224.838	-740
224.904	-304
224.970	-632
225.036	-178
225.102	-1077
225.168	-235
225.234	-567
225.300	-529
225.366	-551
225.432	-128
225.499	-380
225.565	-922
225.631	-1121
225.697	-942
225.763	-361
225.829	-1173
225.895	-555
225.961	-860
226.027	-787
226.093	-1172
226.159	-228
226.225	-417
226.291	75
226.357	-1048
226.423	-778
226.489	-875
226.554	-749
226.620	-848
226.686	-741
226.752	-793
226.818	-1000
226.884	-372
226.950	-1045
227.016	-1052
227.082	-103
227.148	-801
227.214	-585
227.279	-19
227.345	-545
227.411	-774
227.477	-1050
227.543	-114
227.609	-458
227.674	305
227.740	-597
227.806	-747
227.872	-53
227.938	-233
228.003	-589
228.069	-1241
228.135	-1066
228.201	-1213
228.267	-702
228.332	-1276
228.398	-1834
228.464	-577
228.530	-1105
228.595	-225
228.661	-1611
228.727	-775
228.792	-172
228.858	-914
228.924	-1991
228.990	1366
229.055	-1384
229.121	-192
229.187	-307
229.252	-1094
229.318	-662
229.384	-621
229.449	-1160
229.515	-1703
229.581	-1257
229.646	1269
229.712	-511
229.777	-1249
229.843	-1595
229.909	-454
229.974	-331
230.040	-736
230.105	-884
230.171	-1893
230.236	-9
230.302	-1392
230.368	-1554
230.433	-1147
230.499	-170
230.564	-400
230.630	-1541
230.695	-709
230.761	136
230.826	-1875
230.892	-302
230.957	-1336
231.023	-1040
231.088	-980
231.154	-836
231.219	-631
231.284	-984
231.350	-534
231.415	-1380
231.481	-458
231.546	-872
231.612	-727
231.677	-1225
231.742	-2103
231.808	669
231.873	-899
231.939	-2552
232.004	467
232.069	-194
232.135	-526
232.200	-1368
232.265	-453
232.331	-1193
232.396	-709
232.461	-213
232.527	-523
232.592	-1420
232.657	-906
232.723	-964
232.788	-1563
232.853	-1141
232.918	-1303
232.984	-1010
233.049	-1436
233.114	-1129
233.179	-388
233.245	-208
233.310	-971
233.375	-1417
233.440	-41
233.506	-1059
233.571	-739
233.636	-5
233.701	-1014
233.766	-723
233.832	-964
233.897	-482
233.962	-1677
234.027	485
234.092	-990
234.157	-633
234.222	-1312
234.288	-599
234.353	-840
234.418	187
234.483	-1212
234.548	-910
234.613	-1727
234.678	-394
234.743	-1761
234.808	363
234.873	-2026
234.938	-170
235.004	-887
235.069	-468
235.134	-1458
235.199	-428
235.264	-958
235.329	-1682
235.394	327
235.459	-315
235.524	-1549
235.589	-476
235.654	-758
235.719	-2157
235.784	-516
235.849	-561
235.913	-904
235.978	-780
236.043	-1017
236.108	-996
236.173	-1028
236.238	-180
236.303	-1499
236.368	-1201
236.433	-763
236.498	-946
236.563	-957
236.627	-975
236.692	-769
236.757	162
236.822	-156
236.887	-1455
236.952	-368
237.017	-2207
237.081	-144
237.146	-1742
237.211	-473
237.276	-631
237.341	-118
237.405	-910
237.470	-947
237.535	-954
237.600	-47
237.664	-633
237.729	-2156
237.794	-2027
237.859	-220
237.923	-679
237.988	-1121
238.053	-88
238.118	-1670
238.182	-615
238.247	22
238.312	-1112
238.376	-555
238.441	-2621
238.506	270
238.570	-1662
238.635	427
238.700	-1151
238.764	-1585
238.829	-1247
238.893	-1333
238.958	406
239.023	-744
239.087	-1232
239.152	-937
239.216	-806
239.281	-1098
239.346	-845
239.410	-1651
239.475	-1698
239.539	-48
239.604	-2068
239.668	111
239.733	-638
239.797	-467
239.862	201
239.926	-183
239.991	165
240.055	-423
240.120	-1227
240.184	-976
240.249	-864
240.313	-1135
240.378	-495
240.442	-366
240.507	-705
240.571	-1878
240.635	-652
240.700	-783
240.764	-898
240.829	-934
240.893	-1836
240.957	-364
241.022	-533
241.086	14
241.151	-2022
241.215	-1798
241.279	112
241.344	-1422
241.408	-586
241.472	-2013
241.537	-28
241.601	18
241.665	-1915
241.730	-1747
241.794	103
241.858	-1567
241.922	-920
241.987	-1114
242.051	-884
242.115	-2067
242.179	-840
242.244	-841
242.308	-83
242.372	-929
242.436	-1459
242.501	-109
242.565	-1758
242.629	-1652
242.693	42
242.757	-1545
242.822	-824
242.886	-1092
242.950	182
243.014	-1973
243.078	-366
243.142	-1360
243.206	-2423
243.271	-509
243.335	-1409
243.399	-264
243.463	-1393
243.527	48
243.591	-962
243.655	-1278
243.719	-1920
243.783	-74
243.847	-652
243.911	-657
243.975	-1871
244.040	-1710
244.104	115
244.168	-764
244.232	-1858
244.296	-467
244.360	-955
244.424	-1700
244.488	-208
244.552	63
244.615	-2264
244.679	-642
244.743	-941
244.807	-1556
244.871	-950
244.935	244
244.999	-2012
245.063	-1420
245.127	-430
245.191	-269
245.255	-958
245.319	-1238
245.383	-1865
245.446	865
245.510	-1834
245.574	-290
245.638	-300
245.702	-2091
245.766	-457
245.829	-743
245.893	-1513
245.957	-1869
246.021	-132
246.085	-911
246.149	-906
246.212	-415
246.276	-1872
246.340	-1952
246.404	-216
246.467	-51
246.531	-2736
246.595	236
246.659	-490
246.722	-1513
246.786	-556
246.850	-1080
246.913	-1294
246.977	-2180
247.041	-739
247.104	-750
247.168	-979
247.232	-1642
247.295	-1414
247.359	-549
247.423	-1467
247.486	-1463
247.550	-291
247.614	-784
247.677	-1587
247.741	-1593
247.804	-1173
247.868	-90
247.932	-1272
247.995	-561
248.059	-1599
248.122	-2198
248.186	-288
248.249	-937
248.313	-413
248.376	-269
248.440	-1717
248.503	-2085
248.567	-147
248.630	-2080
248.694	-950
248.757	-45
248.821	-237
248.884	8
248.948	-1536
249.011	-964
249.075	-810
249.138	-209
249.202	-929
249.265	-1122
249.328	-941
249.392	-1731
249.455	-1461
249.519	-975
249.582	-1483
249.645	-1677
249.709	-1435
249.772	-1326
249.835	-1146
249.899	-1253
249.962	-1246
250.025	-1304
250.089	-1869
250.152	-81
250.215	-787
250.279	-1207
250.342	-701
250.405	-438
250.468	-1354
250.532	-946
250.595	-793
250.658	-2109
250.721	-486
250.785	-1531
250.848	115
250.911	-1513
250.974	-272
251.038	-1083
251.101	-494
251.164	-1708
251.227	-401
251.290	-1111
251.354	-1054
251.417	-513
251.480	-346
251.543	-794
251.606	21
251.669	-55
251.732	-624
251.795	-680
251.859	-697
251.922	-216
251.985	-383
252.048	-418
252.111	-636
252.174	-1967
252.237	-472
252.300	-412
252.363	-1363
252.426	1739
252.489	-1581
252.552	-863
252.615	-1334
252.678	342
252.741	-1210
252.804	-1235
252.867	-589
252.930	-731
252.993	-1416
253.056	-394
253.119	-1568
253.182	-1526
253.245	-1448
253.308	21
253.371	-1493
253.434	-1054
253.497	-660
253.559	-577
253.622	-1550
253.685	-1411
253.748	-1066
253.811	-480
253.874	-451
253.937	-1701
254.000	-1143
254.062	-620
254.125	-1339
254.188	-4
254.251	-1555
254.314	-1208
254.376	-1891
254.439	-604
254.502	-1465
254.565	-1397
254.628	-772
254.690	-1440
254.753	-1617
254.816	-1045
254.878	-793
254.941	-1019
255.004	-784
255.067	-1376
255.129	-1839
255.192	-1073
255.255	-2038
255.317	-1162
255.380	-643
255.443	-1330
255.505	-840
255.568	-2216
255.631	-885
255.693	-1028
255.756	-2649
255.819	-422
255.881	-1073
255.944	-885
256.006	-1186
256.069	-990
256.132	-1932
256.194	-1232
256.257	-1587
256.319	-909
256.382	-1951
256.444	-204
256.507	-1036
256.569	-1474
256.632	-1060
256.694	-1402
256.757	-278
256.819	-793
256.882	-1784
256.944	-1416
257.007	583
257.069	-1579
257.132	-1811
257.194	-104
257.257	-2075
257.319	-2011
257.381	-2290
257.444	-278
257.506	-1141
257.569	-269
257.631	-567
257.693	-762
257.756	-1359
257.818	-1480
257.880	-947
257.943	-608
258.005	-1756
258.067	-1533
258.130	-580
258.192	-1144
258.254	-1446
258.317	-1983
258.379	-1158
258.441	-1098
258.503	-615
258.566	-806
258.628	-676
258.690	-1283
258.753	-594
258.815	-718
258.877	-2004
258.939	-598
259.001	-851
259.064	-686
259.126	-1294
259.188	-1280
259.250	-909
259.312	-1474
259.375	-1246
259.437	-885
259.499	-450
259.561	-1415
259.623	-663
259.685	-1816
259.747	-1580
259.809	-1337
259.872	-1176
259.934	-653
259.996	-1488
260.058	-821
260.120	-998
260.182	-705
260.244	-1115
260.306	-1241
260.368	-555
260.430	-1885
260.492	-714
260.554	-1096
260.616	-1801
260.678	-937
260.740	-966
260.802	-1321
260.864	-68
260.926	-2322
260.988	-528
261.050	-1829
261.112	-1429
261.174	-393
261.236	-1448
261.298	-1670
261.359	-193
261.421	-816
261.483	-919
261.545	-306
261.607	-2016
261.669	-706
261.731	-1212
261.793	-1371
261.854	-3085
261.916	-888
261.978	-1156
262.040	-1390
262.102	-708
262.164	-1493
262.225	-1047
262.287	-1493
262.349	-2137
262.411	-1320
262.472	-471
262.534	-2540
262.596	-1669
262.658	-446
262.719	-1994
262.781	-867
262.843	-1893
262.904	-1060
262.966	-922
263.028	-1264
263.090	-1048
263.151	-1148
263.213	-1079
263.275	-1575
263.336	-1087
263.398	-516
263.459	-1680
263.521	-1342
263.583	-1037
263.644	-1232
263.706	-1148
263.767	-1838
263.829	-480
263.891	-1026
263.952	-1323
264.014	-1414
264.075	-1192
264.137	-715
264.198	-1153
264.260	-1907
264.321	-1095
264.383	-1862
264.444	-1020
264.506	-1495
264.567	-451
264.629	-618
264.690	-3565
264.752	-1818
264.813	-1355
264.875	-2278
264.936	-1339
264.998	-2163
265.059	-754
265.120	-768
265.182	-1848
265.243	-1121
265.305	-1879
265.366	-639
265.427	-330
265.489	-1097
265.550	-1727
265.611	-944
265.673	-1924
265.734	-1636
265.795	-1523
265.857	-1739
265.918	-1779
265.979	-1307
266.040	-1474
266.102	-1634
266.163	-519
266.224	-1266
266.286	-1247
266.347	-2413
266.408	-1352
266.469	-1038
266.530	-889
266.592	-1036
266.653	-965
266.714	-1416
266.775	-1015
266.836	-1279
266.898	-1374
266.959	-1625
267.020	-1321
267.081	-200
267.142	-1369
267.203	-1620
267.264	-2111
267.326	-121
267.387	-1919
267.448	-1964
267.509	-902
267.570	-1429
267.631	-1407
267.692	-2047
267.753	-1188
267.814	-2258
267.875	-750
267.936	-1047
267.997	-1353
268.058	-1312
268.119	-2743
268.180	-1315
268.241	-2096
268.302	-1651
268.363	-1198
268.424	-2087
268.485	-1178
268.546	-1446
268.607	-835
268.668	-1283
268.729	-1405
268.790	-1792
268.851	-1065
268.912	-2041
268.972	-1855
269.033	-1902
269.094	-1293
269.155	-1192
269.216	-1159
269.277	-1846
269.338	-819
269.398	-1639
269.459	-1532
269.520	-597
269.581	-1650
269.642	-965
269.702	-1469
269.763	-1790
269.824	-697
269.885	-2121
269.945	-1296
270.006	-1886
270.067	-1659
270.128	-1176
270.188	-2086
270.249	-971
270.310	-1451
270.370	-1022
270.431	-944
270.492	-1788
270.553	-1213
270.613	-1372
270.674	-1019
270.734	-1857
270.795	-592
270.856	-1555
270.916	-1519
270.977	-2084
271.038	-614
271.098	-1037
271.159	-1678
271.219	-1909
271.280	-1128
271.340	-1516
271.401	-1146
271.462	-1905
271.522	-1504
271.583	-915
271.643	-1163
271.704	-1545
271.764	-1175
271.825	-1416
271.885	-359
271.946	-893
272.006	-395
272.066	-1613
272.127	-1412
272.187	-411
272.248	-486
272.308	-1871
272.369	-227
272.429	-669
272.489	-1396
272.550	-1528
272.610	-881
272.671	-1763
272.731	-447
272.791	-1208
272.852	-1304
272.912	-1516
272.972	-1188
273.033	-1726
273.093	-1770
273.153	-712
273.214	-714
273.274	-1647
273.334	-479
273.394	-1497
273.455	-1345
273.515	-569
273.575	-825
273.635	-398
273.696	-702
273.756	-1030
273.816	-657
273.876	-570
273.936	-928
273.997	-138
274.057	-1917
274.117	-950
274.177	-1079
274.237	-1058
274.297	-688
274.358	-1457
274.418	-342
274.478	-553
274.538	-1688
274.598	-2356
274.658	-1531
274.718	-1338
274.778	-994
274.838	-1583
274.898	-890
274.958	-606
275.018	-881
275.078	-1708
275.138	-1299
275.198	-1893
275.258	-500
275.318	-1760
275.378	-1729
275.438	-1373
275.498	-1069
275.558	-1608
275.618	-1090
275.678	-1639
275.738	-1474
275.798	-848
275.858	-1013
275.918	-1075
275.978	-1082
276.038	-1021
276.098	-1144
276.157	-1589
276.217	-1018
276.277	-931
276.337	-1814
276.397	-785
276.457	-1417
276.517	-1487
276.576	-780
276.636	-2090
276.696	-1418
276.756	-378
276.815	-1213
276.875	-1050
276.935	-2005
276.995	-821
277.055	-534
277.114	-919
277.174	-872
277.234	-1360
277.293	-1204
277.353	-713
277.413	-1099
277.472	-236
277.532	-629
277.592	-258
277.651	189
277.711	3164
277.771	500
277.830	1660
277.890	1933
277.950	618
278.009	5831
278.069	2191
278.128	1463
278.188	3123
278.248	263
278.307	3087
278.367	2250
278.426	-281
278.486	-897
278.545	-1429
278.605	-395
278.664	-1256
278.724	-765
278.783	-619
278.843	122
278.902	-66
278.962	-661
279.021	-132
279.081	1344
279.140	652
279.199	-1
279.259	787
279.318	1003
279.378	1285
279.437	2299
279.496	7927
279.556	45160
279.615	32443
279.675	7873
279.734	3845
279.793	3940
279.853	3684
279.912	1818
279.971	822
280.031	1184
280.090	1403
280.149	3138
280.208	4706
280.268	31242
280.327	29925
280.386	5954
280.445	2290
280.505	699
280.564	800
280.623	397
280.682	113
280.742	768
280.801	-555
280.860	-511
280.919	-1277
280.978	-166
281.037	-1166
281.097	-1261
281.156	978
281.215	-1059
281.274	-1275
281.333	-666
281.392	-580
281.451	-858
281.510	-479
281.569	-1107
281.628	-1456
281.688	-1064
281.747	-467
281.806	-334
281.865	259
281.924	-1031
281.983	-735
282.042	-1142
282.101	-1443
282.160	-480
282.219	-972
282.278	-11
282.337	-1128
282.396	-1128
282.454	-657
282.513	-871
282.572	-1197
282.631	-1074
282.690	-1302
282.749	-2089
282.808	-938
282.867	-1293
282.926	-1185
282.985	-391
283.043	-619
283.102	-1138
283.161	-664
283.220	234
283.279	-1362
283.338	-923
283.396	-1503
283.455	-813
283.514	-1109
283.573	-1730
283.631	-565
283.690	-998
283.749	-1855
283.808	-799
283.866	-1058
283.925	-677
283.984	112
284.043	-1252
284.101	-623
284.160	-5
284.219	-163
284.277	163
284.336	-113
284.395	459
284.453	-546
284.512	-21
284.570	333
284.629	1379
284.688	1184
284.746	1483
284.805	2967
284.863	3783
284.922	5389
284.981	7409
285.039	10336
285.098	13922
285.156	18375
285.215	21628
285.273	16876
285.332	18368
285.390	16391
285.449	11227
285.507	9110
285.566	5390
285.624	4341
285.683	4334
285.741	2360
285.799	1292
285.858	1633
285.916	1489
285.975	1276
286.033	308
286.091	-53
286.150	-645
286.208	49
286.267	-438
286.325	-542
286.383	-441
286.442	-879
286.500	-880
286.558	-767
286.616	-1329
286.675	-138
286.733	-795
286.791	-1257
286.850	-527
286.908	-1053
286.966	-284
287.024	-1233
287.083	-827
287.141	-1294
287.199	-147
287.257	-1307
287.315	-903
287.374	-1533
287.432	-985
287.490	-908
287.548	-1121
287.606	-1492
287.664	-688
287.723	-1144
287.781	-1100
287.839	-927
287.897	-1026
287.955	-1491
288.013	-368
288.071	-637
288.129	-367
288.187	3105
288.245	1361
288.303	-559
288.361	-1142
288.419	-1619
288.477	-746
288.535	-1539
288.593	-1669
288.651	-1161
288.709	-1772
288.767	-980
288.825	-1878
288.883	-774
288.941	-1394
288.999	-1732
289.057	-1510
289.115	-526
289.173	-1902
289.231	-1526
289.289	-1749
289.346	-1076
289.404	-882
289.462	-720
289.520	-1498
289.578	-2363
289.636	-1099
289.694	-1427
289.751	-823
289.809	-1402
289.867	-1138
289.925	-614
289.983	-1631
290.040	-1354
290.098	-971
290.156	-889
290.214	-798
290.271	-1623
290.329	-558
290.387	-1223
290.444	-1484
290.502	-2103
290.560	-883
290.617	-1101
290.675	-1084
290.733	-1400
290.790	-1294
290.848	-1106
290.906	-1427
290.963	-1274
291.021	-1018
291.078	-1494
291.136	-1907
291.194	-1730
291.251	-927
291.309	-1139
291.366	-1615
291.424	-1639
291.481	-1296
291.539	-1637
291.596	-867
291.654	-1044
291.711	-999
291.769	-1450
291.826	-1716
291.884	-676
291.941	-1253
291.999	-1300
292.056	-615
292.114	-1257
292.171	-1469
292.228	-1269
292.286	-304
292.343	-684
292.401	-1021
292.458	-1737
292.515	-735
292.573	-289
292.630	-1205
292.687	-669
292.745	-1085
292.802	-1577
292.859	-624
292.917	-683
292.974	-506
293.031	-1398
293.089	-930
293.146	-1264
293.203	-1069
293.260	-1883
293.318	-855
293.375	-901
293.432	-1317
293.489	-1135
293.546	-1029
293.604	-1540
293.661	-156
293.718	1034
293.775	-1089
293.832	-1057
293.889	96
293.947	373
294.004	-1206
294.061	-321
294.118	-1215
294.175	-441
294.232	423
294.289	337
294.346	-621
294.403	-781
294.460	-1033
294.517	-1134
294.574	-737
294.631	-1669
294.688	-1416
294.745	-733
294.802	444
294.859	-790
294.916	-1309
294.973	-1900
295.030	-1659
295.087	-1716
295.144	-1430
295.201	-613
295.258	-1305
295.315	-1584
295.372	-984
295.429	-1374
295.486	-726
295.542	-667
295.599	-936
295.656	-727
295.713	-2288
295.770	122
295.827	-1302
295.883	-2225
295.940	-1338
295.997	-1225
296.054	-1649
296.111	-1699
296.167	-882
296.224	-2087
296.281	-1371
296.338	-1700
296.394	-1660
296.451	-1675
296.508	-1049
296.564	-705
296.621	-1209
296.678	-702
296.734	114
296.791	-794
296.848	-998
296.904	-972
296.961	-903
297.018	-465
297.074	-491
297.131	-1164
297.187	-1390
297.244	-658
297.301	-628
297.357	928
297.414	-1157
297.470	-1439
297.527	-1206
297.583	-961
297.640	-1475
297.696	-1751
297.753	-2147
297.809	-1804
297.866	-726
297.922	-1460
297.979	-1675
298.035	-1134
298.092	-1062
298.148	-965
298.204	-991
298.261	-1152
298.317	-1053
298.374	-186
298.430	-829
298.486	-1594
298.543	-1680
298.599	-1209
298.656	-2071
298.712	-2044
298.768	-564
298.824	-1987
298.881	-1702
298.937	-1374
298.993	-1552
299.050	-1136
299.106	-1719
299.162	-1698
299.218	-1893
299.275	-1321
299.331	-1524
299.387	-877
299.443	283
299.500	2881
299.556	2058
299.612	232
299.668	-637
299.724	1386
299.780	2732
299.837	29
299.893	-201
299.949	793
300.005	2083
300.061	1977
300.117	4046
300.173	1641
300.229	-823
300.285	-1575
300.341	-363
300.397	-377
300.453	-1589
300.510	-159
300.566	-390
300.622	-1289
300.678	2680
300.734	5992
300.790	2391
300.845	692
300.901	1796
300.957	2463
301.013	516
301.069	-505
301.125	-773
301.181	-910
301.237	-1096
301.293	-1417
301.349	-797
301.405	-325
301.461	-1022
301.516	-1502
301.572	-1616
301.628	-1927
301.684	-1478
301.740	-1217
301.796	-1061
301.851	-701
301.907	-2073
301.963	-971
302.019	-784
302.074	1521
302.130	2298
302.186	715
302.242	-92
302.297	-404
302.353	-1246
302.409	-1307
302.464	-1239
302.520	-493
302.576	-813
302.631	-760
302.687	-1291
302.743	-1436
302.798	-1691
302.854	-1638
302.910	-958
302.965	-1412
303.021	-1058
303.076	-1312
303.132	-1328
303.187	-827
303.243	-1981
303.299	-1405
303.354	-1653
303.410	-692
303.465	-1511
303.521	-1579
303.576	-1025
303.632	-1730
303.687	-1941
303.743	-494
303.798	-448
303.853	-1002
303.909	-1146
303.964	-1472
304.020	-1393
304.075	-1540
304.130	-1596
304.186	-952
304.241	-628
304.297	-805
304.352	-1708
304.358	-1684
304.407	-1492
304.449	-1086
304.463	-949
304.518	-2079
304.539	-1708
304.573	-1134
304.629	-850
304.630	-864
304.684	-1491
304.720	-1102
304.739	-910
304.794	202
304.811	60
304.850	-278
304.902	-362
304.905	-366
304.960	-1304
304.992	-1233
305.015	-1196
305.071	-777
305.083	-821
305.126	-1004
305.173	-972
305.181	-943
305.236	-1121
305.264	-1095
305.292	-1194
305.347	-933
305.354	-970
305.402	-1048
305.445	-1103
305.457	-1136
305.512	-1164
305.535	-1142
305.567	-1073
305.622	-1331
305.626	-1309
305.678	-1078
305.716	-880
305.733	-740
305.788	-639
305.807	-582
305.843	-481
305.897	298
305.898	310
305.953	137
305.988	-332
306.008	-679
306.063	-506
306.078	-484
306.118	-284
306.168	-1030
306.173	-1102
306.228	-1183
306.259	-885
306.283	-582
306.338	-716
306.349	-666
306.393	-645
306.440	-912
306.448	-930
306.503	-774
306.530	-893
306.558	-1021
306.613	-1067
306.620	-975
306.668	-358
306.711	82
306.723	136
306.778	-736
306.801	-956
306.833	-1077
306.888	-385
306.892	-419
306.943	-870
306.982	-392
306.997	-200
307.052	-1133
307.072	-948
307.107	-682
307.162	-1070
307.163	-1070
307.217	-411
307.253	-207
307.272	-335
307.327	-528
307.343	-686
307.381	-802
307.434	-550
307.436	-523
307.491	-474
307.524	-144
307.546	-86
307.600	-344
307.614	-341
307.655	-214
307.704	-140
307.710	-111
307.765	-267
307.795	-126
307.819	-164
307.874	-444
307.885	-462
307.929	-174
307.975	247
307.984	266
308.038	108
308.065	131
308.093	771
308.148	1850
308.156	2184
308.202	3754
308.246	4870
308.257	4699
308.312	2236
308.336	1115
308.366	632
308.421	507
308.426	428
308.475	128
308.517	143
308.530	20
308.585	157
308.607	202
308.639	366
308.694	-55
308.697	-53
308.748	315
308.787	490
308.803	570
308.857	652
308.877	806
308.912	1049
308.967	1483
308.967	1488
309.021	3255
309.058	4678
309.076	5316
309.130	7417
309.148	8007
309.185	11270
309.238	16442
309.239	16520
309.293	20619
309.328	21675
309.348	19788
309.402	12094
309.418	9809
309.457	7596
309.508	5712
309.511	5731
309.566	6993
309.598	8173
309.620	11160
309.674	20086
309.688	22513
309.729	21169
309.778	16566
309.783	16134
309.837	9780
309.868	6575
309.892	5576
309.946	3683
309.959	3416
310.001	2910
310.049	2392
310.055	2292
310.109	1498
310.139	1023
310.163	727
310.218	539
310.229	465
310.272	631
310.319	656
310.326	556
310.381	-158
310.409	-361
310.435	-59
310.489	268
310.499	381
310.543	557
310.589	616
310.598	621
310.652	430
310.679	436
310.706	354
310.760	104
310.769	71
310.814	353
310.859	605
310.868	578
310.923	385
310.948	194
310.977	389
311.031	1029
311.038	1098
311.085	632
311.128	128
311.139	224
311.193	750
311.218	929
311.247	742
311.301	631
311.308	591
311.356	1025
311.398	1387
311.410	1270
311.464	636
311.488	385
311.518	333
311.572	308
311.578	285
311.626	592
311.668	900
311.680	936
311.734	1104
311.758	1145
311.788	884
311.842	409
311.847	358
311.896	958
311.937	1451
311.950	1228
312.004	222
312.027	-212
312.058	52
312.112	523
312.117	571
312.165	736
312.207	878
312.297	1170
312.386	486
312.476	1146
312.566	1282
312.656	1258
312.745	272
312.835	436
312.925	320
313.015	1099
313.104	394
313.194	1368
313.284	622
313.374	282
313.463	538
313.553	744
313.643	596
313.732	1592
313.822	643
313.912	1797
314.001	989
314.091	1358
314.180	532
314.270	1039
314.360	887
314.449	1218
314.539	91
314.628	656
314.718	745
314.808	1332
314.897	1465
314.987	2301
315.076	1783
315.166	1608
315.255	2184
315.345	1660
315.434	1035
315.524	914
315.613	1689
315.703	2420
315.792	5610
315.881	17391
315.971	4538
316.060	1883
316.150	1280
316.239	1314
316.328	840
316.418	1254
316.507	1159
316.597	1293
316.686	998
316.775	1299
316.865	1586
316.954	944
317.043	998
317.133	893
317.222	660
317.311	953
317.400	142
317.490	1310
317.579	1400
317.668	1399
317.757	2347
317.847	9920
317.936	27237
318.025	8313
318.114	7070
318.203	3320
318.293	968
318.382	1576
318.471	848
318.560	2267
318.649	1375
318.738	1050
318.828	532
318.917	504
319.006	1082
319.095	537
319.184	1621
319.273	1271
319.362	186
319.451	314
319.540	838
319.629	923
319.718	214
319.807	1258
319.896	-9
319.985	1814
320.074	843
320.163	877
320.252	1392
320.341	944
320.430	181
320.519	1455
320.608	196
320.697	1766
320.786	1568
320.875	2109
320.964	2073
321.053	2065
321.142	1858
321.230	1727
321.319	2494
321.408	3717
321.497	3348
321.586	2259
321.675	1815
321.764	2292
321.852	1957
321.941	1646
322.030	1198
322.119	1996
322.207	3861
322.296	3621
322.385	2985
322.474	4941
322.562	4275
322.651	3571
322.740	2446
322.829	1781
322.917	1438
323.006	1843
323.095	1296
323.183	1722
323.272	850
323.361	1013
323.449	1662
323.538	885
323.626	371
323.715	1198
323.804	681
323.892	393
323.981	733
324.069	1197
324.158	740
324.246	611
324.335	1134
324.424	618
324.512	731
324.601	1480
324.689	294
324.778	1608
324.866	622
324.954	671
325.043	760
325.131	-448
325.220	1286
325.308	635
325.397	329
325.485	1153
325.574	857
325.662	554
325.750	107
325.839	404
325.927	514
326.015	190
326.104	-98
326.192	528
326.280	1356
326.369	560
326.457	75
326.545	1278
326.634	-51
326.722	873
326.810	817
326.898	861
326.987	995
327.075	402
327.163	634
327.251	525
327.340	444
327.428	819
327.516	1487
327.604	677
327.692	609
327.781	745
327.869	7
327.957	407
328.045	309
328.133	596
328.221	425
328.309	362
328.397	884
328.485	1010
328.574	1354
328.662	2080
328.750	588
328.838	262
328.926	965
329.014	683
329.102	560
329.190	1288
329.278	421
329.366	1265
329.454	617
329.542	569
329.630	-233
329.718	558
329.806	545
329.893	1106
329.981	129
330.069	1305
330.157	569
330.245	695
330.333	1253
330.421	1247
330.509	419
330.597	1060
330.684	-249
330.772	1230
330.860	-116
330.948	913
331.036	779
331.123	159
331.211	697
331.299	1073
331.387	308
331.475	1102
331.562	1137
331.650	831
331.738	-159
331.825	487
331.913	996
332.001	840
332.089	794
332.176	632
332.264	385
332.352	378
332.439	379
332.527	659
332.614	667
332.702	1151
332.790	359
332.877	720
332.965	2098
333.052	1677
333.140	2467
333.228	7798
333.315	1692
333.403	591
333.490	1097
333.578	3511
333.665	10516
333.753	4348
333.840	1074
333.928	1605
334.015	958
334.103	1904
334.190	2272
334.278	2894
334.365	4260
334.452	5650
334.540	1882
334.627	2808
334.715	2919
334.802	4639
334.889	8056
334.977	13334
335.064	8650
335.151	2744
335.239	2256
335.326	2420
335.413	1632
335.501	2011
335.588	1156
335.675	1881
335.762	2322
335.850	3739
335.937	5241
336.024	9326
336.111	17264
336.199	17800
336.286	7633
336.373	3990
336.460	1315
336.547	1918
336.635	1258
336.722	1099
336.809	923
336.896	1141
336.983	1424
337.070	946
337.157	1001
337.245	1826
337.332	1695
337.419	371
337.506	1191
337.593	1379
337.680	596
337.767	1323
337.854	1099
337.941	508
338.028	1142
338.115	-19
338.202	994
338.289	552
338.376	148
338.463	967
338.550	1041
338.637	812
338.724	648
338.811	297
338.898	980
338.984	895
339.071	401
339.158	664
339.245	-328
339.332	952
339.419	506
339.506	352
339.593	-86
339.679	1598
339.766	-241
339.853	434
339.940	74
340.027	660
340.113	333
340.200	430
340.287	-4
340.374	301
340.460	672
340.547	-664
340.634	656
340.720	1380
340.807	615
340.894	667
340.980	339
341.067	546
341.154	728
341.240	-215
341.327	1133
341.414	1158
341.500	283
341.587	1298
341.674	1058
341.760	600
341.847	851
341.933	891
342.020	-374
342.106	1636
342.193	165
342.279	940
342.366	413
342.452	514
342.539	540
342.625	882
342.712	66
342.798	215
342.885	476
342.971	197
343.058	468
343.144	120
343.230	676
343.317	816
343.403	103
343.490	243
343.576	-557
343.662	443
343.749	534
343.835	1097
343.921	913
344.008	2959
344.094	5543
344.180	1848
344.267	512
344.353	717
344.439	777
344.525	921
344.612	951
344.698	321
344.784	113
344.870	1165
344.957	312
345.043	1542
345.129	584
345.215	836
345.301	570
345.387	869
345.474	816
345.560	452
345.646	4
345.732	836
345.818	195
345.904	451
345.990	-267
346.076	569
346.162	456
346.249	1142
346.335	370
346.421	797
346.507	645
346.593	1622
346.679	-623
346.765	1460
346.851	848
346.937	179
347.023	1260
347.108	988
347.194	499
347.280	433
347.366	853
347.452	4316
347.538	3012
347.624	3894
347.710	1440
347.796	1431
347.882	958
347.967	250
348.053	-62
348.139	797
348.225	-168
348.311	75
348.397	1286
348.482	1308
348.568	1377
348.654	1117
348.740	4887
348.825	3296
348.911	2739
348.997	1738
349.083	2203
349.168	787
349.254	-306
349.340	433
349.425	600
349.511	649
349.597	407
349.682	497
349.768	1301
349.854	1364
349.939	774
350.025	545
350.110	389
350.196	1311
350.282	74
350.367	1346
350.453	299
350.538	137
350.624	178
350.709	1131
350.795	-307
350.880	619
350.966	1396
351.051	1290
351.137	395
351.222	904
351.308	538
351.393	661
351.479	-573
351.564	-117
351.649	965
351.735	1267
351.820	396
351.906	190
351.991	-128
352.076	1087
352.162	1588
352.247	1317
352.332	905
352.418	437
352.503	201
352.588	2070
352.673	29
352.759	1045
352.844	388
352.929	89
353.014	-87
353.100	810
353.185	215
353.270	-64
353.355	922
353.441	275
353.526	-55
353.611	146
353.696	-350
353.781	1423
353.866	-164
353.952	1577
354.037	145
354.122	765
354.207	371
354.292	673
354.377	709
354.462	809
354.547	-307
354.632	1112
354.717	765
354.802	-616
354.887	31
354.972	80
355.057	105
355.142	-203
355.227	279
355.312	328
355.397	368
355.482	684
355.567	-160
355.652	1536
355.737	-117
355.822	427
355.907	63
355.991	1321
356.076	-63
356.161	1132
356.246	559
356.331	462
356.416	113
356.501	3443
356.585	1659
356.670	-119
356.755	1482
356.840	1037
356.924	2462
357.009	4446
357.094	2862
357.179	411
357.263	684
357.348	203
357.433	671
357.517	1016
357.602	168
357.687	161
357.771	440
357.856	698
357.941	1235
358.025	2123
358.110	8219
358.195	3079
358.279	774
358.364	168
358.448	982
358.533	1698
358.617	1272
358.702	1878
358.787	982
358.871	246
358.956	446
359.040	1621
359.125	735
359.209	701
359.294	933
359.378	1220
359.462	376
359.547	752
359.631	475
359.716	346
359.800	239
359.885	701
359.969	-186
360.053	1180
360.138	40
360.222	-155
360.306	270
360.391	786
360.475	719
360.559	770
360.644	81
360.728	200
360.812	1677
360.896	3017
360.981	630
361.065	937
361.149	1343
361.233	1191
361.318	-582
361.402	1201
361.486	1702
361.570	1290
361.654	768
361.739	832
361.823	2013
361.907	4803
361.991	1540
362.075	1473
362.159	473
362.243	4454
362.327	11567
362.411	21288
362.495	6718
362.580	3675
362.664	2668
362.748	2200
362.832	3829
362.916	7444
363.000	32263
363.084	50177
363.168	17430
363.252	5036
363.336	2348
363.420	2258
363.503	1456
363.587	1776
363.671	1386
363.755	697
363.839	2625
363.923	1244
364.007	1587
364.091	2736
364.175	3651
364.258	12865
364.342	31643
364.426	71556
364.510	35679
364.594	9574
364.677	4121
364.761	2992
364.845	2878
364.929	1056
365.013	1213
365.096	1311
365.180	286
365.264	1420
365.347	1387
365.431	720
365.515	-7
365.598	-429
365.682	2156
365.766	264
365.849	1109
365.933	359
366.017	1682
366.100	434
366.184	-56
366.267	1519
366.351	935
366.435	-109
366.518	172
366.602	1387
366.685	1293
366.769	1253
366.852	1028
366.936	727
367.019	-193
367.103	-383
367.186	1661
367.270	324
367.353	910
367.436	1434
367.520	707
367.603	1507
367.687	-55
367.770	723
367.853	1211
367.937	2457
368.020	1414
368.104	-31
368.187	1232
368.270	895
368.353	-212
368.437	830
368.520	857
368.603	541
368.687	-690
368.770	1708
368.853	-227
368.936	1319
369.020	927
369.103	7
369.186	224
369.269	547
369.352	568
369.436	-211
369.519	738
369.602	-1354
369.685	1337
369.768	328
369.851	848
369.934	750
370.018	-154
370.101	341
370.184	2584
370.267	1558
370.350	973
370.433	983
370.516	3335
370.599	9905
370.682	2215
370.765	3009
370.848	2600
370.931	910
371.014	2342
371.097	-152
371.180	908
371.263	1693
371.346	-460
371.429	2044
371.511	1523
371.594	1044
371.677	2117
371.760	3435
371.843	1557
371.926	4981
372.009	8889
372.091	6842
372.174	2253
372.257	4829
372.340	3004
372.423	2818
372.505	3169
372.588	1526
372.671	2118
372.754	1547
372.836	2002
372.919	2076
373.002	2909
373.085	1523
373.167	2449
373.250	1600
373.332	2373
373.415	5624
373.498	7466
373.580	6126
373.663	14604
373.746	14262
373.828	2949
373.911	2325
373.993	1015
374.076	1634
374.159	1377
374.241	1141
374.324	2185
374.406	2460
374.489	2675
374.571	6382
374.654	2069
374.736	2314
374.819	3131
374.901	6595
374.983	4876
375.066	1951
375.148	1139
375.231	1891
375.313	2121
375.395	2055
375.478	2047
375.560	2512
375.643	1272
375.725	2141
375.807	3482
375.890	5277
375.972	307
376.054	1718
376.136	1090
376.219	663
376.301	1695
376.383	2241
376.465	1250
376.548	987
376.630	606
376.712	2596
376.794	855
376.877	244
376.959	-397
377.041	645
377.123	579
377.205	548
377.287	-305
377.369	1931
377.452	726
377.534	1018
377.616	747
377.698	867
377.780	141
377.862	552
377.944	1790
378.026	-282
378.108	1418
378.190	1125
378.272	1192
378.354	824
378.436	288
378.518	-428
378.600	1047
378.682	1644
378.764	408
378.846	1020
378.928	560
379.010	-563
379.091	1577
379.173	1450
379.255	-483
379.337	243
379.419	151
379.501	2163
379.583	756
379.664	1039
379.746	-734
379.828	1827
379.910	127
379.991	2675
380.073	327
380.155	1112
380.237	1098
380.318	288
380.400	626
380.482	1832
380.564	705
380.645	825
380.727	795
380.809	2391
380.890	416
380.972	244
381.053	835
381.135	2468
381.217	604
381.298	2610
381.380	756
381.461	1740
381.543	2860
381.624	3277
381.706	1263
381.787	2257
381.869	2125
381.951	2441
382.032	5658
382.113	6771
382.195	819
382.276	3696
382.358	2132
382.439	3849
382.521	5190
382.602	7958
382.684	6194
382.765	10677
382.846	30949
382.928	75140
383.009	38957
383.090	31197
383.172	89741
383.253	116444
383.334	37383
383.416	14401
383.497	11450
383.578	12363
383.659	25641
383.741	77684
383.822	149444
383.903	78140
383.984	19543
384.066	13180
384.147	6946
384.228	5198
384.309	4691
384.390	3896
384.471	2974
384.553	2889
384.634	2614
384.715	2812
384.796	2785
384.877	2428
384.958	3986
385.039	1631
385.120	2425
385.201	2886
385.282	2541
385.363	3836
385.444	3063
385.525	4214
385.606	3962
385.687	3603
385.768	2860
385.849	2086
385.930	5125
386.011	7853
386.092	2736
386.173	2552
386.254	1965
386.335	2760
386.416	1241
386.496	1338
386.577	2573
386.658	2076
386.739	583
386.820	2518
386.901	1036
386.981	3136
387.062	3111
387.143	2275
387.224	3156
387.304	4559
387.385	4611
387.466	1664
387.547	3767
387.627	2970
387.708	3505
387.789	5063
387.869	4027
387.950	4005
388.031	1633
388.111	636
388.192	2648
388.273	3557
388.353	2374
388.434	1367
388.514	1446
388.595	3959
388.676	3123
388.756	2257
388.837	1838
388.917	1579
388.998	-805
389.078	2214
389.159	1371
389.239	344
389.320	2917
389.400	245
389.480	2322
389.561	1034
389.641	2328
389.722	1646
389.802	-519
389.883	1619
389.963	2384
390.043	1576
390.124	205
390.204	1897
390.284	1888
390.365	417
390.445	1555
390.525	1321
390.605	1764
390.686	1062
390.766	2191
390.846	2368
390.927	275
391.007	559
391.087	1796
391.167	804
391.247	-197
391.328	1627
391.408	1606
391.488	2044
391.568	44
391.648	1359
391.728	2133
391.808	3039
391.888	1257
391.969	1589
392.049	1913
392.129	2644
392.209	2171
392.289	3953
392.369	2876
392.449	2871
392.529	2805
392.609	4742
392.689	4492
392.769	5680
392.849	6853
392.929	9549
393.009	11331
393.089	16439
393.169	34121
393.248	88911
393.328	204642
393.408	199793
393.488	83430
393.568	32143
393.648	15761
393.728	10092
393.807	6105
393.887	6921
393.967	5039
394.047	3858
394.127	2509
394.206	2832
394.286	3515
394.366	12902
394.446	14116
394.525	3999
394.605	1512
394.685	2151
394.764	3510
394.844	4134
394.924	6043
395.003	2314
395.083	2038
395.163	2160
395.242	1010
395.322	1571
395.402	19
395.481	2788
395.561	705
395.640	8414
395.720	15730
395.799	7011
395.879	2241
395.958	2571
396.038	5390
396.117	19553
396.197	20107
396.276	7608
396.356	2877
396.435	5717
396.515	7830
396.594	11032
396.673	26535
396.753	84974
396.832	183553
396.912	127505
396.991	36615
397.070	15909
397.150	6734
397.229	8344
397.308	13753
397.388	24377
397.467	10167
397.546	3600
397.625	564
397.705	4543
397.784	2000
397.863	1924
397.942	1681
398.022	1286
398.101	667
398.180	2104
398.259	511
398.338	1885
398.417	1213
398.497	1086
398.576	2624
398.655	72
398.734	1126
398.813	1230
398.892	976
398.971	1693
399.050	205
399.129	-105
399.208	644
399.287	2135
399.366	-354
399.445	762
399.524	305
399.603	-278
399.682	231
399.761	464
399.840	1316
399.919	1671
399.998	444
400.077	-792
400.156	-694
400.235	3067
400.313	-318
400.392	-479
400.471	571
400.550	1670
400.629	-753
400.708	937
400.786	-706
400.865	-215
400.944	-496
401.023	2230
401.102	-328
401.180	844
401.259	397
401.338	8
401.416	874
401.495	-401
401.574	1149
401.652	-490
401.731	593
401.810	-486
401.888	368
401.967	-85
402.046	-327
402.124	771
402.203	-1189
402.281	774
402.360	-253
402.438	568
402.517	-797
402.596	148
402.674	-340
402.753	222
402.831	504
402.910	1354
402.988	-506
403.066	1394
403.145	1571
403.223	1218
403.302	284
403.380	1540
403.459	693
403.537	-143
403.615	297
403.694	-300
403.772	596
403.850	45
403.929	217
404.007	-577
404.085	1165
404.164	111
404.242	110
404.320	1533
404.398	1133
404.477	-279
404.555	2997
404.633	1978
404.711	447
404.789	788
404.868	26
404.946	-890
405.024	447
405.102	-681
405.180	-100
405.258	-983
405.336	1112
405.415	-719
405.493	734
405.571	1108
405.649	-14
405.727	-1033
405.805	1421
405.883	612
405.961	918
406.039	-354
406.117	-1307
406.195	-15
406.273	-943
406.351	2381
406.429	1289
406.507	-189
406.585	-757
406.663	367
406.740	-752
406.818	-903
406.896	-225
406.974	1552
407.052	-1652
407.130	645
407.208	1176
407.285	620
407.363	-452
407.441	473
407.519	-606
407.596	-166
407.674	276
407.752	1785
407.830	1856
407.907	1063
407.985	-1020
408.063	252
408.141	-1045
408.218	696
408.296	-805
408.373	148
408.451	306
408.529	94
408.606	-419
408.684	870
408.762	802
408.839	684
408.917	-35
408.994	778
409.072	-296
409.149	437
409.227	2383
409.304	4794
409.382	4360
409.459	4903
409.537	7979
409.614	5449
409.692	3420
409.769	3744
409.846	7499
409.924	9964
410.001	3418
410.079	3001
410.156	3375
410.233	2199
410.311	830
410.388	800
410.465	573
410.543	331
410.620	890
410.697	524
410.775	675
410.852	320
410.929	1604
411.006	2170
411.083	522
411.161	562
411.238	1352
411.315	863
411.392	-182
411.469	1277
411.547	377
411.624	-1200
411.701	-423
411.778	310
411.855	-292
411.932	443
412.009	-140
412.086	617
412.163	833
412.240	491
412.317	-269
412.394	-33
412.471	261
412.548	-16
412.625	149
412.702	-27
412.779	-123
412.856	130
412.933	-771
413.010	147
413.087	259
413.164	-1019
413.241	75
413.318	-888
413.395	407
413.471	179
413.548	115
413.625	982
413.702	-681
413.779	101
413.855	-171
413.932	-237
414.009	-1217
414.086	-98
414.162	317
414.239	229
414.316	-163
414.393	1832
414.469	-1660
414.546	55
414.623	-203
414.699	-58
414.776	14
414.853	-438
414.929	-267
415.006	129
415.082	-585
415.159	-762
415.236	-240
415.312	1269
415.389	-301
415.465	-502
415.542	-772
415.618	-368
415.695	197
415.771	-227
415.848	-723
415.924	-120
416.000	-1206
416.077	729
416.153	-864
416.230	-112
416.306	-436
416.383	-934
416.459	770
416.535	-375
416.612	-828
416.688	-123
416.764	-90
416.841	-953
416.917	-662
416.993	214
417.069	-448
417.146	-854
417.222	-514
417.298	-697
417.374	-636
417.451	-97
417.527	-528
417.603	-753
417.679	-350
417.755	196
417.831	-767
417.908	-736
417.984	-228
418.060	-890
418.136	269
418.212	529
418.288	-413
418.364	361
418.440	-954
418.516	413
418.592	-886
418.668	-54
418.744	-602
418.820	-632
418.896	-379
418.972	-351
419.048	293
419.124	1259
419.200	-760
419.276	175
419.352	-1020
419.428	384
419.504	-393
419.579	764
419.655	-379
419.731	-81
419.807	-124
419.883	-815
419.959	-252
420.034	540
420.110	236
420.186	-364
420.262	790
420.337	234
420.413	86
420.489	216
420.565	1318
420.640	279
420.716	698
420.792	-854
420.867	484
420.943	448
421.019	886
421.094	6
421.170	1661
421.245	1208
421.321	1232
421.397	1598
421.472	2975
421.548	2492
421.623	2978
421.699	2810
421.774	3536
421.850	3040
421.925	4603
422.001	5934
422.076	6423
422.152	8976
422.227	13229
422.302	18461
422.378	27803
422.453	46796
422.529	81424
422.604	107982
422.679	92907
422.755	102598
422.830	81192
422.905	49360
422.981	29387
423.056	20613
423.131	15826
423.207	11100
423.282	8381
423.357	7045
423.432	5473
423.508	5348
423.583	2844
423.658	2876
423.733	2302
423.808	2787
423.883	2494
423.959	2488
424.034	3666
424.109	3927
424.184	1446
424.259	1263
424.334	1132
424.409	354
424.484	819
424.559	1463
424.634	148
424.709	347
424.784	561
424.859	789
424.934	-119
425.009	815
425.084	484
425.159	673
425.234	1170
425.309	-79
425.384	357
425.459	-723
425.534	431
425.609	-548
425.683	-520
425.758	773
425.833	-3
425.908	979
425.983	-630
426.058	1128
426.132	-547
426.207	-125
426.282	1029
426.357	-1294
426.431	375
426.506	11
426.581	215
426.655	-218
426.730	-8
426.805	-550
426.879	770
426.954	-93
427.029	-761
427.103	685
427.178	445
427.253	297
427.327	-724
427.402	-356
427.476	-22
427.551	-777
427.625	-530
427.700	-379
427.774	-945
427.849	867
427.923	-228
427.998	111
428.072	-387
428.147	1938
428.221	10462
428.296	33559
428.370	17016
428.444	1899
428.519	75
428.593	-417
428.667	328
428.742	371
428.816	3613
428.890	20990
428.965	30556
429.039	6981
429.113	856
429.188	-691
429.262	-107
429.336	155
429.410	-279
429.485	223
429.559	42
429.633	-302
429.707	433
429.781	3164
429.855	18894
429.930	27272
430.004	6083
430.078	3439
430.152	11499
430.226	45807
430.300	44528
430.374	7492
430.448	2143
430.522	264
430.596	332
430.670	5474
430.744	25651
430.818	27943
430.892	3477
430.966	95
431.040	-73
431.114	-376
431.188	-1442
431.262	-779
431.336	-821
431.410	408
431.484	-993
431.557	61
431.631	6
431.705	409
431.779	7670
431.853	32422
431.927	21202
432.000	2755
432.074	-33
432.148	288
432.222	-1107
432.295	-647
432.369	-1294
432.443	-707
432.516	286
432.590	1056
432.664	-281
432.737	-1309
432.811	-2122
432.885	-736
432.958	-222
433.032	-846
433.106	-933
433.179	-150
433.253	-709
433.326	72
433.400	-810
433.473	96
433.547	-1422
433.620	-937
433.694	-1468
433.767	-326
433.841	-1387
433.914	-578
433.988	-1283
434.061	-562
434.134	-1140
434.208	-1460
434.281	-649
434.355	-835
434.428	-327
434.501	-995
434.575	-1450
434.648	-1440
434.721	-1096
434.795	-398
434.868	-866
434.941	-933
435.014	-1303
435.088	-659
435.161	175
435.234	-253
435.307	-187
435.381	206
435.454	747
435.527	3810
435.600	3416
435.673	1893
435.746	1287
435.819	-121
435.892	-218
435.966	-365
436.039	-506
436.112	-88
436.185	-940
436.258	-607
436.331	-1452
436.404	-662
436.477	-1161
436.550	-821
436.623	-710
436.696	-629
436.769	-907
436.842	-1306
436.915	-843
436.987	-233
437.060	-1803
437.133	-865
437.206	-1529
437.279	218
437.352	-788
437.425	-1265
437.498	-888
437.570	-814
437.643	-1462
437.716	-526
437.789	-1558
437.861	-1081
437.934	-1181
438.007	-1360
438.080	-1305
438.152	-751
438.225	-1109
438.298	-540
438.370	1085
438.443	610
438.516	-1261
438.588	-1372
438.661	-1136
438.734	-900
438.806	-1089
438.879	-769
438.951	-652
439.024	-792
439.096	-1295
439.169	-1120
439.241	-502
439.314	-1008
439.386	-423
439.459	-869
439.531	-1078
439.604	-1196
439.676	-767
439.749	-1154
439.821	-1276
439.893	-841
439.966	-1517
440.038	-1337
440.110	-1108
440.183	-967
440.255	-1067
440.327	-341
440.400	-434
440.472	-73
440.544	-349
440.617	-829
440.689	-113
440.761	-512
440.833	-887
440.905	-851
440.978	-934
441.050	-511
441.122	-57
441.194	-999
441.266	-933
441.338	-1054
441.411	-925
441.483	-38
441.555	-268
441.627	-117
441.699	-624
441.771	-1162
441.843	-877
441.915	-1551
441.987	-1016
442.059	-810
442.131	-133
442.203	215
442.275	-751
442.347	1471
442.419	4071
442.491	26226
442.563	57233
442.635	22592
442.706	2607
442.778	1213
442.850	921
442.922	641
442.994	-489
443.066	-539
443.137	175
443.209	1268
443.281	1901
443.353	6738
443.425	29039
443.496	87271
443.568	90445
443.640	36525
443.711	6549
443.783	1869
443.855	434
443.926	344
443.998	-287
444.070	373
444.141	-427
444.213	-679
444.285	-566
444.356	-958
444.428	-912
444.499	80
444.571	-577
444.642	52
444.714	-743
444.785	375
444.857	-327
444.928	137
445.000	52
445.071	-4
445.143	888
445.214	2480
445.285	4031
445.357	14934
445.428	56746
445.500	107141
445.571	84077
445.642	55377
445.714	16624
445.785	4848
445.856	568
445.928	309
445.999	-72
446.070	404
446.141	-100
446.213	-204
446.284	-16
446.355	4
446.426	-1078
446.497	-480
446.569	-844
446.640	-841
446.711	-836
446.782	-1460
446.853	-758
446.924	-1174
446.995	-497
447.066	-816
447.138	-1160
447.209	-287
447.280	-1202
447.351	-721
447.422	-1694
447.493	-727
447.564	-1311
447.635	-1680
447.706	-864
447.777	-570
447.847	-1137
447.918	-864
447.989	-1781
448.060	-1526
448.131	-257
448.202	-597
448.273	-1003
448.344	-552
448.414	-1308
448.485	-962
448.556	-796
448.627	-504
448.698	333
448.768	-1678
448.839	-823
448.910	-695
448.981	50
449.051	-1025
449.122	-695
449.193	-798
449.263	-1018
449.334	-1163
449.405	-724
449.475	-1158
449.546	-206
449.616	-859
449.687	-416
449.758	-1024
449.828	-852
449.899	-1285
449.969	-1402
450.040	-1075
450.110	-911
450.181	-676
450.251	-1382
450.322	-704
450.392	-904
450.463	-862
450.533	-1721
450.604	-708
450.674	-1191
450.744	66
450.815	-1826
450.885	-300
450.955	-407
451.026	-522
451.096	-1282
451.166	-1055
451.237	-721
451.307	-514
451.377	-898
451.447	-437
451.518	-985
451.588	-785
451.658	-1075
451.728	-286
451.799	-1190
451.869	-663
451.939	-1101
452.009	-792
452.079	-1982
452.149	-138
452.219	-1238
452.289	-1203
452.360	-1403
452.430	-617
452.500	-64
452.570	844
452.640	2509
452.710	8600
452.780	8924
452.850	3542
452.920	-698
452.990	92
453.060	28
453.129	-1051
453.199	-1303
453.269	-529
453.339	-725
453.409	-936
453.479	-248
453.549	12
453.619	-626
453.688	-1125
453.758	-553
453.828	-1363
453.898	-868
453.968	-1639
454.037	-536
454.087	-935
454.107	-1113
454.168	-1445
454.177	-1508
454.247	-941
454.249	-931
454.316	-1026
454.330	-1049
454.386	-1184
454.411	-1187
454.456	-1262
454.492	-599
454.525	-11
454.574	-630
454.595	-932
454.655	-1068
454.665	-1100
454.734	-646
454.736	-648
454.804	-1393
454.817	-1288
454.873	-1029
454.898	-679
454.943	21
454.979	-442
455.013	-933
455.060	-540
455.082	-403
455.141	-544
455.152	-571
455.221	-7
455.222	1
455.291	-487
455.303	-505
455.360	-671
455.384	-382
455.430	-25
455.465	-259
455.499	-517
455.546	-577
455.569	-548
455.627	-179
455.638	-156
455.707	-526
455.708	-514
455.777	-681
455.789	-679
455.846	-786
455.869	-596
455.916	-225
455.950	-643
455.985	-1101
456.031	-558
456.054	-255
456.112	-442
456.124	-518
456.193	-275
456.193	-289
456.262	-398
456.274	-227
456.332	485
456.355	249
456.401	-287
456.436	-56
456.470	112
456.516	-335
456.540	-513
456.597	290
456.609	436
456.678	356
456.678	340
456.747	685
456.759	521
456.817	-306
456.840	-125
456.886	231
456.920	446
456.955	667
457.001	687
457.024	710
457.082	1135
457.093	1140
457.162	1137
457.163	1151
457.232	637
457.243	622
457.301	487
457.324	462
457.370	374
457.405	596
457.439	948
457.485	1175
457.508	1217
457.566	1883
457.577	2250
457.646	4049
457.647	4101
457.715	12164
457.727	13924
457.784	25794
457.808	32721
457.853	37116
457.889	40126
457.922	36242
457.969	22946
457.991	25439
458.050	37243
458.060	39614
458.129	66578
458.130	67421
458.198	51351
458.211	44864
458.267	23276
458.292	14605
458.336	11259
458.372	11378
458.405	18653
458.453	31545
458.474	41004
458.533	72182
458.543	73477
458.611	96576
458.614	97101
458.680	47605
458.694	34290
458.749	14548
458.775	9512
458.818	6010
458.855	4559
458.887	3799
458.936	3197
458.955	2975
459.016	2299
459.024	2290
459.093	2558
459.097	2561
459.162	1879
459.177	1879
459.230	2051
459.257	1952
459.299	1821
459.338	1901
459.368	1901
459.418	1767
459.437	1741
459.499	1995
459.505	2012
459.574	1608
459.579	1626
459.643	1760
459.659	1707
459.711	1484
459.740	1601
459.780	1953
459.820	2331
459.849	2388
459.900	2046
459.917	1962
459.981	2236
459.986	2238
460.054	1968
460.061	1930
460.123	1674
460.141	1662
460.191	1674
460.222	1720
460.260	1760
460.302	1644
460.328	1626
460.382	1954
460.397	2023
460.462	2350
460.465	2386
460.534	3049
460.543	3223
460.602	8446
460.623	10133
460.671	15007
460.703	19300
460.739	16057
460.783	10685
460.808	8819
460.864	3283
460.876	2991
460.944	2703
460.945	2691
461.013	2324
461.024	2163
461.081	1682
461.104	1922
461.150	2107
461.184	1596
461.218	1550
461.264	2260
461.286	2378
461.345	2013
461.355	1969
461.423	2224
461.425	2220
461.491	1563
461.505	1555
461.559	2245
461.585	2349
461.628	2189
461.665	2380
461.696	2566
461.745	2582
461.764	2550
461.825	2398
461.832	2380
461.901	2075
461.905	2089
461.969	1997
461.985	1909
462.037	2483
462.065	2794
462.105	2385
462.145	2156
462.173	2586
462.225	2875
462.241	2715
462.305	2503
462.310	2518
462.378	2597
462.385	2596
462.446	2666
462.465	2774
462.514	2581
462.545	2394
462.582	2233
462.625	2185
462.650	2495
462.705	2898
462.718	2758
462.785	1944
462.786	1948
462.854	2243
462.865	2311
462.922	2288
462.945	2230
462.990	2366
463.025	2550
463.058	2977
463.104	3255
463.126	2984
463.184	2734
463.194	2825
463.262	2902
463.264	2915
463.330	2850
463.344	2802
463.398	3019
463.424	3047
463.466	2541
463.504	2344
463.533	2707
463.583	2969
463.601	2876
463.663	2470
463.669	2425
463.737	2223
463.743	2214
463.805	3103
463.823	3259
463.873	3262
463.903	3330
463.940	3236
463.982	3037
464.008	2865
464.062	2465
464.076	2495
464.142	3027
464.144	3042
464.211	3001
464.221	3009
464.279	2735
464.301	2623
464.347	2917
464.381	3115
464.414	2904
464.461	2621
464.482	2765
464.540	3134
464.550	3125
464.617	2913
464.620	2913
464.685	3648
464.699	3697
464.753	3392
464.779	3306
464.820	3278
464.859	3301
464.888	2782
464.938	1778
464.956	2180
465.018	3666
465.023	3711
465.091	4070
465.098	4107
465.158	3298
465.177	3097
465.226	3095
465.257	2918
465.293	2706
465.336	2603
465.361	2896
465.416	3466
465.428	3513
465.495	3667
465.496	3672
465.563	3162
465.575	3088
465.631	3694
465.654	3938
465.698	3544
465.734	3205
465.765	3403
465.813	3573
465.833	3490
465.893	3342
465.900	3342
465.968	3178
465.972	3160
466.035	3607
466.052	3738
466.102	3421
466.131	3193
466.170	3129
466.210	3003
466.237	3065
466.290	3300
466.304	3397
466.369	3676
466.372	3688
466.439	3793
466.449	3795
466.506	3537
466.528	3437
466.573	3658
466.607	3815
466.641	3877
466.687	3964
466.708	4113
466.766	4460
466.775	4406
466.842	3919
466.845	3886
466.909	4000
466.925	4026
466.977	4437
467.004	4637
467.044	4412
467.083	4164
467.111	4167
467.163	4148
467.178	4222
467.242	4490
467.245	4529
467.312	5168
467.321	5243
467.379	4086
467.400	3654
467.446	4260
467.480	4685
467.559	5120
467.638	4540
467.717	3823
467.796	4694
467.875	4753
467.955	4969
468.034	6484
468.113	7562
468.192	9155
468.271	10100
468.350	16111
468.429	24410
468.508	25760
468.588	14077
468.667	8594
468.746	6968
468.825	5966
468.904	5515
468.983	4487
469.062	5791
469.141	5094
469.220	4749
469.299	4867
469.378	3838
469.456	5871
469.535	4390
469.614	4744
469.693	4212
469.772	5373
469.851	4907
469.930	6311
470.009	5794
470.088	7234
470.166	10957
470.245	21629
470.324	26828
470.403	16669
470.482	9350
470.560	6436
470.639	5087
470.718	5478
470.797	5407
470.875	3868
470.954	4486
471.033	5191
471.111	4880
471.190	4315
471.269	4311
471.347	4483
471.426	4367
471.505	4544
471.583	4189
471.662	4516
471.740	4263
471.819	4524
471.898	4582
471.976	4868
472.055	5154
472.133	4645
472.212	5037
472.290	3713
472.369	4152
472.447	4393
472.526	3767
472.604	4388
472.683	3846
472.761	4545
472.839	4582
472.918	4546
472.996	4814
473.075	5138
473.153	4904
473.231	4252
473.310	4606
473.388	5012
473.466	4719
473.545	5256
473.623	5100
473.701	4834
473.780	4652
473.858	3342
473.936	5889
474.014	4394
474.093	5075
474.171	5065
474.249	5648
474.327	4439
474.405	4277
474.484	4713
474.562	3934
474.640	4181
474.718	4955
474.796	4425
474.874	4674
474.952	3737
475.030	4298
475.108	4889
475.187	4597
475.265	4717
475.343	4874
475.421	5470
475.499	4202
475.577	4777
475.655	4643
475.733	4523
475.811	4255
475.889	4261
475.966	5464
476.044	3205
476.122	5214
476.200	4242
476.278	3335
476.356	4227
476.434	4142
476.512	4596
476.590	5529
476.667	5069
476.745	4295
476.823	4392
476.901	4768
476.979	3824
477.056	5469
477.134	4160
477.212	4811
477.290	4626
477.367	4327
477.445	4320
477.523	3778
477.601	4265
477.678	5039
477.756	4065
477.834	3989
477.911	4149
477.989	4838
478.066	3768
478.144	2930
478.222	4204
478.299	4816
478.377	4726
478.454	4893
478.532	3976
478.609	4447
478.687	4402
478.764	4645
478.842	4183
478.919	4707
478.997	4216
479.074	4349
479.152	3742
479.229	4660
479.307	3737
479.384	4461
479.461	3810
479.539	3704
479.616	4059
479.694	4199
479.771	3774
479.848	3821
479.926	3705
480.003	4644
480.080	4491
480.157	4301
480.235	3763
480.312	4379
480.389	4104
480.467	4721
480.544	4749
480.621	4507
480.698	4762
480.775	5358
480.853	4418
480.930	4768
481.007	4335
481.084	4495
481.161	5419
481.238	4875
481.315	4165
481.392	4179
481.470	4453
481.547	3890
481.624	3983
481.701	4494
481.778	3761
481.855	4530
481.932	5328
482.009	5682
482.086	5526
482.163	6830
482.240	8689
482.317	8295
482.393	7592
482.470	6389
482.547	5714
482.624	5918
482.701	5104
482.778	4773
482.855	5432
482.932	5672
483.009	5729
483.085	7092
483.162	7497
483.239	8679
483.316	8115
483.393	8853
483.469	7040
483.546	6345
483.623	6557
483.699	4851
483.776	4717
483.853	5372
483.930	4636
484.006	5289
484.083	6213
484.160	5298
484.236	5624
484.313	6240
484.389	5492
484.466	7889
484.543	7839
484.619	11604
484.696	13625
484.772	8554
484.849	6556
484.925	6200
485.002	5408
485.078	4864
485.155	5038
485.231	3748
485.308	3785
485.384	4403
485.461	4211
485.537	3761
485.614	4654
485.690	3776
485.766	4656
485.843	4164
485.919	4300
485.995	4321
486.072	4121
486.148	4029
486.224	4080
486.301	4314
486.377	4643
486.453	3769
486.530	3963
486.606	6115
486.682	3359
486.758	4442
486.835	5489
486.911	4170
486.987	6834
487.063	7615
487.139	7540
487.215	8716
487.292	10500
487.368	11231
487.444	14040
487.520	19928
487.596	30779
487.672	81311
487.748	261744
487.824	364609
487.900	90302
487.976	24805
488.052	14035
488.128	10677
488.204	6962
488.280	6916
488.356	6597
488.432	6329
488.508	6745
488.584	5089
488.660	6223
488.736	4632
488.812	4179
488.888	5482
488.964	4598
489.039	4975
489.115	6539
489.191	5578
489.267	4717
489.343	4845
489.418	4329
489.494	3698
489.570	3594
489.646	5379
489.722	4809
489.797	4415
489.873	5206
489.949	5269
490.024	4597
490.100	4335
490.176	4280
490.251	4682
490.327	5223
490.403	4997
490.478	4525
490.554	4385
490.629	3975
490.705	4384
490.781	5174
490.856	5084
490.932	5013
491.007	5338
491.083	4758
491.158	4399
491.234	3586
491.309	5266
491.385	3386
491.460	3537
491.536	4444
491.611	3502
491.686	4865
491.762	4937
491.837	5016
491.913	5281
491.988	5731
492.063	5563
492.139	5356
492.214	4054
492.289	4727
492.365	3983
492.440	4408
492.515	3371
492.590	4102
492.666	4182
492.741	4713
492.816	4448
492.891	3465
492.967	4946
493.042	4694
493.117	3913
493.192	4665
493.267	4584
493.342	6249
493.418	6275
493.493	4591
493.568	4932
493.643	3663
493.718	4469
493.793	4816
493.868	5019
493.943	4331
494.018	4857
494.093	4107
494.168	4292
494.243	4812
494.318	4920
494.393	4735
494.468	4000
494.543	5348
494.618	4113
494.693	4405
494.768	4592
494.842	5048
494.917	4826
494.992	4061
495.067	3392
495.142	4002
495.217	4913
495.292	4623
495.366	4458
495.441	3753
495.516	5754
495.591	5819
495.665	6425
495.740	9737
495.815	5631
495.890	4478
495.964	3325
496.039	7212
496.114	5290
496.188	6549
496.263	7056
496.338	5684
496.412	4896
496.487	4854
496.561	4811
496.636	5070
496.710	4902
496.785	4903
496.860	4546
496.934	4774
497.009	5582
497.083	5259
497.158	5065
497.232	5074
497.307	6606
497.381	7394
497.455	6590
497.530	5404
497.604	5008
497.679	4764
497.753	5070
497.827	4879
497.902	4274
497.976	4743
498.050	7093
498.125	13253
498.199	11865
498.273	6597
498.348	6218
498.422	6829
498.496	7534
498.570	8749
498.645	4789
498.719	3030
498.793	4585
498.867	4265
498.941	5347
499.016	8022
499.090	11356
499.164	6061
499.238	6050
499.312	6375
499.386	6204
499.460	6368
499.534	7144
499.609	9918
499.683	5956
499.757	4036
499.831	4426
499.905	7887
499.979	7015
500.053	4685
500.127	4803
500.201	3918
500.275	5992
500.349	5539
500.422	6152
500.496	6801
500.570	8751
500.644	13338
500.718	14047
500.792	4633
500.866	3678
500.940	3424
501.013	4045
501.087	2565
501.161	3069
501.235	2259
501.309	6144
501.382	6095
501.456	6390
501.530	3200
501.603	3715
501.677	3292
501.751	1384
501.825	3972
501.898	3383
501.972	3099
502.046	3260
502.119	2680
502.193	4046
502.266	3107
502.340	3760
502.413	3415
502.487	4476
502.561	2704
502.634	3282
502.708	3284
502.781	2461
502.855	4139
502.928	2259
503.002	2659
503.075	2979
503.149	3205
503.222	3050
503.295	3657
503.369	3624
503.442	3444
503.516	5789
503.589	7980
503.662	6622
503.736	7502
503.809	11075
503.882	12258
503.956	20166
504.029	46592
504.102	141277
504.175	187219
504.249	54633
504.322	19223
504.395	10733
504.468	7584
504.542	5319
504.615	4217
504.688	5070
504.761	2487
504.834	4635
504.907	2701
504.980	3379
505.053	2831
505.127	1226
505.200	5817
505.273	2902
505.346	1750
505.419	2213
505.492	3631
505.565	2448
505.638	2752
505.711	1801
505.784	2936
505.857	2001
505.930	4069
506.003	254
506.076	3874
506.149	1912
506.221	839
506.294	2962
506.367	1251
506.440	3586
506.513	3888
506.586	2052
506.659	959
506.731	1997
506.804	1245
506.877	951
506.950	1933
507.022	3654
507.095	1184
507.168	2880
507.241	2446
507.313	1910
507.386	1071
507.459	3273
507.531	1721
507.604	1482
507.677	2606
507.749	1011
507.822	3062
507.894	1096
507.967	2536
508.040	1739
508.112	2393
508.185	3087
508.257	846
508.330	3321
508.402	1258
508.475	1536
508.547	1603
508.620	1661
508.692	1992
508.765	2489
508.837	1745
508.909	2706
508.982	1662
509.054	2263
509.127	2324
509.199	1519
509.271	1098
509.344	2018
509.416	1037
509.488	1924
509.560	2870
509.633	1903
509.705	1342
509.777	1807
509.849	2658
509.922	420
509.994	2084
510.066	2330
510.138	233
510.210	4075
510.283	1057
510.355	2458
510.427	2677
510.499	1784
510.571	1950
510.643	1996
510.715	3375
510.787	425
510.859	3096
510.931	1708
511.003	2583
511.076	2974
511.148	1833
511.219	620
511.291	2395
511.363	2639
511.435	1752
511.507	1352
511.579	2246
511.651	2682
511.723	1642
511.795	1315
511.867	1978
511.939	1973
512.010	1051
512.082	2563
512.154	227
512.226	1603
512.298	2558
512.369	2041
512.441	3347
512.513	1783
512.585	807
512.656	3630
512.728	1586
512.800	2235
512.871	2644
512.943	2476
513.015	901
513.086	2447
513.158	2174
513.230	1536
513.301	1615
513.373	2277
513.444	897
513.516	1931
513.588	1479
513.659	2391
513.731	2177
513.802	828
513.874	3658
513.945	2528
514.016	1581
514.088	1313
514.159	529
514.231	2183
514.302	1794
514.374	1878
514.445	625
514.516	3958
514.588	1205
514.659	2097
514.730	811
514.802	3451
514.873	333
514.944	3601
515.016	2524
515.087	1734
515.158	2065
515.229	3360
515.301	1383
515.372	3415
515.443	2430
515.514	1963
515.585	1888
515.656	3377
515.728	3466
515.799	2232
515.870	4098
515.941	2679
516.012	2577
516.083	5120
516.154	3908
516.225	6700
516.296	8356
516.367	9228
516.438	10129
516.509	15556
516.580	27750
516.651	116897
516.722	337071
516.793	87312
516.864	18368
516.935	19028
517.006	24219
517.077	33910
517.148	90562
517.219	407529
517.289	465266
517.360	58026
517.431	17816
517.502	10497
517.573	10338
517.643	8538
517.714	9888
517.785	10579
517.856	12223
517.926	16416
517.997	19978
518.068	25164
518.138	37515
518.209	70358
518.280	270924
518.350	733982
518.421	224742
518.492	42845
518.562	27416
518.633	28916
518.703	39713
518.774	94562
518.845	249875
518.915	191938
518.986	45556
519.056	19445
519.127	13491
519.197	9786
519.268	7854
519.338	8351
519.408	5370
519.479	4910
519.549	3706
519.620	5097
519.690	4182
519.760	3080
519.831	2809
519.901	2587
519.971	3233
520.042	2635
520.112	819
520.182	3050
520.253	2863
520.323	1900
520.393	1696
520.463	4069
520.534	-1035
520.604	4734
520.674	2842
520.744	1690
520.814	1684
520.885	2968
520.955	2931
521.025	3542
521.095	1794
521.165	2637
521.235	2497
521.305	1784
521.375	2665
521.445	3205
521.515	1110
521.585	2918
521.655	501
521.725	1909
521.795	2879
521.865	-135
521.935	4111
522.005	720
522.075	1998
522.145	3662
522.215	576
522.285	2469
522.355	2143
522.424	2770
522.494	1546
522.564	2488
522.634	2861
522.704	5018
522.774	1384
522.843	3180
522.913	3233
522.983	2564
523.053	1283
523.122	2979
523.192	2067
523.262	2993
523.331	2474
523.401	3402
523.471	2171
523.540	3287
523.610	1838
523.680	3451
523.749	2613
523.819	2167
523.888	2476
523.958	2660
524.027	1634
524.097	3171
524.166	1936
524.236	2014
524.305	4677
524.375	1423
524.444	1660
524.514	4966
524.583	1926
524.653	1278
524.722	2978
524.791	2442
524.861	4106
524.930	2441
524.999	2817
525.069	3441
525.138	2315
525.207	2832
525.277	4139
525.346	4465
525.415	4832
525.484	4811
525.554	5952
525.623	8747
525.692	10691
525.761	12428
525.830	16555
525.900	21837
525.969	36069
526.038	71475
526.107	165302
526.176	425872
526.245	269361
526.314	81930
526.383	221713
526.452	250789
526.522	401986
526.591	280829
526.660	42673
526.729	28651
526.797	32855
526.867	51864
526.935	168311
527.004	567732
527.073	264498
527.142	34981
527.211	15617
527.280	11178
527.349	9125
527.418	4706
527.487	6308
527.555	3950
527.624	4062
527.693	3431
527.762	5775
527.831	2722
527.899	4442
527.968	3658
528.037	2207
528.106	3422
528.174	3571
528.243	3343
528.312	2937
528.380	2787
528.449	1991
528.518	4813
528.586	1523
528.655	3756
528.723	2778
528.792	2274
528.861	1999
528.929	1187
528.998	3753
529.066	3075
529.135	3249
529.203	2467
529.272	1258
529.340	4996
529.409	5446
529.477	2509
529.545	2600
529.614	5060
529.682	2282
529.751	2998
529.819	5966
529.887	3298
529.956	3201
530.024	4444
530.092	3097
530.161	4641
530.229	4428
530.297	3003
530.365	5096
530.434	4493
530.502	3572
530.570	4342
530.638	3405
530.707	4100
530.775	5712
530.843	2897
530.911	4396
530.979	2921
531.047	4143
531.115	4754
531.183	3262
531.252	4646
531.320	3733
531.388	2288
531.456	4166
531.524	2614
531.592	4420
531.660	6548
531.728	3121
531.796	2552
531.864	4018
531.932	4349
532.000	3768
532.067	5618
532.135	4943
532.203	6270
532.271	4991
532.339	6552
532.407	6223
532.475	6527
532.542	6239
532.610	5862
532.678	3778
532.746	8067
532.814	10592
532.881	6214
532.949	6263
533.017	5477
533.084	5285
533.152	4950
533.220	4558
533.287	4424
533.355	6529
533.423	5450
533.490	5137
533.558	5590
533.625	4901
533.693	4550
533.761	5426
533.828	6491
533.896	4090
533.963	6276
534.031	7132
534.098	9151
534.166	8600
534.233	8202
534.300	10965
534.368	9626
534.435	9263
534.503	11739
534.570	11614
534.637	12787
534.705	15322
534.772	19571
534.840	41436
534.907	193592
534.974	176556
535.041	19489
535.109	10682
535.176	9701
535.243	9547
535.310	8698
535.378	8089
535.445	8884
535.512	8588
535.579	8827
535.646	7585
535.714	8128
535.781	9527
535.848	9024
535.915	8836
535.982	8290
536.049	8081
536.116	9934
536.183	6660
536.250	8473
536.317	7466
536.384	9100
536.451	8672
536.518	9819
536.585	7053
536.652	10703
536.719	9713
536.786	6596
536.853	7633
536.920	8913
536.987	9163
537.053	8084
537.120	11348
537.187	10640
537.254	9845
537.321	9333
537.388	10475
537.454	8577
537.521	9506
537.588	9184
537.654	10109
537.721	10976
537.788	11299
537.855	9624
537.921	8934
537.988	9611
538.055	9360
538.121	8657
538.188	8477
538.254	8915
538.321	9125
538.388	8800
538.454	10062
538.521	11097
538.587	10694
538.654	10017
538.720	8880
538.787	10311
538.853	10944
538.920	9344
538.986	8968
539.053	8275
539.119	9401
539.185	9078
539.252	11042
539.318	9517
539.385	12473
539.451	8824
539.517	10261
539.583	9771
539.650	9097
539.716	10225
539.782	9901
539.849	9143
539.915	9588
539.981	8490
540.047	8239
540.114	9619
540.180	10524
540.246	9563
540.312	10566
540.378	10434
540.444	11250
540.510	11473
540.576	11324
540.643	9672
540.709	8218
540.775	9846
540.841	8774
540.907	8992
540.973	9695
541.039	9770
541.105	9880
541.171	10366
541.237	10431
541.303	11408
541.369	12598
541.435	11037
541.500	10121
541.566	7689
541.632	9327
541.698	8968
541.764	10840
541.830	9496
541.896	10054
541.961	10741
542.027	8975
542.093	10640
542.159	10776
542.224	9010
542.290	10937
542.356	8906
542.421	10258
542.487	9846
542.553	9467
542.618	9485
542.684	8444
542.750	8830
542.815	10223
542.881	9910
542.947	11402
543.012	10873
543.078	9261
543.143	8395
543.209	9992
543.274	9169
543.340	10201
543.405	9657
543.471	9242
543.536	10090
543.602	10432
543.667	8583
543.732	11356
543.798	9922
543.863	10267
543.928	9611
543.994	9396
544.059	10691
544.124	11285
544.190	9733
544.255	10941
544.320	11572
544.386	10613
544.451	11774
544.516	11502
544.581	9585
544.646	11200
544.712	12746
544.777	12349
544.842	11795
544.907	10902
544.972	11249
545.037	12354
545.102	13063
545.168	11931
545.233	12964
545.298	13341
545.363	12135
545.428	13243
545.493	13828
545.558	14535
545.623	13279
545.688	12939
545.753	14687
545.818	14795
545.883	15773
545.947	16167
546.012	16388
546.077	15903
546.142	19932
546.207	18341
546.272	19667
546.337	20049
546.401	22022
546.466	21244
546.531	22429
546.596	25831
546.661	26260
546.725	28477
546.790	28970
546.855	32286
546.919	33893
546.984	39781
547.049	42656
547.113	49118
547.178	54040
547.243	61713
547.307	72058
547.372	77999
547.436	77713
547.501	84603
547.565	89185
547.630	80870
547.695	78402
547.759	78748
547.823	79527
547.888	82476
547.952	83702
548.017	86720
548.081	87310
548.146	86415
548.210	90647
548.274	99735
548.339	95540
548.403	85040
548.468	81526
548.532	80906
548.596	83577
548.660	85176
548.725	93168
548.789	99464
548.853	95662
548.917	92086
548.982	88692
549.046	79482
549.110	71817
549.174	74744
549.238	89223
549.303	95525
549.367	100006
549.431	92722
549.495	87094
549.559	88256
549.623	104767
549.687	110932
549.751	109323
549.815	132162
549.879	133923
549.943	126737
550.007	134607
550.071	131639
550.135	118244
550.199	112806
550.263	109550
550.327	106103
550.391	107700
550.455	121271
550.519	126869
550.582	133515
550.646	151125
550.710	151447
550.774	151246
550.838	152028
550.901	156397
550.965	164579
551.029	170727
551.093	181959
551.156	195141
551.220	215126
551.284	227639
551.347	179729
551.411	159825
551.475	155533
551.538	163165
551.602	153042
551.666	145159
551.729	136812
551.793	136140
551.856	132534
551.920	131974
551.983	130208
552.047	128224
552.110	130115
552.174	131959
552.237	134482
552.301	126228
552.364	119332
552.428	118131
552.491	122377
552.554	123884
552.618	124934
552.681	127178
552.745	124607
552.808	143007
552.871	153173
552.934	133850
552.998	125030
553.061	122304
553.124	116512
553.187	116584
553.251	118576
553.314	119270
553.377	120505
553.440	127814
553.503	131476
553.567	131353
553.630	131135
553.693	131047
553.756	131444
553.819	129809
553.882	125560
553.945	126506
554.008	125524
554.071	126637
554.134	128120
554.197	121483
554.260	120632
554.323	122729
554.386	122792
554.449	128425
554.512	126091
554.575	122178
554.638	121505
554.701	118578
554.764	118520
554.827	113350
554.889	108917
554.952	105664
555.015	102710
555.078	103439
555.141	104876
555.203	104302
555.266	102626
555.329	101894
555.391	99054
555.454	96747
555.517	92345
555.580	89629
555.642	85032
555.705	84549
555.768	84150
555.830	81095
555.893	76855
555.955	75692
556.018	74145
556.080	74497
556.143	74391
556.206	73535
556.268	71912
556.330	71228
556.393	69249
556.455	67444
556.518	65177
556.580	63182
556.643	60284
556.705	60160
556.767	56639
556.830	58303
556.892	56086
556.955	54791
557.017	54042
557.079	53056
557.142	51934
557.204	50777
557.266	51195
557.328	46206
557.391	44097
557.453	43530
557.515	43876
557.577	44378
557.639	43424
557.701	42753
557.764	42187
557.826	43608
557.888	44512
557.950	46589
558.012	51135
558.074	64585
558.136	136692
558.198	247329
558.260	77419
558.322	44394
558.384	44434
558.446	46778
558.508	49498
558.570	53293
558.632	61306
558.694	78680
558.756	133375
558.818	346831
558.880	578215
558.942	228033
559.003	264181
559.065	103377
559.127	53570
559.189	51862
559.251	58486
559.312	86480
559.374	196906
559.436	467429
559.498	185162
559.559	55042
559.621	51307
559.683	61302
559.744	102102
559.806	288535
559.868	317681
559.929	69741
559.991	58641
560.052	101784
560.114	247925
560.176	129791
560.237	157508
560.299	193676
560.360	39205
560.422	23222
560.483	20716
560.545	19745
560.606	18590
560.667	17978
560.729	16773
560.790	17011
560.852	16883
560.913	15616
560.974	15927
561.036	15206
561.097	16609
561.158	15568
561.220	14686
561.281	13909
561.342	13773
561.403	14013
561.465	13027
561.526	13884
561.587	14139
561.648	12435
561.709	12665
561.771	13164
561.832	11623
561.893	11672
561.954	11985
562.015	11424
562.076	11965
562.137	10469
562.198	11582
562.259	11429
562.320	11483
562.381	11635
562.442	10926
562.503	11485
562.564	11127
562.625	10580
562.686	10158
562.747	10709
562.808	10655
562.869	10427
562.930	9897
562.991	8578
563.051	9714
563.112	10455
563.173	9331
563.234	9107
563.294	9148
563.355	8793
563.416	9678
563.477	9010
563.537	8645
563.598	9346
563.659	9619
563.720	8801
563.780	8964
563.841	9030
563.901	9079
563.962	9860
564.023	8286
564.083	9446
564.144	8810
564.204	8215
564.265	8607
564.325	8933
564.386	8932
564.446	9234
564.507	9004
564.567	8129
564.628	7818
564.688	8710
564.749	7900
564.809	8340
564.869	8731
564.930	7996
564.990	8690
565.050	7734
565.111	8373
565.171	8615
565.231	8203
565.292	9164
565.352	7305
565.412	7903
565.472	6979
565.532	7447
565.593	7906
565.653	7837
565.713	7470
565.773	7405
565.833	7916
565.893	8889
565.953	7295
566.013	8514
566.074	7268
566.134	6942
566.194	6904
566.254	7446
566.314	7191
566.374	7191
566.434	7846
566.494	7041
566.554	7272
566.614	7051
566.673	7633
566.733	7758
566.793	7484
566.853	7908
566.913	8398
566.973	7720
567.033	8428
567.092	7625
567.152	7238
567.212	8583
567.272	7941
567.331	8242
567.391	7708
567.451	8665
567.511	8349
567.570	8638
567.630	8172
567.690	7329
567.749	7977
567.809	8644
567.868	8242
567.928	7459
567.988	7305
568.047	8552
568.107	7886
568.166	7793
568.226	7779
568.285	8568
568.345	8223
568.404	8157
568.464	8355
568.523	8019
568.582	7941
568.642	8270
568.701	7524
568.761	7454
568.820	6564
568.879	8542
568.939	7248
568.998	7102
569.057	6834
569.116	7440
569.176	8996
569.235	7338
569.294	7246
569.353	6458
569.413	7178
569.472	6868
569.531	6750
569.590	7290
569.649	6755
569.708	6968
569.767	7688
569.827	7318
569.886	7371
569.945	7337
570.004	6966
570.063	7465
570.122	7557
570.181	7388
570.240	6541
570.299	7812
570.358	7855
570.417	8220
570.475	7573
570.534	8786
570.593	8147
570.652	8108
570.711	7467
570.770	7602
570.829	7601
570.887	6848
570.946	8178
571.005	7494
571.064	8293
571.122	9743
571.181	7142
571.240	7797
571.299	7427
571.357	7114
571.416	7379
571.475	6618
571.533	7633
571.592	8203
571.650	7912
571.709	7971
571.768	9986
571.826	9167
571.885	8820
571.943	8051
572.002	8022
572.060	7951
572.119	7346
572.177	6915
572.236	7401
572.294	7087
572.352	7980
572.411	7591
572.469	7139
572.528	7884
572.586	7771
572.644	7342
572.703	7565
572.761	6249
572.819	6884
572.877	7320
572.936	7029
572.994	5688
573.052	6364
573.110	7003
573.169	6876
573.227	7753
573.285	7002
573.343	7041
573.401	7930
573.459	7437
573.517	6505
573.576	7077
573.634	7372
573.692	6592
573.750	6911
573.808	6052
573.866	6159
573.924	7173
573.982	5888
574.040	6894
574.098	6105
574.155	6527
574.213	6793
574.271	6298
574.329	7587
574.387	6426
574.445	5477
574.503	5665
574.560	5646
574.618	5409
574.676	5064
574.734	5573
574.792	5099
574.849	6093
574.907	5032
574.965	5173
575.022	4017
575.080	4244
575.138	4048
575.195	4170
575.253	4627
575.311	4121
575.368	5399
575.426	3941
575.483	5158
575.541	4519
575.598	4551
575.656	4869
575.713	5148
575.771	5234
575.828	4679
575.886	4402
575.943	5384
576.001	3623
576.058	4319
576.115	4479
576.173	3946
576.230	4806
576.287	4219
576.345	5452
576.402	5138
576.459	4089
576.517	3508
576.574	3415
576.631	4674
576.688	3578
576.746	3778
576.803	3778
576.860	3829
576.917	4151
576.974	4640
577.031	4393
577.089	4559
577.146	4122
577.203	3813
577.260	3910
577.317	4130
577.374	4429
577.431	2974
577.488	3213
577.545	3891
577.602	4360
577.659	3139
577.716	3708
577.773	4601
577.830	3381
577.886	4040
577.943	3372
578.000	3530
578.057	3908
578.114	3778
578.171	3293
578.227	3663
578.284	3626
578.341	3993
578.398	3800
578.454	3949
578.511	4209
578.568	4247
578.625	3672
578.681	4059
578.738	3513
578.794	3941
578.851	4598
578.908	4153
578.964	4027
579.021	3776
579.077	3292
579.134	4247
579.190	4015
579.247	3722
579.303	3480
579.360	3657
579.416	3335
579.473	3282
579.529	3926
579.586	3879
579.642	4039
579.698	4650
579.755	4566
579.811	4644
579.867	4237
579.924	3649
579.980	3396
580.036	5172
580.093	3837
580.149	4367
580.205	3716
580.261	4465
580.317	4123
580.374	4047
580.430	5303
580.486	4471
580.542	4857
580.598	3493
580.619	3705
580.654	4079
580.692	4449
580.710	4639
580.765	4371
580.767	4368
580.823	3826
580.838	4126
580.879	4917
580.911	5161
580.935	5362
580.984	4514
580.991	4400
581.047	4275
581.057	4338
581.103	4686
581.130	4408
581.159	4057
581.203	4523
581.215	4686
581.270	5199
581.276	5046
581.326	3497
581.349	3914
581.382	4555
581.422	4357
581.438	4273
581.494	4473
581.494	4461
581.550	3669
581.567	3898
581.606	4342
581.640	4150
581.661	4059
581.713	5292
581.717	5388
581.773	4498
581.786	4395
581.829	4128
581.859	4354
581.885	4539
581.932	4281
581.940	4242
581.996	5061
582.004	5002
582.052	4544
582.077	4247
582.107	4004
582.150	4575
582.163	4724
582.219	4343
582.223	4325
582.274	4335
582.296	4659
582.330	4944
582.368	4307
582.386	4178
582.441	4289
582.441	4289
582.497	3818
582.514	3736
582.552	3823
582.587	4350
582.608	4576
582.659	4233
582.663	4226
582.719	4363
582.732	4430
582.774	4418
582.805	4435
582.830	4563
582.877	4511
582.885	4467
582.941	3931
582.950	3996
582.996	4483
583.023	4810
583.052	5133
583.095	4651
583.107	4530
583.162	4385
583.168	4426
583.218	4726
583.240	4485
583.273	4236
583.313	4202
583.328	4175
583.384	4331
583.385	4327
583.439	4098
583.458	3962
583.494	3609
583.531	3829
583.549	4107
583.603	4253
583.605	4243
583.660	4166
583.676	4219
583.715	4574
583.748	4396
583.770	4293
583.820	5360
583.825	5431
583.881	5019
583.893	4794
583.936	4068
583.965	4006
583.991	4129
584.038	4599
584.046	4596
584.101	4358
584.110	4284
584.156	4399
584.183	4486
584.211	4369
584.255	4424
584.266	4477
584.321	4693
584.328	4669
584.376	4376
584.400	4994
584.431	5982
584.472	5358
584.486	5019
584.541	5369
584.545	5339
584.596	4953
584.617	4876
584.651	5037
584.689	5509
584.706	5589
584.761	5778
584.762	5777
584.816	5559
584.834	5781
584.871	6281
584.906	6314
584.926	6220
584.978	6354
584.980	6381
585.035	7307
585.051	7819
585.090	8933
585.123	9385
585.145	9773
585.195	10457
585.200	10550
585.254	13120
585.267	13592
585.309	14996
585.340	16294
585.364	17232
585.412	20673
585.419	21279
585.473	27590
585.484	29334
585.528	38431
585.556	48787
585.583	65764
585.628	108154
585.637	121308
585.692	246756
585.700	264248
585.747	324761
585.772	264218
585.801	155672
585.845	55469
585.856	42081
585.910	22244
585.917	20305
585.965	14486
585.989	12946
586.019	12067
586.061	10925
586.074	10610
586.128	10026
586.133	9936
586.183	9423
586.205	9574
586.237	9487
586.277	8659
586.292	8609
586.346	9596
586.349	9606
586.401	8667
586.421	8450
586.455	8672
586.493	9218
586.509	9348
586.564	8792
586.565	8807
586.618	9795
586.637	10025
586.672	11017
586.709	13312
586.727	14174
586.781	14625
586.781	14616
586.835	11329
586.853	10676
586.889	9936
586.925	9238
586.944	8910
586.996	8670
586.998	8672
587.052	8967
587.068	9001
587.106	9168
587.140	9189
587.161	9191
587.212	9556
587.215	9547
587.269	8981
587.284	8871
587.323	9062
587.356	9494
587.377	9575
587.427	9741
587.431	9795
587.485	10084
587.499	10231
587.539	10373
587.571	10523
587.593	10843
587.643	11880
587.648	11900
587.702	11705
587.715	11664
587.755	11856
587.786	12121
587.810	12083
587.858	11669
587.864	11714
587.917	12378
587.930	12480
587.971	12118
588.001	11965
588.025	12032
588.073	12219
588.079	12230
588.133	12453
588.145	12513
588.187	12686
588.217	12649
588.241	12686
588.288	12967
588.295	13020
588.348	13600
588.360	13640
588.402	13714
588.431	13929
588.456	14075
588.503	14898
588.510	15063
588.564	16013
588.575	16328
588.617	17661
588.646	18451
588.671	18996
588.718	20585
588.725	21059
588.778	26280
588.789	27733
588.832	40117
588.861	50744
588.886	72121
588.932	122426
588.939	127077
588.993	155377
589.004	152277
589.047	80661
589.075	42822
589.100	32099
589.147	20411
589.154	20009
589.207	18382
589.218	18185
589.261	18327
589.290	18630
589.314	19229
589.361	20856
589.368	21547
589.421	28884
589.433	30880
589.475	52197
589.504	70370
589.528	91950
589.576	137646
589.582	134072
589.635	68129
589.647	55910
589.689	30976
589.718	18137
589.742	17048
589.790	15177
589.795	15016
589.849	14031
589.861	13888
589.902	13664
589.932	13200
589.955	12894
590.004	12669
590.009	12697
590.062	13140
590.075	13159
590.115	12646
590.146	12333
590.168	12517
590.218	12943
590.222	12933
590.275	12868
590.289	12920
590.328	13491
590.360	13821
590.381	14057
590.431	14572
590.435	14551
590.488	14147
590.503	14047
590.541	14121
590.574	14363
590.594	14666
590.645	15157
590.647	15139
590.700	14997
590.716	14864
590.753	15749
590.787	16531
590.806	16112
590.859	15443
590.859	15461
590.912	17063
590.930	17570
590.965	17340
591.001	17221
591.018	17189
591.071	16916
591.072	16917
591.124	16218
591.143	15992
591.177	16410
591.214	17002
591.230	16887
591.283	16353
591.285	16337
591.336	16778
591.356	16989
591.389	17094
591.427	17205
591.442	17013
591.495	16359
591.498	16311
591.547	16270
591.569	16312
591.600	16759
591.640	17341
591.653	17413
591.706	17677
591.711	17716
591.759	17790
591.782	17839
591.811	18127
591.853	18581
591.864	18646
591.917	18969
591.924	19024
591.969	19230
591.995	19335
592.022	19108
592.066	18804
592.075	18943
592.127	19855
592.137	20025
592.180	19865
592.208	19814
592.233	20090
592.279	20624
592.285	20748
592.338	21909
592.350	22172
592.390	21881
592.421	21717
592.443	21872
592.491	22218
592.495	22236
592.548	22671
592.562	22802
592.600	22443
592.633	22169
592.653	22032
592.704	21606
592.705	21761
592.775	23484
592.846	23054
592.916	23615
592.987	24137
593.058	24879
593.128	25302
593.199	25312
593.270	25345
593.341	25973
593.411	26553
593.482	28242
593.553	29255
593.623	29070
593.694	29202
593.764	30639
593.835	29220
593.906	30085
593.976	30593
594.047	30914
594.117	32833
594.188	34326
594.258	33557
594.329	32760
594.399	33888
594.470	35022
594.540	37000
594.611	37188
594.681	36490
594.751	37446
594.822	38975
594.892	40534
594.963	39730
595.033	42266
595.103	42809
595.174	44206
595.244	43809
595.314	46843
595.384	46605
595.455	47514
595.525	50271
595.595	51423
595.665	51435
595.736	51384
595.806	52938
595.876	52604
595.946	52359
596.016	56342
596.087	57097
596.157	57647
596.227	58107
596.297	61245
596.367	65534
596.437	69285
596.507	68829
596.577	68314
596.647	70928
596.717	74181
596.787	74452
596.857	75619
596.927	75092
596.997	76642
597.067	76645
597.137	78803
597.207	79538
597.277	80440
597.347	75660
597.417	73248
597.487	73360
597.557	76379
597.626	76872
597.696	79143
597.766	78522
597.836	73705
597.906	68724
597.975	68385
598.045	68499
598.115	74605
598.185	77232
598.254	86825
598.324	94805
598.394	97476
598.464	92370
598.533	91607
598.603	83755
598.672	84310
598.742	85109
598.812	84794
598.881	86950
598.951	87109
599.020	88567
599.090	91872
599.159	93011
599.229	90318
599.299	87644
599.368	90812
599.437	88710
599.507	81634
599.576	78191
599.646	77722
599.715	76752
599.785	75871
599.854	72741
599.924	73357
599.993	72142
600.062	75171
600.132	75532
600.201	80919
600.270	93065
600.340	99388
600.409	96395
600.478	95813
600.547	99260
600.617	89041
600.686	70279
600.755	63666
600.824	60115
600.894	58976
600.963	59033
601.032	58619
601.101	55468
601.170	54001
601.239	51753
601.308	53245
601.378	51720
601.447	52154
601.516	53264
601.585	53629
601.654	53458
601.723	53662
601.792	54711
601.861	57665
601.930	58641
601.999	59897
602.068	59013
602.137	61831
602.206	61329
602.275	63025
602.343	62615
602.412	63508
602.481	64692
602.550	65987
602.619	66165
602.688	67715
602.756	67525
602.825	69204
602.894	69778
602.963	72202
603.032	73876
603.100	72990
603.169	74567
603.238	74313
603.307	73983
603.375	76388
603.444	76364
603.513	78155
603.581	78117
603.650	79547
603.719	78195
603.787	81241
603.856	81697
603.924	85314
603.993	86842
604.061	91679
604.130	95180
604.198	97964
604.267	99513
604.335	100658
604.404	101360
604.472	102590
604.541	104793
604.609	105097
604.678	106060
604.746	105750
604.815	109162
604.883	111594
604.951	110952
605.020	113863
605.088	116250
605.156	118196
605.225	119817
605.293	120607
605.361	119687
605.429	122594
605.498	123470
605.566	126343
605.634	132357
605.702	137941
605.771	141217
605.839	143519
605.907	138779
605.975	134510
606.043	132506
606.111	132768
606.180	130591
606.248	130244
606.316	128858
606.384	130057
606.452	130127
606.520	132784
606.588	136611
606.656	138433
606.724	135803
606.792	128580
606.860	115900
606.928	106276
606.996	100010
607.064	99785
607.132	101738
607.200	110156
607.267	112679
607.335	117087
607.403	118735
607.471	114212
607.539	110154
607.607	112162
607.674	98162
607.742	97867
607.810	96155
607.878	97671
607.946	98714
608.013	104383
608.081	105357
608.149	107057
608.216	110446
608.284	116430
608.352	114116
608.419	112738
608.487	111449
608.555	107558
608.622	111929
608.690	120067
608.757	132347
608.825	133954
608.893	128770
608.960	122902
609.028	118160
609.095	117804
609.163	116945
609.230	103996
609.298	96546
609.365	101374
609.432	109496
609.500	119215
609.567	136503
609.635	155284
609.702	161296
609.769	153870
609.837	119146
609.904	103311
609.971	105810
610.039	115975
610.106	140932
610.173	230721
610.241	446462
610.308	265660
610.375	127936
610.442	112460
610.509	108555
610.577	108269
610.644	110352
610.711	114171
610.778	115977
610.845	121616
610.912	128255
610.980	134854
611.047	131886
611.114	131465
611.181	127272
611.248	127802
611.315	133965
611.382	138610
611.449	141885
611.516	145290
611.583	143666
611.650	144088
611.717	144730
611.784	147683
611.851	151930
611.918	156129
611.984	174408
612.051	221748
612.118	360643
612.185	671187
612.252	465859
612.319	211959
612.386	183607
612.452	168878
612.519	163823
612.586	160013
612.653	162925
612.719	170151
612.786	161687
612.853	151369
612.919	148206
612.986	151430
613.053	143027
613.120	134688
613.186	129407
613.253	131988
613.319	130373
613.386	133028
613.453	132486
613.519	135463
613.586	130813
613.652	132838
613.719	130392
613.785	134225
613.852	136135
613.918	134240
613.985	137659
614.051	141781
614.118	138718
614.184	135307
614.250	133787
614.317	138281
614.383	135654
614.449	139334
614.516	138449
614.582	139479
614.648	134856
614.715	135932
614.781	131698
614.847	133952
614.914	131289
614.980	128281
615.046	128498
615.112	133457
615.179	131332
615.245	134459
615.311	131364
615.377	133925
615.443	133639
615.509	136947
615.575	141951
615.642	140061
615.708	143149
615.774	147998
615.840	155598
615.906	160054
615.972	180307
616.038	239262
616.104	417415
616.170	733548
616.236	613944
616.302	274499
616.368	225020
616.434	173658
616.500	163539
616.565	179097
616.631	214354
616.697	178782
616.763	183996
616.829	259172
616.895	420687
616.961	382442
617.026	190803
617.092	148291
617.158	142761
617.224	139602
617.289	129072
617.355	124140
617.421	122304
617.487	124303
617.552	116034
617.618	116674
617.684	117155
617.749	117597
617.815	113215
617.880	111485
617.946	112707
618.012	113866
618.077	115461
618.143	110796
618.208	111840
618.274	120699
618.339	118682
618.405	100861
618.470	99466
618.536	100353
618.601	98198
618.667	91010
618.732	87110
618.798	88640
618.863	87653
618.928	86670
618.994	86737
619.059	87541
619.124	88141
619.190	85676
619.255	87066
619.320	86251
619.386	87025
619.451	86064
619.516	82615
619.581	84146
619.647	87289
619.712	88043
619.777	84009
619.842	85012
619.907	84716
619.972	88382
620.038	85094
620.103	85781
620.168	84352
620.233	86191
620.298	85526
620.363	88505
620.428	90620
620.493	91741
620.558	94278
620.623	94958
620.688	93814
620.753	92933
620.818	95304
620.883	95047
620.948	94213
621.013	92934
621.078	92442
621.143	92619
621.207	95246
621.272	92126
621.337	89722
621.402	88298
621.467	86821
621.532	87408
621.596	88393
621.661	86330
621.726	85232
621.791	86790
621.855	85996
621.920	85242
621.985	87106
622.049	89471
622.114	87442
622.179	89486
622.243	90249
622.308	94226
622.373	97191
622.437	94765
622.502	90400
622.566	90801
622.631	88603
622.695	91179
622.760	90562
622.824	89781
622.889	90608
622.953	91049
623.018	96230
623.082	96460
623.147	95075
623.211	92304
623.276	93609
623.340	90843
623.404	87043
623.469	87756
623.533	89493
623.597	87263
623.662	86147
623.726	80259
623.790	75776
623.854	74273
623.919	74799
623.983	76349
624.047	77041
624.111	78752
624.176	77802
624.240	79483
624.304	82014
624.368	80272
624.432	79662
624.496	82027
624.560	84581
624.625	83567
624.689	85662
624.753	88505
624.817	84584
624.881	82374
624.945	74177
625.009	71679
625.073	75882
625.137	76379
625.201	80114
625.265	79705
625.329	77041
625.393	77466
625.456	76829
625.520	80034
625.584	80214
625.648	82343
625.712	83973
625.776	82625
625.839	79164
625.903	68562
625.967	62666
626.031	69686
626.095	78890
626.158	73289
626.222	57104
626.286	55993
626.349	52873
626.413	48882
626.477	49459
626.540	50231
626.604	47220
626.668	49466
626.731	48433
626.795	47617
626.858	47463
626.922	46572
626.986	46161
627.049	45203
627.113	48392
627.176	47148
627.240	44228
627.303	45326
627.366	44572
627.430	45515
627.493	45463
627.557	42408
627.620	44991
627.684	46064
627.747	45787
627.810	41871
627.874	38175
627.937	36865
628.000	39225
628.064	37478
628.127	32585
628.190	34344
628.253	32238
628.317	30594
628.380	28587
628.443	28687
628.506	29111
628.569	27888
628.632	24858
628.696	27087
628.759	25553
628.822	24652
628.885	24442
628.948	24137
629.011	23937
629.074	22836
629.137	22116
629.200	21405
629.263	22264
629.326	20351
629.389	21267
629.452	21340
629.515	19021
629.578	19514
629.641	21269
629.704	20128
629.767	20198
629.830	19340
629.892	18666
629.955	18186
630.018	20092
630.081	18557
630.144	19590
630.207	18641
630.269	19384
630.332	16933
630.395	17372
630.458	17821
630.520	15264
630.583	17503
630.646	17991
630.708	16878
630.771	17035
630.834	19503
630.896	18203
630.959	17984
631.021	17084
631.084	16860
631.146	18217
631.209	18966
631.272	17041
631.334	18221
631.397	17837
631.459	19124
631.522	18803
631.584	20018
631.646	20728
631.709	21028
631.771	19984
631.834	20510
631.896	18620
631.958	18720
632.021	19351
632.083	16821
632.145	16743
632.208	15777
632.270	16662
632.332	15708
632.395	15446
632.457	17932
632.519	15826
632.581	16905
632.643	15166
632.706	16017
632.768	14534
632.830	16240
632.892	16061
632.954	15962
633.016	16335
633.078	16142
633.141	16357
633.203	16843
633.265	16511
633.327	17577
633.389	15190
633.451	17564
633.513	15610
633.575	17247
633.637	15426
633.698	16654
633.760	17780
633.822	19345
633.884	18865
633.946	19284
634.008	19579
634.070	20128
634.132	20040
634.193	23317
634.255	25291
634.317	24701
634.379	25756
634.441	21774
634.502	19712
634.564	18513
634.626	17268
634.687	16261
634.749	15404
634.811	16564
634.873	14918
634.934	16248
634.996	16227
635.057	15377
635.119	15420
635.181	16522
635.242	16574
635.304	14711
635.365	18471
635.427	15892
635.488	14641
635.550	15625
635.611	16020
635.673	15044
635.734	17542
635.796	17714
635.857	20734
635.918	20952
635.980	23125
636.041	24474
636.102	26290
636.164	26627
636.225	25358
636.286	20759
636.348	20168
636.409	18110
636.470	15861
636.531	16320
636.593	15500
636.654	16030
636.715	14294
636.776	14777
636.838	12725
636.899	13521
636.960	12823
637.021	12828
637.082	11860
637.143	13609
637.204	12265
637.265	13057
637.326	13384
637.387	14437
637.448	11839
637.509	13779
637.570	13367
637.631	14920
637.692	11188
637.753	11459
637.814	13505
637.875	12663
637.936	12065
637.997	11772
638.058	12061
638.119	13828
638.179	11998
638.240	12172
638.301	12295
638.362	11034
638.423	11114
638.483	13119
638.544	10500
638.605	12464
638.666	10266
638.726	12355
638.787	11139
638.848	11194
638.908	10989
638.969	12394
639.030	10248
639.090	10597
639.151	9984
639.211	11904
639.272	11015
639.332	11646
639.393	11571
639.453	12006
639.514	12819
639.574	11856
639.635	9452
639.695	11587
639.756	8915
639.816	10851
639.877	10389
639.937	10985
639.997	11206
640.058	8914
640.118	9148
640.178	10925
640.239	9885
640.299	9912
640.359	10577
640.420	12149
640.480	12079
640.540	14125
640.600	13495
640.661	13549
640.721	10604
640.781	12634
640.841	9310
640.901	10870
640.961	10111
641.021	11567
641.082	10738
641.142	10758
641.202	10289
641.262	9269
641.322	10220
641.382	9134
641.442	10084
641.502	10188
641.562	9784
641.622	10829
641.682	11065
641.742	11497
641.802	10340
641.861	10407
641.921	8581
641.981	10245
642.041	8894
642.101	8872
642.161	7510
642.221	8463
642.280	8618
642.340	8452
642.400	8043
642.460	10512
642.519	8125
642.579	9088
642.639	9481
642.698	7572
642.758	11202
642.818	9959
642.877	8167
642.937	10254
642.997	8838
643.056	9794
643.116	7952
643.175	10391
643.235	9955
643.294	10386
643.354	10096
643.414	10766
643.473	13464
643.532	14730
643.592	17953
643.651	29333
643.711	48507
643.770	93833
643.830	215322
643.889	374726
643.948	107694
644.008	27716
644.067	17053
644.126	13371
644.186	11436
644.245	12293
644.304	8214
644.363	11772
644.423	7693
644.482	10462
644.541	10000
644.600	8871
644.659	13434
644.719	15502
644.778	22427
644.837	39293
644.896	81584
644.955	172536
645.014	53280
645.073	15233
645.132	11544
645.191	11926
645.250	9882
645.309	12013
645.368	11952
645.427	16842
645.486	26327
645.545	46929
645.604	13726
645.663	9993
645.722	8519
645.781	10383
645.840	10919
645.898	12969
645.957	17941
646.016	26693
646.075	46557
646.134	90490
646.192	228609
646.251	286756
646.310	55120
646.369	19904
646.427	16365
646.486	11889
646.545	10312
646.603	10678
646.662	8895
646.721	8387
646.779	8119
646.838	8716
646.896	10933
646.955	15511
647.014	24277
647.072	47318
647.131	122297
647.189	52209
647.248	10185
647.306	8773
647.365	7521
647.423	5426
647.481	7859
647.540	5692
647.598	6753
647.657	6510
647.715	5818
647.773	5754
647.832	7053
647.890	4612
647.948	5885
648.007	5968
648.065	4548
648.123	5022
648.181	5735
648.240	6095
648.298	4920
648.356	4920
648.414	4717
648.472	5743
648.531	4604
648.589	4719
648.647	4473
648.705	4830
648.763	4345
648.821	5584
648.879	5548
648.937	5468
648.995	6253
649.053	8130
649.111	12968
649.169	22105
649.227	40126
649.285	84672
649.343	219875
649.401	95032
649.459	13578
649.516	9960
649.574	6657
649.632	7742
649.690	8397
649.748	11850
649.806	15599
649.863	31843
649.921	89339
649.979	53211
650.037	8935
650.094	3328
650.152	4987
650.210	3960
650.268	3750
650.325	3893
650.383	2747
650.440	1585
650.498	3635
650.556	4095
650.613	2709
650.671	4995
650.728	2911
650.786	4898
650.843	5740
650.901	2665
650.958	3554
651.016	3676
651.073	1688
651.131	3261
651.188	1802
651.246	2823
651.303	1417
651.360	2504
651.418	1421
651.475	2946
651.532	1561
651.590	2415
651.647	1596
651.704	2512
651.762	1713
651.819	2967
651.876	2235
651.933	2597
651.990	3027
652.048	750
652.105	1210
652.162	3665
652.219	1237
652.276	2397
652.333	2520
652.390	1670
652.448	1729
652.505	1870
652.562	1015
652.619	2435
652.676	1435
652.733	2242
652.790	1464
652.847	893
652.904	1207
652.961	950
653.017	313
653.074	2542
653.131	1648
653.188	757
653.245	1793
653.302	1672
653.359	1340
653.415	2221
653.472	432
653.529	2770
653.586	170
653.642	1594
653.699	1777
653.756	1165
653.813	1684
653.869	2151
653.926	90
653.983	1184
654.039	1472
654.096	1659
654.152	2546
654.209	1073
654.266	949
654.322	1000
654.379	1333
654.435	1949
654.492	122
654.548	1817
654.605	898
654.661	2609
654.717	413
654.774	1153
654.830	1038
654.887	931
654.943	678
655.000	806
655.056	767
655.112	2045
655.168	828
655.225	1513
655.281	940
655.337	2032
655.394	413
655.450	1522
655.506	901
655.562	841
655.618	1801
655.675	675
655.731	463
655.787	1527
655.843	1790
655.899	1426
655.955	1521
656.011	1456
656.067	332
656.123	1529
656.179	954
656.235	3249
656.291	277
656.347	3000
656.403	1309
656.459	503
656.515	1238
656.571	537
656.627	711
656.683	1131
656.739	988
656.795	1289
656.850	932
656.906	1229
656.962	1581
657.018	1379
657.074	1676
657.129	3286
657.185	5751
657.241	14695
657.297	6847
657.352	1799
657.408	339
657.464	1540
657.519	185
657.575	297
657.630	-483
657.686	473
657.742	427
657.797	861
657.853	1347
657.908	1224
657.964	-42
658.019	993
658.075	66
658.130	798
658.186	-235
658.241	950
658.297	-274
658.352	600
658.407	929
658.463	278
658.518	638
658.573	1501
658.629	-605
658.684	1138
658.739	843
658.795	233
658.850	1192
658.905	93
658.960	-115
659.016	321
659.071	311
659.126	1514
659.181	612
659.236	1277
659.291	761
659.346	1261
659.401	-465
659.457	1447
659.512	-137
659.567	1518
659.622	-104
659.677	1193
659.732	-631
659.787	941
659.842	-428
659.897	303
659.952	625
660.007	613
660.061	429
660.116	553
660.171	483
660.226	852
660.281	1477
660.336	16
660.391	450
660.445	761
660.500	598
660.555	600
660.610	-1025
660.664	1191
660.719	-213
660.774	986
660.828	-302
660.883	67
660.938	778
660.992	-986
661.047	-52
661.101	285
661.156	-35
661.211	524
661.265	-315
661.320	683
661.374	417
661.429	128
661.483	717
661.538	-580
661.592	49
661.647	343
661.701	423
661.755	535
661.810	783
661.864	178
661.919	-180
661.973	918
662.027	-394
662.081	-223
662.136	-307
662.190	-105
662.244	-144
662.299	-174
662.353	164
662.407	-153
662.461	101
662.515	557
662.569	-658
662.624	578
662.678	-889
662.732	-336
662.786	-312
662.840	399
662.894	256
662.948	59
663.002	-33
663.056	650
663.110	-496
663.164	466
663.218	255
663.272	710
663.326	190
663.380	-198
663.434	324
663.488	-486
663.542	8
663.595	-80
663.649	-852
663.703	924
663.757	-286
663.811	-252
663.864	19
663.918	869
663.972	-971
664.026	83
664.079	23
664.133	1064
664.187	395
664.240	521
664.294	-390
664.348	572
664.401	636
664.455	63
664.508	-701
664.562	360
664.615	187
664.669	-367
664.722	-295
664.776	-193
664.829	-35
664.883	223
664.936	-799
664.990	155
665.043	628
665.097	490
665.150	362
665.203	-445
665.257	-109
665.310	-466
665.363	-133
665.417	195
665.470	119
665.523	428
665.576	-200
665.630	-36
665.683	576
665.736	1393
665.789	-187
665.842	101
665.895	198
665.949	149
666.002	11
666.055	503
666.108	437
666.161	357
666.214	218
666.267	758
666.320	240
666.373	554
666.426	744
666.479	-45
666.532	153
666.585	235
666.638	-44
666.691	412
666.744	572
666.796	380
666.849	105
666.902	614
666.955	-224
667.008	778
667.060	136
667.113	23
667.166	-3
667.219	770
667.271	665
667.324	283
667.377	512
667.430	660
667.482	708
667.535	3
667.587	287
667.640	430
667.693	-260
667.745	668
667.798	528
667.850	-24
667.903	-362
667.955	801
668.008	-370
668.060	-153
668.113	-1359
668.165	970
668.218	-5
668.270	1290
668.322	114
668.375	341
668.427	857
668.479	273
668.532	89
668.584	-312
668.636	-6
668.689	496
668.741	-368
668.793	1435
668.845	-430
668.898	952
668.950	-393
669.002	-259
669.054	-873
669.106	42
669.158	-411
669.211	112
669.263	-527
669.315	501
669.367	-5
669.419	-270
669.471	547
669.523	-203
669.575	-118
669.627	424
669.679	-413
669.731	544
669.783	-172
669.835	642
669.886	-215
669.938	748
669.990	165
670.042	613
670.094	-335
670.146	548
670.197	656
670.249	626
670.301	75
670.353	648
670.404	908
670.456	993
670.508	2140
670.560	2680
670.611	5175
670.663	9931
670.715	24237
670.766	36114
670.818	7779
670.869	1523
670.921	1119
670.972	1338
671.024	-672
671.075	733
671.127	422
671.178	345
671.230	-630
671.281	812
671.333	1178
671.384	1346
671.436	1338
671.487	4123
671.538	5771
671.590	9739
671.641	19319
671.692	36623
671.744	71099
671.795	41872
671.846	12342
671.897	5262
671.949	2457
672.000	1781
672.051	624
672.102	636
672.153	-738
672.204	1695
672.256	233
672.307	878
672.358	286
672.409	367
672.460	-88
672.511	-483
672.562	-1011
672.613	404
672.664	-460
672.715	52
672.766	-363
672.817	-455
672.868	-1049
672.919	-74
672.970	94
673.021	-118
673.071	-1138
673.122	646
673.173	-603
673.224	-162
673.275	-1250
673.326	-132
673.376	-414
673.427	-7
673.478	-310
673.528	81
673.579	-463
673.630	340
673.680	83
673.731	-493
673.782	-960
673.832	-282
673.883	-338
673.934	-706
673.984	-1286
674.035	-530
674.085	-642
674.136	-238
674.186	-769
674.237	-391
674.287	-842
674.338	-1155
674.388	-1357
674.438	276
674.489	743
674.539	168
674.589	-913
674.640	-204
674.690	-895
674.740	-703
674.791	-821
674.841	561
674.891	-849
674.942	-240
674.992	-1630
675.042	-551
675.092	-1099
675.142	-1521
675.193	-1157
675.243	-833
675.293	-128
675.343	-544
675.393	-1493
675.443	139
675.493	-575
675.543	-263
675.593	-1223
675.643	-550
675.693	-224
675.743	-170
675.793	-594
675.843	-95
675.893	-840
675.943	-705
675.993	-1671
676.043	-838
676.093	-606
676.142	-515
676.192	-984
676.242	-314
676.292	-1069
676.341	-855
676.391	-996
676.441	-912
676.491	-785
676.540	-1266
676.590	-62
676.640	-85
676.689	-1509
676.739	-1420
676.789	-564
676.838	-1482
676.888	-873
676.937	-460
676.987	-1409
677.037	-172
677.086	-1237
677.136	-1533
677.185	-1264
677.235	-861
677.284	-991
677.333	-687
677.383	-2071
677.432	-1144
677.482	-743
677.531	-552
677.580	-1317
677.630	-659
677.679	-429
677.728	-501
677.778	-1150
677.827	-69
677.876	-1466
677.925	-934
677.975	-854
678.024	-473
678.073	-1206
678.122	-246
678.171	-896
678.220	-1571
678.269	-811
678.319	-173
678.368	-1079
678.417	-818
678.466	-1051
678.515	16
678.564	-1879
678.613	-1096
678.662	-1544
678.711	-589
678.760	-1286
678.809	103
678.857	-1742
678.906	-221
678.955	-1542
679.004	-859
679.053	-1278
679.102	-1214
679.151	-751
679.199	-1101
679.248	-1478
679.297	-676
679.346	-1714
679.394	-1428
679.443	-1089
679.492	-1120
679.540	-1063
679.589	-1164
679.638	-1638
679.686	-1244
679.735	-923
679.784	-1585
679.832	-787
679.881	-1002
679.929	-1518
679.978	-1300
680.026	-1436
680.075	-204
680.123	-1898
680.172	-991
680.220	-757
680.268	-1250
680.317	-1489
680.365	-670
680.414	-1670
680.462	-969
680.510	-410
680.559	-1213
680.607	-1266
680.655	-1052
680.703	-1583
680.752	-322
680.800	-1592
680.848	-726
680.896	-1106
680.945	-868
680.993	-1758
681.041	-1262
681.089	-919
681.137	-781
681.185	-2171
681.233	-570
681.258	-755
681.281	-942
681.329	-656
681.377	-1915
681.380	-1840
681.425	-641
681.473	-989
681.502	-614
681.521	-384
681.569	-1786
681.617	-1274
681.624	-1305
681.665	-1584
681.713	-846
681.745	-1097
681.761	-1242
681.809	-784
681.857	-1217
681.867	-1056
681.904	-542
681.952	-1086
681.989	-481
682.000	-311
682.048	-1428
682.096	-434
682.111	-630
682.143	-1093
682.191	-646
682.233	-335
682.239	-300
682.286	-310
682.334	-1357
682.354	-1109
682.382	-805
682.430	-504
682.476	-109
682.477	-109
682.525	-824
682.572	-709
682.598	-849
682.620	-991
682.667	-1246
682.715	-842
682.720	-763
682.763	-152
682.810	-532
682.841	-118
682.857	82
682.905	-486
682.952	-130
682.963	-134
683.000	-239
683.047	-226
683.085	45
683.095	125
683.142	124
683.190	-817
683.206	-509
683.237	11
683.284	-63
683.328	-362
683.332	-399
683.379	-511
683.426	-479
683.449	-197
683.473	110
683.521	93
683.568	-832
683.571	-726
683.615	499
683.662	-70
683.693	93
683.709	179
683.757	-732
683.804	194
683.814	95
683.851	-335
683.898	980
683.936	240
683.945	62
683.992	278
684.039	179
684.057	79
684.086	-85
684.133	205
684.179	232
684.180	222
684.227	-194
684.274	589
684.300	331
684.321	212
684.368	-23
684.415	-53
684.422	-32
684.462	-7
684.509	-215
684.543	260
684.556	422
684.603	-373
684.649	213
684.665	292
684.696	432
684.743	693
684.786	985
684.790	994
684.837	978
684.883	417
684.908	426
684.930	494
684.977	362
685.023	642
685.029	658
685.070	655
685.117	748
685.150	368
685.164	219
685.210	604
685.257	1037
685.272	994
685.303	869
685.350	301
685.393	708
685.396	744
685.443	340
685.490	924
685.514	632
685.536	282
685.583	1031
685.629	177
685.636	246
685.675	779
685.722	384
685.757	397
685.768	405
685.815	740
685.861	491
685.878	505
685.908	493
685.954	1014
686.000	814
686.000	808
686.047	1390
686.093	1368
686.121	1444
686.139	1424
686.185	1176
686.232	1135
686.242	990
686.278	554
686.324	1155
686.363	565
686.370	477
686.416	1328
686.463	1017
686.484	1204
686.509	1377
686.555	501
686.601	1063
686.606	1065
686.647	936
686.693	1099
686.727	817
686.739	777
686.785	1171
686.831	1141
686.848	1228
686.877	1305
686.923	1166
686.969	1482
686.969	1483
687.015	1357
687.061	1642
687.090	1494
687.107	1368
687.153	1332
687.199	1870
687.211	1509
687.245	613
687.291	1277
687.332	1475
687.336	1499
687.382	819
687.428	1225
687.453	1291
687.474	1314
687.520	1852
687.565	1900
687.574	1791
687.611	1451
687.657	2138
687.695	1677
687.702	1584
687.748	2013
687.794	2688
687.816	2313
687.839	1863
687.885	1817
687.931	1576
687.937	1556
687.976	1686
688.022	2148
688.058	2242
688.067	2226
688.113	1957
688.158	2256
688.179	2067
688.204	1784
688.249	1894
688.295	1445
688.300	1449
688.340	1652
688.386	1868
688.421	1744
688.431	1754
688.477	1498
688.522	2587
688.542	2533
688.567	2473
688.613	3258
688.658	2530
688.663	2572
688.703	2614
688.749	2227
688.784	2518
688.794	2647
688.839	2503
688.884	3002
688.905	2810
688.930	2553
688.975	3030
689.020	2342
689.026	2382
689.065	2611
689.110	1793
689.146	2140
689.155	2248
689.201	2288
689.246	2215
689.267	1933
689.291	1761
689.336	2768
689.381	2799
689.388	2825
689.426	2693
689.471	2476
689.509	2400
689.516	2417
689.561	2397
689.606	3001
689.630	2439
689.651	1938
689.696	2509
689.741	2190
689.750	2308
689.785	2825
689.830	2335
689.871	2659
689.875	2686
689.920	2281
689.965	2500
689.992	2392
690.010	2298
690.054	2990
690.099	2178
690.112	2213
690.144	2535
690.189	2074
690.233	3142
690.233	3152
690.278	2473
690.323	3215
690.354	2830
690.367	2698
690.412	2632
690.457	2863
690.474	2979
690.501	2936
690.546	2787
690.590	2715
690.595	2596
690.635	2134
690.680	2723
690.716	2778
690.724	2724
690.769	3033
690.813	2911
690.836	2699
690.857	2628
690.902	2808
690.946	3024
690.957	3008
690.991	3217
691.035	3845
691.077	3990
691.080	3961
691.124	3479
691.168	2932
691.198	2608
691.213	2691
691.257	2822
691.301	3357
691.318	3359
691.346	3153
691.390	3108
691.434	2424
691.439	2509
691.478	3471
691.522	2928
691.559	3034
691.567	3108
691.611	3378
691.655	3771
691.680	3727
691.699	3450
691.743	3561
691.787	3239
691.800	3157
691.831	3272
691.875	3227
691.919	3403
691.921	3405
691.964	3640
692.008	3789
692.041	3408
692.052	3298
692.096	3449
692.139	3290
692.162	3299
692.183	3248
692.227	2735
692.271	2908
692.282	2846
692.315	3055
692.359	3374
692.402	3509
692.403	3517
692.447	3612
692.490	3562
692.523	3353
692.534	3244
692.578	2892
692.622	3005
692.643	2748
692.666	2724
692.709	3165
692.753	3194
692.763	3277
692.797	3416
692.840	3263
692.884	3476
692.884	3489
692.928	3573
692.971	3709
693.004	3590
693.015	3486
693.059	3484
693.102	2916
693.124	3000
693.146	3370
693.189	3371
693.233	3812
693.245	3895
693.276	3735
693.320	3594
693.363	3117
693.365	3104
693.407	3566
693.450	3751
693.485	3873
693.493	3832
693.537	3827
693.580	3596
693.605	3525
693.624	3575
693.667	3504
693.710	3560
693.725	3664
693.753	4093
693.797	4090
693.840	4749
693.845	4745
693.883	4258
693.926	4126
693.966	3693
693.970	3676
694.013	3789
694.056	3383
694.086	3290
694.099	3325
694.142	3226
694.185	3590
694.206	3487
694.229	3457
694.272	3656
694.315	3946
694.326	3950
694.358	3864
694.401	3660
694.444	3892
694.446	3870
694.487	3656
694.530	3649
694.566	3644
694.573	3677
694.616	3551
694.659	3457
694.686	3611
694.702	3742
694.745	3942
694.787	4077
694.806	4172
694.830	4219
694.873	4006
694.916	3721
694.926	3781
694.959	4165
695.002	4172
695.044	4185
695.046	4169
695.087	4079
695.130	4296
695.166	4280
695.172	4303
695.215	4388
695.258	4478
695.286	4529
695.301	4664
695.343	4935
695.386	5547
695.406	5562
695.428	5706
695.471	6346
695.514	6787
695.526	6895
695.556	7126
695.599	7685
695.641	8134
695.646	8130
695.684	7281
695.726	6555
695.766	5749
695.769	5781
695.811	6134
695.854	6126
695.886	6507
695.896	6588
695.938	6367
695.981	6476
696.005	6411
696.023	6581
696.065	7035
696.108	7543
696.125	7684
696.150	7772
696.192	7897
696.235	7951
696.245	7977
696.277	8152
696.319	8342
696.361	8338
696.365	8335
696.404	8434
696.446	8371
696.485	8411
696.488	8434
696.530	8055
696.572	8210
696.604	7959
696.614	7914
696.656	7960
696.698	7725
696.724	7634
696.740	7707
696.783	7837
696.825	8011
696.844	8076
696.867	8079
696.909	7949
696.951	7795
696.964	7754
696.992	7950
697.034	8058
697.076	8379
697.083	8388
697.118	8696
697.160	9106
697.202	9348
697.203	9329
697.244	9255
697.286	9180
697.323	9089
697.327	9087
697.369	8719
697.411	8455
697.442	8204
697.453	8246
697.494	8352
697.536	8398
697.562	8443
697.578	8529
697.620	8585
697.661	8806
697.682	8813
697.703	9088
697.744	9688
697.786	10258
697.801	10425
697.828	10256
697.869	9881
697.911	9674
697.921	9557
697.952	9336
697.994	9096
698.035	8782
698.040	8726
698.077	9050
698.118	9335
698.160	9679
698.160	9653
698.201	10065
698.243	10522
698.279	10835
698.284	10894
698.325	11261
698.367	11503
698.399	11691
698.408	11752
698.449	11880
698.491	12020
698.518	12063
698.532	12067
698.573	11988
698.614	11904
698.638	11834
698.656	11971
698.697	12182
698.738	12428
698.757	12499
698.779	12586
698.820	12686
698.862	12788
698.877	12790
698.903	12676
698.944	12439
698.985	12204
698.996	12104
699.026	11873
699.067	11510
699.116	11045
699.235	11276
699.354	10661
699.474	10829
699.593	10146
699.713	10959
699.832	10484
699.951	11646
700.070	11126
700.190	10326
700.309	10474
700.428	9806
700.547	9488
700.667	9192
700.786	9785
700.905	9060
701.024	9433
701.143	8843
701.262	9420
701.381	9490
701.500	10033
701.619	9668
701.738	10404
701.857	9834
701.976	8727
702.095	9292
702.214	8942
702.333	9668
702.452	9687
702.571	9892
702.690	9521
702.809	8996
702.928	8218
703.047	9298
703.165	8714
703.284	9348
703.403	8171
703.522	8480
703.640	7589
703.759	8208
703.878	7798
703.997	7823
704.115	8082
704.234	7956
704.353	7486
704.471	7863
704.590	7665
704.708	6536
704.827	7016
704.946	6663
705.064	6927
705.183	6800
705.301	7561
705.420	6939
705.538	6966
705.656	6569
705.775	6804
705.893	7082
706.012	6425
706.130	7030
706.249	7623
706.367	6187
706.485	6662
706.604	6272
706.722	6442
706.840	6316
706.958	6623
707.077	5985
707.195	6231
707.313	6322
707.431	5843
707.549	5916
707.668	5565
707.786	6278
707.904	5946
708.022	6626
708.140	5850
708.258	5844
708.376	6627
708.494	5028
708.612	6228
708.730	6080
708.848	6465
708.966	5314
709.084	5892
709.202	6449
709.320	4515
709.438	5746
709.556	5639
709.674	4955
709.791	4751
709.909	5327
710.027	5102
710.145	4931
710.263	4817
710.380	4531
710.498	3978
710.616	5135
710.733	4372
710.851	4332
710.969	4137
711.086	3724
711.204	4564
711.322	4343
711.439	3859
711.557	4536
711.674	4108
711.792	3920
711.909	3635
712.027	3936
712.144	3666
712.262	5030
712.379	4505
712.497	4870
712.614	3381
712.732	4628
712.849	4054
712.966	4517
713.084	4345
713.201	3774
713.318	4011
713.436	4376
713.553	4100
713.670	3892
713.787	5006
713.905	3878
714.022	5285
714.139	4892
714.256	7771
714.373	12041
714.490	24811
714.608	74446
714.725	308934
714.842	283561
714.959	22789
715.076	8718
715.193	7001
715.310	5809
715.427	4758
715.544	3746
715.661	4461
715.778	4336
715.895	4454
716.011	4037
716.128	4080
716.245	3635
716.362	3932
716.479	2784
716.596	3499
716.713	3924
716.829	2431
716.946	3348
717.063	2657
717.180	2607
717.296	2939
717.413	3620
717.530	3391
717.646	3656
717.763	2824
717.880	2298
717.996	2730
718.113	2493
718.229	3034
718.346	1908
718.462	2712
718.579	2596
718.695	2656
718.812	2597
718.928	3085
719.045	1886
719.161	2690
719.277	2964
719.394	3045
719.510	2813
719.626	4027
719.743	5814
719.859	10081
719.975	24607
720.092	109606
720.208	237231
720.324	23204
720.440	5035
720.557	3102
720.673	3431
720.789	3556
720.905	3310
721.021	2309
721.137	2468
721.253	2166
721.369	2361
721.486	1809
721.602	3066
721.718	2377
721.834	2725
721.950	1907
722.066	1791
722.181	1253
722.297	1859
722.413	2044
722.529	2356
722.645	2548
722.761	2598
722.877	2525
722.993	2771
723.108	3483
723.224	3579
723.340	2437
723.456	2222
723.571	2070
723.687	1578
723.803	1284
723.918	1916
724.034	1457
724.150	1662
724.265	2372
724.381	1144
724.497	1481
724.612	2260
724.728	1334
724.843	1702
724.959	2267
725.074	2165
725.190	1325
725.305	1608
725.421	1061
725.536	2063
725.651	1931
725.767	1904
725.882	1580
725.997	903
726.113	1607
726.228	2137
726.343	1846
726.459	1758
726.574	1863
726.689	1388
726.804	1844
726.920	1491
727.035	1613
727.150	2046
727.265	1492
727.380	2107
727.495	1859
727.610	1373
727.725	1475
727.841	945
727.956	1532
728.071	1336
728.186	2241
728.301	851
728.416	1457
728.531	1472
728.645	1033
728.760	1963
728.875	731
728.990	1923
729.105	1302
729.220	1274
729.335	1858
729.449	1842
729.564	2147
729.679	1092
729.794	2015
729.908	1492
730.023	1553
730.138	1461
730.253	1750
730.367	1828
730.482	1621
730.596	1457
730.711	1790
730.826	3165
730.940	2727
731.055	2027
731.169	2322
731.284	2092
731.398	1991
731.513	2610
731.627	3243
731.742	4047
731.856	5213
731.970	5520
732.085	7295
732.199	11422
732.313	21799
732.428	62231
732.542	200241
732.656	105782
732.771	16732
732.885	9477
732.999	8216
733.113	8463
733.227	8260
733.342	7726
733.456	6950
733.570	6135
733.684	5187
733.798	6301
733.912	6334
734.026	6252
734.140	6445
734.254	5976
734.368	5359
734.482	5695
734.596	5966
734.710	5057
734.824	5695
734.938	4864
735.052	4681
735.166	5167
735.280	5117
735.393	5080
735.507	5004
735.621	4759
735.735	4595
735.849	5208
735.962	4727
736.076	5897
736.190	4407
736.303	5349
736.417	6535
736.531	4927
736.644	4732
736.758	4142
736.872	4271
736.985	4434
737.099	4222
737.212	3476
737.326	4594
737.439	4968
737.553	3442
737.666	4946
737.780	3947
737.893	4769
738.007	4059
738.120	4318
738.233	4085
738.347	4206
738.460	4142
738.573	4808
738.687	3359
738.800	4408
738.913	3906
739.026	4962
739.140	4463
739.253	4057
739.366	3332
739.479	2622
739.592	3622
739.705	3373
739.818	4308
739.932	3440
740.045	3208
740.158	3502
740.271	4049
740.384	3583
740.497	3051
740.610	3401
740.723	3534
740.836	2941
740.949	3894
741.062	3173
741.174	3875
741.287	2100
741.400	3878
741.513	2907
741.626	3653
741.739	3333
741.851	2884
741.964	3519
742.077	2675
742.189	2873
742.302	3042
742.415	3184
742.527	3023
742.640	3254
742.753	2467
742.865	3697
742.978	2265
743.090	3324
743.203	2937
743.316	2492
743.428	2233
743.541	2669
743.653	1778
743.766	2892
743.878	2193
743.990	2054
744.103	3133
744.215	2809
744.327	1877
744.440	3284
744.552	2396
744.664	2057
744.777	2049
744.889	2077
745.001	2622
745.113	2608
745.226	2081
745.338	2132
745.450	3343
745.562	1861
745.674	1710
745.786	3231
745.898	2885
746.010	2252
746.122	1476
746.234	2569
746.347	2096
746.459	2162
746.570	1579
746.682	2266
746.794	2415
746.906	2579
747.018	2291
747.130	2960
747.242	1685
747.354	1649
747.466	2433
747.577	2247
747.689	2750
747.801	2540
747.913	2047
748.024	1476
748.136	1164
748.248	1200
748.359	1542
748.471	2044
748.583	2217
748.694	1668
748.806	2388
748.918	1730
749.029	810
749.141	2072
749.252	2669
749.364	1394
749.475	1213
749.587	1145
749.698	2624
749.809	1794
749.921	1995
750.032	1754
750.144	1601
750.255	2039
750.366	1946
750.478	1848
750.589	1300
750.700	1117
750.811	1922
750.923	1800
751.034	861
751.145	2668
751.256	1312
751.367	2101
751.479	628
751.590	1280
751.701	1457
751.812	748
751.923	1145
752.034	1982
752.145	1722
752.256	1635
752.367	1382
752.478	1108
752.589	1705
752.700	1216
752.811	826
752.922	957
753.032	1229
753.143	1947
753.254	464
753.365	1702
753.476	922
753.586	1148
753.697	2192
753.808	1172
753.919	988
754.029	1240
754.140	1180
754.251	894
754.361	925
754.472	1439
754.582	1256
754.693	1414
754.804	1422
754.914	478
755.025	16
755.135	1204
755.246	1198
755.356	622
755.466	1939
755.577	1005
755.687	915
755.798	285
755.908	1525
756.018	758
756.129	1248
756.239	288
756.349	2028
756.460	1862
756.570	1990
756.680	702
756.790	999
756.900	1525
757.011	1422
757.121	943
757.231	1479
757.341	468
757.451	600
757.561	452
757.671	646
757.781	1126
757.891	857
758.001	607
758.111	1621
758.221	2288
758.331	1410
758.441	1545
758.551	1423
758.661	829
758.771	666
758.880	1392
758.990	1008
759.100	1918
759.210	775
759.320	1405
759.429	954
759.539	1720
759.649	1086
759.758	2456
759.868	2827
759.978	1711
760.087	2698
760.197	3140
760.307	1819
760.416	1791
760.526	873
760.635	1863
760.745	2443
760.854	2734
760.964	2683
761.073	3573
761.182	1835
761.292	1963
761.401	2231
761.511	802
761.620	1083
761.729	557
761.839	960
761.948	931
762.057	1707
762.166	720
762.276	-553
762.385	2193
762.494	1308
762.603	861
762.712	1014
762.822	281
762.931	769
763.040	-328
763.149	782
763.258	821
763.367	546
763.476	104
763.585	543
763.694	-258
763.803	432
763.912	1515
764.021	1276
764.130	460
764.238	960
764.347	522
764.456	1150
764.565	782
764.674	1572
764.783	310
764.891	120
765.000	1588
765.109	481
765.217	189
765.326	614
765.435	1158
765.543	2335
765.652	2436
765.761	2198
765.869	2980
765.978	4892
766.086	7754
766.195	17014
766.303	48246
766.412	128714
766.520	102372
766.629	24657
766.737	9352
766.846	5428
766.954	3200
767.062	2928
767.171	2504
767.279	2326
767.387	1244
767.496	733
767.604	1169
767.712	948
767.820	791
767.928	506
768.037	640
768.145	656
768.253	405
768.361	796
768.469	1038
768.577	82
768.685	1732
768.793	784
768.901	860
769.009	1593
769.117	634
769.225	1372
769.333	2033
769.441	3528
769.549	6532
769.657	16616
769.765	56698
769.873	106517
769.981	33679
770.088	6880
770.196	2956
770.304	2791
770.412	2756
770.519	2329
770.627	1119
770.735	1060
770.842	1768
770.950	1319
771.058	1506
771.165	2080
771.273	1738
771.380	2239
771.488	3486
771.595	3752
771.703	2666
771.810	4088
771.918	3330
772.025	4183
772.133	4974
772.240	4453
772.348	5713
772.455	5112
772.562	4163
772.670	3324
772.777	4552
772.884	4439
772.991	4454
773.099	4286
773.206	2851
773.313	4924
773.420	3868
773.528	3520
773.635	3739
773.742	4471
773.849	3090
773.956	4226
774.063	3423
774.170	3640
774.277	4236
774.384	2549
774.491	2358
774.598	4125
774.705	3416
774.812	3540
774.919	4286
775.026	3541
775.133	3228
775.239	2842
775.346	2550
775.453	3006
775.560	3452
775.667	3120
775.773	2992
775.880	3631
775.987	2589
776.093	2803
776.200	3252
776.307	2007
776.413	2894
776.520	2886
776.627	2988
776.733	3252
776.840	1750
776.946	4843
777.053	3921
777.159	4280
777.266	3185
777.372	4065
777.478	3828
777.585	3830
777.691	2587
777.798	3240
777.904	2478
778.010	1498
778.117	2622
778.223	2627
778.329	2897
778.435	2021
778.542	3193
778.648	1794
778.754	1935
778.860	2244
778.966	2003
779.072	1988
779.178	2022
779.284	1399
779.391	1809
779.497	1066
779.603	2866
779.708	1132
779.815	2564
779.920	2953
780.026	3246
780.132	1376
780.238	722
780.344	1625
780.450	3586
780.556	1519
780.661	1449
780.767	2399
780.873	1356
780.979	1399
781.085	2018
781.190	1381
781.296	2295
781.402	1287
781.507	958
781.613	900
781.719	1167
781.824	1706
781.930	2169
782.035	1255
782.141	2064
782.246	1761
782.352	1014
782.457	2140
782.563	1573
782.668	1149
782.773	760
782.879	241
782.984	2030
783.090	2161
783.195	1721
783.300	1570
783.405	1221
783.511	661
783.616	1312
783.721	869
783.826	1211
783.932	1593
784.037	1470
784.142	1658
784.247	993
784.352	992
784.457	366
784.562	1376
784.667	693
784.772	272
784.877	842
784.982	2209
785.087	614
785.192	752
785.297	881
785.402	1083
785.507	1482
785.611	646
785.716	-270
785.821	1578
785.926	798
786.031	590
786.135	1262
786.240	1263
786.345	-819
786.450	961
786.554	724
786.659	-290
786.763	-70
786.868	875
786.973	1381
787.077	412
787.182	196
787.286	616
787.391	2400
787.495	-332
787.600	154
787.704	-415
787.809	1004
787.913	521
788.017	955
788.122	1404
788.226	846
788.330	42
788.435	1282
788.539	1169
788.643	185
788.747	111
788.852	579
788.956	895
789.060	1373
789.164	645
789.268	-459
789.372	1070
789.476	673
789.580	-373
789.684	96
789.788	1652
789.892	336
789.996	325
790.100	204
790.204	555
790.308	790
790.412	24
790.516	257
790.620	-17
790.724	1272
790.828	49
790.931	-193
791.035	1571
791.139	154
791.242	-1462
791.346	1074
791.450	200
791.554	-224
791.657	-367
791.761	838
791.864	492
791.968	-68
792.072	185
792.175	279
792.279	331
792.382	686
792.486	327
792.589	481
792.693	1122
792.796	244
792.899	647
793.003	870
793.106	-1232
793.209	38
793.313	1055
793.416	-583
793.519	517
793.623	935
793.726	538
793.829	586
793.932	-311
794.035	-956
794.138	684
794.242	1017
794.345	-849
794.448	621
794.551	-221
794.654	1321
794.757	1346
794.860	-384
794.963	920
795.066	-99
795.169	662
795.272	-408
795.375	1178
795.477	-277
795.580	855
795.683	-813
795.786	-153
795.889	-950
795.991	753
796.094	1005
796.197	-746
796.300	962
796.402	152
796.505	-1324
796.608	-239
796.710	-629
796.813	-406
796.915	440
797.018	403
797.120	1391
797.223	-1747
797.326	1173
797.428	-618
797.530	-740
797.633	-323
797.735	233
797.838	-203
797.940	951
798.042	-632
798.145	-41
798.247	102
798.349	-812
798.452	1374
798.554	-241
798.656	-869
798.758	1672
798.860	-479
798.962	-7
799.065	-246
799.167	-1409
799.269	414
799.371	449
799.473	1063
799.575	278
799.677	-409
799.779	487
799.881	-2100
799.983	961
800.085	-351
800.187	-628
800.289	-499
800.390	-170
800.492	123
800.594	1010
800.696	-647
800.798	-205
800.899	-817
801.001	64
801.103	-146
801.205	-94
801.306	412
801.408	-500
801.509	287
801.611	131
801.713	-164
801.814	-1266
801.916	-420
802.017	352
802.119	-1078
802.220	12
802.322	-2070
802.423	1500
802.525	-1270
802.626	41
802.727	945
802.829	1149
802.930	-1869
803.031	724
803.133	-209
803.234	185
803.335	-103
803.436	-509
803.538	242
803.639	-1430
803.740	-365
803.841	-535
803.942	24
804.043	161
804.144	-933
804.245	-622
804.346	-494
804.447	-622
804.548	-1000
804.649	544
804.750	-1072
804.851	-435
804.952	-601
805.053	-631
805.154	-2078
805.255	715
805.355	-598
805.456	-926
805.557	-377
805.658	-834
805.758	857
805.859	-51
805.960	-610
806.061	-585
806.161	-1172
806.262	14
806.362	-624
806.463	-1690
806.564	577
806.664	-839
806.765	-550
806.865	-324
806.966	-286
807.066	-1165
807.166	-157
807.267	301
807.367	-925
807.468	374
807.568	-1787
807.668	-430
807.769	374
807.869	-1730
807.969	-951
808.069	-1132
808.170	-604
808.270	-1300
808.370	-267
808.470	-6
808.570	-1517
808.670	-464
808.770	-37
808.870	-445
808.970	-306
809.070	-1589
809.170	-1119
809.271	397
809.370	-963
809.470	-261
809.570	-1534
809.670	-1151
809.770	-148
809.870	-21
809.970	-530
810.070	-1345
810.169	-455
810.269	-1778
810.369	330
810.469	-1089
810.568	-483
810.668	-1608
810.768	-1719
810.867	-495
810.967	-799
811.066	-790
811.166	-684
811.265	-336
811.365	-1526
811.464	-513
811.564	84
811.663	104
811.763	-1799
811.862	78
811.962	-235
812.061	-897
812.160	-855
812.260	-723
812.359	-656
812.458	-1486
812.557	-67
812.657	-578
812.756	-237
812.855	-462
812.954	-574
813.053	-104
813.153	-857
813.252	-1291
813.351	-1127
813.450	-49
813.549	-722
813.648	695
813.747	-1238
813.846	-190
813.945	-906
814.044	-550
814.143	17
814.242	160
814.341	-569
814.439	204
814.538	277
814.637	-289
814.736	-512
814.835	144
814.933	-417
815.032	281
815.131	944
815.229	2611
815.328	4121
815.427	2231
815.525	2001
815.624	2802
815.722	967
815.821	1812
815.919	1955
816.018	960
816.116	2699
816.215	2206
816.313	2293
816.412	3238
816.510	3057
816.609	3895
816.707	3795
816.805	3702
816.904	2152
817.002	3367
817.100	3044
817.198	3337
817.296	2374
817.395	2778
817.493	3448
817.591	2157
817.689	2234
817.787	1971
817.885	2670
817.983	1765
818.081	3193
818.179	3555
818.277	4957
818.375	4173
818.473	2739
818.571	2075
818.669	2779
818.767	2364
818.865	1721
818.963	1615
819.061	2071
819.158	2962
819.256	3854
819.354	3731
819.452	6849
819.549	3808
819.647	3063
819.745	1459
819.842	2254
819.940	2355
820.038	1241
820.135	1625
820.233	2428
820.330	2347
820.428	594
820.525	3046
820.623	1734
820.720	736
820.818	836
820.915	1707
821.012	1928
821.110	1026
821.207	1835
821.304	1309
821.402	1509
821.499	1706
821.596	2191
821.693	1742
821.791	1712
821.888	1670
821.985	2202
822.082	298
822.179	2460
822.276	1903
822.373	1817
822.470	1786
822.567	2323
822.664	984
822.761	2441
822.858	1324
822.955	2522
823.052	773
823.149	1226
823.246	1010
823.343	842
823.440	1813
823.536	931
823.633	1899
823.730	1278
823.827	1969
823.923	1160
824.020	2187
824.117	1536
824.213	1032
824.310	532
824.407	895
824.503	1841
824.600	1390
824.696	1150
824.793	1847
824.889	2033
824.986	1005
825.082	-156
825.179	850
825.275	862
825.371	608
825.468	1085
825.564	-919
825.660	1573
825.757	2169
825.853	1095
825.949	-328
826.045	679
826.142	1073
826.238	1033
826.334	1422
826.430	211
826.526	533
826.622	509
826.718	970
826.814	971
826.910	2114
827.006	-357
827.102	-43
827.198	1339
827.294	755
827.390	469
827.486	230
827.582	-633
827.678	-421
827.774	2123
827.869	-348
827.965	1802
828.061	-895
828.157	1010
828.252	666
828.348	243
828.444	1427
828.539	-460
828.635	1168
828.731	1179
828.826	337
828.922	288
829.017	1019
829.113	1607
829.208	170
829.304	125
829.399	2202
829.495	1406
829.590	1021
829.685	838
829.781	964
829.876	265
829.971	139
830.066	-285
830.162	564
830.257	896
830.352	-216
830.447	1004
830.543	211
830.638	-38
830.733	1903
830.828	58
830.923	1435
831.018	1434
831.113	116
831.208	-340
831.303	-594
831.398	248
831.493	773
831.588	1386
831.683	-932
831.778	24
831.873	130
831.967	894
832.062	-307
832.157	-417
832.252	1063
832.346	-101
832.441	443
832.536	-72
832.631	1247
832.725	-248
832.820	-455
832.914	219
833.009	-661
833.104	-815
833.198	130
833.293	497
833.387	1082
833.482	648
833.576	573
833.670	386
833.765	-66
833.859	251
833.954	134
834.048	494
834.142	587
834.237	-805
834.331	-377
834.425	406
834.519	-314
834.613	311
834.708	494
834.802	-9
834.896	345
834.990	-434
835.084	-463
835.178	96
835.272	-431
835.366	-6
835.460	145
835.554	356
835.648	-70
835.742	-600
835.836	-150
835.930	-776
836.024	578
836.117	648
836.211	-1118
836.305	-247
836.399	-435
836.493	-1011
836.586	913
836.680	-312
836.774	-1052
836.867	575
836.961	-1236
837.055	-966
837.148	-472
837.242	-291
837.335	-911
837.429	-337
837.522	-767
837.616	-213
837.709	-328
837.803	-451
837.896	-26
837.989	-150
838.083	-268
838.176	-662
838.269	-832
838.363	-523
838.456	-485
838.549	225
838.642	-802
838.735	-709
838.829	613
838.922	-130
839.015	-24
839.108	-1108
839.201	119
839.294	719
839.387	-449
839.480	-1311
839.573	318
839.666	-1560
839.759	-481
839.852	-1476
839.945	25
840.038	190
840.131	-709
840.223	-280
840.316	270
840.409	397
840.502	-343
840.594	117
840.687	-1111
840.780	-1182
840.873	-1754
840.965	-336
841.058	-7
841.150	-185
841.243	-925
841.336	-165
841.428	-483
841.521	-752
841.613	-1089
841.706	-737
841.798	-854
841.890	-8
841.983	-1389
842.075	-479
842.167	-521
842.260	-245
842.352	-246
842.444	-550
842.537	-581
842.629	-673
842.721	-590
842.813	-521
842.905	-1367
842.997	-1163
843.090	-767
843.182	-753
843.274	-1787
843.366	-852
843.458	20
843.550	141
843.642	-1334
843.734	188
843.826	-340
843.918	-861
844.009	-644
844.101	-801
844.193	-269
844.285	-500
844.377	-651
844.469	-661
844.560	-1176
844.652	-113
844.744	-880
844.835	302
844.927	32
845.019	-917
845.110	-796
845.202	-880
845.293	-694
845.385	-1733
845.476	-1007
845.568	592
845.659	-642
845.751	-1008
845.842	-335
845.934	-987
846.025	-662
846.116	-245
846.208	164
846.299	-734
846.390	-506
846.482	-674
846.573	-134
846.664	-822
846.755	-665
846.846	158
846.937	-2057
847.029	-1095
847.120	-810
847.211	-1082
847.302	573
847.393	-1909
847.484	-383
847.575	-982
847.666	-1363
847.757	-897
847.847	285
847.938	-627
848.029	-18
848.120	-762
848.211	-667
848.302	-70
848.392	-793
848.483	-350
848.574	-812
848.664	-632
848.755	-817
848.846	-832
848.936	-761
849.027	-1432
849.118	32
849.208	-369
849.299	450
849.389	1865
849.480	4469
849.570	8653
849.661	19980
849.751	34252
849.841	10693
849.932	1068
850.022	-1149
850.112	-937
850.203	-82
850.293	-962
850.383	283
850.474	-925
850.564	-338
850.654	-699
850.744	-709
850.834	-988
850.924	-1271
851.014	-669
851.104	-1170
851.194	-888
851.284	-448
851.374	-137
851.464	-1262
851.554	-1139
851.644	-875
851.734	-319
851.824	-1276
851.914	-1378
852.004	-531
852.094	-1880
852.183	-824
852.273	-71
852.363	-898
852.452	-891
852.542	-1584
852.632	-1828
852.721	-198
852.811	-1150
852.901	538
852.990	-148
853.080	-926
853.169	-485
853.259	-1179
853.348	-431
853.438	208
853.527	835
853.617	982
853.706	4549
853.795	8723
853.885	23085
853.974	40486
854.063	75444
854.152	106046
854.242	41872
854.331	9220
854.420	3755
854.509	2583
854.598	1824
854.687	31
854.777	652
854.866	-258
854.955	364
855.044	-234
855.133	-463
855.222	-741
855.311	-699
855.400	-245
855.488	-548
855.577	-573
855.666	-309
855.755	-126
855.844	-449
855.933	-1329
856.021	-1433
856.110	-425
856.199	-1328
856.288	-1324
856.376	-1309
856.465	-717
856.554	-646
856.642	-818
856.731	-457
856.819	-570
856.908	-657
856.996	-236
857.085	-1253
857.173	-1595
857.262	-1727
857.350	-1040
857.438	-585
857.527	30
857.615	-1698
857.703	-44
857.792	-1048
857.880	-1146
857.968	-1427
858.056	-1206
858.145	-1331
858.233	-933
858.321	-1744
858.409	-585
858.497	-1322
858.585	-617
858.673	-1106
858.761	-936
858.849	-1187
858.937	-1079
859.025	-1291
859.113	-702
859.201	-415
859.289	-167
859.377	-1698
859.465	295
859.552	-718
859.640	-1653
859.728	-796
859.816	-164
859.903	-1271
859.991	-1192
860.079	-857
860.166	-580
860.254	-68
860.342	-1062
860.429	-1329
860.517	-1191
860.604	-263
860.692	-1438
860.779	-1258
860.867	-795
860.954	-883
861.042	-241
861.129	-1024
861.216	-702
861.304	-1256
861.391	-826
861.478	-1059
861.565	-1293
861.653	-663
861.740	-986
861.827	-1320
861.914	-556
862.001	-515
862.089	-667
862.176	-1042
862.263	-1115
862.350	-979
862.437	-1099
862.524	-1469
862.611	-1471
862.698	-261
862.785	-206
862.871	-241
862.958	-583
863.045	-1415
863.132	-485
863.219	-231
863.306	-1590
863.392	-1069
863.479	-1001
863.566	-989
863.652	-659
863.739	-667
863.826	-457
863.912	-171
863.999	-1197
864.086	2
864.172	-368
864.259	268
864.345	-523
864.432	-188
864.518	-104
864.604	-1274
864.691	-187
864.777	34
864.863	974
864.950	971
865.036	1668
865.122	4086
865.209	4727
865.295	3480
865.381	3962
865.467	4407
865.553	4234
865.639	4754
865.726	7142
865.812	14436
865.898	24814
865.984	36173
866.070	66399
866.156	65261
866.242	20163
866.328	6618
866.414	3630
866.499	4095
866.585	3855
866.671	3266
866.757	3158
866.843	3080
866.928	2610
867.014	1322
867.100	3484
867.186	1728
867.271	2216
867.357	2384
867.442	1960
867.528	2414
867.614	2963
867.699	2560
867.785	2294
867.870	2947
867.956	1541
868.041	2507
868.127	1932
868.212	1735
868.297	2327
868.383	2176
868.468	2167
868.553	3226
868.639	2813
868.724	2043
868.809	2070
868.894	1418
868.979	2310
869.065	1478
869.150	1130
869.235	564
869.320	2414
869.405	2042
869.490	1671
869.575	2284
869.660	1676
869.745	2304
869.830	2447
869.915	1731
870.000	951
870.085	2152
870.169	3066
870.254	2218
870.339	1096
870.424	1229
870.509	1099
870.593	1580
870.678	1430
870.763	749
870.847	939
870.932	1390
871.016	2106
871.101	784
871.186	2076
871.270	2850
871.355	1057
871.439	2158
871.523	1694
871.608	411
871.692	295
871.777	2565
871.861	1345
871.945	1125
872.030	843
872.114	1701
872.198	396
872.282	1043
872.367	1291
872.451	570
872.535	1239
872.619	1502
872.703	1357
872.787	718
872.871	1771
872.955	543
873.039	798
873.123	784
873.207	1207
873.291	72
873.375	696
873.459	1306
873.543	1211
873.627	869
873.711	294
873.794	1354
873.878	120
873.962	396
874.045	611
874.129	446
874.137	386
874.213	-222
874.245	-37
874.296	270
874.352	396
874.380	446
874.460	972
874.464	995
874.547	1347
874.568	1231
874.631	857
874.676	1229
874.714	1550
874.784	1392
874.798	1354
874.881	860
874.892	854
874.965	877
874.999	1049
875.048	1241
875.107	292
875.131	-99
875.215	712
875.215	712
875.298	150
875.323	449
875.381	1180
875.430	1589
875.465	1779
875.538	1072
875.548	1007
875.631	92
875.646	28
875.714	-423
875.753	-291
875.798	-71
875.861	737
875.881	946
875.964	517
875.968	497
876.047	339
876.076	611
876.130	996
876.183	1302
876.213	1560
876.291	1033
876.296	985
876.379	316
876.398	257
876.462	66
876.506	118
876.545	189
876.613	-207
876.628	-259
876.711	624
876.721	718
876.794	1246
876.828	1259
876.877	1277
876.935	892
876.960	718
877.043	147
877.043	149
877.125	1084
877.150	1497
877.208	2010
877.258	1247
877.291	869
877.365	327
877.374	257
877.456	995
877.472	930
877.539	850
877.579	1193
877.622	1340
877.687	1259
877.704	1346
877.787	1010
877.794	1093
877.869	1665
877.901	1479
877.952	1157
878.008	935
878.034	810
878.115	205
878.117	201
878.199	271
878.222	506
878.282	1291
878.329	1484
878.364	1370
878.437	1335
878.447	1317
878.529	252
878.544	146
878.611	183
878.651	681
878.694	1220
878.758	1178
878.776	1139
878.858	1191
878.865	1176
878.941	431
878.972	256
879.023	563
879.078	708
879.105	724
879.185	829
879.187	838
879.269	2077
879.292	2101
879.351	1492
879.399	896
879.433	812
879.506	1398
879.516	1453
879.598	1004
879.613	956
879.680	1028
879.720	1461
879.762	1825
879.827	1726
879.844	1666
879.926	1256
879.933	1232
880.007	952
880.040	1035
880.089	1379
880.147	1612
880.171	1788
880.253	3464
880.254	3465
880.335	3515
880.360	3905
880.417	5580
880.467	7484
880.499	8699
880.574	9778
880.580	9629
880.662	4074
880.680	3353
880.744	2008
880.787	1361
880.825	1082
880.893	1255
880.907	1237
880.989	1160
881.000	1175
881.070	1677
881.106	1758
881.152	1744
881.213	1443
881.233	1271
881.315	1219
881.319	1190
881.396	1384
881.426	1473
881.478	1449
881.532	2065
881.559	2471
881.639	2143
881.641	2115
881.722	1220
881.745	1026
881.803	1735
881.852	2030
881.885	1627
881.958	1154
881.966	1210
882.047	1960
882.064	1930
882.129	1268
882.171	1042
882.210	1005
882.277	1068
882.291	1132
882.372	1501
882.383	1510
882.454	1698
882.489	1817
882.535	1697
882.596	1869
882.616	2036
882.697	2084
882.702	2089
882.778	1304
882.808	999
882.859	1140
882.914	1458
882.940	1548
883.020	1153
883.021	1161
883.102	2001
883.127	2255
883.183	2738
883.233	2767
883.264	2370
883.339	1592
883.345	1536
883.426	689
883.445	616
883.507	1455
883.551	1904
883.587	2047
883.657	1998
883.668	2058
883.749	2792
883.763	2864
883.830	1674
883.869	946
883.910	1049
883.975	1083
883.991	1063
884.072	1628
884.081	1641
884.152	2378
884.187	2687
884.233	2832
884.292	2895
884.314	2516
884.394	986
884.398	921
884.475	1007
884.504	931
884.555	1066
884.610	1469
884.636	1592
884.716	1730
884.716	1748
884.797	3367
884.821	3866
884.877	3138
884.927	2254
884.958	2181
885.033	2029
885.038	1966
885.118	1006
885.139	690
885.199	1276
885.244	1893
885.279	2057
885.350	2391
885.359	2530
885.439	3723
885.456	3822
885.520	2368
885.561	1571
885.600	1620
885.667	1921
885.680	1956
885.760	1805
885.773	1787
885.840	1599
885.878	1579
885.920	1469
885.984	1091
886.000	1319
886.080	2523
886.089	2649
886.160	2805
886.195	2723
886.240	2349
886.300	2062
886.320	2030
886.400	1906
886.406	1866
886.480	1660
886.511	1706
886.560	1786
886.616	1682
886.640	1768
886.720	2097
886.722	2096
886.800	1591
886.827	1415
886.879	2103
886.932	2621
886.959	2750
887.038	3131
887.039	3139
887.119	2790
887.143	2648
887.198	2369
887.248	2018
887.278	2047
887.354	2201
887.358	2208
887.437	2201
887.459	2160
887.517	2828
887.564	3313
887.596	2861
887.669	1914
887.676	1930
887.755	1999
887.774	1975
887.835	1966
887.880	2126
887.914	2230
887.985	2089
887.994	2128
888.073	2640
888.090	2692
888.153	3696
888.195	4443
888.232	3643
888.300	2004
888.311	2019
888.391	2110
888.405	2139
888.470	1275
888.510	625
888.549	1326
888.615	2608
888.628	2661
888.708	2862
888.720	2886
888.787	3439
888.825	3705
888.866	2665
888.930	1098
888.945	1333
889.024	2488
889.035	2638
889.103	2992
889.140	3138
889.182	3012
889.245	2846
889.261	2816
889.340	2606
889.349	2574
889.419	2784
889.454	2862
889.498	2468
889.559	1921
889.577	2136
889.656	3049
889.664	3132
889.735	2705
889.768	2493
889.814	2487
889.873	2462
889.978	2502
890.083	3204
890.187	2615
890.292	3309
890.397	1199
890.501	2077
890.606	2041
890.710	3323
890.815	3133
890.919	2717
891.024	1278
891.128	2156
891.233	1626
891.337	3706
891.442	1427
891.546	3505
891.650	2303
891.755	2883
891.859	3218
891.963	2502
892.068	2311
892.172	2775
892.276	721
892.380	1808
892.484	2124
892.589	3391
892.693	2660
892.797	1122
892.901	1247
893.005	2590
893.109	3607
893.213	3316
893.317	3222
893.421	1493
893.525	1018
893.629	2412
893.733	3098
893.837	2181
893.941	1826
894.045	3124
894.148	494
894.252	2073
894.356	2663
894.460	3389
894.564	1140
894.667	1931
894.771	854
894.875	1572
894.978	1715
895.082	1736
895.186	2983
895.289	3088
895.393	1016
895.496	2957
895.600	1669
895.703	1318
895.807	2563
895.910	2622
896.014	1898
896.117	2079
896.221	2145
896.324	2518
896.427	1424
896.531	1107
896.634	2478
896.737	1761
896.840	2322
896.944	3186
897.047	1506
897.150	2294
897.253	1793
897.356	1452
897.460	916
897.563	2209
897.666	2541
897.769	3566
897.872	1426
897.975	1246
898.078	1453
898.181	2185
898.284	805
898.387	3448
898.490	2222
898.593	2392
898.695	946
898.798	2532
898.901	909
899.004	1663
899.107	986
899.209	1666
899.312	2804
899.415	2140
899.518	462
899.620	1498
899.723	713
899.826	2296
899.928	1226
900.031	1364
900.133	1848
900.236	2233
900.338	-28
900.441	2083
900.543	1264
900.646	1487
900.748	1098
900.851	2795
900.953	1211
901.055	1366
901.158	1194
901.260	1527
901.362	1413
901.465	2417
901.567	1894
901.669	2284
901.771	1591
901.873	1970
901.976	916
902.078	1756
902.180	1001
902.282	1417
902.384	947
902.486	2755
902.588	1911
902.690	1879
902.792	488
902.894	2435
902.996	1096
903.098	1423
903.200	1183
903.302	1834
903.404	462
903.505	1086
903.607	1632
903.709	3033
903.811	1794
903.913	1577
904.014	887
904.116	1460
904.218	717
904.319	1949
904.421	2430
904.523	2065
904.624	882
904.726	1288
904.827	797
904.929	1894
905.030	738
905.132	3474
905.233	854
905.335	1413
905.436	871
905.537	942
905.639	982
905.740	1941
905.841	2427
905.943	1641
906.044	889
906.145	1217
906.247	1173
906.348	2030
906.449	1059
906.550	2766
906.651	907
906.752	1622
906.854	602
906.955	1416
907.056	611
907.157	3100
907.258	2213
907.359	1139
907.460	1075
907.561	1109
907.662	352
907.762	1694
907.863	246
907.964	1954
908.065	1482
908.166	2045
908.267	617
908.367	1312
908.468	1203
908.569	1917
908.670	615
908.770	1537
908.871	1694
908.971	1345
909.072	1207
909.173	1519
909.273	1550
909.374	1514
909.474	660
909.575	998
909.675	280
909.776	1206
909.876	988
909.977	381
910.077	1268
910.177	1730
910.278	1033
910.378	943
910.478	960
910.579	2282
910.679	1425
910.779	2028
910.879	1748
910.980	1946
911.080	1954
911.180	1154
911.280	-47
911.380	935
911.480	-12
911.580	1151
911.680	986
911.780	1764
911.880	1233
911.980	1296
912.080	795
912.180	1893
912.280	543
912.380	1302
912.480	-715
912.580	737
912.679	919
912.779	2541
912.879	1457
912.979	1100
913.078	-209
913.178	877
913.278	1135
913.377	1196
913.477	1204
913.577	745
913.676	1445
913.776	2700
913.875	894
913.975	1512
914.074	433
914.174	1440
914.273	388
914.373	1572
914.472	412
914.572	511
914.671	-265
914.770	1156
914.870	692
914.969	1430
915.068	1053
915.167	1793
915.267	939
915.366	764
915.465	1478
915.564	2233
915.663	632
915.763	2482
915.862	1390
915.961	1830
916.060	-52
916.159	1255
916.258	364
916.357	736
916.456	1159
916.555	1053
916.654	641
916.752	2029
916.851	994
916.950	434
917.049	376
917.148	887
917.247	870
917.345	605
917.444	-166
917.543	1735
917.642	1530
917.740	1016
917.839	2285
917.937	2464
918.036	792
918.135	1848
918.233	837
918.332	935
918.430	541
918.529	878
918.627	-633
918.726	2565
918.824	1356
918.923	1230
919.021	672
919.119	1415
919.218	538
919.316	2083
919.414	767
919.512	1687
919.611	1674
919.709	1829
919.807	2066
919.905	2702
920.003	2167
920.102	2712
920.200	2015
920.298	2367
920.396	958
920.494	2255
920.592	1598
920.690	3079
920.788	1357
920.886	2774
920.984	2265
921.082	1855
921.180	3482
921.277	3207
921.375	3409
921.473	5195
921.571	3633
921.669	4761
921.766	3612
921.864	4914
921.962	4070
922.060	4598
922.157	3913
922.255	4694
922.352	3468
922.450	5946
922.548	4393
922.645	6118
922.743	7262
922.840	12279
922.938	13319
923.035	13300
923.133	11977
923.230	13712
923.327	16403
923.425	15406
923.522	14691
923.619	13207
923.717	11509
923.814	12390
923.911	11128
924.008	12373
924.106	11046
924.203	11944
924.300	11788
924.397	12020
924.494	11661
924.591	12123
924.688	10684
924.786	12476
924.883	11771
924.979	12362
925.077	10772
925.173	11554
925.270	10425
925.367	11075
925.464	10556
925.561	11071
925.658	11354
925.755	9716
925.852	11828
925.948	10587
926.045	10350
926.142	11828
926.239	10605
926.335	9000
926.432	10662
926.529	11940
926.625	12308
926.722	9631
926.818	10093
926.915	12021
927.011	10117
927.108	10174
927.204	10275
927.301	9683
927.397	11110
927.494	11561
927.590	7313
927.687	9476
927.783	12594
927.879	11966
927.976	8534
928.072	9065
928.168	9701
928.264	9776
928.361	9081
928.457	12100
928.553	8013
928.649	9297
928.745	9837
928.841	9235
928.937	8726
929.033	10143
929.129	8561
929.225	11359
929.321	8147
929.417	8312
929.513	9749
929.609	8126
929.705	7637
929.801	10678
929.897	7194
929.993	9139
930.089	8433
930.184	8169
930.280	8102
930.376	11334
930.471	8423
930.567	7811
930.663	8900
930.758	7556
930.854	7856
930.950	8136
931.045	7538
931.141	8692
931.236	9973
931.332	8009
931.427	6305
931.523	9131
931.618	7137
931.714	5483
931.809	6288
931.905	8495
932.000	4885
932.095	5588
932.191	9240
932.286	10491
932.381	6888
932.476	5919
932.572	7365
932.667	6813
932.762	5751
932.857	7721
932.952	8304
933.047	7346
933.142	4931
933.237	7158
933.332	7412
933.427	8925
933.522	6186
933.617	6070
933.712	5147
933.807	9120
933.902	8308
933.997	8738
934.092	6017
934.187	6460
934.282	6850
934.376	8040
934.471	8343
934.566	6415
934.661	5617
934.755	8101
934.850	6591
934.945	6666
935.039	4932
935.134	5143
935.228	6387
935.323	10080
935.417	5293
935.512	4286
935.606	4823
935.701	7652
935.795	7745
935.890	6458
935.984	5235
936.079	4529
936.173	6050
936.267	5676
936.362	4183
936.456	6331
936.550	8106
936.644	6911
936.738	3346
936.833	5922
936.927	4183
937.021	5071
937.115	6012
937.209	7112
937.303	5484
937.397	4104
937.491	4403
937.585	7253
937.679	5402
937.773	4409
937.867	3776
937.961	5529
938.055	6706
938.149	6356
938.243	3481
938.337	4145
938.430	4433
938.524	7613
938.618	4409
938.712	3816
938.805	5234
938.899	5862
938.993	7469
939.086	4645
939.180	2513
939.274	4525
939.367	4872
939.461	6280
939.554	4168
939.648	5071
939.741	3281
939.835	5862
939.928	6468
940.022	6391
940.115	4466
940.208	5860
940.302	5925
940.395	7757
940.488	3926
940.582	4932
940.675	2971
940.768	4523
940.861	5450
940.954	6931
941.048	2476
941.141	3617
941.234	3386
941.327	4532
941.420	4738
941.513	5157
941.606	3338
941.699	4709
941.792	4952
941.885	4646
941.978	3786
942.071	5120
942.164	2563
942.257	3130
942.349	4355
942.442	5267
942.535	1863
942.628	4465
942.721	3839
942.813	4121
942.906	3751
942.999	4190
943.091	2466
943.184	3991
943.277	3668
943.369	2970
943.462	1882
943.554	4329
943.647	2471
943.739	5383
943.832	5266
943.924	2112
944.017	2292
944.109	2398
944.201	3552
944.294	3776
944.386	3322
944.478	3796
944.571	2924
944.663	3538
944.755	2659
944.847	4910
944.940	3413
945.032	2321
945.124	2006
945.216	4452
945.308	3109
945.400	3422
945.492	2374
945.584	4587
945.676	4520
945.768	4993
945.860	3424
945.952	4307
946.044	3500
946.136	2952
946.228	2435
946.320	2938
946.412	3583
946.503	4600
946.595	3861
946.687	2982
946.779	2030
946.870	2734
946.962	2606
947.054	3054
947.145	3713
947.237	3265
947.329	2659
947.420	3792
947.512	2427
947.603	1500
947.695	3055
947.786	2197
947.878	2212
947.969	4131
948.061	2768
948.152	3002
948.243	1511
948.335	1796
948.426	1284
948.517	2919
948.609	3358
948.700	4185
948.791	2081
948.882	1515
948.973	1277
949.065	2784
949.156	2928
949.247	2001
949.338	2074
949.429	1531
949.520	1973
949.611	2465
949.702	2688
949.793	2804
949.884	2239
949.975	2020
950.066	1392
950.157	1402
950.247	1169
950.338	1646
950.429	1349
950.520	2834
950.611	1213
950.701	2665
950.792	3179
950.883	2529
950.973	2141
951.064	3313
951.155	2338
951.245	3254
951.336	2663
951.427	2893
951.517	3957
951.608	2969
951.698	1588
951.788	1011
951.879	1401
951.969	2088
952.060	1487
952.150	2183
952.240	2984
952.331	1846
952.421	2808
952.511	1673
952.602	1080
952.692	898
952.782	1540
952.872	1706
952.962	1679
953.052	2608
953.143	1420
953.233	2217
953.323	1683
953.413	2085
953.503	2144
953.593	2462
953.683	2716
953.773	1156
953.863	569
953.953	1394
954.042	1615
954.132	2030
954.222	1281
954.312	1613
954.402	1464
954.492	1267
954.581	2097
954.671	2080
954.761	1112
954.850	4074
954.940	552
955.030	1538
955.119	643
955.209	1782
955.298	1076
955.388	2331
955.477	2522
955.567	741
955.656	512
955.746	1514
955.835	710
955.925	840
956.014	1392
956.103	2711
956.193	3420
956.282	2820
956.371	1051
956.461	1752
956.550	1001
956.639	1674
956.728	818
956.817	2161
956.906	1499
956.995	2866
957.085	658
957.174	1792
957.263	809
957.352	1098
957.441	1035
957.530	2225
957.619	1418
957.708	1122
957.796	634
957.885	2258
957.974	899
958.063	1419
958.152	-205
958.241	1652
958.329	731
958.418	1294
958.507	656
958.596	2987
958.684	583
958.773	2134
958.861	252
958.950	184
959.039	300
959.127	875
959.216	868
959.304	1582
959.393	1184
959.481	2142
959.570	375
959.658	1065
959.746	-182
959.835	1404
959.923	-292
960.011	1351
960.100	972
960.188	2587
960.276	143
960.365	105
960.453	471
960.541	408
960.629	268
960.717	842
960.805	-46
960.893	1393
960.981	1119
961.069	3483
961.158	2189
961.245	2492
961.333	1622
961.421	1288
961.509	1002
961.597	671
961.685	1099
961.773	1095
961.861	458
961.949	2429
962.036	-317
962.124	1351
962.212	229
962.299	663
962.387	225
962.475	729
962.562	-82
962.650	2321
962.738	791
962.825	371
962.913	-252
963.000	625
963.088	1043
963.175	1625
963.263	362
963.350	915
963.438	-265
963.525	173
963.612	780
963.700	703
963.787	1870
963.874	1074
963.962	1001
964.049	683
964.136	3
964.223	422
964.310	85
964.398	250
964.485	696
964.572	1136
964.659	893
964.746	487
964.833	-358
964.920	908
965.007	23
965.094	811
965.181	650
965.268	1384
965.355	81
965.441	281
965.528	42
965.615	2074
965.702	142
965.789	1036
965.875	941
965.962	1779
966.049	526
966.136	1699
966.222	1195
966.309	1297
966.395	359
966.482	1793
966.569	414
966.655	991
966.742	-129
966.828	1143
966.915	-149
967.001	183
967.087	-785
967.174	689
967.260	157
967.347	961
967.433	-79
967.519	625
967.605	-106
967.692	1252
967.778	628
967.864	747
967.950	773
968.036	448
968.123	481
968.209	915
968.295	-1165
968.381	1504
968.467	594
968.553	-1030
968.639	685
968.725	-547
968.811	515
968.897	1450
968.983	639
969.069	646
969.154	3
969.240	1764
969.326	141
969.412	904
969.497	-422
969.583	-393
969.669	788
969.755	1065
969.840	-442
969.926	2540
970.012	1571
970.097	3522
970.183	1306
970.268	1265
970.354	724
970.439	275
970.525	1668
970.610	537
970.696	968
970.781	1095
970.866	-777
970.952	1005
971.037	-458
971.122	451
971.208	776
971.293	697
971.378	-637
971.463	1036
971.549	1019
971.634	959
971.719	260
971.804	192
971.889	465
971.974	388
972.059	-117
972.144	1334
972.229	303
972.314	181
972.399	364
972.484	1249
972.569	234
972.654	321
972.739	1531
972.824	-493
972.908	240
972.993	376
973.078	-148
973.163	1065
973.247	609
973.332	298
973.417	2187
973.501	456
973.586	139
973.671	789
973.755	303
973.840	808
973.924	530
974.009	2039
974.093	1390
974.178	2256
974.262	763
974.346	1288
974.431	330
974.515	1235
974.600	187
974.684	969
974.768	48
974.852	1995
974.937	-1126
975.021	1481
975.105	-80
975.189	404
975.273	315
975.358	461
975.442	-486
975.526	1934
975.610	-12
975.694	627
975.778	1166
975.862	322
975.946	-1231
976.030	2714
976.114	79
976.198	666
976.281	607
976.365	2088
976.449	192
976.533	1371
976.617	-68
976.700	992
976.784	-450
976.868	493
976.951	1190
977.035	4
977.119	-111
977.202	829
977.286	-91
977.369	2769
977.453	2458
977.536	2641
977.620	975
977.703	1556
977.787	489
977.870	2386
977.953	744
978.037	1
978.120	900
978.203	1863
978.287	97
978.370	528
978.453	239
978.536	518
978.620	392
978.703	849
978.786	-109
978.869	316
978.952	-1319
979.035	2577
979.118	1650
979.201	-6
979.284	780
979.367	502
979.450	755
979.533	422
979.616	515
979.699	1321
979.782	-81
979.865	330
979.948	281
980.030	879
980.113	463
980.196	852
980.279	1141
980.361	535
980.444	965
980.526	2472
980.609	2538
980.692	3208
980.774	2423
980.857	1320
980.939	2279
981.022	1549
981.104	1250
981.187	900
981.269	1184
981.352	1416
981.434	-330
981.516	544
981.599	1428
981.681	1709
981.763	161
981.846	1298
981.928	602
982.010	1485
982.092	37
982.174	1954
982.256	236
982.339	1763
982.421	38
982.503	1351
982.585	-304
982.667	2096
982.749	690
982.831	2336
982.913	31
982.995	1883
983.077	-266
983.158	2482
983.240	63
983.322	2052
983.404	3203
983.486	3225
983.568	2274
983.649	1854
983.731	2242
983.813	3094
983.894	1342
983.976	1540
984.058	1174
984.139	2344
984.221	-153
984.302	1721
984.384	252
984.465	1130
984.547	1706
984.628	1570
984.710	1358
984.791	2617
984.872	1893
984.954	1757
985.035	1747
985.116	1376
985.198	1246
985.279	2462
985.360	1071
985.441	2247
985.522	2800
985.604	2008
985.685	165
985.766	2064
985.847	2705
985.928	1354
986.009	1716
986.090	2301
986.171	2375
986.252	1459
986.333	826
986.414	2420
986.495	1505
986.576	3033
986.656	1834
986.737	2193
986.818	1989
986.899	2303
986.980	2328
987.060	2815
987.141	1654
987.222	2953
987.302	2429
987.383	3335
987.464	3017
987.544	3628
987.625	2316
987.705	3317
987.786	3797
987.866	3084
987.947	2676
988.027	3819
988.108	2622
988.188	3199
988.268	1835
988.349	3211
988.429	1583
988.509	2510
988.589	1509
988.670	2047
988.750	2664
988.830	2714
988.910	1994
988.990	2453
989.070	2095
989.151	2899
989.231	919
989.311	2561
989.391	1786
989.471	3018
989.551	1962
989.631	1210
989.711	1374
989.791	1876
989.870	1255
989.950	3179
990.030	1975
990.110	2501
990.190	807
990.269	1379
990.349	1895
990.429	1926
990.509	1571
990.588	1395
990.668	1428
990.747	2105
990.827	1422
990.907	2423
990.986	1425
991.066	2908
991.145	1176
991.225	3247
991.304	1432
991.383	1968
991.463	769
991.542	3044
991.622	960
991.701	1225
991.780	458
991.859	1264
991.939	1225
992.018	1492
992.097	1829
992.176	1393
992.256	987
992.335	1466
992.414	977
992.493	814
992.572	-274
992.651	2637
992.730	1151
992.809	1760
992.888	710
992.967	1238
993.046	1219
993.125	220
993.203	1141
993.282	1930
993.361	409
993.440	1704
993.519	593
993.597	1244
993.676	389
993.755	1914
993.834	950
993.912	228
993.991	1078
994.069	905
994.148	115
994.226	425
994.305	763
994.384	92
994.462	2054
994.540	8
994.619	-520
994.697	1445
994.776	146
994.854	1868
994.932	484
995.011	777
995.089	896
995.167	417
995.245	-82
995.324	1051
995.402	1128
995.480	229
995.558	-249
995.636	45
995.714	111
995.792	2313
995.870	-130
995.948	653
996.026	-581
996.104	21
996.182	482
996.260	451
996.338	49
996.416	-295
996.494	-259
996.572	1180
996.649	-682
996.727	-89
996.805	-73
996.883	451
996.960	114
997.038	1601
997.116	660
997.193	675
997.271	-397
997.348	367
997.426	159
997.504	246
997.581	-158
997.658	444
997.736	-1827
997.813	-1059
997.891	218
997.968	262
998.046	-405
998.123	929
998.200	909
998.277	-111
998.355	252
998.432	-1142
998.509	96
998.586	189
998.663	-512
998.741	344
998.818	-128
998.895	1237
998.972	-243
999.049	653
999.126	-819
999.203	445
999.280	-934
999.357	-27
999.434	-80
999.511	1027
999.587	-711
999.664	-1027
999.741	-155
999.818	103
999.895	-668
999.971	748
1000.048	-1108
1000.125	299
1000.202	-382
1000.278	-381
1000.355	-705
1000.431	-308
1000.508	-1100
1000.584	-107
1000.661	-1008
1000.738	-919
1000.814	-1087
1000.890	900
1000.967	-586
1001.043	272
1001.120	-1108
1001.196	315
1001.272	-859
1001.349	-81
1001.425	257
1001.501	-446
1001.577	-1112
1001.654	555
1001.730	-286
1001.806	-471
1001.882	-1121
1001.958	-91
1002.034	-327
1002.110	-830
1002.186	-1536
1002.262	-556
1002.338	-1177
1002.414	629
1002.490	-501
1002.566	-868
1002.642	-1374
1002.718	591
1002.794	-1315
1002.870	-105
1002.945	-1158
1003.021	-363
1003.097	-1501
1003.173	207
1003.248	-1314
1003.324	-616
1003.400	-1757
1003.475	-1175
1003.551	-1041
1003.626	-577
1003.702	-1303
1003.777	-289
1003.853	-1288
1003.928	-465
1004.004	-1354
1004.079	673
1004.155	-562
1004.230	-589
1004.305	-188
1004.381	-912
1004.456	-1390
1004.531	-1437
1004.607	-1444
1004.682	-654
1004.757	-1145
1004.832	-113
1004.907	-1144
1004.982	-31
1005.057	-979
1005.133	-651
1005.208	-980
1005.283	-1096
1005.358	-775
1005.433	-1676
1005.508	-870
1005.583	-1000
1005.657	-1612
1005.732	785
1005.807	-1318
1005.882	-525
1005.957	-1092
1006.032	74
1006.106	-1006
1006.181	-595
1006.256	-495
1006.331	-1436
1006.405	-1193
1006.480	-1527
1006.554	-2011
1006.629	-462
1006.704	-981
1006.778	-339
1006.853	-482
1006.927	-327
1007.002	-1811
1007.076	-524
1007.150	-1797
1007.225	-895
1007.299	-1029
1007.373	-2039
1007.448	-1581
1007.522	-479
1007.596	-736
1007.671	-498
1007.745	-1636
1007.819	-1301
1007.893	-1392
1007.967	-864
1008.041	-1829
1008.115	84
1008.190	-2214
1008.264	235
1008.338	-1735
1008.412	-652
1008.486	-1443
1008.560	-894
1008.633	-985
1008.707	-1376
1008.781	-1113
1008.855	-838
1008.929	-1790
1009.003	-986
1009.076	-2025
1009.150	-1528
1009.224	-1408
1009.298	-575
1009.371	-1804
1009.445	305
1009.519	-891
1009.592	-1092
1009.666	-1813
1009.739	-364
1009.813	-1633
1009.886	-194
1009.960	-1298
1010.033	-4
1010.107	-1369
1010.180	-669
1010.253	-1578
1010.327	-1029
1010.400	-1740
1010.473	-685
1010.547	-669
1010.620	-1075
1010.693	-1254
1010.766	-1074
1010.840	-1013
1010.913	-440
1010.986	-3351
1011.059	-1511
1011.132	-1993
1011.205	-674
1011.278	-1621
1011.351	-927
1011.424	-1600
1011.497	-1707
1011.570	-1597
1011.643	-1053
1011.716	-2438
1011.789	-1293
1011.862	-1993
1011.934	-1000
1012.007	-2460
1012.080	-1241
1012.153	-2187
1012.225	141
1012.298	-1868
1012.371	-1577
1012.443	-1381
1012.516	-1780
1012.588	-1566
1012.661	-978
1012.733	-2336
1012.806	-501
1012.879	-1943
1012.951	-934
1013.023	-1895
1013.096	-1090
1013.168	-1933
1013.241	-437
1013.313	-1838
1013.385	-1688
1013.458	-1443
1013.530	-512
1013.602	-1318
1013.674	-890
1013.746	-2544
1013.819	-927
1013.891	-1252
1013.963	-1076
1014.035	-1699
1014.107	-998
1014.179	-1550
1014.251	-1247
1014.323	-1787
1014.395	-1059
1014.467	-1512
1014.539	-894
1014.611	-2369
1014.683	-1795
1014.754	-1892
1014.826	-960
1014.898	-1891
1014.970	-2073
1015.042	-653
1015.113	-1288
1015.185	-1449
1015.257	-1501
1015.328	-1155
1015.400	-995
1015.471	-2235
1015.543	-1776
1015.615	-1903
1015.686	-1730
1015.757	-1609
1015.829	-1114
1015.901	-2754
1015.972	-1499
1016.043	-1764
1016.115	-697
1016.186	-2405
1016.257	-1063
1016.328	-1233
1016.400	-869
1016.471	-2293
1016.542	-1665
1016.613	-1888
1016.685	-1119
1016.756	-1529
1016.827	-1116
1016.898	-2422
1016.969	-888
1017.040	-2141
1017.111	-1831
1017.182	-1505
1017.253	-631
1017.324	-2120
1017.395	-1467
1017.466	-2433
1017.537	-1428
1017.608	-1765
1017.678	-1185
1017.749	-1639
1017.820	-1711
1017.891	-2583
1017.961	-1196
1018.032	-2105
1018.103	-2034
1018.173	-2152
1018.244	-1560
1018.315	-2057
1018.385	-660
1018.456	-2552
1018.526	-2045
1018.597	-1716
1018.667	-1885
1018.738	-1624
1018.808	-1858
1018.878	-1710
1018.949	-2064
1019.019	-2223
1019.089	-1792
1019.160	-2145
1019.230	-1710
1019.300	-1474
1019.371	-2266
1019.441	-2279
1019.511	-997
1019.581	-2155
1019.651	-1741
1019.721	-1715
1019.791	-2505
1019.861	-2260
1019.931	-1380
1020.001	-1831
1020.071	-2250
1020.141	-1759
1020.211	-2271
1020.281	-2964
1020.351	-1914
1020.421	-1742
1020.491	-820
1020.560	-2950
1020.630	-2244
1020.700	-2828
1020.770	-2391
1020.839	-2667
1020.909	-1861
1020.979	-2378
1021.048	-2271
1021.118	-2672
1021.187	-1968
1021.257	-2053
1021.326	-1382
1021.396	-2552
1021.465	-1261
1021.535	-2797
1021.604	-1658
1021.674	-1714
1021.743	-1384
1021.812	-2675
1021.882	-1373
1021.951	-1682
1022.020	-1632
1022.089	-1905
1022.159	-1900
1022.228	-1733
1022.297	-1157
1022.366	-1920
1022.435	-1463
1022.504	-2594
1022.573	-1712
1022.642	-1522
1022.711	-2066
1022.781	-2063
1022.849	-1692
1022.918	-2877
1022.987	-1506
1023.056	-2760
1023.125	-1672
1023.194	-2542
1023.263	-1111
1023.331	-2208
1023.400	-1543
1023.469	-2243
1023.538	-1213
1023.606	-2369
1023.675	-920
1023.744	-2740
1023.812	-2170
1023.881	-3143
1023.949	-1574
1024.018	-2314
1024.086	-1772
1024.155	-2970
1024.223	-2060
1024.292	-2560
1024.360	-1704
1024.429	-2876
1024.497	-1323
1024.565	-2355
1024.634	-1865
1024.702	-1879
1024.770	-1577
1024.838	-2841
1024.907	-1635
1024.975	-2991
1025.043	-1503
1025.111	-2075
1025.179	-1611
1025.247	-2420
1025.315	-1401
1025.383	-1824
1025.451	-1926
1025.519	-2617
1025.587	-2543
1025.655	-2479
1025.723	-1802
1025.791	-2631
1025.859	-1128
1025.927	-1837
1025.995	-2101
1026.062	-1612
1026.130	-1691
1026.198	-3037
1026.266	-2172
1026.333	-2355
1026.401	-1336
1026.469	-2711
1026.536	-1660
1026.604	-2937
1026.671	-1676
1026.739	-2494
1026.806	-1502
1026.874	-3144
1026.941	-2346
1027.009	-2709
1027.076	-2383
1027.144	-2728
1027.211	-2307
1027.278	-3271
1027.345	-1639
1027.413	-2492
1027.480	-2170
1027.547	-2809
1027.614	-2190
1027.682	-2353
1027.749	-2276
1027.816	-2435
1027.883	-1953
1027.950	-1806
1028.017	-2177
1028.084	-2558
1028.151	-1995
1028.218	-2621
1028.285	-1849
1028.352	-3285
1028.419	-2786
1028.486	-2728
1028.553	-1657
1028.619	-2305
1028.686	-1668
1028.753	-3381
1028.820	-2095
1028.886	-2986
1028.953	-1913
1029.020	-2451
1029.086	-2300
1029.153	-2236
1029.220	-2733
1029.286	-3408
1029.353	-2372
1029.419	-2615
1029.486	-1530
1029.552	-2084
1029.619	-1915
1029.685	-2543
1029.751	-1991
1029.818	-2089
1029.884	-2441
1029.951	-2096
1030.017	-2060
1030.083	-1888
1030.149	-2196
1030.216	-3545
1030.282	-1964
1030.348	-2131
1030.414	-2126
1030.480	-3793
1030.546	-1968
1030.612	-2092
1030.678	-2088
1030.744	-3037
1030.810	-2134
1030.876	-2135
1030.942	-3002
1031.008	-2879
1031.074	-1708
1031.140	-2526
1031.206	-949
1031.272	-2381
1031.337	-2260
1031.403	-1896
1031.469	-2071
1031.534	-3626
1031.600	-1760
1031.666	-2482
1031.731	-2560
1031.797	-2794
1031.863	-2241
1031.928	-2328
1031.994	-2209
1032.059	-2113
1032.125	-1585
1032.190	-2168
1032.256	-2534
1032.321	-3402
1032.386	-1467
1032.452	-2032
1032.517	-2235
1032.582	-3247
1032.647	-1942
1032.713	-2798
1032.778	-1502
1032.843	-2356
1032.908	-1452
1032.974	-2737
1033.039	-2194
1033.104	-2188
1033.169	-1862
1033.234	-2503
1033.299	-1527
1033.364	-2875
1033.429	-2183
1033.494	-2243
1033.559	-1459
1033.624	-2382
1033.688	-2107
1033.753	-2590
1033.818	-1263
1033.883	-3097
1033.948	-1633
1034.013	-1787
1034.077	-462
1034.142	-620
1034.207	-1409
1034.271	-415
1034.336	386
1034.400	-826
1034.465	-1538
1034.530	-1973
1034.594	-1709
1034.658	-2446
1034.723	-2219
1034.787	-2700
1034.852	-2334
1034.916	-3461
1034.981	-1884
1035.045	-2444
1035.109	-1586
1035.173	-1936
1035.238	-2405
1035.302	-2817
1035.366	-1577
1035.430	-2785
1035.495	-1989
1035.559	-3130
1035.623	-1366
1035.687	-2114
1035.751	-1628
1035.815	-2610
1035.879	-1037
1035.943	-2126
1036.007	-2141
1036.071	-3493
1036.135	-2296
1036.198	-3000
1036.262	-1546
1036.326	-3083
1036.390	-1480
1036.454	-1973
1036.517	-1841
1036.581	-2785
1036.645	-2309
1036.709	-2504
1036.772	-897
1036.836	-2333
1036.900	-1028
1036.963	-3148
1037.026	-1841
1037.090	-2366
1037.154	-2584
1037.217	-2113
1037.280	-2005
1037.344	-3103
1037.407	-1873
1037.471	-2033
1037.534	-2544
1037.597	-2116
1037.661	-1551
1037.724	-2718
1037.787	-1898
1037.850	-2620
1037.913	-1760
1037.977	-1804
1038.040	-2106
1038.103	-2842
1038.166	-2268
1038.229	-1469
1038.292	-2536
1038.355	-2368
1038.418	-2864
1038.481	-2479
1038.544	-1956
1038.607	-1967
1038.670	-1517
1038.732	-1660
1038.795	-1470
1038.858	-2551
1038.921	-2139
1038.984	-1346
1039.046	-1816
1039.109	-2455
1039.172	-2160
1039.234	-2314
1039.297	-1940
1039.360	-2673
1039.422	-1310
1039.485	-2281
1039.547	-2432
1039.610	-1678
1039.672	-2220
1039.734	-2525
1039.797	-1513
1039.859	-2166
1039.922	-2096
1039.984	-2374
1040.046	-1688
1040.109	-2891
1040.171	-2107
1040.233	-2515
1040.295	-1729
1040.358	-1779
1040.420	-1839
1040.482	-2349
1040.544	-1632
1040.606	-2193
1040.668	-2287
1040.730	-2904
1040.792	-2514
1040.854	-2428
1040.916	-1419
1040.978	-2051
1041.040	-1311
1041.102	-2238
1041.164	-1291
1041.225	-2149
1041.287	-2197
1041.349	-2154
1041.411	-1630
1041.472	-1928
1041.534	-1707
1041.596	-3518
1041.657	-2174
1041.719	-2497
1041.781	-1858
1041.842	-2657
1041.904	-2221
1041.965	-2689
1042.027	-1636
1042.088	-1925
1042.150	-1671
1042.211	-2684
1042.272	-1547
1042.334	-1772
1042.395	-1883
1042.456	-2978
1042.518	-1328
1042.579	-2453
1042.640	-1793
1042.701	-2286
1042.763	-2141
1042.824	-2372
1042.885	-2187
1042.946	-3023
1043.007	-1686
1043.068	-2617
1043.129	-2540
1043.190	-1774
1043.251	-1668
1043.312	-3246
1043.373	-1463
1043.434	-1661
1043.495	-996
1043.556	-2501
1043.616	-1202
1043.677	-2852
1043.738	-1711
1043.799	-2562
1043.859	-1726
1043.920	-2219
1043.981	-1091
1044.041	-2813
1044.102	-1648
1044.162	-2616
1044.223	-1301
1044.284	-2419
1044.344	-1842
1044.405	-2733
1044.465	-1073
1044.525	-2459
1044.586	-1385
1044.646	-2585
1044.707	-1563
1044.767	-2670
1044.827	-1104
1044.887	-2111
1044.948	-1239
1045.008	-2331
1045.068	-1910
1045.128	-2235
1045.188	-1738
1045.249	-1509
1045.309	-1661
1045.369	-2520
1045.429	-1585
1045.489	-2390
1045.549	-2062
1045.609	-2410
1045.669	-1514
1045.729	-2019
1045.789	-1926
1045.848	-2424
1045.908	-976
1045.968	-1209
1046.028	-1644
1046.088	-1684
1046.147	-1437
1046.207	-2051
1046.267	-1645
1046.326	-1694
1046.386	-1797
1046.446	-1507
1046.505	-851
1046.565	-2002
1046.624	-204
1046.684	-1221
1046.743	-1428
1046.803	-1356
1046.862	-556
1046.922	0
