'Start Wavelength	183.907
'End Wavelength	1046.922
'Gate Delay	5.000
'Gate Width (ms)	1.050
'Laser Output Level	0.000
'X Position	0.000
'Y Position	0.000
'Z Position	0.000
'Grid Point Number	1.000
'Shot Number	100.000
183.907	1310.000
183.977	-752.000
184.047	678
184.116	608
184.186	245
184.256	-559
184.325	165
184.395	-1258
184.465	1497
184.534	-445
184.604	-534
184.674	128
184.743	-480
184.813	139
184.883	556
184.952	250
185.022	638
185.092	-156
185.161	613
185.231	681
185.301	614
185.370	-680
185.440	-127
185.509	359
185.579	-245
185.649	503
185.718	450
185.788	-242
185.857	-450
185.927	-158
185.996	-49
186.066	345
186.136	-89
186.205	-64
186.275	76
186.344	686
186.414	445
186.483	-465
186.553	900
186.622	723
186.692	920
186.761	-324
186.831	1007
186.900	356
186.970	621
187.039	634
187.109	68
187.178	259
187.248	-244
187.317	-220
187.387	140
187.456	651
187.526	538
187.595	168
187.664	-230
187.734	-172
187.803	388
187.873	372
187.942	80
188.012	-8
188.081	475
188.150	65
188.220	724
188.289	1299
188.358	259
188.428	939
188.497	420
188.567	1554
188.636	-371
188.705	361
188.775	149
188.844	23
188.913	306
188.983	14
189.052	-189
189.121	225
189.191	182
189.260	-359
189.329	561
189.399	-277
189.468	437
189.537	-213
189.606	452
189.676	44
189.745	-371
189.814	879
189.883	-359
189.953	752
190.022	280
190.091	-476
190.161	-187
190.230	720
190.299	490
190.368	93
190.437	-418
190.507	-318
190.576	457
190.645	80
190.714	-113
190.783	-579
190.853	543
190.922	360
190.991	-301
191.060	121
191.129	-802
191.198	316
191.268	-171
191.337	162
191.406	386
191.475	-144
191.544	-258
191.613	348
191.682	262
191.752	-171
191.821	-545
191.890	91
191.959	-177
192.028	-9
192.097	401
192.166	675
192.235	-212
192.304	503
192.373	-710
192.442	58
192.511	273
192.580	519
192.650	745
192.719	-124
192.788	143
192.857	745
192.926	-23
192.995	-234
193.064	663
193.133	139
193.202	533
193.271	-20
193.340	576
193.409	200
193.478	623
193.547	-75
193.615	451
193.684	145
193.753	-716
193.822	-25
193.891	464
193.960	9
194.029	-87
194.098	146
194.167	468
194.236	850
194.305	-191
194.374	-67
194.443	364
194.512	306
194.580	5
194.649	-499
194.718	502
194.787	474
194.856	-130
194.925	536
194.994	168
195.062	738
195.131	-208
195.200	231
195.269	-68
195.338	-65
195.407	470
195.475	-142
195.544	993
195.613	-683
195.682	-276
195.751	-492
195.819	-360
195.888	288
195.957	437
196.026	-544
196.094	889
196.163	148
196.232	1077
196.301	-34
196.369	482
196.438	563
196.507	-471
196.576	651
196.644	-323
196.713	68
196.782	-149
196.850	20
196.919	188
196.988	99
197.056	279
197.125	58
197.194	421
197.262	192
197.331	258
197.400	293
197.468	-44
197.537	-67
197.606	92
197.674	54
197.743	866
197.812	-420
197.880	429
197.949	-45
198.017	244
198.086	114
198.155	505
198.223	304
198.292	145
198.360	-162
198.429	-105
198.497	-385
198.566	736
198.635	371
198.703	1207
198.772	-328
198.840	477
198.909	-203
198.977	-57
199.046	-136
199.114	20
199.183	575
199.251	-196
199.320	-239
199.388	386
199.457	466
199.525	625
199.594	456
199.662	863
199.731	-469
199.799	86
199.867	780
199.936	-370
200.004	841
200.073	-335
200.141	-111
200.210	-13
200.278	-325
200.346	-43
200.415	215
200.483	206
200.552	-164
200.620	70
200.688	-137
200.757	439
200.825	510
200.893	-192
200.962	399
201.030	-89
201.098	-659
201.167	-186
201.235	209
201.303	43
201.372	270
201.440	1074
201.508	-284
201.577	286
201.645	638
201.713	585
201.781	51
201.850	707
201.918	-299
201.986	240
202.055	260
202.123	360
202.191	106
202.259	426
202.327	259
202.396	-458
202.464	-221
202.532	696
202.600	1788
202.669	1678
202.737	-5
202.805	-715
202.873	265
202.941	620
203.009	28
203.078	109
203.146	-109
203.214	290
203.282	-632
203.350	1088
203.418	73
203.487	696
203.555	192
203.623	-62
203.691	601
203.759	-367
203.827	198
203.895	65
203.963	-176
204.031	-208
204.099	375
204.168	-152
204.236	466
204.304	248
204.372	60
204.440	56
204.508	90
204.576	-145
204.644	484
204.712	-27
204.780	10
204.848	302
204.916	-374
204.984	-77
205.052	369
205.120	-322
205.188	676
205.256	-294
205.324	49
205.392	249
205.460	482
205.528	-515
205.596	673
205.664	-327
205.732	-643
205.799	426
205.867	471
205.935	33
206.003	951
206.071	-696
206.139	-555
206.207	-224
206.275	-38
206.343	-319
206.411	-238
206.478	558
206.546	-88
206.614	-623
206.682	-210
206.750	-98
206.818	920
206.885	1228
206.953	-601
207.021	1283
207.089	129
207.157	-350
207.225	89
207.292	-344
207.360	-89
207.428	-697
207.496	166
207.563	586
207.631	53
207.699	172
207.767	-237
207.834	-1113
207.902	-53
207.970	177
208.038	-326
208.105	-424
208.173	-441
208.241	-265
208.309	-394
208.376	959
208.444	350
208.512	56
208.579	-1008
208.647	528
208.715	939
208.782	1258
208.850	-8
208.918	349
208.985	721
209.053	488
209.120	-59
209.188	305
209.256	422
209.323	-413
209.391	-470
209.459	1891
209.526	618
209.594	-344
209.661	-621
209.729	74
209.796	321
209.864	85
209.932	-786
209.999	1655
210.067	244
210.134	127
210.202	534
210.269	527
210.337	1329
210.404	195
210.472	306
210.539	297
210.607	-425
210.674	-23
210.742	101
210.809	423
210.877	416
210.944	322
211.012	-642
211.079	1313
211.146	719
211.214	393
211.281	94
211.349	539
211.416	-55
211.484	-23
211.551	256
211.618	736
211.686	-432
211.753	-632
211.821	805
211.888	404
211.955	-184
212.023	799
212.090	723
212.157	74
212.225	-521
212.292	51
212.359	-286
212.427	1242
212.494	-96
212.561	604
212.629	-326
212.696	-872
212.763	-30
212.831	-1099
212.898	577
212.965	-402
213.032	-94
213.100	-78
213.167	-128
213.234	613
213.301	292
213.369	585
213.436	265
213.503	-393
213.570	36
213.638	-173
213.705	-137
213.772	-105
213.839	297
213.906	274
213.973	-320
214.041	-181
214.108	505
214.175	767
214.242	-217
214.309	-164
214.376	18
214.444	59
214.511	808
214.578	-434
214.645	369
214.712	-154
214.779	-179
214.846	-342
214.913	1107
214.980	46
215.048	-228
215.115	1141
215.182	517
215.249	1142
215.316	-121
215.383	1056
215.450	260
215.517	-319
215.584	416
215.651	-312
215.718	325
215.785	354
215.852	-618
215.919	341
215.986	443
216.053	-175
216.120	-269
216.187	221
216.254	564
216.321	-294
216.388	-1084
216.455	48
216.522	217
216.589	-207
216.656	160
216.722	783
216.789	467
216.856	194
216.923	-263
216.990	-67
217.057	445
217.124	-379
217.191	307
217.258	451
217.324	-199
217.391	281
217.458	100
217.525	-108
217.592	393
217.659	-1329
217.725	266
217.792	-20
217.859	520
217.926	-467
217.993	-164
218.059	426
218.126	41
218.193	315
218.260	-329
218.327	-577
218.393	-173
218.460	133
218.527	-944
218.594	145
218.660	-821
218.727	1069
218.794	-395
218.860	973
218.927	118
218.994	-256
219.061	-957
219.127	-226
219.194	389
219.261	638
219.327	478
219.394	596
219.461	71
219.527	15
219.594	665
219.661	-2
219.727	-138
219.794	953
219.860	-565
219.927	45
219.994	1234
220.060	2473
220.127	2559
220.193	766
220.260	105
220.326	329
220.393	-434
220.460	-218
220.526	-995
220.593	-415
220.659	874
220.726	-356
220.792	805
220.859	382
220.925	-312
220.992	-228
221.058	-240
221.125	568
221.191	322
221.258	-477
221.324	202
221.391	-744
221.457	-576
221.524	-369
221.590	575
221.657	1345
221.723	-715
221.789	-187
221.856	1073
221.922	-352
221.989	-101
222.055	-110
222.121	-363
222.188	1474
222.254	213
222.321	-609
222.387	-127
222.453	-226
222.520	177
222.586	-155
222.652	193
222.719	-536
222.785	353
222.851	651
222.918	36
222.984	510
223.050	-394
223.116	-1648
223.183	1065
223.249	-5
223.315	-1017
223.382	260
223.448	-501
223.514	-334
223.580	-230
223.647	-454
223.713	-124
223.779	97
223.845	786
223.911	1002
223.978	-173
224.044	-9
224.110	-596
224.176	238
224.242	423
224.309	-897
224.375	261
224.441	-468
224.507	-760
224.573	-821
224.639	1010
224.705	-316
224.772	112
224.838	-402
224.904	147
224.970	-440
225.036	-691
225.102	-312
225.168	483
225.234	1088
225.300	-167
225.366	375
225.432	969
225.499	-470
225.565	-115
225.631	-540
225.697	-51
225.763	468
225.829	44
225.895	-1180
225.961	220
226.027	307
226.093	-187
226.159	745
226.225	1090
226.291	661
226.357	270
226.423	439
226.489	-386
226.554	-126
226.620	94
226.686	-840
226.752	428
226.818	293
226.884	254
226.950	1346
227.016	143
227.082	48
227.148	254
227.214	156
227.279	53
227.345	122
227.411	957
227.477	1044
227.543	4388
227.609	4870
227.674	2652
227.740	631
227.806	434
227.872	336
227.938	-54
228.003	79
228.069	562
228.135	-165
228.201	-201
228.267	534
228.332	-129
228.398	-1847
228.464	141
228.530	-629
228.595	-233
228.661	-164
228.727	-502
228.792	1125
228.858	-646
228.924	-1558
228.990	1259
229.055	-1076
229.121	153
229.187	498
229.252	213
229.318	99
229.384	218
229.449	394
229.515	-1681
229.581	-612
229.646	1401
229.712	211
229.777	-287
229.843	-523
229.909	-246
229.974	-191
230.040	83
230.105	326
230.171	-410
230.236	457
230.302	137
230.368	-97
230.433	-297
230.499	-415
230.564	950
230.630	-616
230.695	-508
230.761	495
230.826	-1209
230.892	1052
230.957	-1137
231.023	55
231.088	-138
231.154	401
231.219	682
231.284	-747
231.350	1214
231.415	-355
231.481	699
231.546	175
231.612	-112
231.677	-435
231.742	-928
231.808	1500
231.873	-575
231.939	-2211
232.004	924
232.069	166
232.135	-692
232.200	232
232.265	956
232.331	-169
232.396	-209
232.461	-221
232.527	-445
232.592	-637
232.657	280
232.723	-270
232.788	-82
232.853	516
232.918	-177
232.984	-164
233.049	-278
233.114	-69
233.179	502
233.245	1139
233.310	7
233.375	-1000
233.440	53
233.506	-864
233.571	-622
233.636	149
233.701	-147
233.766	324
233.832	-426
233.897	-132
233.962	-1499
234.027	839
234.092	380
234.157	130
234.222	100
234.288	-193
234.353	14
234.418	1053
234.483	365
234.548	343
234.613	-233
234.678	252
234.743	-1005
234.808	833
234.873	-1113
234.938	366
235.004	-777
235.069	73
235.134	-234
235.199	-215
235.264	172
235.329	-1270
235.394	314
235.459	594
235.524	-1585
235.589	694
235.654	446
235.719	-1522
235.784	563
235.849	-470
235.913	-141
235.978	-304
236.043	-205
236.108	-194
236.173	-955
236.238	583
236.303	-480
236.368	264
236.433	745
236.498	-755
236.563	363
236.627	799
236.692	802
236.757	855
236.822	614
236.887	-443
236.952	204
237.017	-1397
237.081	559
237.146	-1208
237.211	594
237.276	803
237.341	1628
237.405	-138
237.470	14
237.535	726
237.600	436
237.664	131
237.729	-1579
237.794	-1142
237.859	671
237.923	196
237.988	-662
238.053	415
238.118	-844
238.182	467
238.247	1982
238.312	-824
238.376	284
238.441	-1748
238.506	1021
238.570	-539
238.635	958
238.700	385
238.764	-519
238.829	55
238.893	-330
238.958	211
239.023	-163
239.087	800
239.152	318
239.216	-401
239.281	-171
239.346	200
239.410	-63
239.475	-1043
239.539	1217
239.604	14
239.668	1548
239.733	811
239.797	2908
239.862	8085
239.926	6076
239.991	2436
240.055	1523
240.120	-373
240.184	1135
240.249	-220
240.313	-444
240.378	-337
240.442	559
240.507	885
240.571	-448
240.635	-679
240.700	656
240.764	29
240.829	-483
240.893	-821
240.957	678
241.022	696
241.086	818
241.151	-843
241.215	-1433
241.279	762
241.344	494
241.408	-131
241.472	-975
241.537	556
241.601	96
241.665	-900
241.730	-816
241.794	969
241.858	-196
241.922	196
241.987	-232
242.051	-659
242.115	-812
242.179	956
242.244	-919
242.308	842
242.372	-398
242.436	-1044
242.501	242
242.565	-1028
242.629	-898
242.693	1401
242.757	-1680
242.822	-151
242.886	1140
242.950	267
243.014	-584
243.078	232
243.142	89
243.206	-286
243.271	577
243.335	-827
243.399	20
243.463	-804
243.527	1247
243.591	709
243.655	-379
243.719	-779
243.783	811
243.847	-126
243.911	85
243.975	-499
244.040	-757
244.104	1140
244.168	587
244.232	-1274
244.296	574
244.360	162
244.424	-1324
244.488	587
244.552	731
244.615	-1821
244.679	532
244.743	-517
244.807	-945
244.871	368
244.935	303
244.999	-1312
245.063	-210
245.127	519
245.191	201
245.255	-694
245.319	475
245.383	-1709
245.446	1452
245.510	-722
245.574	303
245.638	396
245.702	-1027
245.766	520
245.829	993
245.893	72
245.957	-956
246.021	608
246.085	-942
246.149	-579
246.212	515
246.276	1091
246.340	-217
246.404	528
246.467	243
246.531	-1223
246.595	506
246.659	49
246.722	-1185
246.786	-51
246.850	453
246.913	-444
246.977	-673
247.041	1153
247.104	34
247.168	372
247.232	-14
247.295	2236
247.359	1281
247.423	-392
247.486	141
247.550	1362
247.614	-254
247.677	474
247.741	139
247.804	654
247.868	1969
247.932	-215
247.995	2757
248.059	459
248.122	-1299
248.186	1062
248.249	-157
248.313	3698
248.376	3779
248.440	1815
248.503	-1263
248.567	1514
248.630	-724
248.694	293
248.757	1488
248.821	3587
248.884	3112
248.948	746
249.011	2247
249.075	3598
249.138	3898
249.202	663
249.265	-244
249.328	415
249.392	-240
249.455	-159
249.519	-261
249.582	84
249.645	791
249.709	864
249.772	-618
249.835	415
249.899	-18
249.962	438
250.025	-926
250.089	1029
250.152	1911
250.215	1000
250.279	-252
250.342	365
250.405	-97
250.468	-807
250.532	-491
250.595	1149
250.658	725
250.721	5614
250.785	1082
250.848	1554
250.911	-1005
250.974	361
251.038	-531
251.101	2816
251.164	-371
251.227	685
251.290	123
251.354	949
251.417	2646
251.480	3264
251.543	1434
251.606	6979
251.669	5204
251.732	1417
251.795	1542
251.859	2380
251.922	3671
251.985	2269
252.048	867
252.111	250
252.174	-546
252.237	1444
252.300	3974
252.363	2098
252.426	7114
252.489	1470
252.552	331
252.615	-753
252.678	622
252.741	2947
252.804	2340
252.867	5950
252.930	3778
252.993	1814
253.056	1543
253.119	-430
253.182	-1028
253.245	-25
253.308	1171
253.371	100
253.434	-466
253.497	386
253.559	1796
253.622	1122
253.685	-639
253.748	-159
253.811	457
253.874	605
253.937	-442
254.000	234
254.062	867
254.125	1319
254.188	1304
254.251	1007
254.314	-482
254.376	169
254.439	1006
254.502	351
254.565	11
254.628	2517
254.690	396
254.753	-777
254.816	-22
254.878	20
254.941	861
255.004	1251
255.067	180
255.129	-356
255.192	-66
255.255	-207
255.317	788
255.380	616
255.443	-331
255.505	-616
255.568	-499
255.631	-437
255.693	458
255.756	-220
255.819	1188
255.881	294
255.944	357
256.006	496
256.069	-210
256.132	-551
256.194	-550
256.257	765
256.319	151
256.382	520
256.444	1805
256.507	164
256.569	-580
256.632	-18
256.694	-573
256.757	383
256.819	1679
256.882	-897
256.944	256
257.007	827
257.069	-631
257.132	-356
257.194	1152
257.257	-779
257.319	-288
257.381	-735
257.444	543
257.506	1253
257.569	1685
257.631	1800
257.693	563
257.756	-33
257.818	-611
257.880	-428
257.943	573
258.005	-416
258.067	-164
258.130	160
258.192	-338
258.254	-463
258.317	88
258.379	353
258.441	217
258.503	1565
258.566	220
258.628	1583
258.690	-433
258.753	1120
258.815	303
258.877	64
258.939	245
259.001	460
259.064	223
259.126	-467
259.188	-58
259.250	684
259.312	633
259.375	304
259.437	-425
259.499	-22
259.561	179
259.623	270
259.685	-1267
259.747	598
259.809	-147
259.872	1528
259.934	2688
259.996	2961
260.058	557
260.120	-205
260.182	131
260.244	878
260.306	-310
260.368	324
260.430	-210
260.492	29
260.554	1639
260.616	86
260.678	955
260.740	1787
260.802	190
260.864	570
260.926	-626
260.988	454
261.050	436
261.112	-180
261.174	1218
261.236	1886
261.298	-335
261.359	453
261.421	1604
261.483	-180
261.545	409
261.607	-1154
261.669	288
261.731	1020
261.793	1311
261.854	-710
261.916	798
261.978	-481
262.040	-511
262.102	1399
262.164	-13
262.225	1016
262.287	-142
262.349	-53
262.411	539
262.472	423
262.534	-175
262.596	119
262.658	648
262.719	-878
262.781	271
262.843	392
262.904	741
262.966	635
263.028	417
263.090	1270
263.151	2806
263.213	1617
263.275	-253
263.336	409
263.398	1428
263.459	-434
263.521	-227
263.583	458
263.644	1170
263.706	361
263.767	-318
263.829	1312
263.891	-73
263.952	-35
264.014	-90
264.075	-144
264.137	-465
264.198	549
264.260	-716
264.321	269
264.383	6
264.444	560
264.506	310
264.567	219
264.629	1046
264.690	-1820
264.752	326
264.813	424
264.875	-313
264.936	969
264.998	-529
265.059	-335
265.120	37
265.182	-489
265.243	-239
265.305	546
265.366	643
265.427	298
265.489	1171
265.550	-624
265.611	-277
265.673	-335
265.734	-652
265.795	611
265.857	-432
265.918	-1300
265.979	211
266.040	579
266.102	1314
266.163	605
266.224	92
266.286	-40
266.347	-650
266.408	747
266.469	593
266.530	1025
266.592	771
266.653	418
266.714	289
266.775	622
266.836	72
266.898	-4
266.959	84
267.020	597
267.081	513
267.142	343
267.203	314
267.264	151
267.326	1417
267.387	584
267.448	553
267.509	1227
267.570	1104
267.631	307
267.692	-816
267.753	300
267.814	368
267.875	448
267.936	613
267.997	-12
268.058	-1333
268.119	-354
268.180	57
268.241	-1310
268.302	273
268.363	-146
268.424	-288
268.485	-500
268.546	-234
268.607	-49
268.668	119
268.729	-707
268.790	-259
268.851	271
268.912	-671
268.972	147
269.033	196
269.094	163
269.155	-150
269.216	355
269.277	-486
269.338	87
269.398	-282
269.459	-388
269.520	-158
269.581	-30
269.642	452
269.702	-436
269.763	327
269.824	-954
269.885	499
269.945	588
270.006	154
270.067	-370
270.128	-509
270.188	-347
270.249	-373
270.310	-1255
270.370	-216
270.431	-363
270.492	-1122
270.553	546
270.613	158
270.674	208
270.734	274
270.795	117
270.856	-956
270.916	-389
270.977	353
271.038	699
271.098	-14
271.159	33
271.219	-240
271.280	-170
271.340	-241
271.401	300
271.462	-220
271.522	1104
271.583	22
271.643	173
271.704	-360
271.764	833
271.825	480
271.885	3369
271.946	5530
272.006	1949
272.066	1451
272.127	5062
272.187	4849
272.248	1808
272.308	919
272.369	3400
272.429	2102
272.489	645
272.550	480
272.610	1401
272.671	1309
272.731	1111
272.791	1127
272.852	764
272.912	645
272.972	1024
273.033	647
273.093	504
273.153	1522
273.214	1846
273.274	1364
273.334	2860
273.394	5669
273.455	3139
273.515	2445
273.575	3964
273.635	2312
273.696	4464
273.756	6457
273.816	4163
273.876	2665
273.936	3274
273.997	3361
274.057	1272
274.117	555
274.177	1484
274.237	3789
274.297	4730
274.358	1586
274.418	3066
274.478	1493
274.538	1026
274.598	-573
274.658	1819
274.718	1658
274.778	806
274.838	-72
274.898	1134
274.958	2294
275.018	4152
275.078	2668
275.138	822
275.198	-376
275.258	426
275.318	141
275.378	486
275.438	398
275.498	262
275.558	844
275.618	2326
275.678	1359
275.738	1554
275.798	690
275.858	-153
275.918	238
275.978	639
276.038	203
276.098	726
276.157	470
276.217	2459
276.277	1335
276.337	97
276.397	37
276.457	471
276.517	773
276.576	357
276.636	262
276.696	911
276.756	681
276.815	1068
276.875	1183
276.935	423
276.995	1352
277.055	659
277.114	1333
277.174	1489
277.234	735
277.293	976
277.353	729
277.413	1111
277.472	1034
277.532	1099
277.592	2014
277.651	9388
277.711	17823
277.771	5947
277.830	17239
277.890	17319
277.950	11158
278.009	34191
278.069	15751
278.128	13983
278.188	21719
278.248	9835
278.307	20695
278.367	15985
278.426	3779
278.486	3002
278.545	1703
278.605	2212
278.664	1123
278.724	1457
278.783	2957
278.843	5561
278.902	2592
278.962	1995
279.021	2781
279.081	7598
279.140	7590
279.199	5411
279.259	4382
279.318	6341
279.378	8949
279.437	14796
279.496	35835
279.556	151393
279.615	119799
279.675	36057
279.734	18363
279.793	17276
279.853	20909
279.912	10722
279.971	7652
280.031	7447
280.090	8616
280.149	14771
280.208	20442
280.268	97071
280.327	100799
280.386	26659
280.445	12982
280.505	7815
280.564	5005
280.623	4370
280.682	4597
280.742	4449
280.801	2997
280.860	2317
280.919	2218
280.978	1967
281.037	1849
281.097	946
281.156	2965
281.215	2722
281.274	2083
281.333	3447
281.392	3137
281.451	1334
281.510	1864
281.569	910
281.628	2411
281.688	1646
281.747	1970
281.806	959
281.865	347
281.924	591
281.983	1121
282.042	1241
282.101	1120
282.160	1497
282.219	1598
282.278	1117
282.337	1419
282.396	1147
282.454	1003
282.513	1170
282.572	1882
282.631	1755
282.690	1270
282.749	690
282.808	1296
282.867	1014
282.926	1700
282.985	1743
283.043	1953
283.102	1435
283.161	1396
283.220	2368
283.279	3095
283.338	1313
283.396	2316
283.455	2131
283.514	1952
283.573	1974
283.631	2495
283.690	2114
283.749	1759
283.808	2254
283.866	3192
283.925	3151
283.984	3109
284.043	2355
284.101	3200
284.160	2837
284.219	4269
284.277	4882
284.336	3944
284.395	5334
284.453	6580
284.512	6278
284.570	7351
284.629	7996
284.688	10617
284.746	13589
284.805	15520
284.863	21129
284.922	26351
284.981	31195
285.039	42810
285.098	60164
285.156	80935
285.215	74355
285.273	64962
285.332	80652
285.390	68844
285.449	50011
285.507	37245
285.566	27189
285.624	21202
285.683	17624
285.741	14011
285.799	11635
285.858	9372
285.916	8427
285.975	6784
286.033	5897
286.091	5755
286.150	5129
286.208	3969
286.267	4256
286.325	4406
286.383	3332
286.442	3617
286.500	1838
286.558	2475
286.616	1466
286.675	2716
286.733	2562
286.791	1628
286.850	2360
286.908	2258
286.966	1648
287.024	1379
287.083	1836
287.141	1997
287.199	1877
287.257	1582
287.315	1728
287.374	1183
287.432	1544
287.490	1313
287.548	1068
287.606	-158
287.664	392
287.723	1066
287.781	1375
287.839	900
287.897	1512
287.955	833
288.013	822
288.071	1983
288.129	4255
288.187	15811
288.245	6621
288.303	2320
288.361	1097
288.419	1068
288.477	1057
288.535	745
288.593	834
288.651	475
288.709	205
288.767	586
288.825	-62
288.883	217
288.941	774
288.999	-349
289.057	666
289.115	117
289.173	1371
289.231	455
289.289	559
289.346	-98
289.404	343
289.462	838
289.520	159
289.578	576
289.636	957
289.694	38
289.751	192
289.809	815
289.867	239
289.925	1091
289.983	265
290.040	993
290.098	512
290.156	395
290.214	29
290.271	-174
290.329	1376
290.387	910
290.444	95
290.502	-174
290.560	459
290.617	680
290.675	119
290.733	-50
290.790	738
290.848	712
290.906	6
290.963	346
291.021	271
291.078	729
291.136	304
291.194	566
291.251	819
291.309	-407
291.366	52
291.424	617
291.481	1229
291.539	1621
291.596	1990
291.654	656
291.711	670
291.769	841
291.826	544
291.884	612
291.941	-280
291.999	340
292.056	549
292.114	156
292.171	451
292.228	1277
292.286	272
292.343	82
292.401	31
292.458	-140
292.515	793
292.573	130
292.630	1087
292.687	167
292.745	791
292.802	358
292.859	1374
292.917	2934
292.974	1894
293.031	648
293.089	1133
293.146	-139
293.203	406
293.260	529
293.318	452
293.375	1315
293.432	460
293.489	763
293.546	719
293.604	644
293.661	3579
293.718	7691
293.775	3754
293.832	3102
293.889	4102
293.947	3159
294.004	846
294.061	806
294.118	718
294.175	2370
294.232	4483
294.289	3089
294.346	1148
294.403	2048
294.460	287
294.517	503
294.574	674
294.631	224
294.688	218
294.745	894
294.802	4139
294.859	2615
294.916	801
294.973	121
295.030	57
295.087	80
295.144	190
295.201	364
295.258	235
295.315	-239
295.372	1138
295.429	3189
295.486	1190
295.542	186
295.599	213
295.656	344
295.713	1323
295.770	2630
295.827	683
295.883	22
295.940	-192
295.997	531
296.054	-40
296.111	536
296.167	-162
296.224	-369
296.281	-477
296.338	-540
296.394	-158
296.451	-484
296.508	602
296.564	1770
296.621	513
296.678	3473
296.734	6896
296.791	2099
296.848	1157
296.904	289
296.961	1006
297.018	2682
297.074	2390
297.131	690
297.187	649
297.244	617
297.301	4391
297.357	8413
297.414	3502
297.470	748
297.527	68
297.583	-337
297.640	552
297.696	202
297.753	73
297.809	-497
297.866	138
297.922	94
297.979	-943
298.035	-347
298.092	-315
298.148	1190
298.204	2522
298.261	752
298.317	1536
298.374	4613
298.430	3760
298.486	1204
298.543	398
298.599	-209
298.656	286
298.712	284
298.768	1766
298.824	68
298.881	111
298.937	-17
298.993	-147
299.050	536
299.106	1183
299.162	54
299.218	431
299.275	264
299.331	734
299.387	1466
299.443	5148
299.500	13638
299.556	10979
299.612	3334
299.668	2445
299.724	8129
299.780	13580
299.837	4584
299.893	2977
299.949	7463
300.005	14660
300.061	8635
300.117	17756
300.173	8486
300.229	2326
300.285	1726
300.341	1435
300.397	12
300.453	226
300.510	592
300.566	1299
300.622	3234
300.678	15159
300.734	21267
300.790	10420
300.845	7539
300.901	9426
300.957	14397
301.013	6561
301.069	2074
301.125	1493
301.181	1324
301.237	805
301.293	5
301.349	-154
301.405	-53
301.461	-190
301.516	967
301.572	300
301.628	-67
301.684	1175
301.740	1074
301.796	1092
301.851	951
301.907	1002
301.963	1657
302.019	3519
302.074	13171
302.130	14766
302.186	6304
302.242	2639
302.297	865
302.353	753
302.409	1170
302.464	1266
302.520	755
302.576	3525
302.631	4093
302.687	2030
302.743	372
302.798	66
302.854	-100
302.910	373
302.965	-281
303.021	68
303.076	515
303.132	581
303.187	730
303.243	69
303.299	-330
303.354	-166
303.410	100
303.465	-651
303.521	400
303.576	90
303.632	46
303.687	606
303.743	2805
303.798	3402
303.853	6
303.909	-140
303.964	56
304.020	-50
304.075	-377
304.130	102
304.186	420
304.241	1219
304.297	1053
304.352	299
304.358	257
304.407	-89
304.449	305
304.463	440
304.518	700
304.539	420
304.573	-46
304.629	398
304.630	409
304.684	923
304.720	1937
304.739	2439
304.794	5383
304.811	4616
304.850	2752
304.902	395
304.905	244
304.960	183
304.992	316
305.015	404
305.071	60
305.083	162
305.126	505
305.173	320
305.181	297
305.236	-538
305.264	130
305.292	762
305.347	294
305.354	312
305.402	520
305.445	75
305.457	-75
305.512	-50
305.535	310
305.567	891
305.622	320
305.626	388
305.678	1606
305.716	2302
305.733	2515
305.788	3373
305.807	2896
305.843	2108
305.897	3290
305.898	3302
305.953	4200
305.988	2763
306.008	2001
306.063	1006
306.078	754
306.118	188
306.168	371
306.173	381
306.228	745
306.259	355
306.283	117
306.338	464
306.349	541
306.393	639
306.440	776
306.448	818
306.503	75
306.530	330
306.558	679
306.613	429
306.620	500
306.668	1247
306.711	2642
306.723	2820
306.778	1687
306.801	1340
306.833	1264
306.888	949
306.892	941
306.943	520
306.982	34
306.997	-47
307.052	1005
307.072	1025
307.107	986
307.162	705
307.163	702
307.217	751
307.253	801
307.272	799
307.327	527
307.343	647
307.381	921
307.434	1033
307.436	1051
307.491	1449
307.524	1595
307.546	1562
307.600	1788
307.614	1705
307.655	1531
307.704	1120
307.710	1081
307.765	889
307.795	980
307.819	1054
307.874	1098
307.885	1068
307.929	1235
307.975	2139
307.984	2291
308.038	1930
308.065	2237
308.093	3360
308.148	5712
308.156	6557
308.202	10866
308.246	13609
308.257	13497
308.312	6915
308.336	4929
308.366	4027
308.421	3342
308.426	3303
308.475	3100
308.517	2912
308.530	2774
308.585	2743
308.607	2521
308.639	2685
308.694	3286
308.697	3347
308.748	3839
308.787	3444
308.803	3461
308.857	3878
308.877	4259
308.912	5188
308.967	6563
308.967	6581
309.021	10091
309.058	13478
309.076	15142
309.130	21077
309.148	22392
309.185	28516
309.238	38952
309.239	39130
309.293	51225
309.328	54587
309.348	51088
309.402	33293
309.418	28628
309.457	23114
309.508	17787
309.511	17845
309.566	21333
309.598	24792
309.620	30729
309.674	49946
309.688	54893
309.729	54333
309.778	45753
309.783	44614
309.837	28880
309.868	20701
309.892	17666
309.946	12780
309.959	11950
310.001	10537
310.049	9276
310.055	9010
310.109	6778
310.139	5488
310.163	4729
310.218	3281
310.229	3019
310.272	2943
310.319	2864
310.326	2811
310.381	2677
310.409	2486
310.435	2511
310.489	2922
310.499	2936
310.543	2599
310.589	2488
310.598	2547
310.652	2740
310.679	2745
310.706	2424
310.760	1985
310.769	1900
310.814	2338
310.859	2832
310.868	2783
310.923	2302
310.948	2106
310.977	2383
311.031	2900
311.038	2983
311.085	2443
311.128	1710
311.139	1780
311.193	2147
311.218	2380
311.247	2341
311.301	2153
311.308	2121
311.356	1938
311.398	1764
311.410	1821
311.464	2147
311.488	2242
311.518	2089
311.572	1835
311.578	1798
311.626	1763
311.668	1748
311.680	1832
311.734	2154
311.758	2294
311.788	2248
311.842	2148
311.847	2131
311.896	2417
311.937	2649
311.950	2548
312.004	2059
312.027	1853
312.058	1903
312.112	1972
312.117	1979
312.165	1968
312.207	1965
312.297	2393
312.386	2157
312.476	2349
312.566	1749
312.656	2643
312.745	1891
312.835	3133
312.925	1272
313.015	2795
313.104	1365
313.194	2650
313.284	2360
313.374	2244
313.463	2605
313.553	3307
313.643	2187
313.732	3830
313.822	3544
313.912	3720
314.001	4327
314.091	4140
314.180	2496
314.270	4666
314.360	3228
314.449	3869
314.539	4025
314.628	4579
314.718	2877
314.808	3799
314.897	3530
314.987	4767
315.076	5473
315.166	5159
315.255	4908
315.345	4852
315.434	3620
315.524	4692
315.613	4672
315.703	6192
315.792	13414
315.881	39250
315.971	11024
316.060	5707
316.150	3997
316.239	3608
316.328	3733
316.418	3966
316.507	4216
316.597	5440
316.686	4909
316.775	4309
316.865	3798
316.954	3921
317.043	3901
317.133	3064
317.222	2798
317.311	2906
317.400	2010
317.490	3961
317.579	3569
317.668	4307
317.757	6767
317.847	22175
317.936	57879
318.025	18392
318.114	16324
318.203	7821
318.293	4471
318.382	5976
318.471	7457
318.560	6216
318.649	4492
318.738	3198
318.828	3627
318.917	2519
319.006	2355
319.095	2349
319.184	3266
319.273	3120
319.362	3433
319.451	1918
319.540	2140
319.629	2800
319.718	4047
319.807	2967
319.896	2359
319.985	4524
320.074	3284
320.163	2873
320.252	2446
320.341	2957
320.430	2825
320.519	3636
320.608	3451
320.697	5038
320.786	4162
320.875	5652
320.964	6264
321.053	6013
321.142	6110
321.230	8344
321.319	8767
321.408	10131
321.497	9301
321.586	7988
321.675	6456
321.764	6546
321.852	5506
321.941	6570
322.030	5866
322.119	6915
322.207	8329
322.296	10462
322.385	10503
322.474	13339
322.562	13485
322.651	11250
322.740	7887
322.829	7486
322.917	5391
323.006	5090
323.095	5239
323.183	4603
323.272	4043
323.361	4288
323.449	4842
323.538	3642
323.626	3518
323.715	3612
323.804	3059
323.892	3623
323.981	3929
324.069	4630
324.158	2732
324.246	3751
324.335	3579
324.424	4389
324.512	3364
324.601	3012
324.689	2311
324.778	3792
324.866	3176
324.954	3010
325.043	2102
325.131	2701
325.220	3858
325.308	2154
325.397	1896
325.485	3098
325.574	1593
325.662	2643
325.750	2350
325.839	4040
325.927	3116
326.015	2612
326.104	1662
326.192	3275
326.280	2368
326.369	3310
326.457	2072
326.545	2882
326.634	2977
326.722	2869
326.810	2745
326.898	3814
326.987	3087
327.075	2976
327.163	3543
327.251	2915
327.340	2908
327.428	4825
327.516	4732
327.604	4916
327.692	2907
327.781	3210
327.869	2396
327.957	2971
328.045	2087
328.133	2794
328.221	1839
328.309	2605
328.397	2208
328.485	3799
328.574	5618
328.662	7630
328.750	4632
328.838	2700
328.926	2609
329.014	2678
329.102	2712
329.190	3169
329.278	2693
329.366	3277
329.454	2234
329.542	3021
329.630	1773
329.718	2877
329.806	3221
329.893	3199
329.981	1572
330.069	3353
330.157	3393
330.245	4757
330.333	3425
330.421	2925
330.509	2754
330.597	3819
330.684	2398
330.772	3105
330.860	2464
330.948	2455
331.036	2563
331.123	2477
331.211	2294
331.299	2870
331.387	2386
331.475	2513
331.562	2863
331.650	3206
331.738	2179
331.825	2675
331.913	2168
332.001	2601
332.089	2069
332.176	2550
332.264	2889
332.352	1571
332.439	2418
332.527	3129
332.614	2102
332.702	3200
332.790	2828
332.877	4362
332.965	8003
333.052	7318
333.140	8568
333.228	20592
333.315	6182
333.403	4042
333.490	4024
333.578	9661
333.665	29723
333.753	12477
333.840	4449
333.928	4513
334.015	5537
334.103	5663
334.190	7665
334.278	9713
334.365	14489
334.452	14415
334.540	9510
334.627	8979
334.715	10832
334.802	15735
334.889	24470
334.977	35351
335.064	23381
335.151	10476
335.239	8041
335.326	6427
335.413	6337
335.501	7654
335.588	7032
335.675	7988
335.762	10049
335.850	12773
335.937	17573
336.024	30293
336.111	47967
336.199	45509
336.286	20037
336.373	12263
336.460	8038
336.547	6507
336.635	5312
336.722	4806
336.809	4692
336.896	3846
336.983	3645
337.070	4585
337.157	4443
337.245	4873
337.332	3996
337.419	4312
337.506	3552
337.593	4280
337.680	3822
337.767	4666
337.854	3232
337.941	3509
338.028	4011
338.115	2693
338.202	3907
338.289	2953
338.376	2904
338.463	2843
338.550	2380
338.637	3233
338.724	2880
338.811	4021
338.898	2846
338.984	3000
339.071	2176
339.158	3537
339.245	2878
339.332	3786
339.419	2888
339.506	3307
339.593	2323
339.679	3541
339.766	2455
339.853	2810
339.940	3084
340.027	2936
340.113	2591
340.200	3819
340.287	2804
340.374	3253
340.460	2758
340.547	1816
340.634	3026
340.720	4784
340.807	2980
340.894	3079
340.980	3250
341.067	3182
341.154	3013
341.240	3285
341.327	2694
341.414	3616
341.500	2138
341.587	3942
341.674	2585
341.760	3540
341.847	3276
341.933	2916
342.020	1826
342.106	2976
342.193	2837
342.279	2541
342.366	2316
342.452	3411
342.539	2218
342.625	2945
342.712	3931
342.798	3400
342.885	2065
342.971	2831
343.058	2621
343.144	2634
343.230	2887
343.317	3080
343.403	1696
343.490	2447
343.576	1846
343.662	3211
343.749	2071
343.835	3186
343.921	3553
344.008	10189
344.094	16988
344.180	5618
344.267	2815
344.353	5229
344.439	4360
344.525	3146
344.612	2903
344.698	2803
344.784	2607
344.870	2179
344.957	2200
345.043	3346
345.129	2377
345.215	2538
345.301	2631
345.387	2223
345.474	2359
345.560	2880
345.646	1621
345.732	3155
345.818	2407
345.904	2819
345.990	2917
346.076	2796
346.162	2015
346.249	3266
346.335	2069
346.421	3076
346.507	3275
346.593	7090
346.679	2978
346.765	4095
346.851	5154
346.937	4018
347.023	2919
347.108	3005
347.194	2480
347.280	3183
347.366	3858
347.452	11014
347.538	14475
347.624	9751
347.710	5428
347.796	3365
347.882	2159
347.967	3288
348.053	2879
348.139	3130
348.225	2560
348.311	2750
348.397	2386
348.482	3282
348.568	3627
348.654	5335
348.740	14499
348.825	13197
348.911	7273
348.997	6614
349.083	9335
349.168	3651
349.254	2958
349.340	3371
349.425	2777
349.511	4226
349.597	2833
349.682	3809
349.768	5605
349.854	3599
349.939	3091
350.025	3208
350.110	2527
350.196	2878
350.282	2335
350.367	3853
350.453	3012
350.538	3316
350.624	2500
350.709	3645
350.795	3011
350.880	3170
350.966	2893
351.051	3025
351.137	2275
351.222	3673
351.308	2871
351.393	4637
351.479	2821
351.564	3163
351.649	2920
351.735	4045
351.820	2891
351.906	3074
351.991	1957
352.076	4040
352.162	4624
352.247	2855
352.332	2637
352.418	3088
352.503	2710
352.588	5748
352.673	3730
352.759	3285
352.844	2569
352.929	2411
353.014	2488
353.100	3537
353.185	2989
353.270	3931
353.355	2919
353.441	4189
353.526	2570
353.611	3279
353.696	1985
353.781	3933
353.866	1519
353.952	3522
354.037	1815
354.122	3463
354.207	2846
354.292	2729
354.377	3614
354.462	3460
354.547	2249
354.632	4188
354.717	3578
354.802	3590
354.887	2564
354.972	3005
355.057	2363
355.142	2204
355.227	3541
355.312	3339
355.397	2448
355.482	4487
355.567	2945
355.652	4314
355.737	3043
355.822	6680
355.907	4871
355.991	4043
356.076	2431
356.161	4193
356.246	2598
356.331	3529
356.416	3213
356.501	10769
356.585	8743
356.670	2540
356.755	4619
356.840	4126
356.924	8792
357.009	19549
357.094	8139
357.179	3863
357.263	3161
357.348	4923
357.433	3519
357.517	4289
357.602	3517
357.687	3692
357.771	4022
357.856	4345
357.941	3870
358.025	7295
358.110	22988
358.195	9809
358.279	3529
358.364	3684
358.448	4919
358.533	8944
358.617	6741
358.702	6468
358.787	4313
358.871	3257
358.956	3596
359.040	2764
359.125	3061
359.209	2971
359.294	2809
359.378	5457
359.462	4435
359.547	3944
359.631	2660
359.716	2725
359.800	2259
359.885	4366
359.969	1946
360.053	3222
360.138	3499
360.222	2781
360.306	3483
360.391	2936
360.475	3414
360.559	4100
360.644	4400
360.728	2355
360.812	8043
360.896	12792
360.981	5251
361.065	3262
361.149	3936
361.233	3497
361.318	2403
361.402	3360
361.486	3628
361.570	3755
361.654	3468
361.739	5219
361.823	10450
361.907	15956
361.991	5950
362.075	6748
362.159	8470
362.243	15940
362.327	35650
362.411	54404
362.495	21413
362.580	10432
362.664	10354
362.748	10477
362.832	16375
362.916	33122
363.000	88513
363.084	121291
363.168	52804
363.252	17031
363.336	10638
363.420	9239
363.503	7199
363.587	6906
363.671	6520
363.755	6895
363.839	8622
363.923	7111
364.007	10229
364.091	13145
364.175	18091
364.258	40731
364.342	95964
364.426	163529
364.510	87651
364.594	30003
364.677	15708
364.761	16325
364.845	12869
364.929	6603
365.013	5291
365.096	5195
365.180	4294
365.264	4270
365.347	5409
365.431	4021
365.515	3008
365.598	3701
365.682	4873
365.766	3204
365.849	3579
365.933	3918
366.017	5455
366.100	3999
366.184	3902
366.267	5031
366.351	4053
366.435	3916
366.518	3496
366.602	3519
366.685	3661
366.769	4074
366.852	4253
366.936	5413
367.019	3664
367.103	3790
367.186	5423
367.270	3908
367.353	3581
367.436	6041
367.520	3795
367.603	5713
367.687	4147
367.770	3910
367.853	5542
367.937	7313
368.020	7671
368.104	4473
368.187	4339
368.270	4627
368.353	3058
368.437	3805
368.520	3640
368.603	3235
368.687	4087
368.770	7367
368.853	3219
368.936	4492
369.020	3853
369.103	3743
369.186	3546
369.269	2985
369.352	4146
369.436	3657
369.519	3527
369.602	2268
369.685	5556
369.768	2197
369.851	3936
369.934	3260
370.018	2953
370.101	3087
370.184	5150
370.267	4503
370.350	3854
370.433	5352
370.516	12605
370.599	26668
370.682	10109
370.765	8078
370.848	7901
370.931	8575
371.014	6957
371.097	4627
371.180	5112
371.263	6506
371.346	3557
371.429	5767
371.511	5184
371.594	5035
371.677	5817
371.760	7333
371.843	6413
371.926	15112
372.009	23419
372.091	16437
372.174	10380
372.257	14323
372.340	9403
372.423	9345
372.505	8634
372.588	7024
372.671	8224
372.754	9807
372.836	7820
372.919	7879
373.002	7710
373.085	6510
373.167	7543
373.250	7738
373.332	11321
373.415	16715
373.498	25589
373.580	16440
373.663	38663
373.746	37076
373.828	9181
373.911	7669
373.993	4705
374.076	5435
374.159	5253
374.241	5608
374.324	8380
374.406	8346
374.489	9980
374.571	21346
374.654	10085
374.736	7298
374.819	14480
374.901	21003
374.983	19071
375.066	8109
375.148	5890
375.231	5817
375.313	6656
375.395	5992
375.478	6323
375.560	6556
375.643	6292
375.725	8411
375.807	16232
375.890	12925
375.972	4201
376.054	5000
376.136	4762
376.219	4706
376.301	8053
376.383	13047
376.465	6548
376.548	4091
376.630	5535
376.712	12091
376.794	5966
376.877	4982
376.959	2552
377.041	3573
377.123	3428
377.205	3865
377.287	2853
377.369	4965
377.452	4185
377.534	4355
377.616	3267
377.698	4482
377.780	2939
377.862	4487
377.944	5238
378.026	2922
378.108	4484
378.190	4044
378.272	4445
378.354	4179
378.436	3877
378.518	3634
378.600	3894
378.682	5220
378.764	5784
378.846	5340
378.928	3257
379.010	4062
379.091	3769
379.173	4926
379.255	3291
379.337	4667
379.419	4391
379.501	8898
379.583	4965
379.664	3805
379.746	3815
379.828	7450
379.910	6258
379.991	8347
380.073	3346
380.155	4378
380.237	4288
380.318	4698
380.400	3594
380.482	5424
380.564	5099
380.645	4813
380.727	4384
380.809	5513
380.890	4714
380.972	3238
381.053	4622
381.135	6055
381.217	5392
381.298	8260
381.380	5819
381.461	7345
381.543	11806
381.624	13828
381.706	6250
381.787	7155
381.869	8015
381.951	10203
382.032	21320
382.113	17295
382.195	6297
382.276	10607
382.358	9728
382.439	15710
382.521	20119
382.602	27517
382.684	22268
382.765	36073
382.846	85504
382.928	169112
383.009	99847
383.090	87723
383.172	200709
383.253	231438
383.334	91301
383.416	46804
383.497	35812
383.578	41728
383.659	75512
383.741	186032
383.822	291452
383.903	165603
383.984	61873
384.066	40094
384.147	23838
384.228	17188
384.309	14057
384.390	13266
384.471	12511
384.553	12109
384.634	10782
384.715	10873
384.796	9271
384.877	10070
384.958	13452
385.039	11316
385.120	8241
385.201	9026
385.282	7927
385.363	10306
385.444	11177
385.525	12185
385.606	15111
385.687	13832
385.768	9320
385.849	7863
385.930	15042
386.011	21704
386.092	9786
386.173	8769
386.254	8004
386.335	7671
386.416	6793
386.496	8799
386.577	9241
386.658	7123
386.739	6040
386.820	8590
386.901	7010
386.981	9835
387.062	9946
387.143	10348
387.224	12182
387.304	14213
387.385	13466
387.466	10336
387.547	12334
387.627	11389
387.708	12949
387.789	16133
387.869	15306
387.950	11694
388.031	8207
388.111	6444
388.192	9943
388.273	10242
388.353	8393
388.434	6843
388.514	6750
388.595	13070
388.676	12920
388.756	8516
388.837	7657
388.917	6209
388.998	3554
389.078	6088
389.159	5581
389.239	4695
389.320	6716
389.400	3590
389.480	6220
389.561	7832
389.641	6760
389.722	5558
389.802	4401
389.883	6547
389.963	9962
390.043	6914
390.124	3350
390.204	7147
390.284	7813
390.365	5942
390.445	5568
390.525	5071
390.605	6484
390.686	4846
390.766	6557
390.846	6288
390.927	4435
391.007	4754
391.087	5805
391.167	6110
391.247	5032
391.328	6367
391.408	6561
391.488	7373
391.568	4472
391.648	6328
391.728	7057
391.808	8496
391.888	6916
391.969	8398
392.049	9410
392.129	8965
392.209	8882
392.289	13245
392.369	11319
392.449	11063
392.529	11831
392.609	14719
392.689	15418
392.769	20788
392.849	22576
392.929	29494
393.009	39905
393.089	56177
393.169	102338
393.248	231280
393.328	450078
393.408	415480
393.488	197265
393.568	91049
393.648	50829
393.728	32868
393.807	22859
393.887	20400
393.967	16177
394.047	13798
394.127	10497
394.206	11718
394.286	12897
394.366	31453
394.446	30352
394.525	11116
394.605	8192
394.685	8203
394.764	9208
394.844	14944
394.924	19401
395.003	9350
395.083	6090
395.163	7195
395.242	6536
395.322	7010
395.402	4632
395.481	7620
395.561	7981
395.640	23866
395.720	45020
395.799	21446
395.879	8564
395.958	8538
396.038	14850
396.117	41339
396.197	41837
396.276	17468
396.356	13910
396.435	17652
396.515	24011
396.594	36439
396.673	79051
396.753	213649
396.832	395405
396.912	276809
396.991	101595
397.070	46705
397.150	26228
397.229	24639
397.308	40184
397.388	67355
397.467	32477
397.546	14106
397.625	7779
397.705	10757
397.784	7787
397.863	7708
397.942	6868
398.022	7155
398.101	4814
398.180	6824
398.259	5584
398.338	6592
398.417	4200
398.497	4945
398.576	5713
398.655	4935
398.734	4709
398.813	4585
398.892	4206
398.971	5273
399.050	3636
399.129	3582
399.208	4313
399.287	4751
399.366	2173
399.445	3819
399.524	3052
399.603	2994
399.682	3540
399.761	3805
399.840	4041
399.919	4113
399.998	3294
400.077	3125
400.156	1995
400.235	5786
400.313	2988
400.392	2938
400.471	4427
400.550	5033
400.629	2280
400.708	4481
400.786	1854
400.865	3015
400.944	1845
401.023	4746
401.102	2092
401.180	3615
401.259	1876
401.338	2886
401.416	2250
401.495	1930
401.574	3722
401.652	2086
401.731	3416
401.810	2005
401.888	2151
401.967	2955
402.046	2208
402.124	3150
402.203	1438
402.281	3326
402.360	1403
402.438	2845
402.517	932
402.596	3006
402.674	1609
402.753	2029
402.831	2476
402.910	3627
402.988	3453
403.066	8183
403.145	6162
403.223	4971
403.302	7329
403.380	7761
403.459	6337
403.537	4140
403.615	2252
403.694	2534
403.772	3710
403.850	3496
403.929	3530
404.007	2439
404.085	3950
404.164	2448
404.242	2331
404.320	4090
404.398	5469
404.477	5254
404.555	13151
404.633	10793
404.711	4921
404.789	4336
404.868	2228
404.946	1815
405.024	2747
405.102	1936
405.180	1945
405.258	1296
405.336	2328
405.415	2022
405.493	2555
405.571	3341
405.649	2395
405.727	1604
405.805	2991
405.883	4427
405.961	3559
406.039	1947
406.117	1104
406.195	2598
406.273	2550
406.351	9549
406.429	6732
406.507	2124
406.585	2054
406.663	2453
406.740	1826
406.818	1093
406.896	1085
406.974	2946
407.052	1473
407.130	5976
407.208	6486
407.285	3626
407.363	1404
407.441	2824
407.519	2113
407.596	2463
407.674	4906
407.752	12649
407.830	8800
407.907	3302
407.985	718
408.063	2960
408.141	1075
408.218	2531
408.296	1454
408.373	2356
408.451	3551
408.529	3400
408.606	2187
408.684	3745
408.762	3417
408.839	4176
408.917	3871
408.994	3996
409.072	4075
409.149	5887
409.227	9598
409.304	14106
409.382	14727
409.459	17611
409.537	22474
409.614	18219
409.692	14074
409.769	14837
409.846	22644
409.924	26788
410.001	16617
410.079	12984
410.156	9409
410.233	7943
410.311	5394
410.388	5961
410.465	4780
410.543	4884
410.620	5559
410.697	4964
410.775	4424
410.852	4273
410.929	6055
411.006	6314
411.083	4521
411.161	5246
411.238	4901
411.315	4413
411.392	3512
411.469	4212
411.547	3264
411.624	2779
411.701	3071
411.778	3977
411.855	3320
411.932	2635
412.009	2449
412.086	2657
412.163	2630
412.240	2829
412.317	2365
412.394	2077
412.471	2105
412.548	2781
412.625	2666
412.702	2631
412.779	2637
412.856	2202
412.933	1644
413.010	2225
413.087	2253
413.164	3256
413.241	3394
413.318	2332
413.395	3182
413.471	2658
413.548	2038
413.625	3239
413.702	1463
413.779	2550
413.855	2150
413.932	2093
414.009	1453
414.086	2598
414.162	1879
414.239	2819
414.316	3158
414.393	5293
414.469	1799
414.546	1621
414.623	1970
414.699	1905
414.776	1454
414.853	1955
414.929	2686
415.006	2148
415.082	1923
415.159	1577
415.236	1707
415.312	2064
415.389	2986
415.465	1953
415.542	1198
415.618	1195
415.695	1570
415.771	1153
415.848	2309
415.924	2309
416.000	693
416.077	3363
416.153	779
416.230	692
416.306	1736
416.383	1961
416.459	2020
416.535	1666
416.612	1080
416.688	2473
416.764	2169
416.841	2200
416.917	2246
416.993	2694
417.069	1858
417.146	1535
417.222	1393
417.298	1904
417.374	1646
417.451	2426
417.527	1599
417.603	2048
417.679	1673
417.755	2649
417.831	399
417.908	1756
417.984	1588
418.060	1265
418.136	2213
418.212	1543
418.288	1576
418.364	2210
418.440	1202
418.516	2715
418.592	1586
418.668	2484
418.744	1995
418.820	2432
418.896	1874
418.972	1391
419.048	1596
419.124	3148
419.200	842
419.276	2895
419.352	1956
419.428	2605
419.504	1902
419.579	2494
419.655	1954
419.731	2553
419.807	2594
419.883	2988
419.959	2618
420.034	2944
420.110	2202
420.186	3176
420.262	4117
420.337	3731
420.413	3199
420.489	3741
420.565	4675
420.640	4325
420.716	3621
420.792	4295
420.867	6020
420.943	5082
421.019	5917
421.094	4972
421.170	6152
421.245	6411
421.321	7736
421.397	7808
421.472	11091
421.548	14511
421.623	13120
421.699	12027
421.774	12705
421.850	13531
421.925	16508
422.001	19812
422.076	23388
422.152	30017
422.227	37791
422.302	52047
422.378	71471
422.453	106625
422.529	148584
422.604	154874
422.679	125813
422.755	141309
422.830	140301
422.905	106779
422.981	75855
423.056	57871
423.131	43817
423.207	34204
423.282	27103
423.357	23079
423.432	18807
423.508	17378
423.583	14326
423.658	13302
423.733	11328
423.808	10898
423.883	10314
423.959	10954
424.034	12689
424.109	12817
424.184	8130
424.259	7654
424.334	7027
424.409	6166
424.484	5026
424.559	5643
424.634	3889
424.709	4271
424.784	3557
424.859	4106
424.934	4441
425.009	5125
425.084	5370
425.159	3892
425.234	3564
425.309	3368
425.384	3193
425.459	2637
425.534	3233
425.609	2907
425.683	1988
425.758	2970
425.833	2425
425.908	3042
425.983	3223
426.058	4733
426.132	3321
426.207	2895
426.282	3516
426.357	2408
426.431	3607
426.506	3046
426.581	2157
426.655	2543
426.730	2167
426.805	1876
426.879	2314
426.954	2893
427.029	1640
427.103	4596
427.178	7340
427.253	4481
427.327	1520
427.402	1496
427.476	1521
427.551	1889
427.625	1936
427.700	2135
427.774	1802
427.849	2419
427.923	2184
427.998	2634
428.072	1547
428.147	6753
428.221	27192
428.296	73599
428.370	38366
428.444	7060
428.519	3148
428.593	2497
428.667	2943
428.742	3947
428.816	10926
428.890	49384
428.965	64117
429.039	17181
429.113	3959
429.188	2850
429.262	1659
429.336	2091
429.410	2698
429.485	3180
429.559	2246
429.633	3439
429.707	3169
429.781	9568
429.855	44489
429.930	58383
430.004	15554
430.078	10215
430.152	32204
430.226	99868
430.300	90426
430.374	21134
430.448	7250
430.522	4418
430.596	4747
430.670	17762
430.744	58636
430.818	59274
430.892	12027
430.966	2945
431.040	2581
431.114	982
431.188	1232
431.262	1174
431.336	556
431.410	2113
431.484	1771
431.557	2631
431.631	2001
431.705	4947
431.779	22472
431.853	71829
431.927	45768
432.000	7837
432.074	2191
432.148	1387
432.222	568
432.295	1655
432.369	903
432.443	770
432.516	2598
432.590	7176
432.664	2068
432.737	422
432.811	622
432.885	366
432.958	863
433.032	406
433.106	458
433.179	906
433.253	-87
433.326	793
433.400	632
433.473	667
433.547	-70
433.620	696
433.694	399
433.767	980
433.841	192
433.914	1057
433.988	621
434.061	505
434.134	-88
434.208	580
434.281	45
434.355	321
434.428	1133
434.501	1037
434.575	76
434.648	813
434.721	-193
434.795	760
434.868	-128
434.941	1424
435.014	73
435.088	1441
435.161	2168
435.234	3795
435.307	3799
435.381	4199
435.454	6509
435.527	11921
435.600	11442
435.673	9026
435.746	6910
435.819	4550
435.892	3393
435.966	3026
436.039	1838
436.112	2571
436.185	552
436.258	1039
436.331	719
436.404	1067
436.477	984
436.550	1108
436.623	1192
436.696	674
436.769	647
436.842	1271
436.915	-67
436.987	1150
437.060	1325
437.133	615
437.206	-126
437.279	1656
437.352	324
437.425	305
437.498	6
437.570	1001
437.643	147
437.716	879
437.789	-129
437.861	690
437.934	1229
438.007	492
438.080	52
438.152	256
438.225	1006
438.298	4729
438.370	10534
438.443	4514
438.516	796
438.588	1192
438.661	253
438.734	399
438.806	743
438.879	1072
438.951	838
439.024	1382
439.096	617
439.169	920
439.241	117
439.314	844
439.386	261
439.459	1744
439.531	471
439.604	808
439.676	1143
439.749	778
439.821	497
439.893	1904
439.966	501
440.038	687
440.110	132
440.183	795
440.255	550
440.327	2398
440.400	1916
440.472	5836
440.544	2832
440.617	852
440.689	544
440.761	1521
440.833	1170
440.905	1934
440.978	546
441.050	466
441.122	552
441.194	328
441.266	718
441.338	1008
441.411	1148
441.483	2236
441.555	2428
441.627	889
441.699	1255
441.771	379
441.843	678
441.915	1677
441.987	1510
442.059	1955
442.131	1849
442.203	2559
442.275	2779
442.347	6732
442.419	14219
442.491	62349
442.563	113178
442.635	46447
442.706	9847
442.778	5463
442.850	3381
442.922	3201
442.994	2653
443.066	4417
443.137	4533
443.209	6354
443.281	9434
443.353	22152
443.425	72408
443.496	172817
443.568	172484
443.640	73630
443.711	19033
443.783	9050
443.855	5145
443.926	4592
443.998	2605
444.070	3335
444.141	2921
444.213	2291
444.285	1855
444.356	2272
444.428	1783
444.499	2873
444.571	1879
444.642	2613
444.714	1501
444.785	2696
444.857	2038
444.928	2616
445.000	3629
445.071	4398
445.143	6781
445.214	10055
445.285	16089
445.357	41743
445.428	125152
445.500	195914
445.571	163642
445.642	109699
445.714	38818
445.785	13515
445.856	6315
445.928	4778
445.999	2733
446.070	2939
446.141	2270
446.213	2627
446.284	1845
446.355	2076
446.426	320
446.497	778
446.569	1076
446.640	727
446.711	814
446.782	865
446.853	302
446.924	1171
446.995	-146
447.066	902
447.138	494
447.209	790
447.280	-371
447.351	270
447.422	-173
447.493	301
447.564	-863
447.635	-223
447.706	-287
447.777	439
447.847	461
447.918	-185
447.989	116
448.060	550
448.131	-149
448.202	338
448.273	-485
448.344	694
448.414	66
448.485	976
448.556	532
448.627	-211
448.698	1272
448.768	757
448.839	-842
448.910	19
448.981	54
449.051	747
449.122	-168
449.193	789
449.263	-263
449.334	317
449.405	273
449.475	609
449.546	-472
449.616	160
449.687	1289
449.758	597
449.828	-44
449.899	-6
449.969	-783
450.040	-374
450.110	-315
450.181	362
450.251	-189
450.322	816
450.392	448
450.463	644
450.533	-1018
450.604	220
450.674	-506
450.744	266
450.815	-67
450.885	1094
450.955	867
451.026	1345
451.096	-418
451.166	646
451.237	2111
451.307	2442
451.377	519
451.447	-150
451.518	249
451.588	-553
451.658	70
451.728	750
451.799	202
451.869	118
451.939	-463
452.009	58
452.079	17
452.149	369
452.219	-149
452.289	841
452.360	654
452.430	791
452.500	778
452.570	2765
452.640	8123
452.710	22534
452.780	21699
452.850	10731
452.920	4664
452.990	2814
453.060	612
453.129	515
453.199	237
453.269	676
453.339	363
453.409	57
453.479	608
453.549	159
453.619	534
453.688	251
453.758	-4
453.828	195
453.898	-528
453.968	241
454.037	738
454.087	194
454.107	-38
454.168	-464
454.177	-541
454.247	-1
454.249	-19
454.316	-738
454.330	-584
454.386	-55
454.411	-218
454.456	-550
454.492	-284
454.525	-61
454.574	-49
454.595	-53
454.655	90
454.665	102
454.734	-50
454.736	-27
454.804	357
454.817	190
454.873	-622
454.898	-461
454.943	-156
454.979	220
455.013	482
455.060	511
455.082	537
455.141	-185
455.152	-325
455.221	792
455.222	794
455.291	-266
455.303	-189
455.360	29
455.384	386
455.430	983
455.465	881
455.499	762
455.546	266
455.569	16
455.627	562
455.638	647
455.707	-421
455.708	-403
455.777	830
455.789	739
455.846	49
455.869	173
455.916	519
455.950	1004
455.985	1427
456.031	938
456.054	718
456.112	387
456.124	289
456.193	1393
456.193	1383
456.262	1467
456.274	1357
456.332	903
456.355	809
456.401	460
456.436	497
456.470	612
456.516	423
456.540	315
456.597	687
456.609	739
456.678	1350
456.678	1337
456.747	28
456.759	132
456.817	1005
456.840	1196
456.886	1354
456.920	1302
456.955	1280
457.001	1784
457.024	2000
457.082	1803
457.093	1738
457.162	1903
457.163	1917
457.232	1922
457.243	1923
457.301	1763
457.324	1645
457.370	1589
457.405	2051
457.439	2462
457.485	2874
457.508	3127
457.566	4126
457.577	4546
457.646	6541
457.647	6603
457.715	17149
457.727	19582
457.784	35567
457.808	46267
457.853	56453
457.889	62595
457.922	59061
457.969	38145
457.991	39695
458.050	53366
458.060	55959
458.129	95832
458.130	96971
458.198	84122
458.211	74385
458.267	38467
458.292	25248
458.336	17307
458.372	17298
458.405	27017
458.453	43262
458.474	55111
458.533	99761
458.543	102437
458.611	144606
458.614	145134
458.680	76653
458.694	57948
458.749	25450
458.775	17188
458.818	10349
458.855	8222
458.887	7144
458.936	5768
458.955	5229
459.016	4219
459.024	4143
459.093	4273
459.097	4226
459.162	2751
459.177	2723
459.230	3116
459.257	3116
459.299	2954
459.338	3107
459.368	3153
459.418	2618
459.437	2550
459.499	3033
459.505	3040
459.574	2958
459.579	2955
459.643	2478
459.659	2333
459.711	2564
459.740	2644
459.780	2449
459.820	2679
459.849	2872
459.900	3177
459.917	3253
459.981	2701
459.986	2643
460.054	2771
460.061	2779
460.123	2921
460.141	2952
460.191	2887
460.222	2860
460.260	2934
460.302	2919
460.328	3091
460.382	3431
460.397	3351
460.462	3510
460.465	3601
460.534	5050
460.543	5352
460.602	13187
460.623	16175
460.671	24572
460.703	31816
460.739	27694
460.783	19804
460.808	16406
460.864	4913
460.876	4075
460.944	2943
460.945	2928
461.013	3018
461.024	2961
461.081	2829
461.104	2874
461.150	2889
461.184	3186
461.218	3458
461.264	3602
461.286	3637
461.345	2974
461.355	2852
461.423	3032
461.425	3024
461.491	2490
461.505	2521
461.559	2976
461.585	2792
461.628	2205
461.665	2396
461.696	2886
461.745	2948
461.764	2641
461.825	2062
461.832	2182
461.901	2799
461.905	2905
461.969	3070
461.985	2904
462.037	3335
462.065	3727
462.105	3150
462.145	2660
462.173	2948
462.225	3261
462.241	3235
462.305	3263
462.310	3256
462.378	3140
462.385	3128
462.446	3508
462.465	3603
462.514	3502
462.545	3508
462.582	3428
462.625	3241
462.650	3257
462.705	3008
462.718	2933
462.785	3036
462.786	3034
462.854	2515
462.865	2495
462.922	3361
462.945	3605
462.990	3335
463.025	3037
463.058	3141
463.104	3426
463.126	3279
463.184	2980
463.194	3010
463.262	2941
463.264	2949
463.330	3414
463.344	3435
463.398	3981
463.424	4201
463.466	3575
463.504	3265
463.533	3357
463.583	3186
463.601	3276
463.663	3707
463.669	3619
463.737	2781
463.743	2664
463.805	3210
463.823	3544
463.873	3632
463.903	3407
463.940	3398
463.982	3532
464.008	3617
464.062	3539
464.076	3410
464.142	3265
464.144	3277
464.211	2902
464.221	2933
464.279	3244
464.301	3288
464.347	3210
464.381	3127
464.414	3248
464.461	3525
464.482	3481
464.540	3186
464.550	3184
464.617	3096
464.620	3096
464.685	3866
464.699	3995
464.753	3598
464.779	3401
464.820	3501
464.859	3543
464.888	3094
464.938	2467
464.956	2836
465.018	3861
465.023	3874
465.091	4243
465.098	4257
465.158	3821
465.177	3732
465.226	3628
465.257	3455
465.293	3275
465.336	3086
465.361	3442
465.416	4207
465.428	4191
465.495	4224
465.496	4228
465.563	3413
465.575	3328
465.631	3512
465.654	3570
465.698	3947
465.734	4205
465.765	4038
465.813	3609
465.833	3688
465.893	4194
465.900	4156
465.968	3576
465.972	3534
466.035	3552
466.052	3512
466.102	3632
466.131	3794
466.170	3782
466.210	3656
466.237	3845
466.290	4189
466.304	4132
466.369	3816
466.372	3819
466.439	3813
466.449	3779
466.506	3267
466.528	3078
466.573	3726
466.607	4207
466.641	4371
466.687	4622
466.708	4695
466.766	4790
466.775	4702
466.842	3989
466.845	3947
466.909	4373
466.925	4480
466.977	5069
467.004	5347
467.044	5406
467.083	5466
467.111	5328
467.163	5009
467.178	4955
467.242	4718
467.245	4728
467.312	4795
467.321	4799
467.379	4729
467.400	4689
467.446	5189
467.480	5536
467.559	6021
467.638	5198
467.717	5476
467.796	5910
467.875	6844
467.955	5609
468.034	6590
468.113	8934
468.192	9759
468.271	13030
468.350	20578
468.429	30787
468.508	31705
468.588	18328
468.667	10587
468.746	7943
468.825	6225
468.904	6567
468.983	5762
469.062	6104
469.141	6559
469.220	5241
469.299	5580
469.378	3829
469.456	5903
469.535	5619
469.614	4879
469.693	5199
469.772	6221
469.851	6110
469.930	6683
470.009	7232
470.088	8687
470.166	14220
470.245	25302
470.324	33894
470.403	21055
470.482	10902
470.560	7192
470.639	6208
470.718	5802
470.797	5331
470.875	6409
470.954	5637
471.033	5759
471.111	4766
471.190	4763
471.269	4769
471.347	3873
471.426	4892
471.505	4641
471.583	4341
471.662	4771
471.740	4617
471.819	4246
471.898	4199
471.976	5165
472.055	3301
472.133	6068
472.212	6200
472.290	4705
472.369	4129
472.447	4689
472.526	4451
472.604	5506
472.683	4901
472.761	5173
472.839	5573
472.918	5907
472.996	5216
473.075	6438
473.153	4995
473.231	4767
473.310	4890
473.388	5490
473.466	5210
473.545	6014
473.623	5644
473.701	6361
473.780	6321
473.858	4000
473.936	6557
474.014	5599
474.093	5363
474.171	6080
474.249	5812
474.327	4834
474.405	4900
474.484	5827
474.562	6249
474.640	6237
474.718	5269
474.796	5356
474.874	5778
474.952	5338
475.030	4976
475.108	5590
475.187	4537
475.265	5607
475.343	5434
475.421	6182
475.499	5173
475.577	5327
475.655	5174
475.733	5023
475.811	5197
475.889	5206
475.966	5489
476.044	5248
476.122	5408
476.200	5090
476.278	4447
476.356	4770
476.434	5084
476.512	5782
476.590	5149
476.667	5916
476.745	3566
476.823	4981
476.901	4985
476.979	4846
477.056	4552
477.134	4744
477.212	5278
477.290	4230
477.367	4832
477.445	5405
477.523	4456
477.601	5179
477.678	5180
477.756	5174
477.834	4272
477.911	5544
477.989	4993
478.066	4575
478.144	4788
478.222	4854
478.299	5709
478.377	5725
478.454	5398
478.532	5061
478.609	4677
478.687	4895
478.764	4425
478.842	4466
478.919	5006
478.997	5857
479.074	4932
479.152	4404
479.229	4372
479.307	4392
479.384	4963
479.461	5431
479.539	4811
479.616	4781
479.694	4739
479.771	4742
479.848	4670
479.926	3272
480.003	5924
480.080	4814
480.157	4540
480.235	4843
480.312	5624
480.389	5224
480.467	4832
480.544	5968
480.621	6077
480.698	6495
480.775	6566
480.853	6497
480.930	5205
481.007	5173
481.084	5155
481.161	7214
481.238	6633
481.315	4821
481.392	5244
481.470	6120
481.547	5661
481.624	5264
481.701	5286
481.778	5657
481.855	5872
481.932	6500
482.009	7422
482.086	7929
482.163	9763
482.240	11347
482.317	12031
482.393	9364
482.470	8436
482.547	8027
482.624	6566
482.701	7748
482.778	6574
482.855	6882
482.932	7306
483.009	7169
483.085	10144
483.162	10450
483.239	11526
483.316	11849
483.393	11500
483.469	9529
483.546	8652
483.623	7505
483.699	6695
483.776	5624
483.853	5471
483.930	5326
484.006	5684
484.083	7532
484.160	6609
484.236	7071
484.313	6302
484.389	6727
484.466	9305
484.543	10745
484.619	15458
484.696	18638
484.772	10642
484.849	8015
484.925	6691
485.002	7302
485.078	6974
485.155	5224
485.231	5045
485.308	6238
485.384	6374
485.461	5695
485.537	5294
485.614	6092
485.690	5104
485.766	5470
485.843	5121
485.919	5512
485.995	6134
486.072	5151
486.148	5558
486.224	5484
486.301	4949
486.377	5442
486.453	4697
486.530	5686
486.606	6139
486.682	7007
486.758	6749
486.835	6562
486.911	4765
486.987	7653
487.063	9298
487.139	10991
487.215	11910
487.292	14023
487.368	14757
487.444	17877
487.520	25367
487.596	40899
487.672	112302
487.748	358949
487.824	525098
487.900	152901
487.976	38258
488.052	21623
488.128	15081
488.204	10572
488.280	10785
488.356	8777
488.432	7537
488.508	8586
488.584	6866
488.660	6655
488.736	6354
488.812	5425
488.888	6031
488.964	6412
489.039	7752
489.115	10408
489.191	8100
489.267	5981
489.343	5433
489.418	4769
489.494	5149
489.570	5402
489.646	7323
489.722	6118
489.797	5422
489.873	5651
489.949	6212
490.024	5427
490.100	5303
490.176	6284
490.251	6277
490.327	7047
490.403	6196
490.478	6458
490.554	5594
490.629	6049
490.705	5881
490.781	6096
490.856	5628
490.932	5734
491.007	6019
491.083	4780
491.158	6306
491.234	6156
491.309	6126
491.385	5046
491.460	4450
491.536	6587
491.611	5182
491.686	6778
491.762	5678
491.837	6191
491.913	7708
491.988	9149
492.063	9228
492.139	5842
492.214	5119
492.289	5762
492.365	5259
492.440	5793
492.515	4613
492.590	5292
492.666	4789
492.741	5415
492.816	4856
492.891	5394
492.967	6120
493.042	5731
493.117	4190
493.192	5708
493.267	6154
493.342	6163
493.418	7519
493.493	5844
493.568	5638
493.643	4644
493.718	5825
493.793	5779
493.868	5646
493.943	5097
494.018	6101
494.093	5705
494.168	5205
494.243	4572
494.318	4880
494.393	6649
494.468	4782
494.543	5598
494.618	5507
494.693	5038
494.768	5596
494.842	5845
494.917	5811
494.992	6140
495.067	5917
495.142	5759
495.217	4705
495.292	5586
495.366	5181
495.441	4958
495.516	6668
495.591	6885
495.665	9974
495.740	15572
495.815	9182
495.890	6210
495.964	4027
496.039	8271
496.114	6294
496.188	8091
496.263	7496
496.338	5729
496.412	5364
496.487	6233
496.561	5843
496.636	5581
496.710	6246
496.785	5885
496.860	5493
496.934	5764
497.009	6012
497.083	6232
497.158	6208
497.232	6937
497.307	7214
497.381	7601
497.455	7865
497.530	6227
497.604	5745
497.679	6576
497.753	6128
497.827	5819
497.902	6233
497.976	7396
498.050	6965
498.125	9270
498.199	9036
498.273	6886
498.348	6311
498.422	7973
498.496	8386
498.570	10133
498.645	5765
498.719	3790
498.793	6036
498.867	4766
498.941	4684
499.016	5996
499.090	8592
499.164	6186
499.238	5916
499.312	6582
499.386	7617
499.460	7177
499.534	8459
499.609	10455
499.683	7532
499.757	5074
499.831	5414
499.905	7380
499.979	5875
500.053	5358
500.127	5466
500.201	5169
500.275	6700
500.349	7117
500.422	7283
500.496	8426
500.570	10092
500.644	14193
500.718	12040
500.792	6379
500.866	5606
500.940	4809
501.013	4963
501.087	3884
501.161	4385
501.235	3989
501.309	7029
501.382	5420
501.456	6351
501.530	4627
501.603	3913
501.677	3973
501.751	3090
501.825	5439
501.898	4332
501.972	4084
502.046	4308
502.119	4141
502.193	5145
502.266	4365
502.340	4198
502.413	4526
502.487	4747
502.561	3926
502.634	4942
502.708	5435
502.781	4364
502.855	5631
502.928	3411
503.002	4206
503.075	3636
503.149	3657
503.222	5017
503.295	3947
503.369	5431
503.442	6315
503.516	7735
503.589	7487
503.662	9281
503.736	10358
503.809	13169
503.882	16704
503.956	28531
504.029	65564
504.102	201706
504.175	283393
504.249	95704
504.322	32161
504.395	17182
504.468	11618
504.542	7750
504.615	6645
504.688	6285
504.761	4383
504.834	6451
504.907	5604
504.980	4916
505.053	4283
505.127	2702
505.200	7419
505.273	3174
505.346	3976
505.419	3180
505.492	5468
505.565	4421
505.638	4084
505.711	2942
505.784	3019
505.857	2694
505.930	4464
506.003	2087
506.076	5353
506.149	2281
506.221	966
506.294	3883
506.367	1690
506.440	3022
506.513	3788
506.586	3233
506.659	2521
506.731	3134
506.804	2670
506.877	2617
506.950	2959
507.022	3581
507.095	2195
507.168	3297
507.241	3727
507.313	2468
507.386	2405
507.459	4830
507.531	2337
507.604	1686
507.677	3756
507.749	1419
507.822	4268
507.894	2788
507.967	3354
508.040	1982
508.112	3180
508.185	3245
508.257	1844
508.330	4432
508.402	3304
508.475	2586
508.547	3456
508.620	3651
508.692	3315
508.765	3342
508.837	3103
508.909	3075
508.982	3065
509.054	3653
509.127	2632
509.199	2417
509.271	2157
509.344	2332
509.416	3357
509.488	2284
509.560	3058
509.633	3284
509.705	2689
509.777	2205
509.849	3091
509.922	2066
509.994	3002
510.066	4080
510.138	1239
510.210	4693
510.283	2936
510.355	3422
510.427	4343
510.499	3228
510.571	2318
510.643	1976
510.715	3690
510.787	2260
510.859	4417
510.931	2574
511.003	3945
511.076	4191
511.148	2087
511.219	1477
511.291	3026
511.363	3287
511.435	3660
511.507	1891
511.579	3438
511.651	3249
511.723	3136
511.795	2727
511.867	2513
511.939	2483
512.010	2697
512.082	3534
512.154	1385
512.226	3011
512.298	3373
512.369	3074
512.441	3538
512.513	3420
512.585	1366
512.656	3812
512.728	2854
512.800	2140
512.871	4276
512.943	3008
513.015	1220
513.086	3977
513.158	3308
513.230	2341
513.301	3238
513.373	4257
513.444	3819
513.516	3073
513.588	2851
513.659	2969
513.731	3177
513.802	1286
513.874	5868
513.945	4783
514.016	2100
514.088	4037
514.159	2885
514.231	4070
514.302	3683
514.374	2866
514.445	1765
514.516	4332
514.588	2995
514.659	2337
514.730	2575
514.802	5027
514.873	1732
514.944	5799
515.016	4015
515.087	2955
515.158	3169
515.229	5104
515.301	2981
515.372	4287
515.443	3850
515.514	3678
515.585	3113
515.656	4841
515.728	6319
515.799	3764
515.870	5455
515.941	5349
516.012	4368
516.083	7773
516.154	7158
516.225	9820
516.296	12058
516.367	13296
516.438	15646
516.509	20566
516.580	40367
516.651	157231
516.722	486909
516.793	160095
516.864	30917
516.935	27636
517.006	34125
517.077	49457
517.148	128293
517.219	593889
517.289	757432
517.360	104945
517.431	27959
517.502	16758
517.573	15601
517.643	14352
517.714	13784
517.785	15770
517.856	18598
517.926	24542
517.997	29143
518.068	37266
518.138	53874
518.209	103211
518.280	394976
518.350	1119335
518.421	407803
518.492	70887
518.562	43331
518.633	45408
518.703	60584
518.774	141710
518.845	372582
518.915	322634
518.986	83727
519.056	34390
519.127	22945
519.197	17387
519.268	12625
519.338	10627
519.408	8151
519.479	8592
519.549	6196
519.620	7710
519.690	5909
519.760	5436
519.831	5001
519.901	4712
519.971	5049
520.042	4051
520.112	4164
520.182	4255
520.253	4864
520.323	3653
520.393	2809
520.463	5550
520.534	220
520.604	5730
520.674	4890
520.744	2972
520.814	3026
520.885	3906
520.955	3211
521.025	3897
521.095	4920
521.165	4357
521.235	3072
521.305	2578
521.375	3680
521.445	4231
521.515	3176
521.585	4728
521.655	2559
521.725	3866
521.795	3952
521.865	1257
521.935	6087
522.005	3060
522.075	3632
522.145	4261
522.215	2419
522.285	3688
522.355	3741
522.424	4166
522.494	2500
522.564	3425
522.634	5109
522.704	8574
522.774	4126
522.843	3640
522.913	3622
522.983	3317
523.053	3007
523.122	4630
523.192	3755
523.262	5558
523.331	4325
523.401	4916
523.471	3810
523.540	4060
523.610	3216
523.680	3556
523.749	4248
523.819	5324
523.888	2933
523.958	3765
524.027	4257
524.097	4938
524.166	4270
524.236	3276
524.305	6358
524.375	3515
524.444	3425
524.514	5641
524.583	4368
524.653	3984
524.722	5097
524.791	3695
524.861	6490
524.930	3351
524.999	4031
525.069	6081
525.138	5227
525.207	4982
525.277	6131
525.346	6330
525.415	8612
525.484	8373
525.554	9294
525.623	12885
525.692	17074
525.761	18397
525.830	25299
525.900	32203
525.969	55094
526.038	107407
526.107	241604
526.176	651411
526.245	463817
526.314	136861
526.383	330217
526.452	419306
526.522	615227
526.591	493029
526.660	79025
526.729	45637
526.797	52593
526.867	81435
526.935	258479
527.004	893100
527.073	490155
527.142	65759
527.211	26198
527.280	18071
527.349	13971
527.418	8873
527.487	10746
527.555	7768
527.624	7290
527.693	5453
527.762	6705
527.831	5207
527.899	6373
527.968	5349
528.037	3839
528.106	5230
528.174	5784
528.243	5758
528.312	4673
528.380	4992
528.449	3717
528.518	6105
528.586	4133
528.655	4928
528.723	4875
528.792	4242
528.861	3457
528.929	2979
528.998	4694
529.066	4245
529.135	4664
529.203	2987
529.272	3802
529.340	5289
529.409	6453
529.477	2864
529.545	3989
529.614	6351
529.682	3146
529.751	4661
529.819	7010
529.887	5216
529.956	4044
530.024	6390
530.092	4282
530.161	5111
530.229	4805
530.297	4897
530.365	6370
530.434	5562
530.502	4569
530.570	4642
530.638	3442
530.707	5445
530.775	6666
530.843	4725
530.911	4945
530.979	5428
531.047	5507
531.115	5296
531.183	5353
531.252	5982
531.320	4026
531.388	4824
531.456	6294
531.524	3928
531.592	6095
531.660	7279
531.728	4752
531.796	4789
531.864	5694
531.932	6415
532.000	5731
532.067	5980
532.135	6775
532.203	7274
532.271	6467
532.339	8317
532.407	9441
532.475	8224
532.542	7535
532.610	7867
532.678	5476
532.746	11883
532.814	17241
532.881	9265
532.949	7627
533.017	6742
533.084	7300
533.152	5299
533.220	6063
533.287	5982
533.355	6294
533.423	6879
533.490	7529
533.558	7720
533.625	6043
533.693	6721
533.761	6888
533.828	7302
533.896	6304
533.963	8271
534.031	9575
534.098	10810
534.166	11885
534.233	9810
534.300	13905
534.368	13551
534.435	12443
534.503	14263
534.570	15760
534.637	17900
534.705	21228
534.772	28934
534.840	62494
534.907	290018
534.974	315510
535.041	38142
535.109	15463
535.176	12062
535.243	12501
535.310	11879
535.378	10132
535.445	11375
535.512	12356
535.579	11504
535.646	9997
535.714	10377
535.781	11986
535.848	12700
535.915	12084
535.982	10382
536.049	10752
536.116	11951
536.183	9576
536.250	10426
536.317	10523
536.384	12016
536.451	12381
536.518	13380
536.585	10192
536.652	13598
536.719	12998
536.786	10130
536.853	11535
536.920	12626
536.987	12690
537.053	10260
537.120	17749
537.187	16687
537.254	12477
537.321	12447
537.388	13764
537.454	11720
537.521	12821
537.588	11875
537.654	13013
537.721	13972
537.788	13621
537.855	12734
537.921	12474
537.988	11691
538.055	13373
538.121	10431
538.188	11117
538.254	11216
538.321	12180
538.388	12774
538.454	14353
538.521	15087
538.587	14498
538.654	13629
538.720	13370
538.787	13238
538.853	13364
538.920	11817
538.986	11227
539.053	11399
539.119	12130
539.185	11331
539.252	14015
539.318	11807
539.385	15257
539.451	12418
539.517	14010
539.583	14481
539.650	13435
539.716	15267
539.782	12130
539.849	11411
539.915	12904
539.981	11389
540.047	12241
540.114	12168
540.180	14364
540.246	13226
540.312	13974
540.378	14139
540.444	15534
540.510	14989
540.576	16850
540.643	12816
540.709	11871
540.775	13071
540.841	12401
540.907	13011
540.973	12802
541.039	11972
541.105	13044
541.171	14645
541.237	13458
541.303	13510
541.369	15940
541.435	14789
541.500	13583
541.566	11180
541.632	11382
541.698	12391
541.764	14283
541.830	12637
541.896	11927
541.961	12669
542.027	12502
542.093	13698
542.159	15371
542.224	12119
542.290	15034
542.356	12422
542.421	13666
542.487	12991
542.553	11400
542.618	12279
542.684	12327
542.750	11754
542.815	13786
542.881	12581
542.947	15360
543.012	16122
543.078	12980
543.143	11182
543.209	12972
543.274	11351
543.340	12363
543.405	13976
543.471	13544
543.536	13805
543.602	13889
543.667	10915
543.732	14019
543.798	12445
543.863	14694
543.928	12995
543.994	13173
544.059	13911
544.124	13985
544.190	13050
544.255	15176
544.320	14512
544.386	14689
544.451	15590
544.516	15010
544.581	15018
544.646	15887
544.712	17817
544.777	15532
544.842	15014
544.907	16318
544.972	15090
545.037	14990
545.102	16097
545.168	16423
545.233	16416
545.298	17598
545.363	16292
545.428	17889
545.493	20499
545.558	19397
545.623	18647
545.688	16652
545.753	19285
545.818	20460
545.883	21708
545.947	20813
546.012	21989
546.077	22238
546.142	24871
546.207	24593
546.272	26965
546.337	26748
546.401	28180
546.466	29153
546.531	29851
546.596	33184
546.661	34368
546.725	36158
546.790	37357
546.855	41910
546.919	45613
546.984	51570
547.049	54980
547.113	61970
547.178	69312
547.243	78724
547.307	89728
547.372	101521
547.436	101225
547.501	106271
547.565	114922
547.630	105425
547.695	101507
547.759	100576
547.823	101819
547.888	105241
547.952	108871
548.017	112019
548.081	114273
548.146	112898
548.210	117703
548.274	126567
548.339	122657
548.403	112522
548.468	105932
548.532	104088
548.596	107408
548.660	108525
548.725	119150
548.789	128926
548.853	125177
548.917	119476
548.982	113821
549.046	103423
549.110	93914
549.174	97453
549.238	114326
549.303	125077
549.367	126873
549.431	122165
549.495	111844
549.559	114210
549.623	133664
549.687	144735
549.751	141637
549.815	168024
549.879	172297
549.943	164158
550.007	172810
550.071	169970
550.135	152664
550.199	145011
550.263	145032
550.327	136323
550.391	137859
550.455	154751
550.519	162872
550.582	172765
550.646	194629
550.710	197166
550.774	194320
550.838	198002
550.901	203353
550.965	216266
551.029	223909
551.093	240570
551.156	263423
551.220	297191
551.284	326014
551.347	254162
551.411	212366
551.475	205290
551.538	212176
551.602	198406
551.666	188436
551.729	177952
551.793	174914
551.856	171878
551.920	168423
551.983	168311
552.047	166570
552.110	167577
552.174	171247
552.237	173516
552.301	162323
552.364	156061
552.428	150815
552.491	157744
552.554	160035
552.618	160673
552.681	164016
552.745	162118
552.808	185887
552.871	208955
552.934	178342
552.998	164859
553.061	157120
553.124	151415
553.187	149180
553.251	153455
553.314	153625
553.377	155802
553.440	165744
553.503	169019
553.567	167714
553.630	167939
553.693	167792
553.756	169993
553.819	165641
553.882	161624
553.945	162234
554.008	161209
554.071	163030
554.134	165082
554.197	155756
554.260	151964
554.323	156746
554.386	156007
554.449	163355
554.512	162668
554.575	154577
554.638	154164
554.701	152720
554.764	152473
554.827	147635
554.889	141459
554.952	133554
555.015	130960
555.078	134525
555.141	135270
555.203	133030
555.266	132073
555.329	131523
555.391	127141
555.454	125334
555.517	121001
555.580	116251
555.642	110471
555.705	110874
555.768	109676
555.830	105993
555.893	101789
555.955	98744
556.018	96650
556.080	97262
556.143	99959
556.206	96645
556.268	95790
556.330	92445
556.393	90278
556.455	88862
556.518	86143
556.580	83402
556.643	79817
556.705	79061
556.767	76804
556.830	75359
556.892	74797
556.955	73724
557.017	71960
557.079	71705
557.142	68704
557.204	68226
557.266	68718
557.328	63062
557.391	59720
557.453	58529
557.515	58818
557.577	59775
557.639	58983
557.701	58686
557.764	59316
557.826	59016
557.888	61909
557.950	64806
558.012	71048
558.074	93056
558.136	201965
558.198	413380
558.260	141485
558.322	66860
558.384	64972
558.446	67614
558.508	73029
558.570	80506
558.632	92780
558.694	119522
558.756	206215
558.818	551635
558.880	1009029
558.942	418219
559.003	443011
559.065	196236
559.127	82664
559.189	78867
559.251	91972
559.312	132354
559.374	305905
559.436	795703
559.498	362982
559.559	95994
559.621	80880
559.683	94925
559.744	156021
559.806	459781
559.868	576288
559.929	131750
559.991	90837
560.052	154203
560.114	407800
560.176	241855
560.237	243888
560.299	347864
560.360	75365
560.422	35119
560.483	30864
560.545	28646
560.606	27361
560.667	26878
560.729	25001
560.790	24203
560.852	23073
560.913	23747
560.974	21506
561.036	21709
561.097	21458
561.158	21593
561.220	21306
561.281	19859
561.342	19291
561.403	20439
561.465	19475
561.526	20996
561.587	20542
561.648	17538
561.709	17599
561.771	17745
561.832	17737
561.893	16993
561.954	17011
562.015	15998
562.076	16254
562.137	17242
562.198	16144
562.259	16536
562.320	17042
562.381	16706
562.442	16414
562.503	16501
562.564	16104
562.625	15335
562.686	15545
562.747	14047
562.808	14699
562.869	13777
562.930	14974
562.991	14475
563.051	14534
563.112	13513
563.173	14102
563.234	13446
563.294	14029
563.355	13915
563.416	13284
563.477	13345
563.537	13269
563.598	13090
563.659	13683
563.720	12134
563.780	13641
563.841	13747
563.901	14021
563.962	12853
564.023	13349
564.083	13249
564.144	12321
564.204	12192
564.265	12718
564.325	13346
564.386	12670
564.446	13115
564.507	12408
564.567	12070
564.628	12647
564.688	11821
564.749	12441
564.809	12328
564.869	11913
564.930	11964
564.990	11727
565.050	10941
565.111	11668
565.171	11632
565.231	12400
565.292	11564
565.352	10931
565.412	12330
565.472	11221
565.532	11685
565.593	11366
565.653	12011
565.713	11055
565.773	12135
565.833	12109
565.893	14116
565.953	11823
566.013	11105
566.074	10670
566.134	11413
566.194	10261
566.254	10925
566.314	11214
566.374	9886
566.434	11459
566.494	11373
566.554	10030
566.614	11478
566.673	11552
566.733	12686
566.793	12728
566.853	11534
566.913	11151
566.973	11002
567.033	11711
567.092	10907
567.152	11549
567.212	11877
567.272	11555
567.331	12046
567.391	11711
567.451	12230
567.511	12465
567.570	13177
567.630	12248
567.690	10887
567.749	12235
567.809	11075
567.868	11961
567.928	11379
567.988	12024
568.047	11540
568.107	12179
568.166	11580
568.226	13100
568.285	13380
568.345	12476
568.404	12228
568.464	12690
568.523	12170
568.582	12723
568.642	11521
568.701	11369
568.761	11129
568.820	11566
568.879	12088
568.939	11325
568.998	11872
569.057	11219
569.116	11563
569.176	12061
569.235	10240
569.294	11526
569.353	10557
569.413	11299
569.472	11558
569.531	10571
569.590	10311
569.649	9921
569.708	10654
569.767	11313
569.827	10190
569.886	9448
569.945	11343
570.004	10966
570.063	10930
570.122	11870
570.181	11901
570.240	11115
570.299	12194
570.358	12500
570.417	11926
570.475	11718
570.534	12107
570.593	12454
570.652	12368
570.711	11952
570.770	10896
570.829	11823
570.887	11922
570.946	12508
571.005	12847
571.064	12629
571.122	13915
571.181	11781
571.240	12008
571.299	11221
571.357	11060
571.416	11736
571.475	11165
571.533	12724
571.592	13420
571.650	12962
571.709	13039
571.768	14983
571.826	14229
571.885	13597
571.943	11624
572.002	11812
572.060	11454
572.119	11680
572.177	11306
572.236	11353
572.294	12122
572.352	13016
572.411	11971
572.469	11969
572.528	11229
572.586	11413
572.644	11427
572.703	11469
572.761	11230
572.819	10913
572.877	10368
572.936	10408
572.994	10211
573.052	9404
573.110	10627
573.169	11785
573.227	11013
573.285	11704
573.343	11061
573.401	10765
573.459	11018
573.517	10720
573.576	11470
573.634	11019
573.692	10566
573.750	10840
573.808	10907
573.866	10271
573.924	9148
573.982	10401
574.040	10327
574.098	10723
574.155	9187
574.213	10075
574.271	10098
574.329	11603
574.387	8993
574.445	9421
574.503	8523
574.560	8236
574.618	8664
574.676	9393
574.734	9442
574.792	9888
574.849	8469
574.907	7680
574.965	7822
575.022	7045
575.080	7200
575.138	7540
575.195	6652
575.253	6807
575.311	7060
575.368	7818
575.426	6942
575.483	8681
575.541	8437
575.598	7249
575.656	7522
575.713	8788
575.771	9086
575.828	8538
575.886	7519
575.943	8005
576.001	6800
576.058	6727
576.115	7710
576.173	6369
576.230	7486
576.287	7551
576.345	8358
576.402	8001
576.459	7555
576.517	7404
576.574	8478
576.631	7275
576.688	7055
576.746	7214
576.803	6245
576.860	7128
576.917	7637
576.974	7786
577.031	7467
577.089	6765
577.146	6467
577.203	5750
577.260	6510
577.317	6369
577.374	6915
577.431	6760
577.488	5955
577.545	6384
577.602	6673
577.659	6552
577.716	6612
577.773	7037
577.830	6317
577.886	6867
577.943	5565
578.000	6301
578.057	5324
578.114	6490
578.171	7121
578.227	6286
578.284	6949
578.341	7289
578.398	6189
578.454	7354
578.511	6181
578.568	7219
578.625	6667
578.681	7711
578.738	7102
578.794	6764
578.851	7039
578.908	7194
578.964	6976
579.021	6977
579.077	5651
579.134	6712
579.190	6470
579.247	7355
579.303	6229
579.360	6530
579.416	6296
579.473	6943
579.529	6697
579.586	6529
579.642	7401
579.698	7136
579.755	7112
579.811	6735
579.867	7731
579.924	6701
579.980	7197
580.036	7328
580.093	7372
580.149	7281
580.205	6830
580.261	7345
580.317	7445
580.374	7731
580.430	7755
580.486	7075
580.542	6253
580.598	7141
580.619	7469
580.654	8041
580.692	7620
580.710	7418
580.765	7689
580.767	7701
580.823	7735
580.838	7865
580.879	8208
580.911	8121
580.935	8071
580.984	8142
580.991	8156
581.047	8813
581.057	8776
581.103	8650
581.130	8067
581.159	7455
581.203	8012
581.215	8157
581.270	7999
581.276	7970
581.326	7748
581.349	7460
581.382	7014
581.422	7069
581.438	7080
581.494	8209
581.494	8196
581.550	7026
581.567	7182
581.606	7524
581.640	7461
581.661	7427
581.713	8654
581.717	8745
581.773	7670
581.786	7677
581.829	7715
581.859	7667
581.885	7699
581.932	8286
581.940	8361
581.996	7456
582.004	7427
582.052	7366
582.077	7589
582.107	7793
582.150	7688
582.163	7674
582.219	7471
582.223	7513
582.274	7972
582.296	7870
582.330	7741
582.368	8226
582.386	8465
582.441	8315
582.441	8312
582.497	8098
582.514	8145
582.552	8405
582.587	8140
582.608	7897
582.659	7757
582.663	7745
582.719	8784
582.732	8743
582.774	8806
582.805	8668
582.830	8500
582.877	8308
582.885	8281
582.941	9041
582.950	9068
582.996	8982
583.023	8946
583.052	9064
583.095	8847
583.107	8789
583.162	9411
583.168	9338
583.218	8570
583.240	8694
583.273	8713
583.313	7923
583.328	7711
583.384	9083
583.385	9050
583.439	7913
583.458	8195
583.494	8840
583.531	9131
583.549	9252
583.603	8843
583.605	8832
583.660	9019
583.676	9146
583.715	9473
583.748	9498
583.770	9500
583.820	9639
583.825	9645
583.881	9448
583.893	9272
583.936	8970
583.965	9128
583.991	9055
584.038	9374
584.046	9479
584.101	9541
584.110	9675
584.156	10311
584.183	10302
584.211	10235
584.255	9822
584.266	9778
584.321	10306
584.328	10355
584.376	10530
584.400	10598
584.431	10742
584.472	10845
584.486	10887
584.541	10890
584.545	10942
584.596	12094
584.617	11881
584.651	11566
584.689	12414
584.706	12696
584.761	12510
584.762	12509
584.816	13438
584.834	13626
584.871	13832
584.906	14047
584.926	14314
584.978	14805
584.980	14833
585.035	16301
585.051	16842
585.090	18420
585.123	19102
585.145	19589
585.195	21650
585.200	21902
585.254	24579
585.267	25489
585.309	28652
585.340	31155
585.364	33488
585.412	39231
585.419	40213
585.473	50124
585.484	53251
585.528	70362
585.556	87495
585.583	116020
585.628	184566
585.637	207163
585.692	416916
585.700	448845
585.747	557807
585.772	465816
585.801	294019
585.845	121081
585.856	95863
585.910	49800
585.917	45552
585.965	35739
585.989	31988
586.019	29011
586.061	25631
586.074	25109
586.128	23884
586.133	23767
586.183	23018
586.205	22739
586.237	22406
586.277	22100
586.292	22108
586.346	21587
586.349	21579
586.401	22250
586.421	22439
586.455	22418
586.493	21998
586.509	22019
586.564	21789
586.565	21782
586.618	23586
586.637	24239
586.672	26892
586.709	30488
586.727	31924
586.781	35036
586.781	35064
586.835	27801
586.853	26148
586.889	24516
586.925	23234
586.944	23023
586.996	22998
586.998	23032
587.052	22738
587.068	22822
587.106	23522
587.140	23684
587.161	23890
587.212	24385
587.215	24441
587.269	24653
587.284	24758
587.323	25137
587.356	25429
587.377	25840
587.427	26201
587.431	26256
587.485	26547
587.499	26667
587.539	27506
587.571	27915
587.593	28756
587.643	30955
587.648	31105
587.702	31397
587.715	31468
587.755	31212
587.786	31183
587.810	31841
587.858	32418
587.864	32412
587.917	31662
587.930	31460
587.971	31980
588.001	32335
588.025	32524
588.073	32731
588.079	32792
588.133	32769
588.145	32712
588.187	33313
588.217	33557
588.241	33853
588.288	34570
588.295	34798
588.348	36080
588.360	36190
588.402	36616
588.431	36957
588.456	37452
588.503	38431
588.510	38820
588.564	41727
588.575	42224
588.617	44370
588.646	45672
588.671	47308
588.718	51454
588.725	52686
588.778	62329
588.789	64790
588.832	89947
588.861	109633
588.886	149817
588.932	240599
588.939	248338
588.993	295094
589.004	291138
589.047	167435
589.075	99471
589.100	79525
589.147	53479
589.154	52918
589.207	48230
589.218	47386
589.261	48182
589.290	49005
589.314	50469
589.361	53467
589.368	55011
589.421	68767
589.433	72034
589.475	113611
589.504	147019
589.528	185854
589.576	267578
589.582	260640
589.635	145566
589.647	123575
589.689	77304
589.718	50486
589.742	47801
589.790	42676
589.795	42669
589.849	41724
589.861	41455
589.902	40768
589.932	40042
589.955	40157
590.004	40367
590.009	40437
590.062	39976
590.075	39760
590.115	40043
590.146	39824
590.168	39610
590.218	39218
590.222	39430
590.275	40740
590.289	41021
590.328	42036
590.360	42527
590.381	42650
590.431	42643
590.435	42810
590.488	43434
590.503	43553
590.541	44350
590.574	44836
590.594	45225
590.645	45852
590.647	46054
590.700	47800
590.716	48291
590.753	49648
590.787	50674
590.806	51369
590.859	52599
590.859	52753
590.912	53080
590.930	53091
590.965	54155
591.001	54839
591.018	54690
591.071	53655
591.072	53493
591.124	53187
591.143	52877
591.177	54115
591.214	55284
591.230	55705
591.283	56527
591.285	56382
591.336	55079
591.356	54444
591.389	55281
591.427	55628
591.442	55339
591.495	54034
591.498	53759
591.547	54917
591.569	55370
591.600	56117
591.640	56501
591.653	57018
591.706	58505
591.711	58503
591.759	59976
591.782	60451
591.811	61513
591.853	62567
591.864	62949
591.917	63992
591.924	63930
591.969	64075
591.995	63885
592.022	64162
592.066	64186
592.075	64825
592.127	67561
592.137	67840
592.180	68852
592.208	69246
592.233	70219
592.279	71413
592.285	71838
592.338	73557
592.350	73720
592.390	73059
592.421	72194
592.443	73489
592.491	75582
592.495	75881
592.548	76773
592.562	76781
592.600	76731
592.633	76249
592.653	76681
592.704	76770
592.705	77266
592.775	80027
592.846	81949
592.916	81657
592.987	83389
593.058	84412
593.128	85168
593.199	84947
593.270	86095
593.341	89608
593.411	91741
593.482	95181
593.553	97552
593.623	98026
593.694	100397
593.764	102378
593.835	100531
593.906	100849
593.976	103447
594.047	105131
594.117	111866
594.188	112785
594.258	114749
594.329	114023
594.399	116471
594.470	120113
594.540	123280
594.611	125530
594.681	124821
594.751	123361
594.822	129691
594.892	134865
594.963	136360
595.033	140587
595.103	143434
595.174	146252
595.244	148732
595.314	153141
595.384	158167
595.455	161571
595.525	167143
595.595	172617
595.665	172815
595.736	168989
595.806	172816
595.876	175120
595.946	175558
596.016	182051
596.087	190455
596.157	187114
596.227	189250
596.297	200350
596.367	212321
596.437	224245
596.507	221667
596.577	221309
596.647	229573
596.717	241127
596.787	241949
596.857	241882
596.927	245123
596.997	244706
597.067	248630
597.137	250581
597.207	252806
597.277	254931
597.347	245593
597.417	238362
597.487	237983
597.557	244052
597.626	250417
597.696	251291
597.766	248661
597.836	235032
597.906	225683
597.975	222220
598.045	225217
598.115	237365
598.185	253720
598.254	278825
598.324	299230
598.394	305642
598.464	294550
598.533	289542
598.603	273052
598.672	264381
598.742	268414
598.812	270638
598.881	279060
598.951	276793
599.020	282216
599.090	289644
599.159	294451
599.229	283203
599.299	278553
599.368	285584
599.437	280052
599.507	259164
599.576	252923
599.646	249877
599.715	245732
599.785	243885
599.854	237049
599.924	234341
599.993	232507
600.062	238807
600.132	244414
600.201	257402
600.270	298832
600.340	310805
600.409	306147
600.478	302474
600.547	310712
600.617	276799
600.686	227724
600.755	206594
600.824	197463
600.894	192222
600.963	194659
601.032	191486
601.101	184963
601.170	177450
601.239	172218
601.308	171353
601.378	173074
601.447	172802
601.516	174550
601.585	176371
601.654	177949
601.723	178276
601.792	183889
601.861	188560
601.930	192165
601.999	196261
602.068	195201
602.137	198517
602.206	201576
602.275	203771
602.343	205442
602.412	207129
602.481	210363
602.550	210084
602.619	216933
602.688	218440
602.756	219138
602.825	222377
602.894	229284
602.963	232343
603.032	234281
603.100	236322
603.169	236679
603.238	240329
603.307	239402
603.375	240668
603.444	247003
603.513	250013
603.581	251643
603.650	255747
603.719	248001
603.787	258627
603.856	265419
603.924	269670
603.993	280174
604.061	289735
604.130	299994
604.198	305484
604.267	310050
604.335	312521
604.404	318896
604.472	323708
604.541	324176
604.609	327929
604.678	329998
604.746	328919
604.815	342982
604.883	344318
604.951	341768
605.020	349978
605.088	355325
605.156	362039
605.225	367328
605.293	365279
605.361	368082
605.429	372456
605.498	378305
605.566	385029
605.634	405084
605.702	415455
605.771	427539
605.839	427016
605.907	419948
605.975	407765
606.043	402789
606.111	400902
606.180	401918
606.248	398958
606.316	396315
606.384	394385
606.452	397203
606.520	407659
606.588	420339
606.656	420560
606.724	411238
606.792	393845
606.860	357717
606.928	330991
606.996	321416
607.064	313802
607.132	323026
607.200	339841
607.267	350584
607.335	358389
607.403	366283
607.471	351635
607.539	343879
607.607	340649
607.674	302961
607.742	302686
607.810	302081
607.878	301072
607.946	308875
608.013	321983
608.081	325566
608.149	331424
608.216	343167
608.284	353079
608.352	352309
608.419	348742
608.487	341479
608.555	336664
608.622	348907
608.690	366744
608.757	398294
608.825	404606
608.893	395736
608.960	374584
609.028	362182
609.095	362191
609.163	361936
609.230	324112
609.298	303344
609.365	320446
609.432	342051
609.500	366561
609.567	414980
609.635	459882
609.702	479640
609.769	452222
609.837	363601
609.904	320334
609.971	325374
610.039	341032
610.106	383091
610.173	522964
610.241	835164
610.308	591866
610.375	377956
610.442	345813
610.509	333604
610.577	335612
610.644	342496
610.711	351655
610.778	358785
610.845	372903
610.912	391421
610.980	406836
611.047	401320
611.114	398994
611.181	389145
611.248	388325
611.315	408111
611.382	417137
611.449	431918
611.516	435782
611.583	428749
611.650	431161
611.717	435522
611.784	440032
611.851	452244
611.918	461264
611.984	493894
612.051	568375
612.118	753679
612.185	1124568
612.252	892577
612.319	571760
612.386	528112
612.452	494150
612.519	476399
612.586	471046
612.653	480639
612.719	493376
612.786	479259
612.853	452833
612.919	446271
612.986	451330
613.053	431202
613.120	407178
613.186	396428
613.253	397960
613.319	397677
613.386	402725
613.453	408350
613.519	407464
613.586	402959
613.652	407339
613.719	402112
613.785	409646
613.852	411758
613.918	410960
613.985	414117
614.051	429903
614.118	421045
614.184	406878
614.250	411329
614.317	422337
614.383	413859
614.449	423084
614.516	419995
614.582	420406
614.648	415538
614.715	411837
614.781	403465
614.847	404528
614.914	403456
614.980	396396
615.046	396042
615.112	406986
615.179	406070
615.245	413816
615.311	406751
615.377	409313
615.443	414091
615.509	420486
615.575	427787
615.642	425970
615.708	432776
615.774	445527
615.840	460789
615.906	462194
615.972	501692
616.038	598428
616.104	843652
616.170	1199859
616.236	1056511
616.302	675661
616.368	595245
616.434	498084
616.500	475086
616.565	498431
616.631	563120
616.697	508759
616.763	508745
616.829	621300
616.895	867975
616.961	812026
617.026	529548
617.092	448336
617.158	431306
617.224	424675
617.289	399857
617.355	386641
617.421	384997
617.487	383614
617.552	369998
617.618	370070
617.684	367431
617.749	371322
617.815	361098
617.880	353678
617.946	354185
618.012	361059
618.077	367460
618.143	351640
618.208	356962
618.274	377085
618.339	374886
618.405	322012
618.470	323858
618.536	322634
618.601	315826
618.667	299214
618.732	286733
618.798	283346
618.863	287704
618.928	283350
618.994	285513
619.059	281622
619.124	283457
619.190	282033
619.255	281192
619.320	280194
619.386	284789
619.451	280460
619.516	275088
619.581	279254
619.647	288959
619.712	287392
619.777	276544
619.842	277887
619.907	282543
619.972	287055
620.038	284706
620.103	277783
620.168	280625
620.233	284375
620.298	287858
620.363	288578
620.428	294951
620.493	304477
620.558	306493
620.623	310639
620.688	307094
620.753	304252
620.818	310004
620.883	309731
620.948	308350
621.013	305460
621.078	303255
621.143	302627
621.207	305632
621.272	300075
621.337	294385
621.402	291878
621.467	290639
621.532	290163
621.596	291114
621.661	285228
621.726	282225
621.791	285328
621.855	285242
621.920	282772
621.985	288651
622.049	292833
622.114	292709
622.179	296078
622.243	300477
622.308	309884
622.373	316910
622.437	309713
622.502	298554
622.566	296484
622.631	294926
622.695	299907
622.760	298960
622.824	297417
622.889	299414
622.953	299595
623.018	314726
623.082	314220
623.147	313188
623.211	307519
623.276	308808
623.340	298842
623.404	292193
623.469	291312
623.533	294961
623.597	287720
623.662	287608
623.726	268550
623.790	258138
623.854	248677
623.919	255592
623.983	258797
624.047	261689
624.111	264138
624.176	268856
624.240	267998
624.304	277491
624.368	267928
624.432	267743
624.496	272755
624.560	285011
624.625	284016
624.689	283546
624.753	293937
624.817	282008
624.881	277099
624.945	253241
625.009	247412
625.073	254760
625.137	258868
625.201	267476
625.265	264132
625.329	258192
625.393	260010
625.456	262528
625.520	268525
625.584	271119
625.648	276512
625.712	280565
625.776	275771
625.839	262591
625.903	230741
625.967	216569
626.031	230102
626.095	262253
626.158	245407
626.222	200412
626.286	193300
626.349	186466
626.413	173223
626.477	172749
626.540	173860
626.604	175276
626.668	170115
626.731	169634
626.795	167001
626.858	168068
626.922	164004
626.986	163207
627.049	162491
627.113	171382
627.176	163965
627.240	159017
627.303	159607
627.366	156266
627.430	160248
627.493	157336
627.557	152195
627.620	156812
627.684	162296
627.747	162171
627.810	148608
627.874	135765
627.937	130589
628.000	135547
628.064	130749
628.127	119030
628.190	117490
628.253	114705
628.317	112459
628.380	106714
628.443	103460
628.506	104014
628.569	98351
628.632	95592
628.696	94786
628.759	93763
628.822	90462
628.885	88411
628.948	86906
629.011	86162
629.074	82803
629.137	80890
629.200	80333
629.263	78291
629.326	77761
629.389	76511
629.452	76523
629.515	75413
629.578	73884
629.641	74990
629.704	74416
629.767	73126
629.830	70804
629.892	70115
629.955	68852
630.018	71926
630.081	68317
630.144	70958
630.207	66171
630.269	69905
630.332	66026
630.395	66792
630.458	63729
630.520	62330
630.583	62838
630.646	64706
630.708	63694
630.771	64058
630.834	68277
630.896	65958
630.959	65378
631.021	63243
631.084	63416
631.146	63912
631.209	66075
631.272	63209
631.334	64637
631.397	64256
631.459	63511
631.522	66366
631.584	66524
631.646	69812
631.709	70947
631.771	70239
631.834	67833
631.896	66250
631.958	63453
632.021	63975
632.083	58865
632.145	60360
632.208	59290
632.270	61064
632.332	59555
632.395	59588
632.457	62113
632.519	58778
632.581	59959
632.643	57697
632.706	59688
632.768	57469
632.830	59607
632.892	60707
632.954	60307
633.016	62985
633.078	59316
633.141	60497
633.203	59124
633.265	59323
633.327	58703
633.389	58006
633.451	59684
633.513	58217
633.575	60822
633.637	59165
633.698	59644
633.760	64104
633.822	64646
633.884	65275
633.946	66144
634.008	66070
634.070	66011
634.132	68946
634.193	71215
634.255	75207
634.317	76177
634.379	75018
634.441	70402
634.502	64944
634.564	62996
634.626	59047
634.687	57379
634.749	55482
634.811	56338
634.873	56012
634.934	56123
634.996	56453
635.057	56032
635.119	56274
635.181	58106
635.242	59141
635.304	55987
635.365	60504
635.427	56605
635.488	57246
635.550	55496
635.611	56274
635.673	55128
635.734	58823
635.796	60000
635.857	63521
635.918	65667
635.980	72203
636.041	71716
636.102	76772
636.164	76302
636.225	74059
636.286	65350
636.348	62299
636.409	57951
636.470	56949
636.531	56376
636.593	54687
636.654	53906
636.715	52558
636.776	53495
636.838	50685
636.899	51735
636.960	50917
637.021	50595
637.082	49123
637.143	49141
637.204	48617
637.265	48539
637.326	50145
637.387	50528
637.448	49225
637.509	49436
637.570	48541
637.631	49165
637.692	47583
637.753	45615
637.814	48477
637.875	47188
637.936	46982
637.997	47044
638.058	45100
638.119	46351
638.179	47933
638.240	46682
638.301	46770
638.362	44537
638.423	45386
638.483	45891
638.544	42934
638.605	46035
638.666	44340
638.726	45424
638.787	45010
638.848	43796
638.908	43213
638.969	41947
639.030	42843
639.090	41331
639.151	42210
639.211	43804
639.272	43173
639.332	43658
639.393	45364
639.453	44092
639.514	45489
639.574	42459
639.635	42159
639.695	40941
639.756	39300
639.816	38896
639.877	39321
639.937	40850
639.997	40839
640.058	39551
640.118	40161
640.178	41733
640.239	39535
640.299	39638
640.359	40443
640.420	41811
640.480	45169
640.540	49106
640.600	47014
640.661	44481
640.721	43382
640.781	43972
640.841	39487
640.901	40490
640.961	41149
641.021	41511
641.082	42773
641.142	40062
641.202	41258
641.262	37515
641.322	39923
641.382	38185
641.442	39173
641.502	38555
641.562	39214
641.622	39742
641.682	41480
641.742	43121
641.802	41313
641.861	39288
641.921	37641
641.981	36811
642.041	36898
642.101	35141
642.161	34986
642.221	36269
642.280	36597
642.340	35147
642.400	35731
642.460	38326
642.519	37115
642.579	37947
642.639	37789
642.698	35686
642.758	39346
642.818	38251
642.877	36711
642.937	38522
642.997	37395
643.056	37930
643.116	36227
643.175	39757
643.235	37864
643.294	38259
643.354	40544
643.414	41619
643.473	45623
643.532	49556
643.592	58186
643.651	76972
643.711	111340
643.770	186862
643.830	382432
643.889	605595
643.948	228537
644.008	79540
644.067	54415
644.126	45133
644.186	42723
644.245	39715
644.304	35876
644.363	38408
644.423	34857
644.482	36745
644.541	37898
644.600	36199
644.659	44295
644.719	48152
644.778	62528
644.837	91157
644.896	163797
644.955	309466
645.014	119234
645.073	49447
645.132	41338
645.191	38606
645.250	38383
645.309	40575
645.368	41116
645.427	50615
645.486	75613
645.545	112009
645.604	45621
645.663	37354
645.722	36018
645.781	36918
645.840	39138
645.898	42993
645.957	54732
646.016	68801
646.075	104595
646.134	176089
646.192	391513
646.251	482619
646.310	133283
646.369	60325
646.427	52798
646.486	42399
646.545	36644
646.603	33658
646.662	33884
646.721	32705
646.779	31710
646.838	31232
646.896	37436
646.955	44416
647.014	59885
647.072	100618
647.131	230634
647.189	115330
647.248	36096
647.306	31164
647.365	29026
647.423	27030
647.481	29020
647.540	25839
647.598	27846
647.657	27729
647.715	26625
647.773	25201
647.832	27347
647.890	24153
647.948	24269
648.007	24470
648.065	22648
648.123	23235
648.181	24273
648.240	23023
648.298	22565
648.356	21679
648.414	23594
648.472	21660
648.531	22370
648.589	21601
648.647	22472
648.705	22405
648.763	22218
648.821	22340
648.879	22122
648.937	23596
648.995	25826
649.053	29182
649.111	37676
649.169	53569
649.227	82868
649.285	159580
649.343	368745
649.401	185437
649.459	43995
649.516	29704
649.574	24414
649.632	25159
649.690	27683
649.748	32492
649.806	41513
649.863	71022
649.921	174694
649.979	111636
650.037	26651
650.094	19081
650.152	19625
650.210	17863
650.268	18728
650.325	17949
650.383	17366
650.440	15676
650.498	17080
650.556	15205
650.613	15184
650.671	16294
650.728	15541
650.786	16674
650.843	21635
650.901	16377
650.958	14433
651.016	14475
651.073	14196
651.131	12834
651.188	13016
651.246	13164
651.303	13053
651.360	13734
651.418	13669
651.475	12883
651.532	12239
651.590	13835
651.647	12407
651.704	12241
651.762	12977
651.819	12472
651.876	12296
651.933	11381
651.990	13042
652.048	9961
652.105	11307
652.162	11393
652.219	10591
652.276	12017
652.333	11883
652.390	10684
652.448	11131
652.505	10799
652.562	11411
652.619	10177
652.676	11393
652.733	11197
652.790	11343
652.847	9619
652.904	11040
652.961	9439
653.017	10034
653.074	10578
653.131	11231
653.188	9377
653.245	9624
653.302	9076
653.359	10448
653.415	10336
653.472	10182
653.529	9935
653.586	9638
653.642	9824
653.699	10542
653.756	9037
653.813	9221
653.869	10953
653.926	9672
653.983	10061
654.039	10674
654.096	9735
654.152	10537
654.209	7879
654.266	10043
654.322	8751
654.379	9720
654.435	9320
654.492	9034
654.548	9532
654.605	8967
654.661	9569
654.717	8872
654.774	9608
654.830	9064
654.887	8561
654.943	8639
655.000	9590
655.056	8613
655.112	8722
655.168	9289
655.225	9113
655.281	9907
655.337	9676
655.394	8818
655.450	8674
655.506	9702
655.562	9749
655.618	11061
655.675	8904
655.731	8611
655.787	9577
655.843	10521
655.899	9164
655.955	10778
656.011	10206
656.067	9975
656.123	10404
656.179	10661
656.235	12503
656.291	11014
656.347	11900
656.403	10599
656.459	9035
656.515	10015
656.571	9744
656.627	9527
656.683	9738
656.739	10158
656.795	9130
656.850	8937
656.906	9353
656.962	9558
657.018	9503
657.074	12333
657.129	14196
657.185	21399
657.241	43984
657.297	23813
657.352	9573
657.408	8203
657.464	8601
657.519	8286
657.575	7142
657.630	8536
657.686	7750
657.742	7363
657.797	7440
657.853	8072
657.908	8178
657.964	7498
658.019	7962
658.075	8221
658.130	7438
658.186	7072
658.241	7305
658.297	7084
658.352	7289
658.407	8292
658.463	6804
658.518	8005
658.573	7605
658.629	7123
658.684	7125
658.739	7839
658.795	6760
658.850	7387
658.905	6791
658.960	7801
659.016	6025
659.071	7098
659.126	6958
659.181	7612
659.236	7523
659.291	7697
659.346	6707
659.401	8062
659.457	7755
659.512	6652
659.567	8280
659.622	6907
659.677	5879
659.732	6074
659.787	6406
659.842	6195
659.897	6061
659.952	6662
660.007	6358
660.061	7150
660.116	5823
660.171	6411
660.226	6893
660.281	7275
660.336	6014
660.391	7169
660.445	6270
660.500	6091
660.555	6988
660.610	6471
660.664	6899
660.719	6075
660.774	6301
660.828	6360
660.883	6286
660.938	7250
660.992	5398
661.047	6906
661.101	5756
661.156	6514
661.211	5248
661.265	6427
661.320	5534
661.374	6573
661.429	6324
661.483	7000
661.538	5206
661.592	5978
661.647	6856
661.701	6687
661.755	6178
661.810	6441
661.864	5181
661.919	6061
661.973	6271
662.027	6439
662.081	5744
662.136	6293
662.190	6077
662.244	6394
662.299	5177
662.353	6714
662.407	6123
662.461	6033
662.515	6045
662.569	5281
662.624	5890
662.678	5690
662.732	5690
662.786	5756
662.840	5945
662.894	5649
662.948	5867
663.002	6197
663.056	5693
663.110	6283
663.164	5207
663.218	6416
663.272	6560
663.326	6818
663.380	5803
663.434	6264
663.488	5701
663.542	6293
663.595	5884
663.649	7306
663.703	6344
663.757	5150
663.811	5560
663.864	5683
663.918	5892
663.972	5670
664.026	5940
664.079	5939
664.133	7304
664.187	6772
664.240	5987
664.294	6338
664.348	6321
664.401	6315
664.455	6060
664.508	5677
664.562	6208
664.615	6692
664.669	5800
664.722	6184
664.776	5937
664.829	6649
664.883	5566
664.936	5958
664.990	5501
665.043	6345
665.097	5581
665.150	6378
665.203	5052
665.257	5631
665.310	6711
665.363	6190
665.417	6513
665.470	6720
665.523	5978
665.576	6404
665.630	6291
665.683	7018
665.736	6128
665.789	6410
665.842	5948
665.895	6550
665.949	6716
666.002	6957
666.055	5483
666.108	7165
666.161	5647
666.214	6935
666.267	6572
666.320	7083
666.373	6674
666.426	6506
666.479	6824
666.532	6200
666.585	6805
666.638	6625
666.691	6247
666.744	7251
666.796	6310
666.849	7382
666.902	7181
666.955	6415
667.008	6753
667.060	6342
667.113	7105
667.166	6671
667.219	8182
667.271	7941
667.324	6539
667.377	7694
667.430	6994
667.482	6832
667.535	6124
667.587	7716
667.640	6344
667.693	6484
667.745	6984
667.798	6837
667.850	6842
667.903	7034
667.955	6610
668.008	6543
668.060	6865
668.113	6381
668.165	7002
668.218	6561
668.270	6641
668.322	6142
668.375	5699
668.427	6592
668.479	5437
668.532	6794
668.584	5766
668.636	5161
668.689	6311
668.741	6550
668.793	5409
668.845	6034
668.898	5993
668.950	6449
669.002	7309
669.054	5386
669.106	5578
669.158	6541
669.211	5882
669.263	5299
669.315	6472
669.367	6070
669.419	5841
669.471	6102
669.523	5495
669.575	5847
669.627	5402
669.679	5355
669.731	5601
669.783	6224
669.835	6404
669.886	5682
669.938	5529
669.990	6285
670.042	4820
670.094	5280
670.146	5084
670.197	6029
670.249	5814
670.301	6340
670.353	6537
670.404	6935
670.456	6454
670.508	8346
670.560	9867
670.611	13752
670.663	19936
670.715	42742
670.766	60813
670.818	17396
670.869	7689
670.921	8016
670.972	6050
671.024	5623
671.075	5564
671.127	5477
671.178	5227
671.230	6587
671.281	7036
671.333	7161
671.384	8701
671.436	9816
671.487	14067
671.538	19957
671.590	29401
671.641	46463
671.692	83855
671.744	150920
671.795	102379
671.846	38683
671.897	19760
671.949	14294
672.000	10294
672.051	8703
672.102	8393
672.153	6602
672.204	5895
672.256	6853
672.307	6039
672.358	5217
672.409	4638
672.460	5164
672.511	4743
672.562	4190
672.613	3675
672.664	4490
672.715	5094
672.766	4476
672.817	4437
672.868	3811
672.919	4245
672.970	4094
673.021	3833
673.071	4059
673.122	4138
673.173	4041
673.224	2978
673.275	3816
673.326	3881
673.376	3886
673.427	3870
673.478	3678
673.528	5054
673.579	5017
673.630	4025
673.680	5320
673.731	4594
673.782	3375
673.832	2901
673.883	4407
673.934	3510
673.984	3979
674.035	3990
674.085	3811
674.136	3889
674.186	3920
674.237	4029
674.287	3332
674.338	3824
674.388	4118
674.438	3485
674.489	4500
674.539	3945
674.589	5143
674.640	4447
674.690	4277
674.740	3880
674.791	4036
674.841	4300
674.891	3700
674.942	3096
674.992	3151
675.042	2564
675.092	3234
675.142	3052
675.193	3565
675.243	2535
675.293	3576
675.343	2865
675.393	3151
675.443	4399
675.493	3979
675.543	3038
675.593	3510
675.643	3504
675.693	4142
675.743	3662
675.793	4066
675.843	1636
675.893	3393
675.943	3654
675.993	2666
676.043	3041
676.093	3577
676.142	3129
676.192	3096
676.242	2874
676.292	3399
676.341	2968
676.391	2962
676.441	1759
676.491	3380
676.540	2334
676.590	3566
676.640	2284
676.689	2801
676.739	2240
676.789	2846
676.838	2817
676.888	3114
676.937	2703
676.987	3063
677.037	1999
677.086	2406
677.136	3107
677.185	2545
677.235	2076
677.284	3187
677.333	2154
677.383	3034
677.432	2337
677.482	2624
677.531	2483
677.580	2576
677.630	2597
677.679	2371
677.728	2031
677.778	2797
677.827	1805
677.876	2718
677.925	2239
677.975	3470
678.024	3286
678.073	2580
678.122	2056
678.171	3337
678.220	3563
678.269	3378
678.319	3527
678.368	3652
678.417	2972
678.466	2944
678.515	2551
678.564	2674
678.613	1818
678.662	1647
678.711	1638
678.760	2592
678.809	2292
678.857	2734
678.906	2383
678.955	2541
679.004	2083
679.053	2177
679.102	2389
679.151	2649
679.199	2065
679.248	2351
679.297	1826
679.346	2168
679.394	1033
679.443	1593
679.492	2319
679.540	3127
679.589	2724
679.638	2806
679.686	2671
679.735	2548
679.784	2977
679.832	3582
679.881	2574
679.929	2572
679.978	2414
680.026	2051
680.075	2024
680.123	2202
680.172	1857
680.220	2738
680.268	2565
680.317	1556
680.365	1728
680.414	2323
680.462	1829
680.510	2293
680.559	1714
680.607	2138
680.655	2068
680.703	2665
680.752	2085
680.800	2062
680.848	1872
680.896	1649
680.945	1841
680.993	1475
681.041	2077
681.089	1669
681.137	1981
681.185	1680
681.233	1475
681.258	1837
681.281	2159
681.329	993
681.377	2685
681.380	2667
681.425	1965
681.473	2724
681.502	2231
681.521	1846
681.569	2967
681.617	1871
681.624	1999
681.665	2657
681.713	2090
681.745	2406
681.761	2524
681.809	2095
681.857	2859
681.867	2987
681.904	3355
681.952	2828
681.989	3119
682.000	3170
682.048	2556
682.096	1965
682.111	2098
682.143	2321
682.191	3158
682.233	3477
682.239	3505
682.286	2211
682.334	2795
682.354	2747
682.382	2626
682.430	2952
682.476	3129
682.477	3115
682.525	2542
682.572	2797
682.598	2848
682.620	2851
682.667	2542
682.715	3543
682.720	3490
682.763	2815
682.810	2001
682.841	2797
682.857	3161
682.905	2976
682.952	3796
682.963	3764
683.000	3615
683.047	3275
683.085	4144
683.095	4353
683.142	3046
683.190	3386
683.206	3383
683.237	3328
683.284	4059
683.328	3331
683.332	3254
683.379	3892
683.426	3492
683.449	3334
683.473	3166
683.521	3279
683.568	3316
683.571	3355
683.615	3602
683.662	4319
683.693	3590
683.709	3146
683.757	3816
683.804	3484
683.814	3600
683.851	4032
683.898	4087
683.936	3707
683.945	3585
683.992	3867
684.039	4483
684.057	4209
684.086	3731
684.133	4103
684.179	4166
684.180	4156
684.227	4185
684.274	4146
684.300	4322
684.321	4463
684.368	3419
684.415	5331
684.422	5161
684.462	3946
684.509	3977
684.543	4530
684.556	4732
684.603	4113
684.649	4369
684.665	4514
684.696	4875
684.743	4837
684.786	4964
684.790	4949
684.837	4416
684.883	5230
684.908	4945
684.930	4709
684.977	4773
685.023	5175
685.029	5087
685.070	4230
685.117	4803
685.150	4767
685.164	4775
685.210	4882
685.257	4807
685.272	5124
685.303	5871
685.350	5808
685.393	5427
685.396	5353
685.443	5639
685.490	4976
685.514	4936
685.536	5055
685.583	5334
685.629	4628
685.636	4723
685.675	5191
685.722	5245
685.757	5105
685.768	5038
685.815	4385
685.861	5284
685.878	5459
685.908	5835
685.954	5651
686.000	5894
686.000	5890
686.047	5527
686.093	5934
686.121	5788
686.139	5698
686.185	5415
686.232	5719
686.242	5728
686.278	5753
686.324	5501
686.363	5569
686.370	5574
686.416	5463
686.463	5778
686.484	5679
686.509	5633
686.555	6116
686.601	6459
686.606	6465
686.647	6257
686.693	6198
686.727	6054
686.739	6039
686.785	6144
686.831	6561
686.848	6366
686.877	5950
686.923	5922
686.969	6580
686.969	6583
687.015	6095
687.061	6492
687.090	6732
687.107	6769
687.153	6914
687.199	6655
687.211	6597
687.245	6504
687.291	6760
687.332	6591
687.336	6579
687.382	6945
687.428	6368
687.453	6655
687.474	6899
687.520	7208
687.565	7752
687.574	7648
687.611	7224
687.657	7638
687.695	7615
687.702	7621
687.748	7925
687.794	7861
687.816	8017
687.839	8089
687.885	8062
687.931	7531
687.937	7504
687.976	7339
688.022	7766
688.058	7531
688.067	7489
688.113	8157
688.158	7548
688.179	7589
688.204	7749
688.249	7777
688.295	7778
688.300	7786
688.340	7646
688.386	7936
688.421	7721
688.431	7709
688.477	7765
688.522	8379
688.542	8497
688.567	8720
688.613	8282
688.658	8207
688.663	8220
688.703	8211
688.749	8192
688.784	8457
688.794	8523
688.839	8715
688.884	8251
688.905	8267
688.930	8268
688.975	8674
689.020	8210
689.026	8162
689.065	7990
689.110	8104
689.146	7861
689.155	7825
689.201	7910
689.246	8053
689.267	8162
689.291	8305
689.336	8309
689.381	8680
689.388	8609
689.426	8216
689.471	8522
689.509	8681
689.516	8754
689.561	8992
689.606	9098
689.630	9222
689.651	9195
689.696	8521
689.741	8900
689.750	8849
689.785	8956
689.830	9286
689.871	9101
689.875	9053
689.920	8662
689.965	8922
689.992	8621
690.010	8552
690.054	8423
690.099	8718
690.112	8728
690.144	8823
690.189	8701
690.233	8782
690.233	8795
690.278	9156
690.323	8929
690.354	9465
690.367	9570
690.412	9162
690.457	8613
690.474	8473
690.501	8430
690.546	8598
690.590	8710
690.595	8675
690.635	8799
690.680	8280
690.716	9042
690.724	9143
690.769	8923
690.813	9181
690.836	8826
690.857	8809
690.902	9441
690.946	9547
690.957	9731
690.991	10452
691.035	10455
691.077	11180
691.080	11207
691.124	10704
691.168	10719
691.198	10572
691.213	10455
691.257	10305
691.301	9858
691.318	9784
691.346	9927
691.390	9832
691.434	9719
691.439	9702
691.478	9658
691.522	10089
691.559	9835
691.567	9867
691.611	10397
691.655	10448
691.680	10673
691.699	10601
691.743	10180
691.787	10246
691.800	10053
691.831	9814
691.875	9399
691.919	9727
691.921	9714
691.964	9955
692.008	9863
692.041	9885
692.052	9928
692.096	9894
692.139	10181
692.162	10092
692.183	9959
692.227	10180
692.271	9939
692.282	9936
692.315	9974
692.359	9696
692.402	9753
692.403	9773
692.447	9608
692.490	10257
692.523	10295
692.534	10301
692.578	10104
692.622	9740
692.643	9842
692.666	10071
692.709	10486
692.753	10267
692.763	10334
692.797	10388
692.840	10283
692.884	10220
692.884	10242
692.928	10324
692.971	9998
693.004	10162
693.015	10253
693.059	10336
693.102	10661
693.124	10560
693.146	10396
693.189	10259
693.233	10175
693.245	10124
693.276	10222
693.320	10376
693.363	10198
693.365	10184
693.407	10543
693.450	10829
693.485	10764
693.493	10717
693.537	10994
693.580	10483
693.605	10424
693.624	10578
693.667	11102
693.710	11307
693.725	11442
693.753	12142
693.797	12853
693.840	14033
693.845	14059
693.883	13230
693.926	12955
693.966	12272
693.970	12243
694.013	11581
694.056	11375
694.086	11043
694.099	11045
694.142	10996
694.185	10849
694.206	10959
694.229	11254
694.272	11154
694.315	11695
694.326	11616
694.358	11186
694.401	11363
694.444	11056
694.446	11019
694.487	11097
694.530	10869
694.566	11071
694.573	11110
694.616	10859
694.659	10764
694.686	10788
694.702	11003
694.745	11362
694.787	11591
694.806	11729
694.830	11757
694.873	11762
694.916	11900
694.926	11804
694.959	11939
695.002	12535
695.044	12916
695.046	12911
695.087	13191
695.130	13126
695.166	13124
695.172	13153
695.215	13106
695.258	13335
695.286	13178
695.301	13186
695.343	13260
695.386	13680
695.406	13639
695.428	14155
695.471	15186
695.514	16434
695.526	16717
695.556	17621
695.599	19084
695.641	19960
695.646	20065
695.684	19239
695.726	17985
695.766	16869
695.769	16872
695.811	16248
695.854	15853
695.886	15372
695.896	15556
695.938	16256
695.981	16828
696.005	17176
696.023	17735
696.065	19058
696.108	20275
696.125	20749
696.150	20893
696.192	21185
696.235	21228
696.245	21211
696.277	21470
696.319	21799
696.361	22075
696.365	22034
696.404	21264
696.446	20685
696.485	19863
696.488	19915
696.530	19970
696.572	20149
696.604	20287
696.614	20323
696.656	20134
696.698	19995
696.724	19803
696.740	19884
696.783	20145
696.825	20250
696.844	20270
696.867	20396
696.909	20588
696.951	20589
696.964	20631
696.992	21024
697.034	21289
697.076	21610
697.083	21625
697.118	22235
697.160	22951
697.202	23539
697.203	23498
697.244	23640
697.286	23812
697.323	23879
697.327	23923
697.369	23768
697.411	23666
697.442	23537
697.453	23550
697.494	23268
697.536	23070
697.562	22843
697.578	23041
697.620	23411
697.661	23896
697.682	24061
697.703	24464
697.744	25161
697.786	25832
697.801	25993
697.828	25870
697.869	25537
697.911	25299
697.921	25186
697.952	25135
697.994	24885
698.035	24685
698.040	24591
698.077	24822
698.118	25167
698.160	25385
698.160	25324
698.201	25980
698.243	26617
698.279	27167
698.284	27278
698.325	27627
698.367	27971
698.399	28176
698.408	28383
698.449	29028
698.491	29697
698.518	30041
698.532	30049
698.573	29856
698.614	29660
698.638	29485
698.656	29553
698.697	29542
698.738	29488
698.757	29406
698.779	29390
698.820	29212
698.862	29023
698.877	28880
698.903	29055
698.944	29228
698.985	29393
698.996	29368
699.026	29413
699.067	29369
699.116	29244
699.235	29652
699.354	29033
699.474	26967
699.593	27131
699.713	28395
699.832	27314
699.951	29429
700.070	28300
700.190	26379
700.309	25311
700.428	25284
700.547	24911
700.667	24460
700.786	25114
700.905	23669
701.024	24845
701.143	23508
701.262	24792
701.381	24708
701.500	25822
701.619	24719
701.738	24327
701.857	24804
701.976	23087
702.095	24440
702.214	25297
702.333	22931
702.452	25349
702.571	25963
702.690	25249
702.809	24680
702.928	24736
703.047	22659
703.165	23234
703.284	22816
703.403	21792
703.522	22451
703.640	21719
703.759	21331
703.878	21087
703.997	20662
704.115	22280
704.234	21544
704.353	23433
704.471	19017
704.590	20418
704.708	19578
704.827	20147
704.946	19333
705.064	19781
705.183	19761
705.301	19914
705.420	18952
705.538	18075
705.656	17467
705.775	17054
705.893	18797
706.012	18207
706.130	17804
706.249	18477
706.367	18076
706.485	17814
706.604	16140
706.722	16623
706.840	18314
706.958	18721
707.077	16650
707.195	15928
707.313	16796
707.431	15280
707.549	15216
707.668	14707
707.786	17459
707.904	16059
708.022	18014
708.140	16572
708.258	15662
708.376	16838
708.494	14247
708.612	15994
708.730	16221
708.848	15718
708.966	15978
709.084	16148
709.202	16286
709.320	14077
709.438	14769
709.556	14605
709.674	14214
709.791	14040
709.909	13818
710.027	14364
710.145	13319
710.263	13463
710.380	13514
710.498	13291
710.616	12942
710.733	13041
710.851	13360
710.969	12680
711.086	12334
711.204	14256
711.322	13350
711.439	12875
711.557	12705
711.674	12527
711.792	12883
711.909	12079
712.027	11270
712.144	12153
712.262	11642
712.379	12225
712.497	12112
712.614	11660
712.732	12908
712.849	11285
712.966	12343
713.084	12230
713.201	11232
713.318	12459
713.436	13010
713.553	11042
713.670	11728
713.787	12582
713.905	10665
714.022	13141
714.139	13554
714.256	15213
714.373	21579
714.490	39590
714.608	102580
714.725	388524
714.842	288712
714.959	34779
715.076	16566
715.193	14206
715.310	13390
715.427	11203
715.544	11074
715.661	11448
715.778	10376
715.895	10064
716.011	11371
716.128	10442
716.245	11128
716.362	10436
716.479	9076
716.596	9999
716.713	9557
716.829	9840
716.946	9309
717.063	9126
717.180	8936
717.296	9603
717.413	9963
717.530	9649
717.646	8591
717.763	9166
717.880	8850
717.996	8013
718.113	9099
718.229	9012
718.346	7616
718.462	7664
718.579	8470
718.695	8316
718.812	7395
718.928	8495
719.045	8367
719.161	8413
719.277	9076
719.394	8646
719.510	9135
719.626	9709
719.743	11543
719.859	18200
719.975	38716
720.092	153625
720.208	256069
720.324	30329
720.440	11218
720.557	9838
720.673	9366
720.789	8278
720.905	8412
721.021	8133
721.137	7649
721.253	7806
721.369	7836
721.486	7607
721.602	6776
721.718	7618
721.834	7418
721.950	7205
722.066	7207
722.181	7053
722.297	7534
722.413	7215
722.529	7244
722.645	6684
722.761	6660
722.877	7037
722.993	7930
723.108	10285
723.224	8506
723.340	7088
723.456	7079
723.571	7177
723.687	6100
723.803	7772
723.918	6220
724.034	6836
724.150	5989
724.265	6424
724.381	5900
724.497	5785
724.612	6614
724.728	7257
724.843	6168
724.959	6414
725.074	7166
725.190	6428
725.305	6564
725.421	6661
725.536	7377
725.651	7031
725.767	5914
725.882	6698
725.997	6739
726.113	6187
726.228	6323
726.343	6035
726.459	6418
726.574	5784
726.689	5814
726.804	6532
726.920	6009
727.035	6186
727.150	5899
727.265	5717
727.380	6688
727.495	6802
727.610	6298
727.725	5510
727.841	6095
727.956	5811
728.071	6114
728.186	5247
728.301	6310
728.416	6419
728.531	6397
728.645	5669
728.760	5590
728.875	6032
728.990	5850
729.105	6005
729.220	5968
729.335	5998
729.449	6658
729.564	6806
729.679	6064
729.794	6714
729.908	6165
730.023	5859
730.138	6732
730.253	6328
730.367	5768
730.482	6783
730.596	6193
730.711	7572
730.826	10744
730.940	9339
731.055	7865
731.169	8159
731.284	8806
731.398	7321
731.513	8898
731.627	9665
731.742	12461
731.856	15104
731.970	14860
732.085	17884
732.199	23087
732.313	40432
732.428	102930
732.542	277987
732.656	131653
732.771	31291
732.885	21956
732.999	20751
733.113	23482
733.227	22728
733.342	20162
733.456	21288
733.570	20196
733.684	18921
733.798	18014
733.912	18650
734.026	18208
734.140	19271
734.254	17323
734.368	17842
734.482	17842
734.596	18053
734.710	17142
734.824	17008
734.938	17427
735.052	17842
735.166	17686
735.280	17077
735.393	15624
735.507	16704
735.621	15488
735.735	16014
735.849	16370
735.962	15414
736.076	15847
736.190	14659
736.303	15637
736.417	16354
736.531	14118
736.644	15875
736.758	14084
736.872	14928
736.985	14790
737.099	14330
737.212	13727
737.326	13724
737.439	15031
737.553	13416
737.666	14713
737.780	12950
737.893	14045
738.007	13494
738.120	14742
738.233	13196
738.347	13387
738.460	13100
738.573	13460
738.687	12919
738.800	13848
738.913	14249
739.026	12950
739.140	12348
739.253	12843
739.366	12712
739.479	12350
739.592	12032
739.705	11058
739.818	13658
739.932	11434
740.045	12107
740.158	11450
740.271	12573
740.384	11776
740.497	11167
740.610	12495
740.723	9985
740.836	11352
740.949	10974
741.062	12895
741.174	10938
741.287	12299
741.400	11911
741.513	9916
741.626	11096
741.739	10649
741.851	10006
741.964	10055
742.077	10337
742.189	9999
742.302	13002
742.415	10873
742.527	10317
742.640	10509
742.753	8743
742.865	10654
742.978	9361
743.090	8875
743.203	10299
743.316	9290
743.428	9245
743.541	9865
743.653	9374
743.766	10010
743.878	10014
743.990	7997
744.103	11939
744.215	12677
744.327	9064
744.440	11708
744.552	8856
744.664	7948
744.777	9843
744.889	8837
745.001	8734
745.113	10162
745.226	8088
745.338	7460
745.450	10666
745.562	8303
745.674	7657
745.786	9616
745.898	7936
746.010	8249
746.122	8922
746.234	9104
746.347	8847
746.459	8488
746.570	7011
746.682	11682
746.794	15701
746.906	8160
747.018	8883
747.130	7939
747.242	7015
747.354	7690
747.466	8706
747.577	6546
747.689	7587
747.801	8345
747.913	7400
748.024	6612
748.136	7213
748.248	6583
748.359	6927
748.471	7607
748.583	6582
748.694	7513
748.806	8036
748.918	6865
749.029	7259
749.141	7742
749.252	7185
749.364	6296
749.475	6937
749.587	6445
749.698	6347
749.809	7472
749.921	6793
750.032	6012
750.144	6067
750.255	6258
750.366	7136
750.478	6378
750.589	6544
750.700	5966
750.811	7257
750.923	5421
751.034	5775
751.145	7195
751.256	6083
751.367	5296
751.479	6138
751.590	6395
751.701	6756
751.812	5762
751.923	4871
752.034	7373
752.145	5879
752.256	5852
752.367	6018
752.478	5634
752.589	6355
752.700	5856
752.811	4878
752.922	5466
753.032	5760
753.143	5825
753.254	5335
753.365	6350
753.476	6729
753.586	4633
753.697	6000
753.808	5476
753.919	5251
754.029	6127
754.140	5138
754.251	5391
754.361	5988
754.472	5888
754.582	4881
754.693	4346
754.804	6663
754.914	5886
755.025	4205
755.135	5341
755.246	6628
755.356	4736
755.466	4816
755.577	4828
755.687	6191
755.798	5069
755.908	5080
756.018	5409
756.129	5590
756.239	5722
756.349	5970
756.460	4816
756.570	5190
756.680	5255
756.790	5369
756.900	4997
757.011	4490
757.121	4775
757.231	5075
757.341	5220
757.451	4379
757.561	4539
757.671	5076
757.781	3938
757.891	4405
758.001	3365
758.111	5785
758.221	5920
758.331	6180
758.441	5141
758.551	4969
758.661	5809
758.771	5431
758.880	5083
758.990	4556
759.100	4802
759.210	4795
759.320	5614
759.429	5507
759.539	5999
759.649	5942
759.758	6145
759.868	7276
759.978	6461
760.087	6942
760.197	6230
760.307	6296
760.416	5766
760.526	4965
760.635	5736
760.745	6453
760.854	7009
760.964	8603
761.073	6922
761.182	7072
761.292	7213
761.401	6083
761.511	4332
761.620	4704
761.729	5671
761.839	4405
761.948	4979
762.057	4158
762.166	5525
762.276	3875
762.385	4718
762.494	4683
762.603	5243
762.712	4359
762.822	4645
762.931	4483
763.040	4015
763.149	4765
763.258	3999
763.367	5045
763.476	3950
763.585	4399
763.694	4419
763.803	4739
763.912	4135
764.021	4475
764.130	4229
764.238	5251
764.347	4380
764.456	4729
764.565	4739
764.674	4928
764.783	3883
764.891	4328
765.000	6373
765.109	5391
765.217	5037
765.326	5334
765.435	6121
765.543	7114
765.652	7043
765.761	8612
765.869	11688
765.978	16152
766.086	28595
766.195	58813
766.303	148533
766.412	317758
766.520	227231
766.629	75868
766.737	31250
766.846	20378
766.954	12745
767.062	11076
767.171	8515
767.279	8057
767.387	6832
767.496	7476
767.604	5802
767.712	5843
767.820	5845
767.928	4983
768.037	4090
768.145	5651
768.253	4917
768.361	4961
768.469	5670
768.577	4037
768.685	5594
768.793	5345
768.901	4703
769.009	5993
769.117	5493
769.225	7123
769.333	8764
769.441	13700
769.549	24564
769.657	55922
769.765	169031
769.873	249285
769.981	88328
770.088	25617
770.196	15568
770.304	12331
770.412	9762
770.519	8046
770.627	7683
770.735	7449
770.842	6674
770.950	7190
771.058	6132
771.165	8855
771.273	8293
771.380	10109
771.488	13567
771.595	14864
771.703	12274
771.810	11069
771.918	12198
772.025	14444
772.133	16920
772.240	15107
772.348	18035
772.455	17644
772.562	15034
772.670	14501
772.777	15022
772.884	14654
772.991	13643
773.099	15309
773.206	14333
773.313	14789
773.420	13958
773.528	13781
773.635	12460
773.742	15067
773.849	12043
773.956	14735
774.063	12100
774.170	13792
774.277	13907
774.384	13280
774.491	12174
774.598	13361
774.705	12428
774.812	12420
774.919	12024
775.026	12298
775.133	12921
775.239	12606
775.346	11383
775.453	11801
775.560	11388
775.667	13624
775.773	10526
775.880	12716
775.987	12036
776.093	12133
776.200	12369
776.307	9333
776.413	9976
776.520	13371
776.627	11117
776.733	10564
776.840	9517
776.946	16498
777.053	16575
777.159	20984
777.266	13964
777.372	20002
777.478	17344
777.585	11588
777.691	9252
777.798	11252
777.904	10023
778.010	9305
778.117	10786
778.223	9766
778.329	10597
778.435	8431
778.542	11348
778.648	8923
778.754	7350
778.860	9738
778.966	9195
779.072	8578
779.178	8537
779.284	7571
779.391	9624
779.497	9189
779.603	10517
779.708	7629
779.815	8965
779.920	12194
780.026	11691
780.132	9690
780.238	8232
780.344	7755
780.450	10825
780.556	6169
780.661	8227
780.767	8985
780.873	6007
780.979	7722
781.085	9206
781.190	7044
781.296	6943
781.402	8692
781.507	7796
781.613	6374
781.719	7335
781.824	8506
781.930	7655
782.035	7305
782.141	9347
782.246	5459
782.352	6423
782.457	7525
782.563	7301
782.668	7824
782.773	6590
782.879	6167
782.984	8471
783.090	6958
783.195	7701
783.300	8317
783.405	5978
783.511	4975
783.616	6666
783.721	6432
783.826	5929
783.932	5951
784.037	6530
784.142	7370
784.247	5962
784.352	6798
784.457	5188
784.562	7494
784.667	6583
784.772	5456
784.877	3807
784.982	7519
785.087	7292
785.192	5744
785.297	5798
785.402	6296
785.507	6611
785.611	5174
785.716	4633
785.821	5414
785.926	5478
786.031	5946
786.135	5575
786.240	6327
786.345	4623
786.450	5253
786.554	6172
786.659	4566
786.763	5045
786.868	5604
786.973	7012
787.077	4128
787.182	4956
787.286	6122
787.391	6815
787.495	3685
787.600	3972
787.704	4740
787.809	5102
787.913	4308
788.017	5492
788.122	6173
788.226	5531
788.330	2731
788.435	5012
788.539	6649
788.643	4592
788.747	3288
788.852	5280
788.956	4539
789.060	5631
789.164	5206
789.268	3857
789.372	5735
789.476	3775
789.580	2882
789.684	4372
789.788	5467
789.892	4799
789.996	3295
790.100	2922
790.204	5418
790.308	5451
790.412	3313
790.516	2964
790.620	3879
790.724	6046
790.828	4308
790.931	1778
791.035	5512
791.139	4858
791.242	4233
791.346	4684
791.450	4828
791.554	3025
791.657	2680
791.761	4454
791.864	4693
791.968	4922
792.072	4028
792.175	3892
792.279	3203
792.382	3674
792.486	3825
792.589	2753
792.693	4243
792.796	2397
792.899	4948
793.003	5530
793.106	3034
793.209	3506
793.313	3928
793.416	1447
793.519	4245
793.623	4643
793.726	4048
793.829	2203
793.932	3486
794.035	2271
794.138	4990
794.242	5081
794.345	2428
794.448	3014
794.551	2621
794.654	5725
794.757	6341
794.860	4061
794.963	3565
795.066	2103
795.169	3855
795.272	2654
795.375	4037
795.477	1773
795.580	2502
795.683	1634
795.786	4175
795.889	2550
795.991	3825
796.094	3359
796.197	1987
796.300	4520
796.402	2757
796.505	2418
796.608	2001
796.710	3319
796.813	3294
796.915	3626
797.018	4081
797.120	3017
797.223	1976
797.326	4175
797.428	3492
797.530	2362
797.633	1724
797.735	3373
797.838	2636
797.940	3804
798.042	2150
798.145	2421
798.247	2539
798.349	889
798.452	4533
798.554	2760
798.656	2134
798.758	3922
798.860	2133
798.962	2411
799.065	1130
799.167	1700
799.269	3138
799.371	3796
799.473	4376
799.575	2907
799.677	2483
799.779	4319
799.881	1443
799.983	3190
800.085	1498
800.187	2083
800.289	385
800.390	1976
800.492	3345
800.594	3814
800.696	1100
800.798	1618
800.899	1951
801.001	2996
801.103	2993
801.205	1480
801.306	2322
801.408	2348
801.509	2033
801.611	2655
801.713	3106
801.814	1930
801.916	2241
802.017	1680
802.119	2028
802.220	2498
802.322	1165
802.423	3599
802.525	1259
802.626	2359
802.727	2860
802.829	2410
802.930	-1582
803.031	2974
803.133	1803
803.234	2383
803.335	2523
803.436	1168
803.538	2330
803.639	1264
803.740	2833
803.841	2508
803.942	2936
804.043	2840
804.144	670
804.245	2539
804.346	2124
804.447	1862
804.548	2293
804.649	2534
804.750	1737
804.851	1017
804.952	1137
805.053	1556
805.154	725
805.255	2453
805.355	2413
805.456	2342
805.557	2457
805.658	818
805.758	2385
805.859	1778
805.960	1843
806.061	631
806.161	1838
806.262	2226
806.362	1244
806.463	1068
806.564	2716
806.664	1549
806.765	798
806.865	489
806.966	1137
807.066	1151
807.166	2489
807.267	2632
807.367	1686
807.468	2211
807.568	787
807.668	1672
807.769	2476
807.869	1154
807.969	1869
808.069	1644
808.170	2323
808.270	1399
808.370	2498
808.470	2422
808.570	1063
808.670	1603
808.770	2162
808.870	1184
808.970	1118
809.070	1286
809.170	1610
809.271	1568
809.370	1382
809.470	1308
809.570	941
809.670	483
809.770	1515
809.870	2115
809.970	2143
810.070	2036
810.169	2643
810.269	875
810.369	2953
810.469	955
810.568	680
810.668	1590
810.768	996
810.867	2066
810.967	1200
811.066	1632
811.166	1313
811.265	2533
811.365	588
811.464	1657
811.564	2800
811.663	2155
811.763	951
811.862	1202
811.962	2209
812.061	1985
812.160	1892
812.260	1466
812.359	2144
812.458	1259
812.557	2521
812.657	1643
812.756	1825
812.855	1092
812.954	921
813.053	2039
813.153	1220
813.252	741
813.351	1849
813.450	2156
813.549	1762
813.648	1231
813.747	1561
813.846	2576
813.945	1832
814.044	2645
814.143	2212
814.242	2721
814.341	1582
814.439	2326
814.538	2691
814.637	1966
814.736	2345
814.835	2920
814.933	1874
815.032	4380
815.131	5528
815.229	10489
815.328	13426
815.427	9629
815.525	8162
815.624	7647
815.722	8157
815.821	9081
815.919	9743
816.018	8133
816.116	8433
816.215	8615
816.313	9660
816.412	11282
816.510	11307
816.609	12635
816.707	13370
816.805	10153
816.904	10487
817.002	11454
817.100	11242
817.198	11072
817.296	10188
817.395	11156
817.493	10558
817.591	9472
817.689	10245
817.787	10692
817.885	10966
817.983	9310
818.081	10268
818.179	11141
818.277	15194
818.375	12061
818.473	10595
818.571	8030
818.669	11762
818.767	12236
818.865	9710
818.963	7587
819.061	10334
819.158	8837
819.256	11361
819.354	11052
819.452	16616
819.549	11361
819.647	11196
819.745	8503
819.842	8057
819.940	9435
820.038	7478
820.135	6418
820.233	9694
820.330	8042
820.428	7054
820.525	10060
820.623	7266
820.720	7099
820.818	8441
820.915	8956
821.012	9014
821.110	6840
821.207	8200
821.304	7460
821.402	8346
821.499	10969
821.596	9115
821.693	8189
821.791	8332
821.888	6946
821.985	9258
822.082	5736
822.179	9351
822.276	9156
822.373	7283
822.470	6447
822.567	7324
822.664	6665
822.761	7798
822.858	7034
822.955	6649
823.052	6129
823.149	7555
823.246	7072
823.343	4970
823.440	6041
823.536	6808
823.633	6582
823.730	6177
823.827	6882
823.923	6863
824.020	7426
824.117	7863
824.213	7781
824.310	5875
824.407	4351
824.503	6861
824.600	5665
824.696	5670
824.793	7551
824.889	6837
824.986	5455
825.082	3780
825.179	5186
825.275	6573
825.371	7026
825.468	4567
825.564	3289
825.660	7472
825.757	7215
825.853	5708
825.949	4207
826.045	5283
826.142	5166
826.238	6105
826.334	5659
826.430	5387
826.526	3569
826.622	4072
826.718	6299
826.814	6879
826.910	6351
827.006	3094
827.102	3742
827.198	5797
827.294	6198
827.390	5882
827.486	4441
827.582	2583
827.678	4101
827.774	7638
827.869	2939
827.965	5335
828.061	2592
828.157	5630
828.252	5903
828.348	4812
828.444	3905
828.539	3741
828.635	3949
828.731	4591
828.826	2977
828.922	5144
829.017	5004
829.113	5423
829.208	3454
829.304	3452
829.399	6537
829.495	3798
829.590	4355
829.685	4541
829.781	5992
829.876	5531
829.971	1741
830.066	2464
830.162	4233
830.257	6529
830.352	4255
830.447	3696
830.543	3216
830.638	3594
830.733	5498
830.828	3028
830.923	4319
831.018	4691
831.113	5330
831.208	1658
831.303	2505
831.398	2942
831.493	4103
831.588	6098
831.683	3326
831.778	3164
831.873	3083
831.967	5586
832.062	3799
832.157	2858
832.252	3579
832.346	3082
832.441	4280
832.536	3625
832.631	4924
832.725	2919
832.820	3409
832.914	2976
833.009	3268
833.104	2815
833.198	2295
833.293	3501
833.387	4021
833.482	4588
833.576	2958
833.670	2907
833.765	2951
833.859	3527
833.954	3624
834.048	3276
834.142	2654
834.237	1285
834.331	3058
834.425	4039
834.519	2519
834.613	3842
834.708	2273
834.802	3023
834.896	3457
834.990	3364
835.084	1374
835.178	1994
835.272	2486
835.366	3373
835.460	4711
835.554	2909
835.648	2226
835.742	1702
835.836	2310
835.930	2143
836.024	3060
836.117	3545
836.211	2198
836.305	2261
836.399	2667
836.493	2125
836.586	4127
836.680	2884
836.774	1101
836.867	2312
836.961	1160
837.055	1647
837.148	2556
837.242	3043
837.335	2587
837.429	1375
837.522	2314
837.616	1401
837.709	2458
837.803	1455
837.896	3742
837.989	3401
838.083	1533
838.176	1317
838.269	1616
838.363	2827
838.456	1811
838.549	2975
838.642	2117
838.735	1649
838.829	2817
838.922	1887
839.015	2779
839.108	1308
839.201	2195
839.294	3443
839.387	1341
839.480	33
839.573	1904
839.666	1678
839.759	1766
839.852	1729
839.945	2862
840.038	1677
840.131	1843
840.223	1459
840.316	2978
840.409	2586
840.502	1875
840.594	2599
840.687	-427
840.780	1594
840.873	1035
840.965	1452
841.058	2927
841.150	2639
841.243	1017
841.336	1932
841.428	1914
841.521	1044
841.613	1802
841.706	2033
841.798	1676
841.890	1813
841.983	615
842.075	1315
842.167	1983
842.260	1999
842.352	2406
842.444	2315
842.537	1341
842.629	1201
842.721	1182
842.813	2531
842.905	1303
842.997	1095
843.090	1088
843.182	1306
843.274	250
843.366	1553
843.458	1358
843.550	3157
843.642	659
843.734	2269
843.826	451
843.918	1161
844.009	1385
844.101	1175
844.193	1689
844.285	2032
844.377	2478
844.469	2444
844.560	1927
844.652	2019
844.744	1734
844.835	1536
844.927	1659
845.019	1973
845.110	1276
845.202	2103
845.293	1250
845.385	585
845.476	1607
845.568	2649
845.659	1045
845.751	1865
845.842	415
845.934	1880
846.025	957
846.116	1262
846.208	901
846.299	689
846.390	1322
846.482	1475
846.573	2014
846.664	2053
846.755	1057
846.846	2035
846.937	161
847.029	1219
847.120	833
847.211	878
847.302	2630
847.393	937
847.484	1937
847.575	491
847.666	35
847.757	806
847.847	1637
847.938	2681
848.029	1371
848.120	1049
848.211	484
848.302	-206
848.392	823
848.483	1532
848.574	368
848.664	1287
848.755	1201
848.846	1749
848.936	1245
849.027	1734
849.118	1265
849.208	1429
849.299	2650
849.389	4334
849.480	6208
849.570	12233
849.661	23251
849.751	32619
849.841	9921
849.932	2036
850.022	958
850.112	1360
850.203	708
850.293	927
850.383	269
850.474	1032
850.564	1193
850.654	1284
850.744	894
850.834	1115
850.924	1385
851.014	1757
851.104	1125
851.194	-400
851.284	171
851.374	1057
851.464	176
851.554	807
851.644	344
851.734	1027
851.824	163
851.914	1205
852.004	1736
852.094	651
852.183	885
852.273	757
852.363	798
852.452	1366
852.542	271
852.632	471
852.721	395
852.811	294
852.901	2314
852.990	2817
853.080	2075
853.169	1657
853.259	557
853.348	830
853.438	2455
853.527	3072
853.617	3984
853.706	7761
853.795	12881
853.885	27687
853.974	47092
854.063	83916
854.152	99541
854.242	36065
854.331	10358
854.420	5431
854.509	4031
854.598	2295
854.687	2492
854.777	3095
854.866	1542
854.955	2134
855.044	1444
855.133	1825
855.222	945
855.311	905
855.400	1077
855.488	1025
855.577	695
855.666	944
855.755	750
855.844	1145
855.933	868
856.021	1233
856.110	775
856.199	651
856.288	599
856.376	338
856.465	795
856.554	1457
856.642	1148
856.731	1356
856.819	1202
856.908	740
856.996	1102
857.085	-85
857.173	756
857.262	581
857.350	1049
857.438	384
857.527	1337
857.615	441
857.703	882
857.792	868
857.880	207
857.968	523
858.056	1451
858.145	613
858.233	-81
858.321	1305
858.409	1315
858.497	1214
858.585	231
858.673	461
858.761	558
858.849	406
858.937	499
859.025	1029
859.113	771
859.201	1101
859.289	2353
859.377	1504
859.465	883
859.552	1624
859.640	31
859.728	959
859.816	1039
859.903	1835
859.991	1110
860.079	1262
860.166	589
860.254	1366
860.342	975
860.429	149
860.517	739
860.604	1010
860.692	1379
860.779	259
860.867	129
860.954	769
861.042	1588
861.129	994
861.216	1439
861.304	629
861.391	917
861.478	1031
861.565	706
861.653	1710
861.740	582
861.827	876
861.914	868
862.001	865
862.089	1823
862.176	1348
862.263	362
862.350	1170
862.437	1056
862.524	729
862.611	1097
862.698	1160
862.785	1984
862.871	2746
862.958	1514
863.045	1495
863.132	1089
863.219	643
863.306	314
863.392	1678
863.479	1164
863.566	1615
863.652	1990
863.739	1108
863.826	1399
863.912	1447
863.999	850
864.086	774
864.172	1234
864.259	1751
864.345	1675
864.432	1677
864.518	2396
864.604	2092
864.691	1106
864.777	2547
864.863	3057
864.950	5101
865.036	6688
865.122	12971
865.209	13334
865.295	11361
865.381	10476
865.467	10299
865.553	11123
865.639	11576
865.726	15177
865.812	21941
865.898	33025
865.984	45217
866.070	75670
866.156	65493
866.242	24432
866.328	12889
866.414	10202
866.499	10155
866.585	9080
866.671	8787
866.757	9334
866.843	8673
866.928	8090
867.014	8094
867.100	9004
867.186	7707
867.271	7852
867.357	8461
867.442	7309
867.528	8588
867.614	9573
867.699	8276
867.785	8792
867.870	9524
867.956	9474
868.041	8092
868.127	8418
868.212	8015
868.297	8272
868.383	7933
868.468	7828
868.553	7761
868.639	7422
868.724	7011
868.809	7658
868.894	6964
868.979	7742
869.065	7997
869.150	6405
869.235	7305
869.320	7467
869.405	6250
869.490	7827
869.575	7123
869.660	5111
869.745	8159
869.830	7621
869.915	6184
870.000	6127
870.085	6335
870.169	8353
870.254	8595
870.339	4572
870.424	6331
870.509	6654
870.593	8151
870.678	7142
870.763	5832
870.847	5808
870.932	7615
871.016	6946
871.101	4975
871.186	6119
871.270	8273
871.355	4605
871.439	5690
871.523	7228
871.608	5160
871.692	5425
871.777	7821
871.861	6915
871.945	5354
872.030	6046
872.114	6038
872.198	4796
872.282	5114
872.367	5068
872.451	5429
872.535	5714
872.619	5790
872.703	5086
872.787	6345
872.871	5941
872.955	4323
873.039	3153
873.123	5307
873.207	6511
873.291	4347
873.375	4818
873.459	5973
873.543	4786
873.627	3969
873.711	4262
873.794	5159
873.878	5162
873.962	4453
874.045	4771
874.129	4156
874.137	4262
874.213	5320
874.245	4951
874.296	4363
874.352	4085
874.380	3948
874.460	4112
874.464	4121
874.547	4039
874.568	4189
874.631	4613
874.676	4772
874.714	4927
874.784	5662
874.798	5800
874.881	4691
874.892	4496
874.965	3252
874.999	3877
875.048	4650
875.107	4849
875.131	4950
875.215	3140
875.215	3139
875.298	3048
875.323	3593
875.381	4899
875.430	5644
875.465	6142
875.538	5034
875.548	4880
875.631	3578
875.646	3461
875.714	2970
875.753	3208
875.798	3515
875.861	4647
875.881	4938
875.964	3747
875.968	3725
876.047	3580
876.076	3555
876.130	3476
876.183	4001
876.213	4275
876.291	4807
876.296	4840
876.379	3301
876.398	3219
876.462	2945
876.506	3185
876.545	3441
876.613	3416
876.628	3425
876.711	3572
876.721	3698
876.794	4548
876.828	4295
876.877	3836
876.935	3089
876.960	2844
877.043	2439
877.043	2446
877.125	4122
877.150	4353
877.208	4765
877.258	3795
877.291	3150
877.365	2905
877.374	2863
877.456	2734
877.472	2683
877.539	2724
877.579	3316
877.622	3774
877.687	3533
877.704	3521
877.787	3836
877.794	3854
877.869	3812
877.901	3536
877.952	3178
878.008	2615
878.034	2293
878.115	2528
878.117	2537
878.199	2946
878.222	3228
878.282	4065
878.329	4006
878.364	3888
878.437	3869
878.447	3845
878.529	2310
878.544	2383
878.611	2733
878.651	2658
878.694	2731
878.758	3150
878.776	3222
878.858	3356
878.865	3337
878.941	2796
878.972	2353
879.023	1999
879.078	2255
879.105	2332
879.185	3332
879.187	3350
879.269	3098
879.292	3133
879.351	3103
879.399	2691
879.433	2430
879.506	2572
879.516	2599
879.598	2681
879.613	2625
879.680	2457
879.720	2842
879.762	3202
879.827	3211
879.844	3191
879.926	2904
879.933	2944
880.007	3458
880.040	3246
880.089	2963
880.147	3759
880.171	4036
880.253	5229
880.254	5229
880.335	5161
880.360	5870
880.417	8403
880.467	10984
880.499	12588
880.574	13932
880.580	13643
880.662	6953
880.680	5834
880.744	3471
880.787	2670
880.825	2519
880.893	2631
880.907	2669
880.989	2112
881.000	2222
881.070	3109
881.106	3014
881.152	2664
881.213	2170
881.233	2117
881.315	2616
881.319	2642
881.396	2861
881.426	2810
881.478	2706
881.532	3027
881.559	3173
881.639	2491
881.641	2471
881.722	2347
881.745	2281
881.803	2597
881.852	2868
881.885	2708
881.958	2045
881.966	2048
882.047	2631
882.064	2584
882.129	1906
882.171	1681
882.210	1666
882.277	1703
882.291	1680
882.372	2513
882.383	2536
882.454	3326
882.489	3279
882.535	2845
882.596	3220
882.616	3349
882.697	3024
882.702	2988
882.778	2003
882.808	1938
882.859	1983
882.914	1548
882.940	1508
883.020	2247
883.021	2255
883.102	2643
883.127	2936
883.183	3419
883.233	3197
883.264	2881
883.339	2205
883.345	2136
883.426	1561
883.445	1554
883.507	2000
883.551	2073
883.587	2186
883.657	2583
883.668	2680
883.749	3177
883.763	3128
883.830	1675
883.869	1207
883.910	1535
883.975	2263
883.991	2363
884.072	2470
884.081	2515
884.152	3204
884.187	3391
884.233	3251
884.292	2787
884.314	2567
884.394	1899
884.398	1889
884.475	1499
884.504	1218
884.555	1492
884.610	1777
884.636	1738
884.716	2054
884.716	2060
884.797	2948
884.821	3050
884.877	2820
884.927	2755
884.958	2580
885.033	2062
885.038	2021
885.118	1398
885.139	1313
885.199	1988
885.244	2479
885.279	2491
885.350	2497
885.359	2607
885.439	3612
885.456	3632
885.520	2543
885.561	2299
885.600	2087
885.667	1655
885.680	1721
885.760	1977
885.773	2024
885.840	1727
885.878	1504
885.920	1521
885.984	1728
886.000	1835
886.080	2290
886.089	2326
886.160	2213
886.195	2202
886.240	2191
886.300	2013
886.320	1923
886.400	2097
886.406	2058
886.480	1378
886.511	1312
886.560	1568
886.616	1702
886.640	1703
886.720	1931
886.722	1931
886.800	1480
886.827	1381
886.879	1926
886.932	2494
886.959	2722
887.038	3059
887.039	3057
887.119	2661
887.143	2573
887.198	2030
887.248	1405
887.278	1726
887.354	2548
887.358	2531
887.437	2147
887.459	2072
887.517	2191
887.564	2134
887.596	2175
887.669	2355
887.676	2282
887.755	1548
887.774	1303
887.835	1517
887.880	1793
887.914	1991
887.985	2246
887.994	2288
888.073	2914
888.090	2970
888.153	3231
888.195	3366
888.232	2691
888.300	1592
888.311	1620
888.391	1846
888.405	1878
888.470	1615
888.510	1421
888.549	1780
888.615	2543
888.628	2508
888.708	2144
888.720	2080
888.787	2412
888.825	2572
888.866	1850
888.930	833
888.945	997
889.024	1906
889.035	2012
889.103	1957
889.140	1969
889.182	1931
889.245	1865
889.261	1948
889.340	2369
889.349	2415
889.419	2194
889.454	2100
889.498	1894
889.559	1623
889.577	1683
889.656	1946
889.664	1976
889.735	2473
889.768	2705
889.814	2228
889.873	1586
889.978	1797
890.083	2013
890.187	1926
890.292	2176
890.397	1729
890.501	1433
890.606	1360
890.710	2831
890.815	2790
890.919	2308
891.024	1986
891.128	1917
891.233	1288
891.337	2369
891.442	2757
891.546	2267
891.650	1389
891.755	408
891.859	3555
891.963	2687
892.068	2158
892.172	1977
892.276	724
892.380	2155
892.484	1976
892.589	2502
892.693	1732
892.797	1688
892.901	1498
893.005	1543
893.109	2855
893.213	2853
893.317	2337
893.421	884
893.525	492
893.629	1480
893.733	2442
893.837	1230
893.941	1416
894.045	1562
894.148	624
894.252	759
894.356	1726
894.460	2937
894.564	997
894.667	2598
894.771	549
894.875	1135
894.978	787
895.082	2177
895.186	1600
895.289	1418
895.393	1581
895.496	3174
895.600	1008
895.703	1426
895.807	205
895.910	1666
896.014	1228
896.117	1205
896.221	1494
896.324	1739
896.427	1092
896.531	1096
896.634	1166
896.737	1306
896.840	902
896.944	2221
897.047	1896
897.150	1251
897.253	531
897.356	859
897.460	733
897.563	998
897.666	1180
897.769	2299
897.872	414
897.975	1226
898.078	1021
898.181	453
898.284	1216
898.387	2065
898.490	1328
898.593	1384
898.695	757
898.798	-7
898.901	1167
899.004	1543
899.107	1756
899.209	1936
899.312	1794
899.415	1130
899.518	1006
899.620	1474
899.723	114
899.826	1070
899.928	1109
900.031	1267
900.133	1112
900.236	467
900.338	204
900.441	908
900.543	1058
900.646	1415
900.748	693
900.851	1797
900.953	1344
901.055	1404
901.158	761
901.260	1153
901.362	451
901.465	378
901.567	1581
901.669	2077
901.771	1260
901.873	1813
901.976	202
902.078	1029
902.180	411
902.282	820
902.384	1638
902.486	2097
902.588	1237
902.690	621
902.792	551
902.894	1232
902.996	893
903.098	1170
903.200	1231
903.302	492
903.404	132
903.505	652
903.607	1367
903.709	2270
903.811	1390
903.913	1359
904.014	804
904.116	717
904.218	861
904.319	1172
904.421	2154
904.523	3109
904.624	1599
904.726	1591
904.827	1409
904.929	2006
905.030	1672
905.132	2342
905.233	1342
905.335	1130
905.436	725
905.537	1130
905.639	958
905.740	696
905.841	1719
905.943	2333
906.044	1968
906.145	1463
906.247	684
906.348	962
906.449	854
906.550	1617
906.651	513
906.752	603
906.854	321
906.955	1138
907.056	1488
907.157	2094
907.258	947
907.359	462
907.460	338
907.561	519
907.662	-533
907.762	857
907.863	1198
907.964	1554
908.065	961
908.166	308
908.267	574
908.367	745
908.468	521
908.569	1227
908.670	819
908.770	948
908.871	103
908.971	984
909.072	812
909.173	-448
909.273	395
909.374	868
909.474	481
909.575	1855
909.675	440
909.776	1315
909.876	897
909.977	182
910.077	1017
910.177	1848
910.278	186
910.378	181
910.478	744
910.579	1535
910.679	785
910.779	1110
910.879	1182
910.980	786
911.080	-142
911.180	1218
911.280	498
911.380	390
911.480	523
911.580	541
911.680	921
911.780	1065
911.880	650
911.980	575
912.080	188
912.180	1433
912.280	1022
912.380	-4
912.480	400
912.580	953
912.679	146
912.779	1490
912.879	874
912.979	1187
913.078	717
913.178	680
913.278	-80
913.377	573
913.477	976
913.577	165
913.676	1101
913.776	1146
913.875	1237
913.975	1105
914.074	543
914.174	823
914.273	569
914.373	1092
914.472	1259
914.572	1151
914.671	255
914.770	916
914.870	-116
914.969	405
915.068	309
915.167	1714
915.267	291
915.366	1125
915.465	1009
915.564	921
915.663	856
915.763	996
915.862	1474
915.961	1413
916.060	734
916.159	127
916.258	29
916.357	1361
916.456	840
916.555	1256
916.654	782
916.752	1111
916.851	721
916.950	432
917.049	465
917.148	693
917.247	1137
917.345	339
917.444	478
917.543	731
917.642	861
917.740	1035
917.839	923
917.937	2066
918.036	855
918.135	846
918.233	472
918.332	590
918.430	302
918.529	876
918.627	1197
918.726	1614
918.824	1189
918.923	1048
919.021	1239
919.119	367
919.218	170
919.316	829
919.414	331
919.512	1121
919.611	1649
919.709	619
919.807	184
919.905	1296
920.003	1186
920.102	1698
920.200	1840
920.298	1778
920.396	1296
920.494	2140
920.592	150
920.690	2117
920.788	899
920.886	1663
920.984	1813
921.082	3140
921.180	2121
921.277	1741
921.375	2220
921.473	3527
921.571	2774
921.669	2990
921.766	2340
921.864	3189
921.962	2599
922.060	3222
922.157	2583
922.255	2939
922.352	2454
922.450	3453
922.548	3204
922.645	4213
922.743	5292
922.840	8656
922.938	9945
923.035	7926
923.133	7878
923.230	9434
923.327	11990
923.425	10589
923.522	9662
923.619	8941
923.717	7559
923.814	8151
923.911	7817
924.008	8640
924.106	7881
924.203	8113
924.300	7978
924.397	8173
924.494	7740
924.591	8239
924.688	7067
924.786	7978
924.883	7989
924.979	8351
925.077	7158
925.173	7835
925.270	7764
925.367	7938
925.464	8500
925.561	8912
925.658	8248
925.755	8292
925.852	8968
925.948	8834
926.045	8502
926.142	9570
926.239	10720
926.335	8051
926.432	9198
926.529	9777
926.625	9849
926.722	8460
926.818	7688
926.915	8011
927.011	7242
927.108	8245
927.204	6766
927.301	6731
927.397	7771
927.494	7973
927.590	5539
927.687	6531
927.783	7960
927.879	7295
927.976	4958
928.072	5821
928.168	7204
928.264	7737
928.361	6284
928.457	6862
928.553	6200
928.649	6908
928.745	6722
928.841	5353
928.937	6489
929.033	7093
929.129	5258
929.225	7948
929.321	5703
929.417	5092
929.513	6690
929.609	6108
929.705	4910
929.801	6727
929.897	4857
929.993	5767
930.089	5919
930.184	5122
930.280	6219
930.376	6646
930.471	5813
930.567	4939
930.663	5587
930.758	5431
930.854	5604
930.950	5864
931.045	4473
931.141	5444
931.236	6917
931.332	6526
931.427	4074
931.523	6083
931.618	5720
931.714	3714
931.809	5012
931.905	6132
932.000	3905
932.095	3886
932.191	6352
932.286	7648
932.381	4632
932.476	4510
932.572	4631
932.667	3975
932.762	4993
932.857	5823
932.952	6785
933.047	5138
933.142	3994
933.237	5797
933.332	5053
933.427	6278
933.522	4548
933.617	4065
933.712	4306
933.807	5735
933.902	5939
933.997	6003
934.092	4245
934.187	4337
934.282	5048
934.376	4384
934.471	5510
934.566	4761
934.661	3059
934.755	4676
934.850	5491
934.945	4835
935.039	4248
935.134	3860
935.228	4815
935.323	7129
935.417	3399
935.512	2953
935.606	3243
935.701	5405
935.795	4980
935.890	4760
935.984	4442
936.079	2752
936.173	4572
936.267	3749
936.362	3171
936.456	4594
936.550	6557
936.644	4902
936.738	2529
936.833	2983
936.927	2172
937.021	3723
937.115	3916
937.209	4236
937.303	4638
937.397	3148
937.491	3227
937.585	4001
937.679	4290
937.773	2687
937.867	3613
937.961	3942
938.055	4331
938.149	4361
938.243	2828
938.337	2034
938.430	4121
938.524	6593
938.618	6038
938.712	5254
938.805	3175
938.899	5247
938.993	4948
939.086	4903
939.180	6259
939.274	6697
939.367	3803
939.461	4803
939.554	3127
939.648	2182
939.741	1836
939.835	3535
939.928	4574
940.022	4487
940.115	3456
940.208	3697
940.302	4458
940.395	5536
940.488	2804
940.582	3618
940.675	2406
940.768	2172
940.861	3936
940.954	4448
941.048	2076
941.141	2465
941.234	1880
941.327	2948
941.420	3660
941.513	3253
941.606	2952
941.699	3318
941.792	3851
941.885	3289
941.978	4082
942.071	3892
942.164	1761
942.257	2558
942.349	2451
942.442	3203
942.535	1707
942.628	2305
942.721	2366
942.813	1961
942.906	3314
942.999	3045
943.091	2546
943.184	1384
943.277	1388
943.369	1865
943.462	919
943.554	2978
943.647	2440
943.739	3151
943.832	3468
943.924	1158
944.017	1276
944.109	1514
944.201	1716
944.294	2703
944.386	1701
944.478	2031
944.571	2019
944.663	1887
944.755	1679
944.847	4331
944.940	1717
945.032	1100
945.124	887
945.216	3253
945.308	2543
945.400	2528
945.492	1863
945.584	2875
945.676	3133
945.768	2685
945.860	3820
945.952	2597
946.044	2531
946.136	2769
946.228	1696
946.320	1314
946.412	1891
946.503	2942
946.595	3614
946.687	1347
946.779	1864
946.870	1521
946.962	1018
947.054	1950
947.145	2114
947.237	1961
947.329	1355
947.420	1886
947.512	1194
947.603	941
947.695	1193
947.786	457
947.878	1097
947.969	3257
948.061	1762
948.152	2286
948.243	1243
948.335	1298
948.426	1428
948.517	1745
948.609	2186
948.700	2089
948.791	2230
948.882	1512
948.973	583
949.065	1459
949.156	2101
949.247	800
949.338	1359
949.429	523
949.520	1161
949.611	1023
949.702	1583
949.793	1208
949.884	1978
949.975	1577
950.066	1037
950.157	808
950.247	1672
950.338	815
950.429	938
950.520	1239
950.611	512
950.701	1804
950.792	1809
950.883	1983
950.973	1128
951.064	1712
951.155	2233
951.245	2226
951.336	1424
951.427	1347
951.517	2567
951.608	3169
951.698	1014
951.788	948
951.879	393
951.969	1667
952.060	1413
952.150	911
952.240	3397
952.331	569
952.421	1870
952.511	358
952.602	479
952.692	275
952.782	714
952.872	838
952.962	1618
953.052	1038
953.143	1092
953.233	1099
953.323	1410
953.413	1411
953.503	1987
953.593	1816
953.683	863
953.773	456
953.863	1590
953.953	954
954.042	1007
954.132	757
954.222	1008
954.312	577
954.402	53
954.492	1010
954.581	666
954.671	182
954.761	362
954.850	1884
954.940	315
955.030	207
955.119	562
955.209	614
955.298	900
955.388	1714
955.477	1604
955.567	93
955.656	-160
955.746	1078
955.835	-96
955.925	-262
956.014	1013
956.103	1182
956.193	1722
956.282	1587
956.371	1586
956.461	933
956.550	365
956.639	566
956.728	186
956.817	183
956.906	987
956.995	2432
957.085	912
957.174	1442
957.263	443
957.352	761
957.441	22
957.530	736
957.619	356
957.708	811
957.796	25
957.885	1117
957.974	-265
958.063	395
958.152	-1062
958.241	511
958.329	26
958.418	344
958.507	300
958.596	1361
958.684	369
958.773	1427
958.861	-449
958.950	1239
959.039	155
959.127	632
959.216	1139
959.304	308
959.393	-134
959.481	792
959.570	133
959.658	42
959.746	-59
959.835	228
959.923	318
960.011	191
960.100	787
960.188	1349
960.276	411
960.365	671
960.453	-883
960.541	-520
960.629	93
960.717	508
960.805	-676
960.893	225
960.981	560
961.069	1716
961.158	1036
961.245	2282
961.333	1624
961.421	1006
961.509	157
961.597	671
961.685	-339
961.773	684
961.861	62
961.949	1351
962.036	-801
962.124	732
962.212	-152
962.299	795
962.387	176
962.475	294
962.562	-266
962.650	724
962.738	214
962.825	-615
962.913	-536
963.000	405
963.088	73
963.175	281
963.263	-204
963.350	523
963.438	-319
963.525	-496
963.612	423
963.700	-158
963.787	491
963.874	79
963.962	93
964.049	717
964.136	9
964.223	-917
964.310	-394
964.398	-151
964.485	-423
964.572	109
964.659	474
964.746	178
964.833	24
964.920	-166
965.007	-616
965.094	466
965.181	-253
965.268	953
965.355	544
965.441	-525
965.528	-854
965.615	1396
965.702	-173
965.789	241
965.875	833
965.962	383
966.049	-226
966.136	959
966.222	457
966.309	761
966.395	26
966.482	1384
966.569	277
966.655	490
966.742	675
966.828	941
966.915	-118
967.001	-245
967.087	-471
967.174	-100
967.260	1144
967.347	177
967.433	235
967.519	-209
967.605	288
967.692	986
967.778	-241
967.864	359
967.950	679
968.036	163
968.123	-558
968.209	0
968.295	-999
968.381	1726
968.467	-246
968.553	-1183
968.639	819
968.725	-165
968.811	416
968.897	591
968.983	414
969.069	-793
969.154	-17
969.240	-105
969.326	-1157
969.412	-332
969.497	-747
969.583	-372
969.669	988
969.755	698
969.840	-371
969.926	1501
970.012	1381
970.097	3510
970.183	2378
970.268	779
970.354	502
970.439	-1009
970.525	21
970.610	-596
970.696	1459
970.781	1091
970.866	-1239
970.952	342
971.037	-264
971.122	-108
971.208	-126
971.293	424
971.378	-982
971.463	632
971.549	-326
971.634	-420
971.719	-103
971.804	394
971.889	697
971.974	404
972.059	-225
972.144	587
972.229	-138
972.314	180
972.399	448
972.484	383
972.569	378
972.654	-605
972.739	399
972.824	-276
972.908	-489
972.993	394
973.078	-274
973.163	139
973.247	236
973.332	-1885
973.417	904
973.501	-217
973.586	95
973.671	311
973.755	-593
973.840	622
973.924	105
974.009	2063
974.093	44
974.178	1568
974.262	907
974.346	-402
974.431	132
974.515	248
974.600	-98
974.684	53
974.768	14
974.852	1378
974.937	-600
975.021	1029
975.105	-172
975.189	124
975.273	485
975.358	-334
975.442	-912
975.526	764
975.610	-322
975.694	-406
975.778	516
975.862	1083
975.946	-1496
976.030	2100
976.114	-650
976.198	683
976.281	-790
976.365	1140
976.449	-336
976.533	206
976.617	-862
976.700	-153
976.784	-405
976.868	-634
976.951	-332
977.035	-105
977.119	812
977.202	149
977.286	360
977.369	1056
977.453	2316
977.536	1231
977.620	776
977.703	1814
977.787	-596
977.870	1169
977.953	1445
978.037	-578
978.120	154
978.203	757
978.287	177
978.370	215
978.453	6
978.536	-24
978.620	483
978.703	971
978.786	-509
978.869	-457
978.952	-494
979.035	1626
979.118	707
979.201	-39
979.284	1211
979.367	106
979.450	1486
979.533	63
979.616	345
979.699	166
979.782	-479
979.865	693
979.948	675
980.030	-221
980.113	-563
980.196	68
980.279	745
980.361	24
980.444	118
980.526	1794
980.609	1245
980.692	2141
980.774	1219
980.857	352
980.939	1996
981.022	180
981.104	315
981.187	-62
981.269	629
981.352	409
981.434	-89
981.516	1101
981.599	986
981.681	1821
981.763	551
981.846	273
981.928	-96
982.010	226
982.092	120
982.174	1806
982.256	-434
982.339	1136
982.421	583
982.503	584
982.585	-823
982.667	630
982.749	-307
982.831	100
982.913	-981
982.995	1013
983.077	229
983.158	2065
983.240	-519
983.322	2295
983.404	1905
983.486	1171
983.568	798
983.649	1310
983.731	1691
983.813	688
983.894	1225
983.976	973
984.058	746
984.139	1277
984.221	373
984.302	1849
984.384	301
984.465	126
984.547	733
984.628	316
984.710	1961
984.791	867
984.872	611
984.954	841
985.035	852
985.116	1287
985.198	-306
985.279	1613
985.360	567
985.441	582
985.522	1370
985.604	1355
985.685	-497
985.766	1557
985.847	1706
985.928	751
986.009	398
986.090	1030
986.171	1666
986.252	884
986.333	740
986.414	1650
986.495	451
986.576	727
986.656	1427
986.737	2593
986.818	1241
986.899	1217
986.980	739
987.060	2382
987.141	1152
987.222	1779
987.302	1959
987.383	1907
987.464	1551
987.544	1958
987.625	435
987.705	2061
987.786	1633
987.866	2105
987.947	1617
988.027	1879
988.108	1164
988.188	1241
988.268	1049
988.349	1352
988.429	985
988.509	1731
988.589	1026
988.670	-619
988.750	1680
988.830	900
988.910	1941
988.990	1871
989.070	1307
989.151	1496
989.231	384
989.311	1102
989.391	804
989.471	935
989.551	645
989.631	1405
989.711	1868
989.791	803
989.870	169
989.950	1771
990.030	-116
990.110	1265
990.190	128
990.269	-101
990.349	236
990.429	1511
990.509	159
990.588	625
990.668	928
990.747	364
990.827	5
990.907	1516
990.986	667
991.066	450
991.145	220
991.225	1260
991.304	1295
991.383	900
991.463	-103
991.542	979
991.622	130
991.701	210
991.780	441
991.859	363
991.939	95
992.018	892
992.097	383
992.176	776
992.256	-762
992.335	310
992.414	1347
992.493	602
992.572	342
992.651	1381
992.730	629
992.809	352
992.888	-286
992.967	362
993.046	1319
993.125	-117
993.203	355
993.282	2031
993.361	1042
993.440	746
993.519	-236
993.597	716
993.676	-889
993.755	1358
993.834	892
993.912	-938
993.991	800
994.069	394
994.148	-281
994.226	-47
994.305	488
994.384	329
994.462	413
994.540	-657
994.619	-1473
994.697	604
994.776	-51
994.854	950
994.932	-557
995.011	595
995.089	-853
995.167	-200
995.245	-149
995.324	-597
995.402	495
995.480	-45
995.558	-10
995.636	-1372
995.714	-682
995.792	365
995.870	-611
995.948	-504
996.026	408
996.104	-1849
996.182	-46
996.260	-504
996.338	46
996.416	-1440
996.494	-972
996.572	1034
996.649	-685
996.727	-1537
996.805	-27
996.883	-408
996.960	-998
997.038	47
997.116	749
997.193	-817
997.271	-129
997.348	-1034
997.426	-283
997.504	-1226
997.581	71
997.658	-519
997.736	-905
997.813	-817
997.891	434
997.968	-1213
998.046	-821
998.123	-945
998.200	-324
998.277	-915
998.355	-297
998.432	-1788
998.509	-659
998.586	-440
998.663	-59
998.741	-769
998.818	-1151
998.895	-574
998.972	282
999.049	-100
999.126	-466
999.203	-628
999.280	-291
999.357	-949
999.434	-571
999.511	-841
999.587	-963
999.664	-1971
999.741	-840
999.818	-516
999.895	-451
999.971	-697
1000.048	-900
1000.125	811
1000.202	-1440
1000.278	-392
1000.355	-499
1000.431	-1321
1000.508	-1421
1000.584	-1540
1000.661	-865
1000.738	-1624
1000.814	-846
1000.890	-415
1000.967	-1167
1001.043	-982
1001.120	-965
1001.196	-615
1001.272	-1936
1001.349	-625
1001.425	173
1001.501	-1020
1001.577	-1712
1001.654	-14
1001.730	-1370
1001.806	-597
1001.882	-1321
1001.958	653
1002.034	-1246
1002.110	-308
1002.186	-1525
1002.262	-890
1002.338	-1282
1002.414	-542
1002.490	-834
1002.566	-627
1002.642	-1731
1002.718	-769
1002.794	-1580
1002.870	-1459
1002.945	-1668
1003.021	-993
1003.097	-1210
1003.173	-101
1003.248	-1183
1003.324	-1212
1003.400	-1690
1003.475	-1722
1003.551	-1549
1003.626	-744
1003.702	-1713
1003.777	-1288
1003.853	-1052
1003.928	-1241
1004.004	-1712
1004.079	-1136
1004.155	-322
1004.230	-1672
1004.305	-247
1004.381	-2298
1004.456	-1573
1004.531	-1375
1004.607	-1809
1004.682	-366
1004.757	-1233
1004.832	-868
1004.907	-1898
1004.982	-1303
1005.057	-1489
1005.133	-956
1005.208	-1809
1005.283	-1229
1005.358	-791
1005.433	-2032
1005.508	-368
1005.583	-2471
1005.657	-1584
1005.732	-1477
1005.807	-1641
1005.882	-2157
1005.957	-1763
1006.032	-655
1006.106	-1429
1006.181	-1129
1006.256	-1149
1006.331	-604
1006.405	-1962
1006.480	-1030
1006.554	-1748
1006.629	-1131
1006.704	-1517
1006.778	-1243
1006.853	-1354
1006.927	-2003
1007.002	-1977
1007.076	-876
1007.150	-1621
1007.225	-1481
1007.299	-1534
1007.373	-1606
1007.448	-1844
1007.522	-542
1007.596	-1042
1007.671	-1389
1007.745	-1820
1007.819	-1777
1007.893	-1882
1007.967	-296
1008.041	-1955
1008.115	-354
1008.190	-2242
1008.264	-460
1008.338	-1783
1008.412	-1672
1008.486	-1257
1008.560	-1755
1008.633	-2136
1008.707	-1551
1008.781	-992
1008.855	-725
1008.929	-1764
1009.003	-2166
1009.076	-1899
1009.150	-1921
1009.224	-634
1009.298	-1564
1009.371	-1990
1009.445	-1120
1009.519	-1935
1009.592	-1831
1009.666	-1668
1009.739	-1643
1009.813	-1772
1009.886	-894
1009.960	-2323
1010.033	-1419
1010.107	-1513
1010.180	-1961
1010.253	-1338
1010.327	-2677
1010.400	-1657
1010.473	-1830
1010.547	3
1010.620	-1977
1010.693	-1022
1010.766	-2006
1010.840	-950
1010.913	-1826
1010.986	-2215
1011.059	-1605
1011.132	-1357
1011.205	-992
1011.278	-1136
1011.351	-2145
1011.424	-1497
1011.497	-1333
1011.570	-1596
1011.643	-1034
1011.716	-2611
1011.789	-1743
1011.862	-1301
1011.934	-1403
1012.007	-3114
1012.080	-2015
1012.153	-1724
1012.225	-659
1012.298	-1676
1012.371	-1896
1012.443	-1275
1012.516	-2293
1012.588	-1653
1012.661	-2430
1012.733	-2919
1012.806	-512
1012.879	-2707
1012.951	-1993
1013.023	-2141
1013.096	-1136
1013.168	-1411
1013.241	-1084
1013.313	-2038
1013.385	-2682
1013.458	-1057
1013.530	-1219
1013.602	-2111
1013.674	-1859
1013.746	-2459
1013.819	-1528
1013.891	-1527
1013.963	-1841
1014.035	-1126
1014.107	-1766
1014.179	-2121
1014.251	-2824
1014.323	-1810
1014.395	-2054
1014.467	-2189
1014.539	-1567
1014.611	-2661
1014.683	-1666
1014.754	-2324
1014.826	-1660
1014.898	-1936
1014.970	-2726
1015.042	-1429
1015.113	-1470
1015.185	-1871
1015.257	-2509
1015.328	-1952
1015.400	-2498
1015.471	-2640
1015.543	-2521
1015.615	-1698
1015.686	-1448
1015.757	-2248
1015.829	-687
1015.901	-1846
1015.972	-2070
1016.043	-2127
1016.115	-1524
1016.186	-2675
1016.257	-2744
1016.328	-1519
1016.400	-1042
1016.471	-2250
1016.542	-1921
1016.613	-2193
1016.685	-1751
1016.756	-1485
1016.827	-2563
1016.898	-2636
1016.969	-1476
1017.040	-2287
1017.111	-2758
1017.182	-1978
1017.253	-1967
1017.324	-2797
1017.395	-2640
1017.466	-2218
1017.537	-1869
1017.608	-2552
1017.678	-2229
1017.749	-1621
1017.820	-1294
1017.891	-2231
1017.961	-2432
1018.032	-2070
1018.103	-1667
1018.173	-2131
1018.244	-1486
1018.315	-2172
1018.385	-1189
1018.456	-2427
1018.526	-3046
1018.597	-2148
1018.667	-2225
1018.738	-2000
1018.808	-2169
1018.878	-2403
1018.949	-1947
1019.019	-2655
1019.089	-1981
1019.160	-2530
1019.230	-2226
1019.300	-2436
1019.371	-3095
1019.441	-2202
1019.511	-1796
1019.581	-2714
1019.651	-1985
1019.721	-2289
1019.791	-1947
1019.861	-2201
1019.931	-2203
1020.001	-2111
1020.071	-1909
1020.141	-2441
1020.211	-1943
1020.281	-2364
1020.351	-2364
1020.421	-2690
1020.491	-1644
1020.560	-2868
1020.630	-2307
1020.700	-1849
1020.770	-2536
1020.839	-2393
1020.909	-1306
1020.979	-2238
1021.048	-1585
1021.118	-2491
1021.187	-2926
1021.257	-2213
1021.326	-2680
1021.396	-2322
1021.465	-2717
1021.535	-2154
1021.604	-2337
1021.674	-1814
1021.743	-1759
1021.812	-1983
1021.882	-2252
1021.951	-2147
1022.020	-2059
1022.089	-2384
1022.159	-2270
1022.228	-2467
1022.297	-2381
1022.366	-1992
1022.435	-2626
1022.504	-2872
1022.573	-2213
1022.642	-2277
1022.711	-1929
1022.781	-2112
1022.849	-2518
1022.918	-2784
1022.987	-1757
1023.056	-3020
1023.125	-2510
1023.194	-1729
1023.263	-1494
1023.331	-2130
1023.400	-2203
1023.469	-2174
1023.538	-2043
1023.606	-3446
1023.675	-1744
1023.744	-2774
1023.812	-2208
1023.881	-1818
1023.949	-2636
1024.018	-3049
1024.086	-2722
1024.155	-2903
1024.223	-2196
1024.292	-1343
1024.360	-2372
1024.429	-2243
1024.497	-2558
1024.565	-2414
1024.634	-2319
1024.702	-2476
1024.770	-2449
1024.838	-3496
1024.907	-3047
1024.975	-1920
1025.043	-2752
1025.111	-3291
1025.179	-2521
1025.247	-2763
1025.315	-2451
1025.383	-2288
1025.451	-1751
1025.519	-2685
1025.587	-1905
1025.655	-2455
1025.723	-1570
1025.791	-2511
1025.859	-1576
1025.927	-2097
1025.995	-2444
1026.062	-2702
1026.130	-1743
1026.198	-2256
1026.266	-2770
1026.333	-2051
1026.401	-2236
1026.469	-1923
1026.536	-2371
1026.604	-2696
1026.671	-1900
1026.739	-2695
1026.806	-1859
1026.874	-3115
1026.941	-2167
1027.009	-2820
1027.076	-2550
1027.144	-2456
1027.211	-2444
1027.278	-2518
1027.345	-2114
1027.413	-2225
1027.480	-2138
1027.547	-2804
1027.614	-2213
1027.682	-2516
1027.749	-2739
1027.816	-2298
1027.883	-2835
1027.950	-2649
1028.017	-2793
1028.084	-1924
1028.151	-3468
1028.218	-2634
1028.285	-2134
1028.352	-2983
1028.419	-2661
1028.486	-2817
1028.553	-2492
1028.619	-2947
1028.686	-3069
1028.753	-2624
1028.820	-3037
1028.886	-3189
1028.953	-2041
1029.020	-2738
1029.086	-2611
1029.153	-2922
1029.220	-2770
1029.286	-1771
1029.353	-2130
1029.419	-2276
1029.486	-2594
1029.552	-2105
1029.619	-2496
1029.685	-2683
1029.751	-2943
1029.818	-2373
1029.884	-2570
1029.951	-1609
1030.017	-2110
1030.083	-2706
1030.149	-2047
1030.216	-2398
1030.282	-1357
1030.348	-3114
1030.414	-2260
1030.480	-2627
1030.546	-2125
1030.612	-2667
1030.678	-2463
1030.744	-2948
1030.810	-2213
1030.876	-2850
1030.942	-2874
1031.008	-2631
1031.074	-2163
1031.140	-2809
1031.206	-2053
1031.272	-3065
1031.337	-2256
1031.403	-2058
1031.469	-1794
1031.534	-2738
1031.600	-1451
1031.666	-2596
1031.731	-2842
1031.797	-3025
1031.863	-2103
1031.928	-3076
1031.994	-2628
1032.059	-2799
1032.125	-2091
1032.190	-2911
1032.256	-2019
1032.321	-3933
1032.386	-2435
1032.452	-2630
1032.517	-1818
1032.582	-2007
1032.647	-2201
1032.713	-3108
1032.778	-1916
1032.843	-2913
1032.908	-2950
1032.974	-2234
1033.039	-2550
1033.104	-2418
1033.169	-1865
1033.234	-1750
1033.299	-2092
1033.364	-2586
1033.429	-1786
1033.494	-2408
1033.559	-1854
1033.624	-2667
1033.688	-1987
1033.753	-2754
1033.818	-2103
1033.883	-2385
1033.948	-1884
1034.013	-2296
1034.077	-1062
1034.142	-576
1034.207	-574
1034.271	296
1034.336	701
1034.400	-124
1034.465	-1258
1034.530	-1938
1034.594	-2436
1034.658	-2868
1034.723	-2933
1034.787	-2337
1034.852	-1951
1034.916	-2750
1034.981	-2245
1035.045	-2633
1035.109	-2876
1035.173	-1800
1035.238	-2463
1035.302	-2032
1035.366	-2361
1035.430	-2749
1035.495	-1942
1035.559	-2382
1035.623	-3007
1035.687	-2156
1035.751	-2478
1035.815	-3322
1035.879	-1787
1035.943	-2603
1036.007	-2719
1036.071	-2522
1036.135	-2916
1036.198	-2689
1036.262	-1930
1036.326	-2579
1036.390	-1815
1036.454	-3010
1036.517	-2167
1036.581	-1953
1036.645	-1637
1036.709	-1596
1036.772	-1542
1036.836	-2194
1036.900	-2853
1036.963	-3429
1037.026	-2747
1037.090	-2330
1037.154	-2155
1037.217	-2989
1037.280	-2418
1037.344	-2863
1037.407	-2728
1037.471	-2811
1037.534	-2126
1037.597	-2002
1037.661	-2287
1037.724	-2119
1037.787	-2847
1037.850	-2926
1037.913	-2085
1037.977	-1692
1038.040	-2330
1038.103	-2433
1038.166	-2822
1038.229	-1877
1038.292	-2720
1038.355	-3211
1038.418	-2338
1038.481	-2475
1038.544	-2717
1038.607	-2756
1038.670	-2695
1038.732	-1902
1038.795	-2470
1038.858	-2769
1038.921	-2250
1038.984	-2564
1039.046	-2437
1039.109	-2729
1039.172	-2540
1039.234	-2531
1039.297	-2469
1039.360	-2139
1039.422	-2711
1039.485	-1822
1039.547	-2781
1039.610	-2731
1039.672	-1408
1039.734	-2833
1039.797	-3036
1039.859	-2223
1039.922	-2205
1039.984	-2698
1040.046	-2333
1040.109	-2833
1040.171	-2151
1040.233	-2716
1040.295	-2645
1040.358	-3264
1040.420	-2601
1040.482	-2581
1040.544	-2215
1040.606	-2204
1040.668	-3293
1040.730	-2735
1040.792	-2665
1040.854	-3151
1040.916	-2423
1040.978	-3678
1041.040	-2281
1041.102	-2790
1041.164	-1816
1041.225	-2675
1041.287	-2547
1041.349	-2454
1041.411	-2171
1041.472	-2528
1041.534	-2646
1041.596	-2917
1041.657	-2353
1041.719	-2229
1041.781	-2424
1041.842	-2460
1041.904	-2678
1041.965	-2773
1042.027	-2299
1042.088	-2132
1042.150	-2812
1042.211	-2784
1042.272	-2513
1042.334	-2927
1042.395	-1933
1042.456	-3563
1042.518	-2245
1042.579	-2172
1042.640	-2406
1042.701	-2434
1042.763	-2245
1042.824	-2735
1042.885	-2239
1042.946	-3296
1043.007	-2544
1043.068	-1947
1043.129	-2222
1043.190	-2567
1043.251	-1436
1043.312	-1845
1043.373	-1996
1043.434	-2872
1043.495	-2328
1043.556	-2727
1043.616	-1250
1043.677	-2513
1043.738	-2028
1043.799	-2440
1043.859	-2453
1043.920	-2235
1043.981	-2620
1044.041	-2035
1044.102	-2040
1044.162	-2359
1044.223	-2332
1044.284	-2147
1044.344	-2460
1044.405	-2540
1044.465	-2335
1044.525	-2699
1044.586	-2088
1044.646	-2021
1044.707	-1934
1044.767	-1858
1044.827	-1948
1044.887	-2407
1044.948	-2453
1045.008	-1929
1045.068	-1868
1045.128	-2618
1045.188	-1989
1045.249	-1443
1045.309	-2077
1045.369	-2192
1045.429	-2052
1045.489	-2051
1045.549	-1544
1045.609	-2879
1045.669	-2018
1045.729	-1902
1045.789	-1779
1045.848	-2565
1045.908	-2301
1045.968	-2526
1046.028	-724
1046.088	-1704
1046.147	-1120
1046.207	-1783
1046.267	-1842
1046.326	-1683
1046.386	-1934
1046.446	-1597
1046.505	-1545
1046.565	-1257
1046.624	-1134
1046.684	-341
1046.743	-736
1046.803	-1262
1046.862	-85
1046.922	0
