'Start Wavelength	183.907
'End Wavelength	1046.922
'Gate Delay	5.000
'Gate Width (ms)	1.050
'Laser Output Level	0.000
'X Position	0.000
'Y Position	0.000
'Z Position	0.000
'Grid Point Number	1.000
'Shot Number	100.000
183.907	321.000
183.977	-471.000
184.047	-4
184.116	523
184.186	418
184.256	9
184.325	-666
184.395	-650
184.465	509
184.534	98
184.604	-663
184.674	346
184.743	-843
184.813	118
184.883	535
184.952	-136
185.022	-197
185.092	-170
185.161	-202
185.231	-14
185.301	-133
185.370	1007
185.440	83
185.509	113
185.579	-87
185.649	279
185.718	115
185.788	356
185.857	269
185.927	-459
185.996	776
186.066	81
186.136	-303
186.205	-176
186.275	-415
186.344	328
186.414	111
186.483	-798
186.553	561
186.622	1104
186.692	-690
186.761	338
186.831	263
186.900	148
186.970	387
187.039	-199
187.109	-96
187.178	279
187.248	-478
187.317	22
187.387	46
187.456	331
187.526	252
187.595	499
187.664	-1130
187.734	349
187.803	102
187.873	590
187.942	-231
188.012	-234
188.081	-131
188.150	46
188.220	-36
188.289	60
188.358	-691
188.428	611
188.497	-373
188.567	819
188.636	28
188.705	81
188.775	215
188.844	-839
188.913	255
188.983	-144
189.052	-426
189.121	242
189.191	-299
189.260	-552
189.329	-467
189.399	223
189.468	-234
189.537	-167
189.606	-481
189.676	-556
189.745	238
189.814	-124
189.883	81
189.953	-264
190.022	-567
190.091	-51
190.161	-341
190.230	619
190.299	-20
190.368	-188
190.437	134
190.507	910
190.576	-297
190.645	-474
190.714	-411
190.783	-367
190.853	335
190.922	15
190.991	114
191.060	267
191.129	-652
191.198	1027
191.268	-963
191.337	358
191.406	429
191.475	-179
191.544	-369
191.613	725
191.682	-613
191.752	-201
191.821	-517
191.890	-770
191.959	-223
192.028	-193
192.097	-43
192.166	323
192.235	-1409
192.304	-195
192.373	-807
192.442	353
192.511	-55
192.580	71
192.650	-467
192.719	-6
192.788	496
192.857	417
192.926	-2
192.995	61
193.064	-61
193.133	-191
193.202	-210
193.271	275
193.340	318
193.409	-158
193.478	-388
193.547	-51
193.615	-7
193.684	473
193.753	-192
193.822	249
193.891	-622
193.960	807
194.029	-784
194.098	-429
194.167	-974
194.236	540
194.305	-263
194.374	631
194.443	92
194.512	60
194.580	112
194.649	-352
194.718	-35
194.787	413
194.856	-265
194.925	83
194.994	275
195.062	296
195.131	-607
195.200	172
195.269	351
195.338	485
195.407	355
195.475	-594
195.544	-231
195.613	-722
195.682	97
195.751	733
195.819	-1216
195.888	60
195.957	750
196.026	184
196.094	941
196.163	-399
196.232	-137
196.301	48
196.369	-319
196.438	235
196.507	-354
196.576	-588
196.644	-776
196.713	-250
196.782	-447
196.850	-237
196.919	503
196.988	432
197.056	810
197.125	-20
197.194	45
197.262	-89
197.331	-818
197.400	168
197.468	-533
197.537	195
197.606	213
197.674	450
197.743	-7
197.812	-448
197.880	-150
197.949	267
198.017	142
198.086	-200
198.155	-465
198.223	185
198.292	-865
198.360	-306
198.429	-211
198.497	592
198.566	-163
198.635	148
198.703	327
198.772	446
198.840	146
198.909	-772
198.977	-2
199.046	154
199.114	-187
199.183	158
199.251	-398
199.320	-14
199.388	-64
199.457	-111
199.525	-28
199.594	-5
199.662	102
199.731	-184
199.799	-569
199.867	948
199.936	108
200.004	198
200.073	1041
200.141	-136
200.210	-341
200.278	28
200.346	122
200.415	304
200.483	-310
200.552	269
200.620	-143
200.688	643
200.757	-532
200.825	142
200.893	-152
200.962	-264
201.030	-6
201.098	566
201.167	241
201.235	313
201.303	-272
201.372	591
201.440	204
201.508	-252
201.577	-285
201.645	637
201.713	153
201.781	312
201.850	-306
201.918	120
201.986	24
202.055	946
202.123	-285
202.191	162
202.259	71
202.327	592
202.396	273
202.464	-213
202.532	-338
202.600	-93
202.669	-193
202.737	384
202.805	50
202.873	161
202.941	617
203.009	681
203.078	-278
203.146	270
203.214	-179
203.282	-546
203.350	337
203.418	196
203.487	-300
203.555	265
203.623	13
203.691	-105
203.759	-57
203.827	450
203.895	-469
203.963	189
204.031	-662
204.099	-59
204.168	366
204.236	397
204.304	305
204.372	-233
204.440	219
204.508	-358
204.576	-161
204.644	478
204.712	-548
204.780	147
204.848	-505
204.916	-192
204.984	-726
205.052	87
205.120	-711
205.188	-658
205.256	-260
205.324	6
205.392	-418
205.460	353
205.528	-614
205.596	601
205.664	-225
205.732	-432
205.799	320
205.867	200
205.935	-1132
206.003	346
206.071	-396
206.139	320
206.207	238
206.275	-179
206.343	-145
206.411	77
206.478	-285
206.546	285
206.614	175
206.682	-221
206.750	-181
206.818	680
206.885	354
206.953	-962
207.021	568
207.089	984
207.157	-532
207.225	321
207.292	-129
207.360	60
207.428	-858
207.496	-235
207.563	-224
207.631	283
207.699	138
207.767	624
207.834	-283
207.902	-98
207.970	-1056
208.038	-13
208.105	-740
208.173	283
208.241	-678
208.309	-534
208.376	-699
208.444	296
208.512	-720
208.579	-697
208.647	-96
208.715	-124
208.782	-53
208.850	533
208.918	-445
208.985	-79
209.053	-90
209.120	-414
209.188	-475
209.256	-53
209.323	-794
209.391	-361
209.459	826
209.526	307
209.594	-418
209.661	292
209.729	57
209.796	-87
209.864	-542
209.932	-995
209.999	1112
210.067	239
210.134	-564
210.202	367
210.269	280
210.337	54
210.404	-383
210.472	-655
210.539	89
210.607	-4
210.674	-56
210.742	638
210.809	-528
210.877	-571
210.944	247
211.012	-556
211.079	877
211.146	-23
211.214	-1204
211.281	352
211.349	458
211.416	-1
211.484	-497
211.551	-24
211.618	-385
211.686	380
211.753	-119
211.821	557
211.888	-588
211.955	278
212.023	-569
212.090	-230
212.157	-447
212.225	66
212.292	118
212.359	574
212.427	71
212.494	-221
212.561	170
212.629	349
212.696	-88
212.763	-94
212.831	-601
212.898	1090
212.965	-109
213.032	435
213.100	-390
213.167	666
213.234	455
213.301	139
213.369	-230
213.436	-140
213.503	-758
213.570	469
213.638	307
213.705	-146
213.772	-762
213.839	-14
213.906	-191
213.973	524
214.041	-762
214.108	899
214.175	-419
214.242	-435
214.309	290
214.376	775
214.444	-395
214.511	289
214.578	-250
214.645	350
214.712	-224
214.779	716
214.846	-166
214.913	276
214.980	-425
215.048	842
215.115	-219
215.182	143
215.249	-265
215.316	-236
215.383	391
215.450	45
215.517	330
215.584	-389
215.651	-1039
215.718	60
215.785	173
215.852	-503
215.919	-158
215.986	924
216.053	-185
216.120	-930
216.187	29
216.254	685
216.321	494
216.388	-605
216.455	-267
216.522	631
216.589	-939
216.656	-81
216.722	-323
216.789	290
216.856	74
216.923	-87
216.990	-48
217.057	-89
217.124	-396
217.191	-319
217.258	300
217.324	-241
217.391	-14
217.458	-378
217.525	306
217.592	-29
217.659	-1427
217.725	1285
217.792	-460
217.859	247
217.926	144
217.993	340
218.059	510
218.126	35
218.193	-700
218.260	-264
218.327	-273
218.393	75
218.460	548
218.527	-356
218.594	-165
218.660	578
218.727	547
218.794	-182
218.860	453
218.927	-177
218.994	-1049
219.061	-82
219.127	-255
219.194	100
219.261	-97
219.327	447
219.394	327
219.461	105
219.527	241
219.594	582
219.661	-1248
219.727	-567
219.794	576
219.860	-58
219.927	-600
219.994	-174
220.060	816
220.127	1641
220.193	619
220.260	2
220.326	483
220.393	345
220.460	-223
220.526	-566
220.593	-514
220.659	1280
220.726	83
220.792	-819
220.859	-375
220.925	-317
220.992	346
221.058	48
221.125	73
221.191	-489
221.258	-610
221.324	57
221.391	483
221.457	-185
221.524	294
221.590	332
221.657	-199
221.723	-275
221.789	-1074
221.856	403
221.922	-945
221.989	878
222.055	-439
222.121	-676
222.188	1221
222.254	-68
222.321	-475
222.387	151
222.453	-341
222.520	14
222.586	-372
222.652	566
222.719	-808
222.785	441
222.851	252
222.918	56
222.984	-531
223.050	326
223.116	-1414
223.183	1482
223.249	-984
223.315	167
223.382	-186
223.448	679
223.514	-474
223.580	220
223.647	-277
223.713	40
223.779	-593
223.845	479
223.911	921
223.978	-594
224.044	513
224.110	104
224.176	-378
224.242	418
224.309	-1396
224.375	985
224.441	184
224.507	-149
224.573	-1014
224.639	530
224.705	94
224.772	512
224.838	-666
224.904	876
224.970	193
225.036	-559
225.102	-1782
225.168	417
225.234	89
225.300	-53
225.366	451
225.432	286
225.499	-312
225.565	-494
225.631	-896
225.697	-742
225.763	-318
225.829	260
225.895	-56
225.961	-298
226.027	-43
226.093	-241
226.159	153
226.225	355
226.291	352
226.357	-131
226.423	21
226.489	212
226.554	-158
226.620	-301
226.686	-282
226.752	204
226.818	-518
226.884	198
226.950	427
227.016	-30
227.082	1238
227.148	1117
227.214	-328
227.279	87
227.345	72
227.411	-57
227.477	-23
227.543	1910
227.609	1007
227.674	1753
227.740	-77
227.806	-327
227.872	-636
227.938	449
228.003	385
228.069	39
228.135	-362
228.201	-235
228.267	253
228.332	-49
228.398	-873
228.464	635
228.530	-540
228.595	601
228.661	-584
228.727	-320
228.792	185
228.858	-104
228.924	-2146
228.990	1451
229.055	-566
229.121	331
229.187	-139
229.252	17
229.318	-903
229.384	687
229.449	-366
229.515	-1284
229.581	-1347
229.646	1577
229.712	-476
229.777	-302
229.843	-758
229.909	113
229.974	397
230.040	163
230.105	-395
230.171	121
230.236	-486
230.302	-165
230.368	-538
230.433	-793
230.499	104
230.564	-62
230.630	-1140
230.695	470
230.761	-14
230.826	-629
230.892	521
230.957	-1008
231.023	-550
231.088	24
231.154	502
231.219	698
231.284	-1313
231.350	254
231.415	-1305
231.481	1066
231.546	-138
231.612	-501
231.677	-559
231.742	-975
231.808	1319
231.873	12
231.939	-1391
232.004	1027
232.069	345
232.135	-315
232.200	548
232.265	662
232.331	-327
232.396	-345
232.461	-327
232.527	172
232.592	-1288
232.657	-173
232.723	23
232.788	61
232.853	35
232.918	232
232.984	-448
233.049	529
233.114	-827
233.179	22
233.245	516
233.310	542
233.375	-1076
233.440	407
233.506	-477
233.571	159
233.636	-145
233.701	208
233.766	-62
233.832	84
233.897	137
233.962	-1358
234.027	671
234.092	713
234.157	155
234.222	314
234.288	360
234.353	238
234.418	571
234.483	615
234.548	-523
234.613	-899
234.678	-35
234.743	-362
234.808	854
234.873	-1416
234.938	1191
235.004	520
235.069	-672
235.134	-418
235.199	85
235.264	1030
235.329	-1057
235.394	1257
235.459	795
235.524	-1007
235.589	801
235.654	-324
235.719	-1341
235.784	656
235.849	-521
235.913	-240
235.978	-307
236.043	381
236.108	108
236.173	16
236.238	319
236.303	-206
236.368	-1411
236.433	569
236.498	-670
236.563	-656
236.627	-415
236.692	537
236.757	315
236.822	231
236.887	-277
236.952	537
237.017	-1728
237.081	1364
237.146	-82
237.211	538
237.276	523
237.341	958
237.405	-635
237.470	251
237.535	-480
237.600	60
237.664	338
237.729	-1285
237.794	-1117
237.859	909
237.923	-226
237.988	-42
238.053	792
238.118	-196
238.182	-577
238.247	1201
238.312	-1420
238.376	337
238.441	-1657
238.506	1378
238.570	-509
238.635	1441
238.700	3
238.764	-347
238.829	353
238.893	-377
238.958	136
239.023	-554
239.087	-595
239.152	142
239.216	-553
239.281	236
239.346	-89
239.410	-344
239.475	-713
239.539	1017
239.604	-639
239.668	926
239.733	-132
239.797	1409
239.862	3886
239.926	2247
239.991	1148
240.055	787
240.120	607
240.184	535
240.249	-320
240.313	-159
240.378	329
240.442	-164
240.507	1028
240.571	-77
240.635	-669
240.700	130
240.764	-463
240.829	516
240.893	-741
240.957	897
241.022	-119
241.086	414
241.151	-907
241.215	-487
241.279	202
241.344	-238
241.408	675
241.472	-656
241.537	914
241.601	328
241.665	-1733
241.730	-735
241.794	906
241.858	-463
241.922	-457
241.987	303
242.051	-517
242.115	-817
242.179	62
242.244	106
242.308	801
242.372	-465
242.436	-129
242.501	54
242.565	-622
242.629	-1179
242.693	754
242.757	-1028
242.822	-1058
242.886	135
242.950	526
243.014	-922
243.078	45
243.142	550
243.206	-356
243.271	727
243.335	-834
243.399	36
243.463	-490
243.527	1057
243.591	-829
243.655	668
243.719	-468
243.783	1050
243.847	-279
243.911	-380
243.975	-631
244.040	-645
244.104	1870
244.168	-311
244.232	-799
244.296	242
244.360	354
244.424	-603
244.488	-220
244.552	687
244.615	-1554
244.679	75
244.743	228
244.807	-879
244.871	315
244.935	930
244.999	-1699
245.063	-139
245.127	959
245.191	108
245.255	-467
245.319	713
245.383	-1705
245.446	1291
245.510	-1282
245.574	441
245.638	1016
245.702	-771
245.766	-319
245.829	557
245.893	-912
245.957	42
246.021	1163
246.085	-316
246.149	167
246.212	816
246.276	-754
246.340	-475
246.404	240
246.467	689
246.531	-1877
246.595	1314
246.659	60
246.722	-787
246.786	-653
246.850	-239
246.913	-65
246.977	-807
247.041	341
247.104	-622
247.168	-114
247.232	406
247.295	-193
247.359	158
247.423	-468
247.486	39
247.550	287
247.614	-210
247.677	-92
247.741	477
247.804	-584
247.868	516
247.932	-978
247.995	1379
248.059	-871
248.122	-849
248.186	1145
248.249	-220
248.313	436
248.376	2027
248.440	-786
248.503	-1224
248.567	569
248.630	-874
248.694	-437
248.757	901
248.821	504
248.884	885
248.948	-1005
249.011	871
249.075	1477
249.138	1653
249.202	-394
249.265	-571
249.328	681
249.392	-92
249.455	-569
249.519	152
249.582	-242
249.645	206
249.709	-189
249.772	-301
249.835	-518
249.899	467
249.962	696
250.025	-281
250.089	-13
250.152	1351
250.215	106
250.279	-729
250.342	102
250.405	592
250.468	-722
250.532	-497
250.595	257
250.658	-231
250.721	2652
250.785	63
250.848	754
250.911	-602
250.974	248
251.038	-664
251.101	91
251.164	-196
251.227	-270
251.290	359
251.354	601
251.417	1152
251.480	1344
251.543	598
251.606	2593
251.669	1791
251.732	1027
251.795	423
251.859	1223
251.922	1828
251.985	979
252.048	172
252.111	543
252.174	-975
252.237	507
252.300	1001
252.363	547
252.426	3793
252.489	379
252.552	667
252.615	-310
252.678	1553
252.741	263
252.804	3
252.867	1571
252.930	1018
252.993	351
253.056	848
253.119	-585
253.182	-27
253.245	-702
253.308	338
253.371	428
253.434	-134
253.497	49
253.559	1217
253.622	-1089
253.685	249
253.748	-554
253.811	369
253.874	532
253.937	-433
254.000	275
254.062	307
254.125	362
254.188	572
254.251	-476
254.314	406
254.376	106
254.439	294
254.502	123
254.565	-229
254.628	556
254.690	378
254.753	-943
254.816	279
254.878	257
254.941	292
255.004	57
255.067	355
255.129	-1309
255.192	13
255.255	-1231
255.317	2
255.380	634
255.443	-28
255.505	-875
255.568	-352
255.631	-789
255.693	-3
255.756	-900
255.819	959
255.881	-81
255.944	220
256.006	-676
256.069	828
256.132	-828
256.194	134
256.257	455
256.319	-308
256.382	-968
256.444	229
256.507	255
256.569	265
256.632	-504
256.694	-734
256.757	163
256.819	706
256.882	-1019
256.944	-9
257.007	773
257.069	-469
257.132	-336
257.194	839
257.257	-766
257.319	-595
257.381	-1053
257.444	1090
257.506	820
257.569	457
257.631	-649
257.693	-369
257.756	-1018
257.818	-521
257.880	-507
257.943	484
258.005	-345
258.067	502
258.130	216
258.192	-397
258.254	-127
258.317	-127
258.379	211
258.441	-595
258.503	343
258.566	225
258.628	-69
258.690	-914
258.753	234
258.815	53
258.877	-1127
258.939	-71
259.001	533
259.064	224
259.126	-333
259.188	179
259.250	620
259.312	-337
259.375	-424
259.437	-492
259.499	-404
259.561	-121
259.623	147
259.685	-516
259.747	-206
259.809	983
259.872	-68
259.934	143
259.996	28
260.058	512
260.120	-1177
260.182	-59
260.244	-157
260.306	-544
260.368	296
260.430	74
260.492	-146
260.554	831
260.616	-1622
260.678	509
260.740	-247
260.802	-149
260.864	961
260.926	-1060
260.988	541
261.050	-291
261.112	-355
261.174	1439
261.236	-456
261.298	-408
261.359	-309
261.421	1251
261.483	-532
261.545	1296
261.607	-439
261.669	450
261.731	-35
261.793	362
261.854	-1338
261.916	384
261.978	-574
262.040	-38
262.102	-72
262.164	-686
262.225	-182
262.287	222
262.349	-1124
262.411	403
262.472	1163
262.534	-963
262.596	-737
262.658	246
262.719	-1232
262.781	690
262.843	-1232
262.904	850
262.966	272
263.028	119
263.090	1
263.151	954
263.213	-254
263.275	-166
263.336	306
263.398	497
263.459	-378
263.521	155
263.583	-14
263.644	541
263.706	252
263.767	-598
263.829	91
263.891	-756
263.952	152
264.014	-612
264.075	-511
264.137	-174
264.198	332
264.260	-561
264.321	340
264.383	218
264.444	-201
264.506	141
264.567	273
264.629	580
264.690	-1186
264.752	676
264.813	320
264.875	408
264.936	247
264.998	234
265.059	329
265.120	647
265.182	-790
265.243	-43
265.305	0
265.366	258
265.427	-669
265.489	1249
265.550	-226
265.611	101
265.673	-430
265.734	145
265.795	168
265.857	-1154
265.918	-609
265.979	664
266.040	-169
266.102	252
266.163	122
266.224	-901
266.286	467
266.347	-653
266.408	455
266.469	199
266.530	-620
266.592	351
266.653	-451
266.714	539
266.775	182
266.836	406
266.898	-808
266.959	-561
267.020	-439
267.081	1024
267.142	139
267.203	-821
267.264	-112
267.326	591
267.387	-485
267.448	-878
267.509	318
267.570	-159
267.631	-567
267.692	-144
267.753	322
267.814	-423
267.875	211
267.936	245
267.997	-876
268.058	32
268.119	-347
268.180	-492
268.241	-439
268.302	316
268.363	-531
268.424	-905
268.485	-170
268.546	-161
268.607	524
268.668	685
268.729	-660
268.790	-141
268.851	-267
268.912	-57
268.972	-213
269.033	-277
269.094	-781
269.155	-7
269.216	-725
269.277	-422
269.338	-429
269.398	540
269.459	-694
269.520	-135
269.581	-627
269.642	104
269.702	-739
269.763	-607
269.824	-106
269.885	-101
269.945	201
270.006	486
270.067	-635
270.128	48
270.188	-412
270.249	-570
270.310	-812
270.370	689
270.431	-28
270.492	-709
270.553	-116
270.613	138
270.674	248
270.734	-124
270.795	-402
270.856	-395
270.916	-1125
270.977	233
271.038	602
271.098	351
271.159	-790
271.219	-417
271.280	-1130
271.340	533
271.401	-1284
271.462	-280
271.522	0
271.583	-420
271.643	-252
271.704	184
271.764	104
271.825	-338
271.885	1175
271.946	1969
272.006	-293
272.066	271
272.127	1524
272.187	1872
272.248	445
272.308	-588
272.369	597
272.429	-175
272.489	-437
272.550	-624
272.610	255
272.671	-144
272.731	-601
272.791	-221
272.852	-653
272.912	715
272.972	392
273.033	445
273.093	-442
273.153	147
273.214	-77
273.274	-614
273.334	-883
273.394	525
273.455	-393
273.515	-394
273.575	-308
273.635	31
273.696	891
273.756	683
273.816	529
273.876	-42
273.936	-350
273.997	906
274.057	-9
274.117	-417
274.177	-65
274.237	-99
274.297	1013
274.358	391
274.418	269
274.478	248
274.538	-84
274.598	-521
274.658	336
274.718	473
274.778	167
274.838	-672
274.898	-661
274.958	1069
275.018	1323
275.078	754
275.138	-532
275.198	10
275.258	-125
275.318	336
275.378	-1239
275.438	174
275.498	-185
275.558	-37
275.618	578
275.678	139
275.738	-30
275.798	396
275.858	-451
275.918	-661
275.978	-218
276.038	74
276.098	590
276.157	545
276.217	-552
276.277	927
276.337	-613
276.397	40
276.457	29
276.517	-442
276.576	-729
276.636	-73
276.696	-1061
276.756	518
276.815	-469
276.875	-171
276.935	562
276.995	-327
277.055	217
277.114	511
277.174	-100
277.234	660
277.293	-768
277.353	-122
277.413	135
277.472	1018
277.532	-670
277.592	336
277.651	1050
277.711	2309
277.771	-56
277.830	2128
277.890	1483
277.950	1121
278.009	4643
278.069	2544
278.128	1634
278.188	1613
278.248	680
278.307	1971
278.367	1254
278.426	266
278.486	443
278.545	20
278.605	-585
278.664	-383
278.724	-535
278.783	533
278.843	842
278.902	116
278.962	358
279.021	-528
279.081	132
279.140	929
279.199	-484
279.259	222
279.318	221
279.378	392
279.437	721
279.496	2385
279.556	13902
279.615	11124
279.675	2297
279.734	1635
279.793	442
279.853	1757
279.912	741
279.971	1357
280.031	287
280.090	1375
280.149	1543
280.208	1016
280.268	8819
280.327	9757
280.386	2310
280.445	860
280.505	284
280.564	505
280.623	70
280.682	773
280.742	121
280.801	-31
280.860	304
280.919	-62
280.978	710
281.037	570
281.097	306
281.156	269
281.215	80
281.274	444
281.333	208
281.392	191
281.451	-330
281.510	-1130
281.569	-74
281.628	261
281.688	-152
281.747	740
281.806	229
281.865	-66
281.924	-692
281.983	472
282.042	-96
282.101	-6
282.160	247
282.219	-310
282.278	-61
282.337	23
282.396	202
282.454	74
282.513	330
282.572	301
282.631	-367
282.690	312
282.749	-926
282.808	463
282.867	-437
282.926	528
282.985	724
283.043	247
283.102	-674
283.161	153
283.220	272
283.279	192
283.338	-624
283.396	-859
283.455	-1031
283.514	155
283.573	-285
283.631	489
283.690	474
283.749	618
283.808	-205
283.866	934
283.925	113
283.984	733
284.043	-61
284.101	221
284.160	147
284.219	547
284.277	917
284.336	203
284.395	672
284.453	190
284.512	-539
284.570	895
284.629	-405
284.688	300
284.746	-429
284.805	1278
284.863	556
284.922	1267
284.981	1057
285.039	2832
285.098	2736
285.156	7867
285.215	23827
285.273	23669
285.332	9779
285.390	5687
285.449	2966
285.507	2823
285.566	1758
285.624	1395
285.683	1247
285.741	370
285.799	626
285.858	486
285.916	115
285.975	860
286.033	-88
286.091	624
286.150	74
286.208	555
286.267	393
286.325	885
286.383	-79
286.442	-73
286.500	297
286.558	696
286.616	-76
286.675	617
286.733	1085
286.791	141
286.850	331
286.908	82
286.966	-348
287.024	733
287.083	-303
287.141	232
287.199	299
287.257	265
287.315	358
287.374	216
287.432	14
287.490	84
287.548	251
287.606	412
287.664	-72
287.723	1311
287.781	326
287.839	-186
287.897	161
287.955	881
288.013	145
288.071	-94
288.129	1846
288.187	8486
288.245	3159
288.303	1411
288.361	303
288.419	735
288.477	-604
288.535	487
288.593	264
288.651	578
288.709	-415
288.767	315
288.825	427
288.883	131
288.941	-314
288.999	275
289.057	700
289.115	845
289.173	-148
289.231	548
289.289	109
289.346	184
289.404	261
289.462	276
289.520	-671
289.578	780
289.636	313
289.694	741
289.751	7
289.809	593
289.867	-325
289.925	1131
289.983	82
290.040	958
290.098	189
290.156	-9
290.214	351
290.271	147
290.329	635
290.387	-2
290.444	-275
290.502	261
290.560	48
290.617	55
290.675	-507
290.733	304
290.790	-99
290.848	1036
290.906	113
290.963	251
291.021	319
291.078	-163
291.136	-90
291.194	527
291.251	-281
291.309	386
291.366	-194
291.424	312
291.481	307
291.539	213
291.596	80
291.654	752
291.711	242
291.769	115
291.826	664
291.884	391
291.941	106
291.999	737
292.056	318
292.114	-536
292.171	-199
292.228	729
292.286	25
292.343	203
292.401	357
292.458	1125
292.515	190
292.573	583
292.630	187
292.687	336
292.745	-393
292.802	64
292.859	728
292.917	868
292.974	39
293.031	306
293.089	434
293.146	244
293.203	-387
293.260	478
293.318	-75
293.375	119
293.432	-342
293.489	458
293.546	-383
293.604	77
293.661	556
293.718	1367
293.775	747
293.832	649
293.889	72
293.947	499
294.004	-98
294.061	548
294.118	90
294.175	748
294.232	231
294.289	509
294.346	286
294.403	230
294.460	-491
294.517	759
294.574	725
294.631	383
294.688	-12
294.745	-166
294.802	1058
294.859	1176
294.916	364
294.973	401
295.030	-74
295.087	250
295.144	597
295.201	79
295.258	-801
295.315	225
295.372	-305
295.429	923
295.486	721
295.542	1016
295.599	-218
295.656	864
295.713	254
295.770	528
295.827	-579
295.883	725
295.940	-133
295.997	-230
296.054	-33
296.111	469
296.167	-60
296.224	412
296.281	-480
296.338	309
296.394	-292
296.451	-616
296.508	69
296.564	373
296.621	-176
296.678	1577
296.734	1976
296.791	390
296.848	259
296.904	68
296.961	-132
297.018	1471
297.074	363
297.131	-62
297.187	575
297.244	534
297.301	1402
297.357	2387
297.414	334
297.470	712
297.527	41
297.583	60
297.640	70
297.696	-309
297.753	-958
297.809	184
297.866	-20
297.922	535
297.979	-545
298.035	159
298.092	-1024
298.148	-149
298.204	30
298.261	463
298.317	343
298.374	1293
298.430	1184
298.486	930
298.543	-424
298.599	257
298.656	-520
298.712	333
298.768	-166
298.824	603
298.881	-312
298.937	233
298.993	-944
299.050	235
299.106	407
299.162	-22
299.218	-199
299.275	-260
299.331	-129
299.387	693
299.443	1603
299.500	5450
299.556	4488
299.612	1948
299.668	1467
299.724	4782
299.780	5905
299.837	2530
299.893	1290
299.949	3740
300.005	6347
300.061	4752
300.117	7267
300.173	4150
300.229	1505
300.285	484
300.341	1074
300.397	1047
300.453	282
300.510	312
300.566	871
300.622	2005
300.678	7867
300.734	11316
300.790	4871
300.845	4092
300.901	4059
300.957	6749
301.013	3045
301.069	1690
301.125	556
301.181	182
301.237	831
301.293	675
301.349	-187
301.405	778
301.461	205
301.516	872
301.572	700
301.628	437
301.684	244
301.740	491
301.796	230
301.851	1034
301.907	207
301.963	778
302.019	762
302.074	4534
302.130	4987
302.186	2061
302.242	835
302.297	714
302.353	601
302.409	882
302.464	537
302.520	-612
302.576	1621
302.631	744
302.687	384
302.743	296
302.798	-76
302.854	-273
302.910	-566
302.965	106
303.021	413
303.076	483
303.132	-1056
303.187	-269
303.243	-478
303.299	408
303.354	-661
303.410	-124
303.465	-701
303.521	222
303.576	-306
303.632	356
303.687	395
303.743	1018
303.798	1303
303.853	724
303.909	-542
303.964	542
304.020	-458
304.075	220
304.130	-106
304.186	985
304.241	1298
304.297	734
304.352	-178
304.358	-190
304.407	-288
304.449	562
304.463	851
304.518	-68
304.539	-84
304.573	-120
304.629	484
304.630	492
304.684	833
304.720	1081
304.739	1206
304.794	1501
304.811	1472
304.850	1401
304.902	375
304.905	304
304.960	-33
304.992	-189
305.015	-294
305.071	171
305.083	109
305.126	-102
305.173	318
305.181	395
305.236	-418
305.264	-155
305.292	57
305.347	-71
305.354	-36
305.402	270
305.445	53
305.457	-33
305.512	658
305.535	638
305.567	691
305.622	-187
305.626	-169
305.678	44
305.716	84
305.733	97
305.788	883
305.807	862
305.843	900
305.897	1031
305.898	1031
305.953	1901
305.988	1086
306.008	586
306.063	759
306.078	504
306.118	-105
306.168	492
306.173	547
306.228	475
306.259	326
306.283	196
306.338	-72
306.349	116
306.393	763
306.440	13
306.448	-75
306.503	773
306.530	485
306.558	24
306.613	25
306.620	57
306.668	446
306.711	491
306.723	481
306.778	618
306.801	596
306.833	562
306.888	136
306.892	125
306.943	110
306.982	339
306.997	397
307.052	232
307.072	216
307.107	162
307.162	285
307.163	283
307.217	373
307.253	606
307.272	626
307.327	-429
307.343	-221
307.381	350
307.434	-151
307.436	-166
307.491	895
307.524	695
307.546	524
307.600	741
307.614	761
307.655	482
307.704	70
307.710	85
307.765	31
307.795	179
307.819	142
307.874	435
307.885	383
307.929	543
307.975	1158
307.984	1200
308.038	971
308.065	703
308.093	1058
308.148	3191
308.156	3636
308.202	6043
308.246	7944
308.257	7859
308.312	3974
308.336	2557
308.366	1626
308.421	405
308.426	358
308.475	424
308.517	252
308.530	192
308.585	778
308.607	757
308.639	633
308.694	462
308.697	450
308.748	527
308.787	835
308.803	936
308.857	1107
308.877	1126
308.912	973
308.967	744
308.967	739
309.021	915
309.058	1159
309.076	1289
309.130	2050
309.148	2114
309.185	4970
309.238	10874
309.239	10907
309.293	12616
309.328	11337
309.348	9788
309.402	3783
309.418	2627
309.457	2123
309.508	1266
309.511	1222
309.566	1136
309.598	1022
309.620	1212
309.674	2332
309.688	2528
309.729	2181
309.778	1534
309.783	1521
309.837	1304
309.868	1274
309.892	1262
309.946	1139
309.959	1183
310.001	1496
310.049	1714
310.055	1674
310.109	1340
310.139	1050
310.163	843
310.218	437
310.229	344
310.272	768
310.319	1593
310.326	1516
310.381	418
310.409	32
310.435	225
310.489	516
310.499	597
310.543	695
310.589	553
310.598	486
310.652	297
310.679	142
310.706	252
310.760	460
310.769	485
310.814	864
310.859	1369
310.868	1344
310.923	935
310.948	887
310.977	988
311.031	951
311.038	963
311.085	708
311.128	352
311.139	396
311.193	659
311.218	807
311.247	990
311.301	1342
311.308	1359
311.356	1128
311.398	1067
311.410	1061
311.464	987
311.488	940
311.518	770
311.572	426
311.578	394
311.626	402
311.668	392
311.680	502
311.734	1012
311.758	1242
311.788	1107
311.842	841
311.847	813
311.896	962
311.937	1125
311.950	1070
312.004	823
312.027	715
312.058	694
312.112	659
312.117	657
312.165	995
312.207	1286
312.297	146
312.386	1117
312.476	1223
312.566	706
312.656	264
312.745	590
312.835	1002
312.925	584
313.015	366
313.104	576
313.194	835
313.284	1708
313.374	724
313.463	1116
313.553	1282
313.643	1180
313.732	1281
313.822	1592
313.912	1466
314.001	1503
314.091	1373
314.180	849
314.270	1565
314.360	1984
314.449	1708
314.539	1049
314.628	1424
314.718	1134
314.808	1273
314.897	1571
314.987	1777
315.076	1299
315.166	2290
315.255	1805
315.345	1811
315.434	1036
315.524	1337
315.613	2095
315.703	1892
315.792	4703
315.881	15803
315.971	3819
316.060	2234
316.150	956
316.239	655
316.328	1340
316.418	1656
316.507	1579
316.597	2313
316.686	1753
316.775	1931
316.865	1666
316.954	1090
317.043	1151
317.133	1462
317.222	367
317.311	971
317.400	391
317.490	2423
317.579	1545
317.668	1653
317.757	2495
317.847	7765
317.936	23778
318.025	7416
318.114	5848
318.203	3185
318.293	1651
318.382	2269
318.471	3057
318.560	2190
318.649	2142
318.738	1099
318.828	1986
318.917	860
319.006	1251
319.095	1713
319.184	1694
319.273	1513
319.362	1420
319.451	793
319.540	675
319.629	1015
319.718	1183
319.807	1143
319.896	748
319.985	2682
320.074	1522
320.163	856
320.252	882
320.341	1850
320.430	891
320.519	1284
320.608	564
320.697	1429
320.786	1657
320.875	2159
320.964	2729
321.053	2620
321.142	2783
321.230	3245
321.319	2846
321.408	3944
321.497	4153
321.586	3414
321.675	2237
321.764	2553
321.852	2166
321.941	2296
322.030	1808
322.119	2057
322.207	3105
322.296	3655
322.385	3586
322.474	5587
322.562	5215
322.651	3895
322.740	3364
322.829	2768
322.917	1999
323.006	2330
323.095	2309
323.183	1489
323.272	1893
323.361	1396
323.449	2233
323.538	1395
323.626	1160
323.715	1347
323.804	885
323.892	926
323.981	1658
324.069	1858
324.158	1712
324.246	874
324.335	1342
324.424	1477
324.512	867
324.601	1334
324.689	842
324.778	878
324.866	1261
324.954	1365
325.043	1238
325.131	401
325.220	2388
325.308	1214
325.397	885
325.485	1421
325.574	1113
325.662	1197
325.750	795
325.839	1213
325.927	838
326.015	1416
326.104	1081
326.192	1089
326.280	673
326.369	238
326.457	662
326.545	1845
326.634	1628
326.722	876
326.810	1308
326.898	1200
326.987	2165
327.075	275
327.163	1918
327.251	1275
327.340	1779
327.428	2486
327.516	1462
327.604	2103
327.692	1527
327.781	1329
327.869	508
327.957	1376
328.045	869
328.133	912
328.221	642
328.309	792
328.397	1322
328.485	1993
328.574	2655
328.662	2951
328.750	1590
328.838	803
328.926	1274
329.014	1202
329.102	707
329.190	2043
329.278	1069
329.366	805
329.454	1116
329.542	1207
329.630	690
329.718	1114
329.806	1430
329.893	1016
329.981	221
330.069	1819
330.157	1501
330.245	1146
330.333	619
330.421	894
330.509	1782
330.597	1482
330.684	1472
330.772	1593
330.860	878
330.948	1653
331.036	1831
331.123	866
331.211	1560
331.299	2011
331.387	1200
331.475	1449
331.562	838
331.650	1269
331.738	1330
331.825	1051
331.913	814
332.001	640
332.089	1412
332.176	1478
332.264	979
332.352	490
332.439	753
332.527	1810
332.614	603
332.702	1828
332.790	1629
332.877	1306
332.965	1493
333.052	999
333.140	878
333.228	2327
333.315	1529
333.403	862
333.490	1706
333.578	1664
333.665	2474
333.753	1606
333.840	1368
333.928	2221
334.015	2204
334.103	3121
334.190	2784
334.278	4945
334.365	5476
334.452	6386
334.540	3648
334.627	3484
334.715	3962
334.802	6386
334.889	10032
334.977	14745
335.064	10849
335.151	4303
335.239	4019
335.326	2265
335.413	3614
335.501	3520
335.588	2011
335.675	2959
335.762	3469
335.850	5224
335.937	7079
336.024	11294
336.111	19720
336.199	20656
336.286	8040
336.373	4493
336.460	2636
336.547	3051
336.635	2517
336.722	2543
336.809	1599
336.896	1270
336.983	2082
337.070	3028
337.157	2459
337.245	1971
337.332	2096
337.419	1950
337.506	1791
337.593	1816
337.680	1446
337.767	3510
337.854	1415
337.941	1646
338.028	1323
338.115	1024
338.202	1845
338.289	1932
338.376	1621
338.463	1272
338.550	1991
338.637	1722
338.724	1657
338.811	1816
338.898	1142
338.984	1512
339.071	1148
339.158	1616
339.245	881
339.332	972
339.419	1315
339.506	1929
339.593	1387
339.679	2432
339.766	1458
339.853	1223
339.940	1474
340.027	2286
340.113	900
340.200	1462
340.287	1376
340.374	852
340.460	1890
340.547	818
340.634	1700
340.720	1954
340.807	1121
340.894	1744
340.980	1171
341.067	841
341.154	1890
341.240	1463
341.327	1834
341.414	1567
341.500	734
341.587	2318
341.674	1278
341.760	1563
341.847	1223
341.933	1831
342.020	472
342.106	1471
342.193	1015
342.279	1363
342.366	1335
342.452	1421
342.539	1037
342.625	2061
342.712	1482
342.798	1519
342.885	1748
342.971	675
343.058	1025
343.144	1093
343.230	1496
343.317	1254
343.403	1120
343.490	901
343.576	800
343.662	1968
343.749	1212
343.835	1704
343.921	1736
344.008	4299
344.094	6841
344.180	1926
344.267	1569
344.353	1437
344.439	1523
344.525	1051
344.612	1638
344.698	1335
344.784	824
344.870	2258
344.957	871
345.043	3010
345.129	1182
345.215	2828
345.301	1456
345.387	2290
345.474	713
345.560	1557
345.646	404
345.732	1421
345.818	1315
345.904	1444
345.990	1784
346.076	2275
346.162	537
346.249	1775
346.335	824
346.421	907
346.507	1350
346.593	2627
346.679	830
346.765	2337
346.851	2879
346.937	1005
347.023	2569
347.108	1914
347.194	1211
347.280	1769
347.366	2410
347.452	5208
347.538	4969
347.624	3673
347.710	2471
347.796	1645
347.882	1976
347.967	1751
348.053	1774
348.139	1374
348.225	1566
348.311	603
348.397	1100
348.482	2120
348.568	1932
348.654	2030
348.740	5649
348.825	4494
348.911	3705
348.997	2498
349.083	3353
349.168	1239
349.254	1651
349.340	1582
349.425	1673
349.511	1312
349.597	1264
349.682	999
349.768	2714
349.854	1735
349.939	1798
350.025	1699
350.110	1726
350.196	1512
350.282	977
350.367	2427
350.453	1510
350.538	1683
350.624	994
350.709	1489
350.795	1364
350.880	1022
350.966	2102
351.051	1913
351.137	1566
351.222	1848
351.308	1255
351.393	1694
351.479	1251
351.564	1125
351.649	1205
351.735	2010
351.820	1520
351.906	1578
351.991	1488
352.076	1321
352.162	1869
352.247	1510
352.332	1275
352.418	1391
352.503	1384
352.588	2502
352.673	1492
352.759	1653
352.844	624
352.929	1824
353.014	645
353.100	2041
353.185	885
353.270	1375
353.355	1612
353.441	1661
353.526	988
353.611	1708
353.696	1066
353.781	2334
353.866	1345
353.952	2592
354.037	1458
354.122	2277
354.207	1269
354.292	1671
354.377	1875
354.462	1480
354.547	1168
354.632	1844
354.717	975
354.802	1161
354.887	2037
354.972	984
355.057	1928
355.142	881
355.227	1326
355.312	877
355.397	1238
355.482	1799
355.567	1422
355.652	2123
355.737	1874
355.822	2199
355.907	1519
355.991	2427
356.076	1412
356.161	1898
356.246	1729
356.331	1242
356.416	614
356.501	4136
356.585	2318
356.670	892
356.755	2362
356.840	1946
356.924	3094
357.009	5703
357.094	3281
357.179	1176
357.263	1444
357.348	1906
357.433	2120
357.517	1756
357.602	1506
357.687	1618
357.771	1825
357.856	1870
357.941	2260
358.025	3298
358.110	9789
358.195	4377
358.279	1727
358.364	2112
358.448	2081
358.533	2495
358.617	1961
358.702	2799
358.787	2461
358.871	1396
358.956	1826
359.040	1937
359.125	1396
359.209	2286
359.294	1727
359.378	3291
359.462	1741
359.547	1919
359.631	2238
359.716	795
359.800	2027
359.885	2470
359.969	754
360.053	3012
360.138	1440
360.222	1690
360.306	1311
360.391	1637
360.475	1320
360.559	1705
360.644	2077
360.728	712
360.812	3332
360.896	4679
360.981	1525
361.065	1531
361.149	1765
361.233	1534
361.318	718
361.402	1599
361.486	2660
361.570	2019
361.654	1261
361.739	2123
361.823	2842
361.907	5744
361.991	1817
362.075	3455
362.159	2592
362.243	5804
362.327	13731
362.411	23617
362.495	9431
362.580	4401
362.664	3942
362.748	4743
362.832	6294
362.916	11830
363.000	37593
363.084	55990
363.168	21884
363.252	6497
363.336	4367
363.420	3834
363.503	3329
363.587	3332
363.671	2358
363.755	2304
363.839	3475
363.923	1974
364.007	4757
364.091	5310
364.175	5971
364.258	17192
364.342	38924
364.426	81365
364.510	42402
364.594	13799
364.677	6630
364.761	5349
364.845	4959
364.929	3163
365.013	1925
365.096	2795
365.180	1728
365.264	2373
365.347	3301
365.431	2246
365.515	1699
365.598	1282
365.682	3264
365.766	1023
365.849	1920
365.933	1980
366.017	3336
366.100	1746
366.184	1061
366.267	3081
366.351	2403
366.435	1806
366.518	1426
366.602	2396
366.685	2041
366.769	2528
366.852	2229
366.936	2061
367.019	1654
367.103	1203
367.186	2769
367.270	1685
367.353	1499
367.436	3726
367.520	1553
367.603	2665
367.687	1089
367.770	1101
367.853	3200
367.937	3543
368.020	3282
368.104	1744
368.187	2382
368.270	1244
368.353	1352
368.437	1642
368.520	1836
368.603	1937
368.687	1824
368.770	2715
368.853	1851
368.936	2349
369.020	1787
369.103	1486
369.186	1303
369.269	902
369.352	2445
369.436	1209
369.519	1416
369.602	-483
369.685	3282
369.768	835
369.851	1614
369.934	1815
370.018	1078
370.101	637
370.184	3719
370.267	2377
370.350	1443
370.433	1886
370.516	3669
370.599	9108
370.682	2947
370.765	3208
370.848	2789
370.931	2328
371.014	2073
371.097	594
371.180	2872
371.263	2967
371.346	139
371.429	2177
371.511	1406
371.594	1306
371.677	1858
371.760	2350
371.843	1522
371.926	5252
372.009	8715
372.091	5174
372.174	1003
372.257	3730
372.340	897
372.423	2132
372.505	3218
372.588	1130
372.671	1998
372.754	1836
372.836	1962
372.919	2560
373.002	3313
373.085	1349
373.167	3074
373.250	1750
373.332	2846
373.415	7134
373.498	9590
373.580	5687
373.663	15141
373.746	14381
373.828	2596
373.911	3255
373.993	1504
374.076	2166
374.159	1922
374.241	2394
374.324	3305
374.406	4032
374.489	3343
374.571	7607
374.654	3257
374.736	2989
374.819	4738
374.901	8082
374.983	6921
375.066	3918
375.148	1960
375.231	2783
375.313	3911
375.395	2530
375.478	3078
375.560	3692
375.643	2446
375.725	3675
375.807	5496
375.890	5671
375.972	902
376.054	2567
376.136	2754
376.219	2131
376.301	2840
376.383	3081
376.465	2490
376.548	1611
376.630	1734
376.712	3516
376.794	1999
376.877	2137
376.959	1505
377.041	1931
377.123	932
377.205	2313
377.287	1500
377.369	2616
377.452	1745
377.534	2652
377.616	2097
377.698	2480
377.780	596
377.862	1800
377.944	3070
378.026	1470
378.108	2768
378.190	1364
378.272	2844
378.354	2446
378.436	1196
378.518	1517
378.600	1837
378.682	2304
378.764	1722
378.846	2225
378.928	1570
379.010	1405
379.091	2284
379.173	2417
379.255	1935
379.337	1357
379.419	1454
379.501	3520
379.583	1967
379.664	2824
379.746	495
379.828	3009
379.910	1491
379.991	3571
380.073	1239
380.155	1533
380.237	1543
380.318	1602
380.400	1550
380.482	1895
380.564	1644
380.645	1775
380.727	1705
380.809	2898
380.890	912
380.972	652
381.053	1961
381.135	2308
381.217	1150
381.298	3644
381.380	1183
381.461	2245
381.543	3010
381.624	3873
381.706	2374
381.787	1981
381.869	1949
381.951	2083
382.032	5999
382.113	6832
382.195	1566
382.276	3819
382.358	1063
382.439	2552
382.521	4943
382.602	6373
382.684	3624
382.765	3850
382.846	5634
382.928	12225
383.009	5683
383.090	5182
383.172	16686
383.253	25548
383.334	8667
383.416	4785
383.497	4458
383.578	3138
383.659	4413
383.741	15882
383.822	40615
383.903	19854
383.984	4640
384.066	7049
384.147	3250
384.228	3629
384.309	3121
384.390	2293
384.471	3183
384.553	2372
384.634	2232
384.715	2742
384.796	1446
384.877	2317
384.958	2418
385.039	1906
385.120	2018
385.201	3252
385.282	2329
385.363	3194
385.444	2271
385.525	3497
385.606	3332
385.687	3796
385.768	1913
385.849	2567
385.930	5529
386.011	8476
386.092	2703
386.173	2556
386.254	2167
386.335	2840
386.416	2792
386.496	2676
386.577	2941
386.658	2914
386.739	1845
386.820	3597
386.901	1966
386.981	3533
387.062	2862
387.143	3307
387.224	4572
387.304	6129
387.385	6021
387.466	3076
387.547	5939
387.627	4416
387.708	5170
387.789	5422
387.869	3851
387.950	4484
388.031	3474
388.111	1686
388.192	3353
388.273	4740
388.353	2640
388.434	3039
388.514	2154
388.595	4463
388.676	3933
388.756	3535
388.837	3168
388.917	2726
388.998	1048
389.078	2920
389.159	2499
389.239	703
389.320	4175
389.400	1484
389.480	2635
389.561	2390
389.641	2844
389.722	3267
389.802	1779
389.883	3074
389.963	4456
390.043	1759
390.124	1585
390.204	2787
390.284	2705
390.365	2072
390.445	2539
390.525	2194
390.605	2838
390.686	1222
390.766	2704
390.846	2789
390.927	1582
391.007	1892
391.087	3464
391.167	2600
391.247	467
391.328	3770
391.408	2363
391.488	2833
391.568	872
391.648	1917
391.728	3098
391.808	3449
391.888	2306
391.969	3034
392.049	2985
392.129	4396
392.209	3737
392.289	5318
392.369	3469
392.449	4516
392.529	4179
392.609	6444
392.689	6135
392.769	7437
392.849	7760
392.929	10477
393.009	12992
393.089	17739
393.169	35332
393.248	88515
393.328	215339
393.408	218269
393.488	89706
393.568	33850
393.648	17320
393.728	11715
393.807	6951
393.887	7927
393.967	5794
394.047	5026
394.127	3696
394.206	5294
394.286	4878
394.366	17132
394.446	18546
394.525	5373
394.605	3583
394.685	4045
394.764	4630
394.844	5672
394.924	8270
395.003	4918
395.083	2767
395.163	3642
395.242	2426
395.322	2864
395.402	1896
395.481	3928
395.561	3248
395.640	11244
395.720	19920
395.799	9562
395.879	3292
395.958	3513
396.038	7285
396.117	24465
396.197	26735
396.276	8464
396.356	4638
396.435	5762
396.515	8516
396.594	12968
396.673	27888
396.753	83315
396.832	193402
396.912	138891
396.991	40585
397.070	16934
397.150	9309
397.229	9831
397.308	16137
397.388	30011
397.467	15121
397.546	6389
397.625	2043
397.705	5240
397.784	3532
397.863	3612
397.942	2967
398.022	2640
398.101	1836
398.180	3570
398.259	2767
398.338	3103
398.417	1741
398.497	2240
398.576	2965
398.655	1890
398.734	2491
398.813	2611
398.892	2533
398.971	3371
399.050	1506
399.129	997
399.208	2591
399.287	2619
399.366	889
399.445	2424
399.524	2470
399.603	1148
399.682	2230
399.761	1491
399.840	2565
399.919	3984
399.998	1410
400.077	1006
400.156	758
400.235	4216
400.313	1647
400.392	1634
400.471	2224
400.550	2865
400.629	1224
400.708	2571
400.786	1038
400.865	1617
400.944	667
401.023	3228
401.102	1225
401.180	2826
401.259	1012
401.338	2300
401.416	2237
401.495	1318
401.574	1922
401.652	747
401.731	1872
401.810	934
401.888	1491
401.967	1545
402.046	1390
402.124	3035
402.203	493
402.281	2187
402.360	1069
402.438	2128
402.517	810
402.596	1232
402.674	1463
402.753	1597
402.831	1945
402.910	2402
402.988	463
403.066	1634
403.145	1920
403.223	3127
403.302	1821
403.380	3701
403.459	2091
403.537	2285
403.615	2017
403.694	-124
403.772	2267
403.850	2567
403.929	1041
404.007	1532
404.085	2197
404.164	1204
404.242	824
404.320	3428
404.398	2728
404.477	1920
404.555	4140
404.633	4114
404.711	2235
404.789	3030
404.868	755
404.946	1309
405.024	1612
405.102	1564
405.180	547
405.258	323
405.336	2333
405.415	1054
405.493	1609
405.571	2401
405.649	988
405.727	988
405.805	2649
405.883	1976
405.961	2129
406.039	1334
406.117	99
406.195	2287
406.273	465
406.351	3155
406.429	3058
406.507	1493
406.585	540
406.663	1847
406.740	1113
406.818	1032
406.896	857
406.974	2228
407.052	-514
407.130	2310
407.208	1747
407.285	2209
407.363	359
407.441	1854
407.519	1111
407.596	2005
407.674	2582
407.752	6422
407.830	5336
407.907	1955
407.985	856
408.063	1271
408.141	1304
408.218	1655
408.296	966
408.373	912
408.451	2305
408.529	2187
408.606	1643
408.684	2324
408.762	2325
408.839	1296
408.917	3052
408.994	2466
409.072	2232
409.149	2502
409.227	5095
409.304	6429
409.382	6041
409.459	7108
409.537	9394
409.614	8656
409.692	5859
409.769	5942
409.846	9540
409.924	11632
410.001	6886
410.079	5125
410.156	4651
410.233	3726
410.311	2632
410.388	3278
410.465	2847
410.543	2480
410.620	3333
410.697	2588
410.775	2055
410.852	1281
410.929	2960
411.006	3240
411.083	1606
411.161	2126
411.238	2694
411.315	2230
411.392	2100
411.469	2305
411.547	2079
411.624	620
411.701	1297
411.778	2144
411.855	1388
411.932	1643
412.009	1318
412.086	1618
412.163	1634
412.240	1891
412.317	2060
412.394	1466
412.471	1618
412.548	1671
412.625	1615
412.702	1514
412.779	1540
412.856	1335
412.933	1041
413.010	1487
413.087	1495
413.164	1682
413.241	1960
413.318	475
413.395	1575
413.471	1370
413.548	1793
413.625	2143
413.702	-263
413.779	1409
413.855	1948
413.932	1914
414.009	787
414.086	1939
414.162	992
414.239	1654
414.316	1938
414.393	2949
414.469	100
414.546	1547
414.623	580
414.699	1628
414.776	871
414.853	1440
414.929	1092
415.006	911
415.082	1554
415.159	971
415.236	1905
415.312	1633
415.389	1572
415.465	745
415.542	1080
415.618	434
415.695	1529
415.771	1136
415.848	1331
415.924	1860
416.000	1098
416.077	2530
416.153	377
416.230	356
416.306	806
416.383	1203
416.459	1345
416.535	1489
416.612	1385
416.688	1319
416.764	965
416.841	1186
416.917	905
416.993	1392
417.069	1954
417.146	557
417.222	782
417.298	895
417.374	97
417.451	2249
417.527	1372
417.603	1000
417.679	791
417.755	1866
417.831	210
417.908	1709
417.984	1251
418.060	1041
418.136	1484
418.212	1276
418.288	1609
418.364	1767
418.440	713
418.516	2068
418.592	1123
418.668	1404
418.744	589
418.820	1471
418.896	1819
418.972	1232
419.048	1515
419.124	3034
419.200	256
419.276	2262
419.352	921
419.428	1213
419.504	433
419.579	999
419.655	1586
419.731	1690
419.807	1696
419.883	1424
419.959	2161
420.034	2118
420.110	1582
420.186	2324
420.262	1959
420.337	1500
420.413	2074
420.489	2105
420.565	2798
420.640	3032
420.716	3177
420.792	1766
420.867	3987
420.943	2234
421.019	2380
421.094	2532
421.170	3142
421.245	3233
421.321	3922
421.397	3984
421.472	5930
421.548	6761
421.623	6652
421.699	6361
421.774	7845
421.850	7304
421.925	8634
422.001	10285
422.076	11837
422.152	15175
422.227	20145
422.302	27593
422.378	37927
422.453	58303
422.529	94280
422.604	137776
422.679	142237
422.755	137396
422.830	96867
422.905	59778
422.981	40715
423.056	29039
423.131	22198
423.207	17326
423.282	13799
423.357	12042
423.432	9537
423.508	8763
423.583	6970
423.658	7293
423.733	5940
423.808	5568
423.883	5809
423.959	6009
424.034	6757
424.109	6713
424.184	3936
424.259	2886
424.334	3899
424.409	2965
424.484	3976
424.559	3428
424.634	1918
424.709	2549
424.784	3333
424.859	2230
424.934	1971
425.009	2565
425.084	2934
425.159	1459
425.234	2613
425.309	1785
425.384	2086
425.459	1519
425.534	1965
425.609	1988
425.683	1872
425.758	1801
425.833	1690
425.908	1668
425.983	1381
426.058	2712
426.132	2151
426.207	1612
426.282	2618
426.357	1420
426.431	1338
426.506	2617
426.581	2011
426.655	2353
426.730	1347
426.805	1153
426.879	2605
426.954	1568
427.029	872
427.103	1961
427.178	2371
427.253	1599
427.327	1838
427.402	1261
427.476	1535
427.551	1525
427.625	839
427.700	1477
427.774	658
427.849	2312
427.923	961
427.998	1748
428.072	1595
428.147	4626
428.221	15258
428.296	46068
428.370	25229
428.444	4277
428.519	1677
428.593	1370
428.667	2480
428.742	2381
428.816	6450
428.890	27836
428.965	42204
429.039	10299
429.113	2339
429.188	1930
429.262	1377
429.336	2333
429.410	1170
429.485	1900
429.559	1353
429.633	2019
429.707	1122
429.781	5934
429.855	24557
429.930	36280
430.004	10044
430.078	5886
430.152	16482
430.226	59426
430.300	57470
430.374	12259
430.448	4853
430.522	2357
430.596	2622
430.670	9432
430.744	33938
430.818	36719
430.892	7079
430.966	1217
431.040	3413
431.114	492
431.188	595
431.262	1426
431.336	1307
431.410	2224
431.484	1209
431.557	2051
431.631	1395
431.705	3396
431.779	11797
431.853	42763
431.927	30063
432.000	4320
432.074	2200
432.148	1870
432.222	536
432.295	2056
432.369	920
432.443	440
432.516	1714
432.590	2280
432.664	1341
432.737	176
432.811	-621
432.885	460
432.958	1286
433.032	358
433.106	718
433.179	381
433.253	1646
433.326	1010
433.400	333
433.473	1001
433.547	786
433.620	790
433.694	294
433.767	1278
433.841	773
433.914	-315
433.988	583
434.061	1169
434.134	-29
434.208	695
434.281	738
434.355	1235
434.428	1440
434.501	638
434.575	255
434.648	890
434.721	717
434.795	446
434.868	247
434.941	519
435.014	-93
435.088	1176
435.161	1135
435.234	1000
435.307	1384
435.381	2047
435.454	2910
435.527	5564
435.600	5576
435.673	5205
435.746	2675
435.819	2853
435.892	1918
435.966	1615
436.039	980
436.112	1581
436.185	493
436.258	937
436.331	130
436.404	980
436.477	492
436.550	1543
436.623	1356
436.696	866
436.769	-13
436.842	1134
436.915	885
436.987	825
437.060	389
437.133	1477
437.206	400
437.279	1278
437.352	794
437.425	802
437.498	416
437.570	1235
437.643	702
437.716	812
437.789	515
437.861	1080
437.934	576
438.007	1070
438.080	-568
438.152	584
438.225	873
438.298	2097
438.370	3657
438.443	1949
438.516	456
438.588	595
438.661	152
438.734	903
438.806	498
438.879	880
438.951	868
439.024	1031
439.096	-129
439.169	618
439.241	509
439.314	1081
439.386	229
439.459	775
439.531	743
439.604	1136
439.676	1013
439.749	953
439.821	430
439.893	1168
439.966	618
440.038	435
440.110	194
440.183	365
440.255	200
440.327	1602
440.400	1160
440.472	1953
440.544	1316
440.617	576
440.689	1986
440.761	1673
440.833	1131
440.905	1191
440.978	960
441.050	845
441.122	1673
441.194	538
441.266	1317
441.338	537
441.411	1357
441.483	1036
441.555	1860
441.627	1120
441.699	1273
441.771	952
441.843	196
441.915	1563
441.987	1234
442.059	1524
442.131	1223
442.203	2057
442.275	2332
442.347	3250
442.419	7898
442.491	33890
442.563	66984
442.635	26269
442.706	5917
442.778	3423
442.850	2627
442.922	2081
442.994	2480
443.066	2282
443.137	3186
443.209	3848
443.281	5336
443.353	11023
443.425	38669
443.496	104829
443.568	104371
443.640	42295
443.711	11323
443.783	5072
443.855	2927
443.926	2286
443.998	2100
444.070	2033
444.141	2031
444.213	1226
444.285	1158
444.356	1802
444.428	1587
444.499	1687
444.571	1082
444.642	1738
444.714	1706
444.785	2193
444.857	2167
444.928	2376
445.000	2074
445.071	3700
445.143	3177
445.214	6307
445.285	8747
445.357	21782
445.428	70163
445.500	126978
445.571	96639
445.642	63599
445.714	21720
445.785	7699
445.856	4024
445.928	3334
445.999	2850
446.070	1902
446.141	1693
446.213	1456
446.284	606
446.355	1602
446.426	942
446.497	1057
446.569	1262
446.640	708
446.711	1006
446.782	732
446.853	974
446.924	1996
446.995	441
447.066	706
447.138	1124
447.209	919
447.280	-699
447.351	601
447.422	690
447.493	1081
447.564	814
447.635	-161
447.706	700
447.777	425
447.847	777
447.918	296
447.989	613
448.060	1004
448.131	833
448.202	955
448.273	414
448.344	1047
448.414	279
448.485	773
448.556	1728
448.627	219
448.698	1617
448.768	217
448.839	202
448.910	898
448.981	654
449.051	341
449.122	1380
449.193	556
449.263	828
449.334	1010
449.405	217
449.475	1247
449.546	637
449.616	-214
449.687	1186
449.758	89
449.828	81
449.899	131
449.969	605
450.040	326
450.110	172
450.181	727
450.251	983
450.322	308
450.392	498
450.463	346
450.533	632
450.604	1162
450.674	1359
450.744	-29
450.815	618
450.885	611
450.955	970
451.026	1226
451.096	852
451.166	760
451.237	946
451.307	911
451.377	844
451.447	798
451.518	57
451.588	520
451.658	900
451.728	903
451.799	-42
451.869	1215
451.939	602
452.009	528
452.079	439
452.149	1105
452.219	464
452.289	876
452.360	465
452.430	721
452.500	892
452.570	2509
452.640	4802
452.710	12951
452.780	13039
452.850	6132
452.920	2433
452.990	1991
453.060	1203
453.129	1007
453.199	571
453.269	1895
453.339	1772
453.409	1668
453.479	1034
453.549	1647
453.619	1561
453.688	902
453.758	567
453.828	110
453.898	223
453.968	494
454.037	507
454.087	139
454.107	-23
454.168	751
454.177	856
454.247	685
454.249	705
454.316	914
454.330	799
454.386	364
454.411	312
454.456	139
454.492	687
454.525	1168
454.574	896
454.595	781
454.655	1298
454.665	1369
454.734	289
454.736	312
454.804	651
454.817	733
454.873	1082
454.898	1013
454.943	816
454.979	819
455.013	834
455.060	696
455.082	570
455.141	641
455.152	664
455.221	1417
455.222	1413
455.291	32
455.303	153
455.360	542
455.384	847
455.430	1413
455.465	1294
455.499	1127
455.546	752
455.569	561
455.627	1232
455.638	1362
455.707	909
455.708	918
455.777	207
455.789	280
455.846	674
455.869	680
455.916	728
455.950	803
455.985	776
456.031	746
456.054	705
456.112	639
456.124	658
456.193	1368
456.193	1357
456.262	1394
456.274	1492
456.332	2016
456.355	1707
456.401	952
456.436	1112
456.470	1423
456.516	1555
456.540	1444
456.597	1090
456.609	1026
456.678	1637
456.678	1631
456.747	1362
456.759	1315
456.817	1114
456.840	1427
456.886	1940
456.920	1717
456.955	1337
457.001	1200
457.024	1151
457.082	1644
457.093	1769
457.162	1642
457.163	1656
457.232	1605
457.243	1700
457.301	2176
457.324	1907
457.370	1455
457.405	2347
457.439	3098
457.485	2703
457.508	2656
457.566	3637
457.577	3919
457.646	5402
457.647	5440
457.715	12400
457.727	14065
457.784	24745
457.808	31647
457.853	38346
457.889	42595
457.922	39940
457.969	26889
457.991	28088
458.050	36525
458.060	38316
458.129	63749
458.130	64503
458.198	55195
458.211	49112
458.267	26647
458.292	18314
458.336	13777
458.372	13402
458.405	19214
458.453	29653
458.474	37533
458.533	65956
458.543	67622
458.611	94670
458.614	95068
458.680	51532
458.694	39692
458.749	19025
458.775	13589
458.818	8694
458.855	6632
458.887	5863
458.936	5287
458.955	5046
459.016	4097
459.024	4018
459.093	4390
459.097	4377
459.162	3428
459.177	3311
459.230	3582
459.257	3619
459.299	3329
459.338	3257
459.368	3183
459.418	3081
459.437	3055
459.499	2734
459.505	2726
459.574	2727
459.579	2759
459.643	2673
459.659	2653
459.711	2634
459.740	2720
459.780	3040
459.820	3130
459.849	3050
459.900	2742
459.917	2695
459.981	3091
459.986	3078
460.054	3093
460.061	3059
460.123	3121
460.141	3116
460.191	3166
460.222	3089
460.260	2854
460.302	2823
460.328	2876
460.382	2985
460.397	3039
460.462	3559
460.465	3653
460.534	6088
460.543	6317
460.602	13235
460.623	16101
460.671	23673
460.703	30169
460.739	26093
460.783	18568
460.808	15378
460.864	4891
460.876	4213
460.944	3794
460.945	3784
461.013	3687
461.024	3592
461.081	3034
461.104	3153
461.150	3635
461.184	3615
461.218	3437
461.264	3074
461.286	2908
461.345	2890
461.355	2896
461.423	3143
461.425	3135
461.491	3344
461.505	3567
461.559	3851
461.585	3522
461.628	3329
461.665	3702
461.696	3676
461.745	3341
461.764	3290
461.825	3259
461.832	3324
461.901	3654
461.905	3701
461.969	3297
461.985	3106
462.037	3873
462.065	4306
462.105	3534
462.145	3081
462.173	3639
462.225	4271
462.241	4002
462.305	3193
462.310	3226
462.378	3458
462.385	3485
462.446	3357
462.465	3412
462.514	3728
462.545	3730
462.582	3615
462.625	3570
462.650	3336
462.705	2810
462.718	2876
462.785	3335
462.786	3337
462.854	3146
462.865	3125
462.922	3367
462.945	3615
462.990	3616
463.025	3500
463.058	3787
463.104	3973
463.126	3823
463.184	3392
463.194	3467
463.262	4156
463.264	4181
463.330	3501
463.344	3313
463.398	4147
463.424	4539
463.466	3813
463.504	3214
463.533	3626
463.583	4094
463.601	3862
463.663	3147
463.669	3112
463.737	2953
463.743	2907
463.805	3477
463.823	3698
463.873	3761
463.903	3858
463.940	4066
463.982	4147
464.008	4088
464.062	3902
464.076	3858
464.142	3795
464.144	3814
464.211	4264
464.221	4322
464.279	3592
464.301	3316
464.347	3792
464.381	4137
464.414	4016
464.461	4090
464.482	4280
464.540	4330
464.550	4276
464.617	3882
464.620	3878
464.685	4246
464.699	4218
464.753	4075
464.779	4082
464.820	3948
464.859	3871
464.888	3841
464.938	3689
464.956	3999
465.018	5096
465.023	5080
465.091	4840
465.098	4807
465.158	4698
465.177	4635
465.226	4527
465.257	4477
465.293	4312
465.336	4122
465.361	4376
465.416	4775
465.428	4776
465.495	5032
465.496	5035
465.563	4266
465.575	4151
465.631	4724
465.654	4979
465.698	4587
465.734	4170
465.765	4117
465.813	4098
465.833	4277
465.893	4749
465.900	4745
465.968	4676
465.972	4667
466.035	4787
466.052	4786
466.102	4461
466.131	4265
466.170	4350
466.210	4446
466.237	4451
466.290	4388
466.304	4356
466.369	4221
466.372	4239
466.439	4552
466.449	4590
466.506	4030
466.528	3821
466.573	4633
466.607	5181
466.641	4972
466.687	4728
466.708	4906
466.766	5327
466.775	5311
466.842	5116
466.845	5101
466.909	5129
466.925	5109
466.977	5059
467.004	5038
467.044	5074
467.083	5097
467.111	4957
467.163	4664
467.178	4854
467.242	5621
467.245	5640
467.312	5865
467.321	5888
467.379	5811
467.400	5765
467.446	5994
467.480	6143
467.559	5553
467.638	5320
467.717	4971
467.796	6092
467.875	5885
467.955	7033
468.034	6696
468.113	7916
468.192	10564
468.271	10575
468.350	15125
468.429	21813
468.508	23047
468.588	13923
468.667	9129
468.746	8031
468.825	6879
468.904	6454
468.983	5774
469.062	5319
469.141	6193
469.220	5665
469.299	6432
469.378	4847
469.456	7023
469.535	6104
469.614	5200
469.693	4435
469.772	6111
469.851	5108
469.930	5464
470.009	5818
470.088	5704
470.166	5304
470.245	5773
470.324	6941
470.403	6045
470.482	6157
470.560	5315
470.639	5524
470.718	5862
470.797	5201
470.875	5580
470.954	4382
471.033	5354
471.111	5343
471.190	5381
471.269	4591
471.347	5006
471.426	4409
471.505	5622
471.583	5009
471.662	5044
471.740	5508
471.819	5275
471.898	4451
471.976	4304
472.055	5080
472.133	5322
472.212	5955
472.290	5731
472.369	4530
472.447	4218
472.526	4655
472.604	5187
472.683	4859
472.761	5196
472.839	4850
472.918	5604
472.996	4802
473.075	5778
473.153	6207
473.231	5014
473.310	4968
473.388	5288
473.466	4297
473.545	6071
473.623	5642
473.701	5137
473.780	5630
473.858	4224
473.936	6440
474.014	6146
474.093	5901
474.171	5378
474.249	5463
474.327	5014
474.405	5300
474.484	5464
474.562	5252
474.640	5518
474.718	5045
474.796	5015
474.874	5678
474.952	5369
475.030	4865
475.108	4558
475.187	4822
475.265	5006
475.343	5213
475.421	5149
475.499	5198
475.577	4937
475.655	5112
475.733	5241
475.811	5430
475.889	4925
475.966	5658
476.044	4808
476.122	4593
476.200	4882
476.278	4477
476.356	5363
476.434	5468
476.512	5102
476.590	5487
476.667	6145
476.745	5145
476.823	4499
476.901	5148
476.979	4836
477.056	5152
477.134	5538
477.212	5115
477.290	5237
477.367	5746
477.445	4644
477.523	3752
477.601	4830
477.678	5018
477.756	5083
477.834	4635
477.911	5047
477.989	4314
478.066	4285
478.144	4387
478.222	5368
478.299	5141
478.377	5634
478.454	5534
478.532	5951
478.609	4428
478.687	4552
478.764	3700
478.842	5115
478.919	5354
478.997	4432
479.074	4665
479.152	4932
479.229	5646
479.307	4223
479.384	4807
479.461	5328
479.539	4406
479.616	4766
479.694	5084
479.771	4793
479.848	4607
479.926	3215
480.003	6191
480.080	5550
480.157	4643
480.235	5277
480.312	4737
480.389	4987
480.467	4408
480.544	5384
480.621	5101
480.698	6995
480.775	5197
480.853	6029
480.930	5409
481.007	5023
481.084	6526
481.161	7189
481.238	6402
481.315	4988
481.392	4837
481.470	5786
481.547	5142
481.624	5704
481.701	5429
481.778	5122
481.855	5515
481.932	6123
482.009	7092
482.086	6309
482.163	8132
482.240	8980
482.317	8045
482.393	7590
482.470	5812
482.547	7957
482.624	5971
482.701	7595
482.778	5144
482.855	5561
482.932	6262
483.009	6263
483.085	7909
483.162	8669
483.239	9647
483.316	8928
483.393	8944
483.469	7645
483.546	6892
483.623	6223
483.699	5953
483.776	5677
483.853	5616
483.930	6275
484.006	5883
484.083	7353
484.160	6253
484.236	6975
484.313	6542
484.389	6826
484.466	8886
484.543	9409
484.619	11652
484.696	14190
484.772	9211
484.849	7612
484.925	6945
485.002	7346
485.078	5730
485.155	5689
485.231	5239
485.308	6394
485.384	5705
485.461	6320
485.537	5270
485.614	6645
485.690	5563
485.766	5724
485.843	5403
485.919	5805
485.995	4844
486.072	5722
486.148	5534
486.224	5692
486.301	5183
486.377	5291
486.453	5575
486.530	6007
486.606	6396
486.682	5964
486.758	5973
486.835	6255
486.911	6034
486.987	7827
487.063	8087
487.139	8458
487.215	10125
487.292	11977
487.368	12466
487.444	14021
487.520	20267
487.596	30035
487.672	75931
487.748	229786
487.824	329398
487.900	99827
487.976	29200
488.052	16086
488.128	12232
488.204	8919
488.280	9318
488.356	7212
488.432	7141
488.508	7838
488.584	5901
488.660	5757
488.736	5819
488.812	5399
488.888	6677
488.964	6077
489.039	5519
489.115	6789
489.191	6421
489.267	6248
489.343	5185
489.418	5310
489.494	4844
489.570	3641
489.646	5753
489.722	5553
489.797	4328
489.873	5752
489.949	5797
490.024	6017
490.100	4555
490.176	4875
490.251	4226
490.327	4997
490.403	5582
490.478	5715
490.554	4289
490.629	5183
490.705	4849
490.781	5625
490.856	4687
490.932	5320
491.007	4533
491.083	4600
491.158	4831
491.234	4501
491.309	5938
491.385	4554
491.460	4486
491.536	5526
491.611	4887
491.686	4686
491.762	5042
491.837	6161
491.913	5582
491.988	6421
492.063	4544
492.139	4618
492.214	3729
492.289	5182
492.365	4119
492.440	4231
492.515	3817
492.590	4340
492.666	3227
492.741	4090
492.816	4350
492.891	2987
492.967	4249
493.042	4846
493.117	4510
493.192	4935
493.267	4464
493.342	5671
493.418	5539
493.493	4167
493.568	5573
493.643	3652
493.718	4552
493.793	3651
493.868	3825
493.943	4555
494.018	4502
494.093	3943
494.168	4288
494.243	3852
494.318	4815
494.393	4958
494.468	3705
494.543	4267
494.618	4164
494.693	4245
494.768	3928
494.842	4123
494.917	4341
494.992	4408
495.067	4025
495.142	3546
495.217	3511
495.292	4910
495.366	3016
495.441	3241
495.516	4940
495.591	3788
495.665	5212
495.740	6939
495.815	4258
495.890	3837
495.964	2189
496.039	6177
496.114	4018
496.188	4927
496.263	4015
496.338	3947
496.412	4124
496.487	4626
496.561	4327
496.636	4233
496.710	4233
496.785	4400
496.860	3608
496.934	3352
497.009	4187
497.083	3573
497.158	4115
497.232	4235
497.307	4018
497.381	4286
497.455	3429
497.530	4400
497.604	3487
497.679	3728
497.753	4866
497.827	3909
497.902	3223
497.976	4910
498.050	5890
498.125	12230
498.199	10629
498.273	4080
498.348	3652
498.422	4790
498.496	3888
498.570	5096
498.645	3586
498.719	2912
498.793	3988
498.867	4391
498.941	4878
499.016	6560
499.090	10659
499.164	5363
499.238	4408
499.312	5426
499.386	4109
499.460	3905
499.534	4964
499.609	5267
499.683	3954
499.757	5954
499.831	5230
499.905	9035
499.979	6865
500.053	5062
500.127	4569
500.201	3929
500.275	4969
500.349	3583
500.422	3875
500.496	5106
500.570	4479
500.644	7083
500.718	8341
500.792	5628
500.866	4959
500.940	5174
501.013	5537
501.087	4234
501.161	5309
501.235	3589
501.309	7678
501.382	7291
501.456	7914
501.530	4532
501.603	4308
501.677	3985
501.751	3139
501.825	5365
501.898	4370
501.972	5851
502.046	4893
502.119	3672
502.193	5203
502.266	5341
502.340	5396
502.413	5176
502.487	5237
502.561	3878
502.634	4716
502.708	5450
502.781	3584
502.855	4689
502.928	3323
503.002	4219
503.075	4144
503.149	4189
503.222	3718
503.295	3622
503.369	6094
503.442	5096
503.516	7578
503.589	8813
503.662	7249
503.736	9197
503.809	12113
503.882	13891
503.956	22923
504.029	46880
504.102	133427
504.175	179925
504.249	61321
504.322	23252
504.395	13509
504.468	9698
504.542	7256
504.615	4772
504.688	6110
504.761	3509
504.834	7426
504.907	4813
504.980	3678
505.053	3971
505.127	2081
505.200	6150
505.273	3856
505.346	3840
505.419	2599
505.492	5101
505.565	4105
505.638	4452
505.711	3301
505.784	2341
505.857	2422
505.930	4316
506.003	1545
506.076	5406
506.149	2915
506.221	2200
506.294	4287
506.367	1928
506.440	6161
506.513	4400
506.586	3834
506.659	3634
506.731	3825
506.804	2545
506.877	2066
506.950	4228
507.022	3844
507.095	1494
507.168	3064
507.241	3566
507.313	2823
507.386	2405
507.459	4183
507.531	3018
507.604	2585
507.677	3553
507.749	2414
507.822	4586
507.894	2418
507.967	4028
508.040	2724
508.112	2768
508.185	3375
508.257	1384
508.330	4388
508.402	2544
508.475	2391
508.547	3676
508.620	2672
508.692	2587
508.765	3227
508.837	2593
508.909	3198
508.982	2350
509.054	4354
509.127	2690
509.199	2425
509.271	1575
509.344	2401
509.416	3630
509.488	2626
509.560	4057
509.633	3037
509.705	2551
509.777	3032
509.849	3147
509.922	2021
509.994	3278
510.066	3524
510.138	1037
510.210	4367
510.283	2849
510.355	2892
510.427	3080
510.499	3134
510.571	2376
510.643	2732
510.715	3975
510.787	1424
510.859	3868
510.931	2714
511.003	3156
511.076	3694
511.148	2137
511.219	1780
511.291	3384
511.363	3230
511.435	3219
511.507	1405
511.579	4397
511.651	3836
511.723	3333
511.795	2612
511.867	2732
511.939	2330
512.010	2374
512.082	3702
512.154	1849
512.226	3093
512.298	3454
512.369	1907
512.441	3863
512.513	2622
512.585	1573
512.656	4043
512.728	3418
512.800	2841
512.871	4155
512.943	2308
513.015	1486
513.086	3184
513.158	2858
513.230	2008
513.301	2693
513.373	3014
513.444	2847
513.516	2690
513.588	2485
513.659	3127
513.731	3384
513.802	1696
513.874	3877
513.945	3485
514.016	1679
514.088	3647
514.159	1511
514.231	3099
514.302	2817
514.374	3361
514.445	1435
514.516	5535
514.588	2070
514.659	2730
514.730	2747
514.802	4377
514.873	894
514.944	5005
515.016	3494
515.087	3296
515.158	2852
515.229	3923
515.301	2239
515.372	3674
515.443	2413
515.514	2222
515.585	1938
515.656	4315
515.728	4027
515.799	3057
515.870	3479
515.941	3587
516.012	2637
516.083	4539
516.154	2286
516.225	4012
516.296	5729
516.367	4302
516.438	3287
516.509	3657
516.580	5734
516.651	13943
516.722	31334
516.793	11988
516.864	4878
516.935	4675
517.006	6015
517.077	7392
517.148	13247
517.219	50563
517.289	63072
517.360	9738
517.431	6045
517.502	3357
517.573	5507
517.643	4231
517.714	4074
517.785	4942
517.856	4017
517.926	7635
517.997	7484
518.068	5871
518.138	10077
518.209	12959
518.280	40602
518.350	123871
518.421	40740
518.492	15886
518.562	16874
518.633	24253
518.703	37857
518.774	91697
518.845	226577
518.915	187394
518.986	50361
519.056	21860
519.127	14936
519.197	10985
519.268	9156
519.338	9120
519.408	5721
519.479	6564
519.549	5583
519.620	6109
519.690	4583
519.760	4902
519.831	4298
519.901	3679
519.971	3868
520.042	3429
520.112	3268
520.182	4872
520.253	3732
520.323	2834
520.393	2341
520.463	5206
520.534	951
520.604	6236
520.674	4305
520.744	2917
520.814	4401
520.885	4723
520.955	3815
521.025	5411
521.095	3818
521.165	5157
521.235	3520
521.305	3104
521.375	3542
521.445	4365
521.515	3141
521.585	4710
521.655	2374
521.725	4095
521.795	4632
521.865	1193
521.935	5728
522.005	2959
522.075	2708
522.145	3992
522.215	2312
522.285	4229
522.355	3912
522.424	3637
522.494	3027
522.564	3491
522.634	3406
522.704	6419
522.774	3390
522.843	4373
522.913	3834
522.983	3376
523.053	3908
523.122	3713
523.192	3208
523.262	3931
523.331	3529
523.401	3452
523.471	4502
523.540	4574
523.610	3030
523.680	4375
523.749	4176
523.819	4000
523.888	3111
523.958	3698
524.027	4759
524.097	3724
524.166	3944
524.236	2791
524.305	6108
524.375	2992
524.444	3002
524.514	5985
524.583	3442
524.653	2882
524.722	5307
524.791	3220
524.861	5505
524.930	3157
524.999	4084
525.069	4966
525.138	4011
525.207	4234
525.277	5915
525.346	5809
525.415	7401
525.484	7165
525.554	7646
525.623	9228
525.692	12373
525.761	13511
525.830	16815
525.900	20983
525.969	36776
526.038	71082
526.107	151409
526.176	386115
526.245	261447
526.314	84199
526.383	203594
526.452	242727
526.522	356485
526.591	273380
526.660	49141
526.729	30757
526.797	35908
526.867	52663
526.935	155742
527.004	496275
527.073	270232
527.142	42014
527.211	18667
527.280	13950
527.349	10396
527.418	7041
527.487	7542
527.555	5670
527.624	5545
527.693	4316
527.762	6730
527.831	4651
527.899	5824
527.968	5003
528.037	3629
528.106	5095
528.174	4857
528.243	4649
528.312	4505
528.380	3667
528.449	3140
528.518	5182
528.586	3134
528.655	5497
528.723	4197
528.792	3575
528.861	3415
528.929	3507
528.998	4571
529.066	5455
529.135	6233
529.203	4489
529.272	5639
529.340	7375
529.409	7701
529.477	6240
529.545	5619
529.614	8368
529.682	5727
529.751	7703
529.819	10173
529.887	9629
529.956	8732
530.024	9622
530.092	6646
530.161	8282
530.229	7410
530.297	8088
530.365	9947
530.434	9819
530.502	9121
530.570	8455
530.638	5779
530.707	8415
530.775	8279
530.843	6993
530.911	8977
530.979	8792
531.047	9053
531.115	8950
531.183	8418
531.252	8267
531.320	8102
531.388	7845
531.456	9814
531.524	7822
531.592	10050
531.660	12015
531.728	9173
531.796	9281
531.864	9024
531.932	8756
532.000	8532
532.067	9951
532.135	10337
532.203	11315
532.271	10107
532.339	12031
532.407	12161
532.475	11150
532.542	11327
532.610	11106
532.678	10037
532.746	14195
532.814	15703
532.881	11212
532.949	10644
533.017	10601
533.084	9570
533.152	10460
533.220	10158
533.287	8998
533.355	10776
533.423	10728
533.490	10304
533.558	10582
533.625	10338
533.693	9384
533.761	10285
533.828	9997
533.896	8369
533.963	11512
534.031	11151
534.098	14294
534.166	13048
534.233	12229
534.300	14848
534.368	13816
534.435	13520
534.503	14189
534.570	16437
534.637	16113
534.705	19506
534.772	23431
534.840	43533
534.907	176601
534.974	176037
535.041	26317
535.109	15229
535.176	13073
535.243	12968
535.310	13110
535.378	11406
535.445	12094
535.512	11803
535.579	11644
535.646	9861
535.714	12089
535.781	12625
535.848	12553
535.915	12422
535.982	11532
536.049	11826
536.116	12860
536.183	11156
536.250	10657
536.317	10955
536.384	11458
536.451	12159
536.518	12575
536.585	10513
536.652	13211
536.719	12650
536.786	10276
536.853	10802
536.920	12649
536.987	11982
537.053	10293
537.120	13542
537.187	14411
537.254	11670
537.321	11901
537.388	13406
537.454	10660
537.521	11762
537.588	11861
537.654	13567
537.721	13140
537.788	13012
537.855	11145
537.921	12451
537.988	11879
538.055	12820
538.121	10041
538.188	10936
538.254	10212
538.321	10776
538.388	11948
538.454	12943
538.521	13388
538.587	12652
538.654	12024
538.720	11886
538.787	12966
538.853	12004
538.920	11357
538.986	9884
539.053	10078
539.119	11774
539.185	9853
539.252	12696
539.318	11723
539.385	13762
539.451	10826
539.517	12748
539.583	11883
539.650	11420
539.716	12113
539.782	10872
539.849	10127
539.915	11582
539.981	9991
540.047	11381
540.114	11188
540.180	12263
540.246	11235
540.312	12311
540.378	11952
540.444	12875
540.510	12249
540.576	12944
540.643	11634
540.709	10511
540.775	10332
540.841	10726
540.907	11199
540.973	11532
541.039	11732
541.105	10749
541.171	12532
541.237	12274
541.303	11942
541.369	14308
541.435	12530
541.500	11471
541.566	10321
541.632	10943
541.698	10815
541.764	12786
541.830	11016
541.896	10671
541.961	10701
542.027	10489
542.093	13474
542.159	13625
542.224	10223
542.290	12371
542.356	11055
542.421	11247
542.487	10621
542.553	10257
542.618	10851
542.684	11169
542.750	10986
542.815	12379
542.881	10967
542.947	12694
543.012	12818
543.078	10736
543.143	10149
543.209	10810
543.274	10350
543.340	11135
543.405	11266
543.471	11014
543.536	11284
543.602	11539
543.667	10781
543.732	12800
543.798	10589
543.863	11531
543.928	11171
543.994	11547
544.059	11699
544.124	12931
544.190	12052
544.255	12177
544.320	13171
544.386	12155
544.451	13406
544.516	12382
544.581	12164
544.646	12797
544.712	13825
544.777	14151
544.842	12997
544.907	12803
544.972	12938
545.037	14296
545.102	14800
545.168	14369
545.233	15535
545.298	16179
545.363	13934
545.428	15263
545.493	16675
545.558	15025
545.623	15224
545.688	15151
545.753	16705
545.818	16954
545.883	18614
545.947	17630
546.012	19202
546.077	18896
546.142	20480
546.207	20878
546.272	22179
546.337	22623
546.401	24214
546.466	24874
546.531	24728
546.596	27436
546.661	28314
546.725	30750
546.790	31136
546.855	35173
546.919	36937
546.984	42132
547.049	45552
547.113	52295
547.178	56713
547.243	64947
547.307	74582
547.372	81372
547.436	81265
547.501	87123
547.565	92059
547.630	83949
547.695	81464
547.759	82368
547.823	84539
547.888	84214
547.952	87758
548.017	90915
548.081	93433
548.146	90123
548.210	94025
548.274	100628
548.339	96966
548.403	90237
548.468	84984
548.532	83663
548.596	86030
548.660	86540
548.725	94014
548.789	102052
548.853	98215
548.917	94252
548.982	91108
549.046	83287
549.110	75624
549.174	79214
549.238	91639
549.303	99789
549.367	102985
549.431	96199
549.495	91300
549.559	91846
549.623	108145
549.687	113996
549.751	113030
549.815	134039
549.879	132971
549.943	128374
550.007	134922
550.071	131943
550.135	118502
550.199	113193
550.263	114240
550.327	108003
550.391	110533
550.455	122699
550.519	127171
550.582	134723
550.646	149617
550.710	151826
550.774	150284
550.838	150937
550.901	158956
550.965	164302
551.029	169249
551.093	181103
551.156	193401
551.220	208665
551.284	220300
551.347	180489
551.411	159668
551.475	156921
551.538	162517
551.602	150474
551.666	145394
551.729	136860
551.793	134311
551.856	131416
551.920	128497
551.983	130097
552.047	127591
552.110	129472
552.174	129456
552.237	132271
552.301	122741
552.364	119387
552.428	116579
552.491	119444
552.554	121696
552.618	121363
552.681	122084
552.745	116947
552.808	121510
552.871	127810
552.934	124593
552.998	120433
553.061	118000
553.124	114586
553.187	113900
553.251	117065
553.314	116998
553.377	118021
553.440	126212
553.503	127956
553.567	128550
553.630	128861
553.693	127070
553.756	127502
553.819	124005
553.882	119122
553.945	121390
554.008	121607
554.071	124521
554.134	123850
554.197	116144
554.260	113685
554.323	116871
554.386	118230
554.449	123389
554.512	120054
554.575	115778
554.638	115836
554.701	114927
554.764	113834
554.827	109638
554.889	106771
554.952	100668
555.015	99528
555.078	101327
555.141	102143
555.203	99731
555.266	98821
555.329	97899
555.391	94617
555.454	93152
555.517	90007
555.580	87182
555.642	83261
555.705	82894
555.768	82253
555.830	79011
555.893	75466
555.955	74291
556.018	73344
556.080	73134
556.143	75467
556.206	71711
556.268	69941
556.330	70419
556.393	67111
556.455	66581
556.518	64592
556.580	63304
556.643	60309
556.705	59333
556.767	57735
556.830	56822
556.892	56335
556.955	54804
557.017	55290
557.079	54192
557.142	52292
557.204	50481
557.266	51205
557.328	47433
557.391	44696
557.453	43847
557.515	44963
557.577	44174
557.639	44980
557.701	44349
557.764	43347
557.826	44357
557.888	46570
557.950	47268
558.012	51657
558.074	65528
558.136	129862
558.198	243782
558.260	87175
558.322	46454
558.384	46569
558.446	47092
558.508	51479
558.570	56594
558.632	64256
558.694	81030
558.756	133326
558.818	328503
558.880	568091
558.942	252015
559.003	262652
559.065	116793
559.127	57476
559.189	54602
559.251	61608
559.312	89310
559.374	190397
559.436	451561
559.498	210785
559.559	61960
559.621	56140
559.683	63811
559.744	101762
559.806	272518
559.868	330324
559.929	83168
559.991	62789
560.052	99834
560.114	245845
560.176	141260
560.237	153072
560.299	202904
560.360	46838
560.422	25957
560.483	23738
560.545	21895
560.606	21036
560.667	20665
560.729	18624
560.790	18742
560.852	18674
560.913	16992
560.974	17470
561.036	16311
561.097	17011
561.158	17201
561.220	16894
561.281	15789
561.342	16676
561.403	16831
561.465	15258
561.526	15848
561.587	16907
561.648	14494
561.709	14001
561.771	14986
561.832	15145
561.893	14368
561.954	13960
562.015	13932
562.076	13588
562.137	14021
562.198	12168
562.259	14371
562.320	13629
562.381	13716
562.442	13566
562.503	12654
562.564	12348
562.625	12847
562.686	12172
562.747	11500
562.808	11792
562.869	11653
562.930	12369
562.991	11385
563.051	11444
563.112	11278
563.173	11868
563.234	11312
563.294	11763
563.355	11256
563.416	11651
563.477	11760
563.537	11029
563.598	11502
563.659	11275
563.720	10385
563.780	11570
563.841	10646
563.901	11969
563.962	10714
564.023	10095
564.083	11015
564.144	10406
564.204	10386
564.265	10720
564.325	9740
564.386	10096
564.446	9566
564.507	9864
564.567	9703
564.628	9602
564.688	9635
564.749	9876
564.809	10080
564.869	10314
564.930	9702
564.990	10604
565.050	9401
565.111	10381
565.171	10076
565.231	9303
565.292	10301
565.352	8852
565.412	10385
565.472	10111
565.532	9806
565.593	8744
565.653	8351
565.713	9587
565.773	9637
565.833	9971
565.893	10470
565.953	8979
566.013	9198
566.074	9054
566.134	9423
566.194	8200
566.254	8459
566.314	9647
566.374	9150
566.434	9616
566.494	8393
566.554	8803
566.614	9631
566.673	9499
566.733	9723
566.793	9465
566.853	9613
566.913	9292
566.973	10261
567.033	9646
567.092	8538
567.152	10187
567.212	9884
567.272	10205
567.331	10348
567.391	9739
567.451	10489
567.511	10471
567.570	9964
567.630	10143
567.690	8879
567.749	9808
567.809	9711
567.868	9374
567.928	10510
567.988	9927
568.047	9351
568.107	9175
568.166	10015
568.226	9948
568.285	10479
568.345	10886
568.404	10437
568.464	9963
568.523	9249
568.582	10904
568.642	9334
568.701	8850
568.761	9313
568.820	9376
568.879	9136
568.939	8905
568.998	9373
569.057	9533
569.116	9943
569.176	9170
569.235	9525
569.294	8977
569.353	8972
569.413	9120
569.472	8777
569.531	8992
569.590	9489
569.649	8882
569.708	8408
569.767	9525
569.827	8206
569.886	9284
569.945	8724
570.004	9762
570.063	9162
570.122	10161
570.181	9367
570.240	10009
570.299	8986
570.358	10120
570.417	9439
570.475	10342
570.534	10435
570.593	10267
570.652	10067
570.711	9526
570.770	8697
570.829	10067
570.887	9088
570.946	10098
571.005	10331
571.064	10465
571.122	10597
571.181	9607
571.240	9636
571.299	9435
571.357	9409
571.416	9718
571.475	9076
571.533	9636
571.592	9972
571.650	11280
571.709	10501
571.768	11687
571.826	11380
571.885	10817
571.943	10358
572.002	10290
572.060	9359
572.119	9381
572.177	10117
572.236	10026
572.294	10121
572.352	10738
572.411	10160
572.469	10391
572.528	9688
572.586	9263
572.644	9871
572.703	9703
572.761	8658
572.819	8776
572.877	8553
572.936	8295
572.994	9794
573.052	10226
573.110	9043
573.169	10157
573.227	9632
573.285	10147
573.343	9027
573.401	9408
573.459	9118
573.517	9536
573.576	10035
573.634	9434
573.692	9479
573.750	9585
573.808	8141
573.866	8800
573.924	8837
573.982	9634
574.040	8448
574.098	8826
574.155	7547
574.213	8764
574.271	8291
574.329	9656
574.387	8623
574.445	8738
574.503	8063
574.560	7611
574.618	8759
574.676	8291
574.734	8838
574.792	8192
574.849	8336
574.907	7441
574.965	7388
575.022	6191
575.080	7068
575.138	7810
575.195	6763
575.253	7378
575.311	7069
575.368	7170
575.426	6642
575.483	7601
575.541	8114
575.598	7390
575.656	7284
575.713	7864
575.771	7620
575.828	7157
575.886	6896
575.943	7647
576.001	6336
576.058	6650
576.115	7376
576.173	7028
576.230	6741
576.287	6902
576.345	8090
576.402	7815
576.459	8325
576.517	7159
576.574	7064
576.631	6714
576.688	7017
576.746	6631
576.803	6653
576.860	6305
576.917	6602
576.974	6803
577.031	6561
577.089	7112
577.146	6877
577.203	6566
577.260	5996
577.317	5679
577.374	5504
577.431	6135
577.488	6168
577.545	6381
577.602	7403
577.659	6531
577.716	6210
577.773	6552
577.830	5936
577.886	7004
577.943	6287
578.000	6120
578.057	6842
578.114	6203
578.171	5138
578.227	6067
578.284	5663
578.341	6837
578.398	5981
578.454	6532
578.511	5933
578.568	6939
578.625	6405
578.681	6996
578.738	7046
578.794	6214
578.851	6501
578.908	6360
578.964	6366
579.021	6570
579.077	6100
579.134	7017
579.190	7126
579.247	6421
579.303	5889
579.360	5601
579.416	6241
579.473	6560
579.529	6415
579.586	5948
579.642	7497
579.698	6868
579.755	6991
579.811	5791
579.867	6744
579.924	6926
579.980	6304
580.036	6746
580.093	7254
580.149	7533
580.205	7003
580.261	6884
580.317	7159
580.374	7368
580.430	7343
580.486	7500
580.542	6797
580.598	8054
580.619	7665
580.654	6998
580.692	7019
580.710	7042
580.765	7163
580.767	7174
580.823	7930
580.838	7737
580.879	7241
580.911	7526
580.935	7756
580.984	7551
580.991	7531
581.047	7272
581.057	7246
581.103	7208
581.130	7401
581.159	7594
581.203	7068
581.215	6941
581.270	7693
581.276	7616
581.326	6902
581.349	7197
581.382	7687
581.422	6843
581.438	6471
581.494	7141
581.494	7130
581.550	6651
581.567	6614
581.606	6497
581.640	6443
581.661	6444
581.713	7382
581.717	7457
581.773	8159
581.786	8066
581.829	7815
581.859	7672
581.885	7544
581.932	7865
581.940	7927
581.996	8472
582.004	8291
582.052	7299
582.077	7481
582.107	7717
582.150	7728
582.163	7721
582.219	7480
582.223	7440
582.274	7026
582.296	7011
582.330	7015
582.368	6901
582.386	6903
582.441	6811
582.441	6812
582.497	7756
582.514	7411
582.552	6821
582.587	7448
582.608	7758
582.659	7141
582.663	7105
582.719	8315
582.732	8273
582.774	8088
582.805	7706
582.830	7464
582.877	8251
582.885	8327
582.941	7709
582.950	7772
582.996	8440
583.023	8839
583.052	9269
583.095	9145
583.107	9086
583.162	8316
583.168	8356
583.218	8684
583.240	8357
583.273	7802
583.313	7500
583.328	7489
583.384	7560
583.385	7556
583.439	6987
583.458	6869
583.494	6797
583.531	7343
583.549	7696
583.603	7813
583.605	7805
583.660	7517
583.676	7464
583.715	7524
583.748	7686
583.770	7745
583.820	7830
583.825	7849
583.881	7802
583.893	7791
583.936	7559
583.965	7599
583.991	7797
584.038	8147
584.046	8156
584.101	7238
584.110	7240
584.156	7391
584.183	7595
584.211	7773
584.255	8399
584.266	8583
584.321	8522
584.328	8479
584.376	8045
584.400	8044
584.431	8177
584.472	8388
584.486	8375
584.541	8855
584.545	8891
584.596	9583
584.617	9513
584.651	9378
584.689	9451
584.706	9532
584.761	9901
584.762	9906
584.816	10078
584.834	10184
584.871	10525
584.906	10613
584.926	10636
584.978	11979
584.980	12028
585.035	12262
585.051	12723
585.090	14154
585.123	14900
585.145	15317
585.195	15968
585.200	16061
585.254	18305
585.267	19018
585.309	21502
585.340	23552
585.364	25302
585.412	29324
585.419	30030
585.473	38278
585.484	40704
585.528	53279
585.556	65461
585.583	86965
585.628	139823
585.637	157343
585.692	309389
585.700	332255
585.747	409684
585.772	350688
585.801	224670
585.845	87620
585.856	69566
585.910	36727
585.917	33666
585.965	25004
585.989	22320
586.019	20355
586.061	18010
586.074	17511
586.128	16800
586.133	16702
586.183	15391
586.205	15130
586.237	15109
586.277	14665
586.292	14456
586.346	14312
586.349	14302
586.401	13780
586.421	13657
586.455	13756
586.493	13633
586.509	13666
586.564	13880
586.565	13900
586.618	14906
586.637	15416
586.672	17004
586.709	19061
586.727	19975
586.781	21903
586.781	21895
586.835	17213
586.853	16206
586.889	15232
586.925	13994
586.944	13601
586.996	13424
586.998	13414
587.052	13358
587.068	13246
587.106	13272
587.140	13711
587.161	13878
587.212	13670
587.215	13674
587.269	14258
587.284	14356
587.323	14437
587.356	14740
587.377	14889
587.427	15123
587.431	15143
587.485	14715
587.499	14954
587.539	15829
587.571	16156
587.593	16344
587.643	17265
587.648	17348
587.702	17398
587.715	17404
587.755	16726
587.786	16424
587.810	16555
587.858	16992
587.864	17076
587.917	17998
587.930	18078
587.971	17445
588.001	17116
588.025	17283
588.073	17823
588.079	17852
588.133	17854
588.145	17913
588.187	17978
588.217	18064
588.241	18446
588.288	19095
588.295	19098
588.348	19091
588.360	19073
588.402	19497
588.431	19837
588.456	19710
588.503	19807
588.510	19978
588.564	21471
588.575	21768
588.617	22818
588.646	23811
588.671	24819
588.718	26948
588.725	27371
588.778	31783
588.789	33141
588.832	47756
588.861	59806
588.886	88036
588.932	150525
588.939	156903
588.993	202500
589.004	201122
589.047	102435
589.075	48187
589.100	37109
589.147	25599
589.154	25276
589.207	23022
589.218	22819
589.261	24006
589.290	24444
589.314	24586
589.361	26210
589.368	27162
589.421	35694
589.433	37980
589.475	62831
589.504	83276
589.528	111664
589.576	172726
589.582	167612
589.635	82877
589.647	67041
589.689	38458
589.718	22850
589.742	21846
589.790	19850
589.795	19737
589.849	19328
589.861	19204
589.902	19097
589.932	18996
589.955	18908
590.004	18700
590.009	18729
590.062	19326
590.075	19374
590.115	18282
590.146	17619
590.168	17938
590.218	18773
590.222	18767
590.275	18394
590.289	18406
590.328	19233
590.360	19615
590.381	19784
590.431	20373
590.435	20358
590.488	19975
590.503	19906
590.541	20511
590.574	21051
590.594	21085
590.645	21059
590.647	21087
590.700	21710
590.716	21955
590.753	22213
590.787	22577
590.806	22768
590.859	23160
590.859	23167
590.912	23664
590.930	23859
590.965	23935
591.001	24098
591.018	24198
591.071	24374
591.072	24374
591.124	23612
591.143	23380
591.177	23730
591.214	24174
591.230	24241
591.283	24455
591.285	24458
591.336	24263
591.356	24154
591.389	24263
591.427	24367
591.442	24252
591.495	23996
591.498	23966
591.547	23633
591.569	23544
591.600	23703
591.640	23794
591.653	23966
591.706	24725
591.711	24819
591.759	25101
591.782	25195
591.811	25662
591.853	26459
591.864	26618
591.917	27284
591.924	27377
591.969	26694
591.995	26322
592.022	26882
592.066	27806
592.075	27946
592.127	28843
592.137	28997
592.180	28805
592.208	28681
592.233	29142
592.279	30063
592.285	30179
592.338	31115
592.350	31329
592.390	30535
592.421	29944
592.443	30699
592.491	32373
592.495	32422
592.548	33045
592.562	33222
592.600	32650
592.633	32145
592.653	31957
592.704	31316
592.705	31522
592.775	32992
592.846	33434
592.916	34736
592.987	34358
593.058	35014
593.128	34452
593.199	35146
593.270	35224
593.341	37066
593.411	37824
593.482	38182
593.553	40017
593.623	40788
593.694	42746
593.764	41905
593.835	41827
593.906	42685
593.976	44068
594.047	45623
594.117	46563
594.188	47313
594.258	47889
594.329	48982
594.399	49672
594.470	51101
594.540	52868
594.611	53929
594.681	52874
594.751	53273
594.822	54916
594.892	57185
594.963	59620
595.033	61681
595.103	62017
595.174	63723
595.244	64994
595.314	66603
595.384	67727
595.455	69656
595.525	73061
595.595	74871
595.665	74282
595.736	73400
595.806	75554
595.876	76760
595.946	76669
596.016	79601
596.087	82584
596.157	82810
596.227	83631
596.297	86960
596.367	93647
596.437	99456
596.507	97257
596.577	97814
596.647	100222
596.717	106730
596.787	107709
596.857	106713
596.927	108042
596.997	109631
597.067	109832
597.137	112671
597.207	112108
597.277	112736
597.347	108233
597.417	105673
597.487	105003
597.557	108298
597.626	110588
597.696	112660
597.766	111454
597.836	105493
597.906	100417
597.975	97934
598.045	99987
598.115	103580
598.185	112178
598.254	124500
598.324	135293
598.394	137578
598.464	133254
598.533	131311
598.603	120873
598.672	118118
598.742	121641
598.812	120307
598.881	124194
598.951	125960
599.020	126913
599.090	131154
599.159	133997
599.229	128110
599.299	126442
599.368	129978
599.437	127475
599.507	117223
599.576	114058
599.646	112040
599.715	112012
599.785	110284
599.854	106475
599.924	105281
599.993	104150
600.062	107931
600.132	110155
600.201	116021
600.270	134732
600.340	140769
600.409	138624
600.478	138502
600.547	141500
600.617	128063
600.686	103341
600.755	95052
600.824	89954
600.894	88750
600.963	89827
601.032	88544
601.101	86700
601.170	81340
601.239	80055
601.308	79995
601.378	79601
601.447	80736
601.516	82346
601.585	83285
601.654	84734
601.723	84316
601.792	86823
601.861	90649
601.930	92999
601.999	93485
602.068	92177
602.137	93498
602.206	96301
602.275	96961
602.343	97093
602.412	98476
602.481	101207
602.550	101477
602.619	104026
602.688	105322
602.756	104893
602.825	107858
602.894	108441
602.963	110644
603.032	111811
603.100	112391
603.169	112502
603.238	114227
603.307	113826
603.375	114402
603.444	117713
603.513	118461
603.581	120350
603.650	122992
603.719	118406
603.787	119683
603.856	124203
603.924	125874
603.993	130252
604.061	136589
604.130	142798
604.198	143600
604.267	146038
604.335	149179
604.404	150341
604.472	154220
604.541	153989
604.609	155565
604.678	156118
604.746	158203
604.815	162399
604.883	163639
604.951	164174
605.020	167580
605.088	168902
605.156	171948
605.225	174403
605.293	173996
605.361	174127
605.429	175319
605.498	178959
605.566	182305
605.634	191620
605.702	198083
605.771	203405
605.839	202582
605.907	200017
605.975	192631
606.043	189944
606.111	190127
606.180	190544
606.248	186075
606.316	183664
606.384	184612
606.452	186015
606.520	186376
606.588	193067
606.656	195147
606.724	189729
606.792	179983
606.860	161633
606.928	149551
606.996	142479
607.064	140287
607.132	144503
607.200	153571
607.267	157240
607.335	161459
607.403	166320
607.471	159545
607.539	155442
607.607	157009
607.674	137613
607.742	138178
607.810	134875
607.878	136693
607.946	139250
608.013	146915
608.081	149405
608.149	150485
608.216	154641
608.284	160275
608.352	160860
608.419	157003
608.487	154694
608.555	151771
608.622	157600
608.690	168843
608.757	184285
608.825	186651
608.893	181281
608.960	170382
609.028	164677
609.095	164422
609.163	164278
609.230	146861
609.298	135992
609.365	141257
609.432	153464
609.500	167033
609.567	188714
609.635	213382
609.702	224322
609.769	213489
609.837	166781
609.904	145547
609.971	149747
610.039	162868
610.106	195599
610.173	325298
610.241	639474
610.308	389360
610.375	184986
610.442	158698
610.509	151136
610.577	153406
610.644	154462
610.711	158397
610.778	164264
610.845	169868
610.912	180579
610.980	186306
611.047	185547
611.114	182469
611.181	177579
611.248	176586
611.315	186113
611.382	193018
611.449	195580
611.516	199840
611.583	197346
611.650	198076
611.717	200650
611.784	204392
611.851	209566
611.918	218305
611.984	243172
612.051	311891
612.118	511042
612.185	971322
612.252	677000
612.319	300701
612.386	256860
612.452	238245
612.519	223623
612.586	220407
612.653	225071
612.719	230742
612.786	222082
612.853	207408
612.919	203692
612.986	206630
613.053	194934
613.120	184735
613.186	178048
613.253	179293
613.319	180348
613.386	181132
613.453	183086
613.519	184308
613.586	180661
613.652	183551
613.719	180773
613.785	183354
613.852	184938
613.918	185150
613.985	186538
614.051	193676
614.118	191554
614.184	183134
614.250	186535
614.317	190330
614.383	187320
614.449	190833
614.516	189842
614.582	189938
614.648	186162
614.715	184126
614.781	181405
614.847	181787
614.914	180409
614.980	175531
615.046	176835
615.112	182426
615.179	181247
615.245	184594
615.311	180195
615.377	184864
615.443	186410
615.509	187427
615.575	193504
615.642	190213
615.708	194883
615.774	202345
615.840	210414
615.906	220811
615.972	250776
616.038	335621
616.104	593187
616.170	1068181
616.236	902447
616.302	394208
616.368	316921
616.434	243345
616.500	225950
616.565	245198
616.631	301338
616.697	252490
616.763	255261
616.829	359486
616.895	585178
616.961	547417
617.026	274428
617.092	205578
617.158	196492
617.224	189508
617.289	175563
617.355	167371
617.421	165967
617.487	165744
617.552	158460
617.618	156580
617.684	156784
617.749	158588
617.815	151968
617.880	148137
617.946	148536
618.012	152130
618.077	156029
618.143	150027
618.208	149165
618.274	158681
618.339	160376
618.405	133807
618.470	135624
618.536	133461
618.601	132029
618.667	122821
618.732	116417
618.798	115994
618.863	114895
618.928	114168
618.994	116145
619.059	114992
619.124	115480
619.190	114979
619.255	113862
619.320	113396
619.386	114632
619.451	113467
619.516	110208
619.581	112124
619.647	114685
619.712	115343
619.777	110965
619.842	111423
619.907	113749
619.972	115532
620.038	113330
620.103	110906
620.168	112034
620.233	114884
620.298	115148
620.363	115722
620.428	118447
620.493	121304
620.558	122448
620.623	124069
620.688	123608
620.753	123409
620.818	124585
620.883	126360
620.948	124922
621.013	123155
621.078	121552
621.143	120894
621.207	125385
621.272	121049
621.337	118704
621.402	117616
621.467	116117
621.532	115648
621.596	117288
621.661	113779
621.726	114442
621.791	115347
621.855	114195
621.920	114173
621.985	114310
622.049	116821
622.114	116880
622.179	120390
622.243	122892
622.308	125485
622.373	130547
622.437	125683
622.502	121440
622.566	118941
622.631	117530
622.695	121834
622.760	119952
622.824	120356
622.889	120418
622.953	119715
623.018	128332
623.082	127191
623.147	127866
623.211	124736
623.276	124424
623.340	120028
623.404	119313
623.469	116809
623.533	119421
623.597	115455
623.662	114773
623.726	107800
623.790	101941
623.854	98196
623.919	100093
623.983	101403
624.047	103031
624.111	104517
624.176	105841
624.240	106547
624.304	109938
624.368	104850
624.432	107360
624.496	108792
624.560	113925
624.625	115287
624.689	115209
624.753	119955
624.817	114683
624.881	111044
624.945	100915
625.009	97369
625.073	100836
625.137	101526
625.201	107308
625.265	107640
625.329	101991
625.393	104007
625.456	104881
625.520	108341
625.584	110058
625.648	111367
625.712	113893
625.776	112942
625.839	108109
625.903	91559
625.967	84941
626.031	93158
626.095	106989
626.158	100775
626.222	78398
626.286	74764
626.349	73004
626.413	68047
626.477	66720
626.540	69110
626.604	66533
626.668	67029
626.731	65593
626.795	65824
626.858	65611
626.922	65465
626.986	63835
627.049	62853
627.113	67202
627.176	63733
627.240	63178
627.303	63649
627.366	62211
627.430	63972
627.493	62706
627.557	59903
627.620	62820
627.684	65564
627.747	65317
627.810	59204
627.874	54880
627.937	51713
628.000	54848
628.064	52898
628.127	47289
628.190	45914
628.253	45538
628.317	42297
628.380	41005
628.443	40381
628.506	40163
628.569	38927
628.632	35931
628.696	35518
628.759	36508
628.822	34851
628.885	33807
628.948	33883
629.011	32642
629.074	31311
629.137	31116
629.200	30073
629.263	29962
629.326	28657
629.389	29082
629.452	28797
629.515	28698
629.578	28193
629.641	29338
629.704	27617
629.767	28915
629.830	27542
629.892	25950
629.955	26307
630.018	29234
630.081	26272
630.144	27241
630.207	25297
630.269	27701
630.332	24906
630.395	25563
630.458	25085
630.520	22917
630.583	25310
630.646	25361
630.708	25556
630.771	24741
630.834	27554
630.896	25593
630.959	26440
631.021	24909
631.084	23900
631.146	25108
631.209	26549
631.272	25351
631.334	25859
631.397	25278
631.459	25461
631.522	27908
631.584	28050
631.646	29841
631.709	31528
631.771	29722
631.834	30015
631.896	28141
631.958	25968
632.021	25630
632.083	24358
632.145	24425
632.208	23704
632.270	25181
632.332	23346
632.395	22973
632.457	24112
632.519	23180
632.581	24139
632.643	22381
632.706	23236
632.768	21711
632.830	23663
632.892	24869
632.954	24289
633.016	24882
633.078	22793
633.141	23914
633.203	23283
633.265	23983
633.327	24315
633.389	23033
633.451	25548
633.513	23869
633.575	24141
633.637	24203
633.698	24898
633.760	26179
633.822	27188
633.884	27118
633.946	27805
634.008	28087
634.070	29485
634.132	31294
634.193	32233
634.255	35721
634.317	35957
634.379	36739
634.441	30421
634.502	28817
634.564	27602
634.626	25232
634.687	24236
634.749	23836
634.811	23478
634.873	22496
634.934	23735
634.996	23081
635.057	22210
635.119	22888
635.181	23792
635.242	25034
635.304	22517
635.365	26225
635.427	22782
635.488	23973
635.550	23809
635.611	24300
635.673	21668
635.734	26342
635.796	26599
635.857	29734
635.918	29718
635.980	34061
636.041	34850
636.102	38486
636.164	38389
636.225	36924
636.286	30702
636.348	28401
636.409	25315
636.470	24317
636.531	24122
636.593	21722
636.654	22902
636.715	22063
636.776	21575
636.838	20198
636.899	21675
636.960	20374
637.021	20108
637.082	19241
637.143	18510
637.204	17480
637.265	17687
637.326	19640
637.387	20335
637.448	18684
637.509	19907
637.570	19778
637.631	20203
637.692	18164
637.753	17232
637.814	18263
637.875	17368
637.936	18895
637.997	17198
638.058	17113
638.119	18500
638.179	17904
638.240	17101
638.301	18833
638.362	16709
638.423	16386
638.483	18497
638.544	15674
638.605	16643
638.666	16702
638.726	16806
638.787	17455
638.848	17052
638.908	16047
638.969	15968
639.030	15219
639.090	14769
639.151	15744
639.211	16609
639.272	16239
639.332	17340
639.393	17313
639.453	16670
639.514	17652
639.574	16279
639.635	14345
639.695	15506
639.756	14133
639.816	15415
639.877	14091
639.937	14970
639.997	15567
640.058	13645
640.118	14080
640.178	15547
640.239	15289
640.299	14578
640.359	14665
640.420	16155
640.480	17912
640.540	21293
640.600	19704
640.661	17891
640.721	16438
640.781	16876
640.841	14278
640.901	15615
640.961	14513
641.021	16077
641.082	16134
641.142	15035
641.202	15195
641.262	12730
641.322	14748
641.382	12211
641.442	13642
641.502	13497
641.562	14060
641.622	13539
641.682	15436
641.742	16867
641.802	15898
641.861	14771
641.921	14179
641.981	14484
642.041	12651
642.101	11883
642.161	11277
642.221	12592
642.280	12895
642.340	12906
642.400	11633
642.460	14209
642.519	13444
642.579	12853
642.639	14431
642.698	11505
642.758	15320
642.818	14192
642.877	13575
642.937	14526
642.997	14019
643.056	14104
643.116	12287
643.175	14714
643.235	13620
643.294	14297
643.354	15338
643.414	16425
643.473	18509
643.532	22378
643.592	28038
643.651	42502
643.711	71879
643.770	136827
643.830	310890
643.889	558635
643.948	164462
644.008	42490
644.067	25739
644.126	19778
644.186	16990
644.245	16607
644.304	12505
644.363	15824
644.423	13127
644.482	13676
644.541	14446
644.600	13423
644.659	19106
644.719	22008
644.778	32824
644.837	56921
644.896	114611
644.955	248396
645.014	80057
645.073	22234
645.132	16724
645.191	15551
645.250	15215
645.309	16971
645.368	17528
645.427	23691
645.486	40584
645.545	68771
645.604	20761
645.663	14179
645.722	13448
645.781	14860
645.840	16292
645.898	19929
645.957	27022
646.016	38735
646.075	68579
646.134	131298
646.192	329227
646.251	430307
646.310	85306
646.369	31214
646.427	25212
646.486	18769
646.545	14607
646.603	14410
646.662	13213
646.721	12357
646.779	11917
646.838	12382
646.896	15654
646.955	22562
647.014	34809
647.072	65104
647.131	174597
647.189	79766
647.248	15360
647.306	11606
647.365	11548
647.423	9013
647.481	11722
647.540	8345
647.598	9200
647.657	9222
647.715	10079
647.773	8342
647.832	9903
647.890	7321
647.948	7622
648.007	9053
648.065	6863
648.123	7866
648.181	9025
648.240	7944
648.298	6537
648.356	7739
648.414	6981
648.472	7710
648.531	7930
648.589	7738
648.647	6922
648.705	6284
648.763	6898
648.821	7668
648.879	7801
648.937	8517
648.995	10610
649.053	13195
649.111	19749
649.169	32785
649.227	56950
649.285	122505
649.343	320522
649.401	145475
649.459	23216
649.516	13666
649.574	9397
649.632	11219
649.690	13145
649.748	15382
649.806	23133
649.863	45464
649.921	128416
649.979	78329
650.037	12806
650.094	6909
650.152	6575
650.210	5438
650.268	5344
650.325	5263
650.383	5666
650.440	4174
650.498	5483
650.556	5245
650.613	4633
650.671	5960
650.728	5377
650.786	6165
650.843	9292
650.901	4604
650.958	5537
651.016	5090
651.073	5498
651.131	4230
651.188	4132
651.246	3909
651.303	3634
651.360	4684
651.418	3504
651.475	4409
651.532	3763
651.590	3765
651.647	4076
651.704	4301
651.762	4392
651.819	3646
651.876	2677
651.933	3668
651.990	4820
652.048	2489
652.105	3518
652.162	4072
652.219	3458
652.276	3427
652.333	3918
652.390	2942
652.448	2984
652.505	3404
652.562	3974
652.619	2915
652.676	3521
652.733	3652
652.790	2455
652.847	2754
652.904	3447
652.961	1257
653.017	2505
653.074	4041
653.131	3032
653.188	2535
653.245	2620
653.302	3135
653.359	2330
653.415	3845
653.472	2961
653.529	4042
653.586	2578
653.642	2067
653.699	3997
653.756	2747
653.813	2404
653.869	3494
653.926	2791
653.983	2981
654.039	3394
654.096	3482
654.152	3447
654.209	2289
654.266	3029
654.322	2149
654.379	2801
654.435	3773
654.492	1767
654.548	2994
654.605	2187
654.661	3520
654.717	2556
654.774	2981
654.830	2817
654.887	2677
654.943	3001
655.000	3524
655.056	2273
655.112	2874
655.168	2254
655.225	2920
655.281	2850
655.337	2764
655.394	1744
655.450	2380
655.506	2299
655.562	2169
655.618	3000
655.675	1915
655.731	2158
655.787	2276
655.843	2920
655.899	2400
655.955	2696
656.011	2857
656.067	2197
656.123	3186
656.179	1850
656.235	3674
656.291	1394
656.347	3408
656.403	1828
656.459	2674
656.515	2142
656.571	2759
656.627	1998
656.683	2283
656.739	2207
656.795	2624
656.850	1550
656.906	2321
656.962	3053
657.018	1969
657.074	3831
657.129	5893
657.185	9764
657.241	23776
657.297	11495
657.352	3201
657.408	2639
657.464	2758
657.519	2386
657.575	1549
657.630	1644
657.686	2371
657.742	1582
657.797	2074
657.853	2338
657.908	2966
657.964	478
658.019	1651
658.075	1929
658.130	1487
658.186	849
658.241	2064
658.297	1092
658.352	2415
658.407	1497
658.463	742
658.518	1760
658.573	2196
658.629	1129
658.684	2242
658.739	1947
658.795	1509
658.850	1574
658.905	1296
658.960	1681
659.016	1267
659.071	2245
659.126	2019
659.181	1292
659.236	2926
659.291	2797
659.346	2220
659.401	1458
659.457	1960
659.512	1755
659.567	2741
659.622	1281
659.677	2079
659.732	109
659.787	2178
659.842	1575
659.897	2557
659.952	1777
660.007	1923
660.061	2006
660.116	1098
660.171	1438
660.226	832
660.281	2339
660.336	1331
660.391	1881
660.445	870
660.500	1908
660.555	1359
660.610	1066
660.664	1676
660.719	1441
660.774	1102
660.828	973
660.883	1135
660.938	2040
660.992	106
661.047	1314
661.101	713
661.156	1359
661.211	1043
661.265	931
661.320	1212
661.374	1211
661.429	1185
661.483	2407
661.538	1016
661.592	1803
661.647	1448
661.701	375
661.755	865
661.810	626
661.864	679
661.919	492
661.973	1795
662.027	751
662.081	507
662.136	1162
662.190	1552
662.244	1883
662.299	1392
662.353	857
662.407	930
662.461	742
662.515	1086
662.569	1082
662.624	1917
662.678	1009
662.732	1330
662.786	918
662.840	828
662.894	1433
662.948	1815
663.002	2212
663.056	1399
663.110	971
663.164	586
663.218	1064
663.272	1186
663.326	1455
663.380	628
663.434	1288
663.488	1565
663.542	1519
663.595	1236
663.649	1458
663.703	1494
663.757	1282
663.811	574
663.864	1363
663.918	2229
663.972	859
664.026	220
664.079	237
664.133	1338
664.187	1598
664.240	1617
664.294	1208
664.348	1587
664.401	929
664.455	660
664.508	1681
664.562	975
664.615	1288
664.669	1183
664.722	881
664.776	861
664.829	969
664.883	758
664.936	682
664.990	1479
665.043	1521
665.097	1146
665.150	1599
665.203	718
665.257	780
665.310	1060
665.363	1248
665.417	1815
665.470	1682
665.523	1134
665.576	1140
665.630	889
665.683	1380
665.736	1259
665.789	1582
665.842	867
665.895	1028
665.949	1676
666.002	796
666.055	1842
666.108	1881
666.161	1477
666.214	1933
666.267	2083
666.320	1116
666.373	1456
666.426	1732
666.479	1064
666.532	1898
666.585	1836
666.638	1686
666.691	1133
666.744	1735
666.796	1280
666.849	1720
666.902	1934
666.955	2365
667.008	1518
667.060	1341
667.113	1267
667.166	803
667.219	2005
667.271	1849
667.324	2144
667.377	2187
667.430	959
667.482	921
667.535	1754
667.587	1621
667.640	1887
667.693	1226
667.745	1363
667.798	2634
667.850	1600
667.903	1779
667.955	2053
668.008	1553
668.060	2164
668.113	977
668.165	2071
668.218	2029
668.270	1111
668.322	1511
668.375	1809
668.427	2108
668.479	1376
668.532	1798
668.584	2513
668.636	1263
668.689	1584
668.741	1072
668.793	1689
668.845	1094
668.898	2055
668.950	1793
669.002	1823
669.054	1540
669.106	1858
669.158	1571
669.211	1006
669.263	1058
669.315	1623
669.367	1137
669.419	833
669.471	1570
669.523	1157
669.575	1783
669.627	1526
669.679	1139
669.731	2436
669.783	1863
669.835	1423
669.886	595
669.938	1697
669.990	1212
670.042	1926
670.094	1022
670.146	1380
670.197	1493
670.249	1802
670.301	1780
670.353	1251
670.404	3004
670.456	3333
670.508	3747
670.560	6790
670.611	11539
670.663	20705
670.715	52856
670.766	79345
670.818	18416
670.869	3576
670.921	2423
670.972	2675
671.024	1941
671.075	2163
671.127	1103
671.178	1482
671.230	2671
671.281	2409
671.333	2227
671.384	2155
671.436	4586
671.487	7595
671.538	9758
671.590	16602
671.641	27768
671.692	54021
671.744	100558
671.795	63187
671.846	21104
671.897	9925
671.949	5693
672.000	4539
672.051	2794
672.102	2662
672.153	1647
672.204	1439
672.256	1818
672.307	2464
672.358	1826
672.409	1453
672.460	1137
672.511	1107
672.562	79
672.613	1475
672.664	963
672.715	949
672.766	241
672.817	728
672.868	234
672.919	1484
672.970	1737
673.021	-108
673.071	746
673.122	758
673.173	589
673.224	992
673.275	978
673.326	540
673.376	970
673.427	536
673.478	139
673.528	1624
673.579	767
673.630	116
673.680	1218
673.731	-127
673.782	-374
673.832	811
673.883	1014
673.934	1170
673.984	787
674.035	700
674.085	249
674.136	-367
674.186	410
674.237	698
674.287	37
674.338	817
674.388	748
674.438	698
674.489	896
674.539	667
674.589	625
674.640	43
674.690	363
674.740	810
674.791	696
674.841	107
674.891	302
674.942	748
674.992	231
675.042	1149
675.092	-104
675.142	61
675.193	-505
675.243	-105
675.293	516
675.343	486
675.393	-322
675.443	768
675.493	120
675.543	98
675.593	1011
675.643	792
675.693	217
675.743	518
675.793	648
675.843	-294
675.893	-495
675.943	731
675.993	-744
676.043	439
676.093	352
676.142	16
676.192	50
676.242	29
676.292	-572
676.341	278
676.391	519
676.441	-420
676.491	-513
676.540	607
676.590	924
676.640	-673
676.689	607
676.739	9
676.789	317
676.838	-568
676.888	-78
676.937	-416
676.987	-369
677.037	-604
677.086	-272
677.136	-165
677.185	-351
677.235	-93
677.284	-323
677.333	-682
677.383	-908
677.432	41
677.482	152
677.531	53
677.580	-1171
677.630	-509
677.679	4
677.728	-297
677.778	266
677.827	-20
677.876	218
677.925	390
677.975	-393
678.024	-188
678.073	767
678.122	289
678.171	106
678.220	-217
678.269	813
678.319	648
678.368	250
678.417	728
678.466	39
678.515	73
678.564	-216
678.613	52
678.662	-358
678.711	-8
678.760	349
678.809	-279
678.857	-551
678.906	457
678.955	-167
679.004	227
679.053	-489
679.102	-173
679.151	-353
679.199	-333
679.248	-1184
679.297	-89
679.346	-994
679.394	-1209
679.443	-119
679.492	-158
679.540	-715
679.589	-90
679.638	-622
679.686	-388
679.735	23
679.784	703
679.832	289
679.881	-102
679.929	-137
679.978	-119
680.026	-70
680.075	187
680.123	-150
680.172	-745
680.220	-884
680.268	-271
680.317	-1025
680.365	-21
680.414	-331
680.462	-882
680.510	618
680.559	25
680.607	-226
680.655	360
680.703	-120
680.752	700
680.800	-805
680.848	-818
680.896	-83
680.945	684
680.993	-686
681.041	-15
681.089	-300
681.137	-395
681.185	-973
681.233	-750
681.258	-550
681.281	-382
681.329	67
681.377	-453
681.380	-413
681.425	-92
681.473	-11
681.502	48
681.521	43
681.569	292
681.617	673
681.624	613
681.665	42
681.713	307
681.745	456
681.761	505
681.809	289
681.857	1096
681.867	980
681.904	476
681.952	392
681.989	667
682.000	718
682.048	620
682.096	1047
682.111	938
682.143	658
682.191	56
682.233	564
682.239	613
682.286	160
682.334	358
682.354	516
682.382	686
682.430	1259
682.476	1485
682.477	1470
682.525	279
682.572	480
682.598	632
682.620	715
682.667	1096
682.715	1082
682.720	1086
682.763	969
682.810	409
682.841	1331
682.857	1763
682.905	1140
682.952	1497
682.963	1451
683.000	1220
683.047	1178
683.085	1583
683.095	1675
683.142	1801
683.190	1555
683.206	1486
683.237	1293
683.284	1381
683.328	1563
683.332	1559
683.379	1390
683.426	1513
683.449	1759
683.473	2031
683.521	2533
683.568	1881
683.571	1915
683.615	2017
683.662	1804
683.693	1828
683.709	1830
683.757	2038
683.804	2339
683.814	2310
683.851	2140
683.898	2418
683.936	2364
683.945	2331
683.992	2031
684.039	2674
684.057	2497
684.086	2160
684.133	2382
684.179	2351
684.180	2340
684.227	1726
684.274	2450
684.300	2574
684.321	2625
684.368	2034
684.415	2490
684.422	2530
684.462	2714
684.509	2578
684.543	2819
684.556	2885
684.603	2600
684.649	2943
684.665	2998
684.696	3095
684.743	2689
684.786	3250
684.790	3278
684.837	3058
684.883	3282
684.908	2987
684.930	2734
684.977	2873
685.023	3293
685.029	3307
685.070	3288
685.117	3531
685.150	3289
685.164	3217
685.210	3412
685.257	3446
685.272	3810
685.303	4393
685.350	3525
685.393	3628
685.396	3633
685.443	3446
685.490	3506
685.514	3270
685.536	3119
685.583	4083
685.629	3599
685.636	3624
685.675	3653
685.722	3745
685.757	3668
685.768	3614
685.815	3527
685.861	3907
685.878	3958
685.908	4156
685.954	4238
686.000	4402
686.000	4397
686.047	4392
686.093	3914
686.121	4683
686.139	5193
686.185	4311
686.232	4433
686.242	4459
686.278	4484
686.324	4446
686.363	4780
686.370	4841
686.416	4499
686.463	4504
686.484	4509
686.509	4424
686.555	4644
686.601	4572
686.606	4578
686.647	4814
686.693	4532
686.727	4259
686.739	4127
686.785	4376
686.831	4748
686.848	4768
686.877	4808
686.923	4721
686.969	4424
686.969	4422
687.015	5058
687.061	5522
687.090	5589
687.107	5592
687.153	5329
687.199	5792
687.211	5668
687.245	5181
687.291	5011
687.332	5209
687.336	5249
687.382	5210
687.428	5139
687.453	5039
687.474	4929
687.520	5754
687.565	5418
687.574	5370
687.611	5295
687.657	5356
687.695	5800
687.702	5890
687.748	6365
687.794	6878
687.816	6557
687.839	6117
687.885	6749
687.931	6141
687.937	6092
687.976	5837
688.022	6136
688.058	6356
688.067	6396
688.113	6033
688.158	5924
688.179	5754
688.204	5705
688.249	6267
688.295	6526
688.300	6518
688.340	6433
688.386	6548
688.421	6125
688.431	5982
688.477	6659
688.522	6587
688.542	6665
688.567	6987
688.613	6862
688.658	7137
688.663	7125
688.703	6754
688.749	6892
688.784	6725
688.794	6700
688.839	6946
688.884	7023
688.905	6889
688.930	6678
688.975	6864
689.020	6266
689.026	6230
689.065	6280
689.110	6769
689.146	6730
689.155	6738
689.201	6941
689.246	7269
689.267	7475
689.291	7527
689.336	6874
689.381	6318
689.388	6353
689.426	6766
689.471	6844
689.509	6857
689.516	6887
689.561	7127
689.606	7066
689.630	7056
689.651	6998
689.696	6655
689.741	7518
689.750	7427
689.785	7221
689.830	7120
689.871	7415
689.875	7440
689.920	7134
689.965	7106
689.992	6904
690.010	6884
690.054	7085
690.099	6933
690.112	7084
690.144	7318
690.189	7070
690.233	7097
690.233	7110
690.278	6953
690.323	7235
690.354	7219
690.367	7165
690.412	7372
690.457	7235
690.474	7251
690.501	7336
690.546	7032
690.590	7404
690.595	7322
690.635	6860
690.680	7209
690.716	7408
690.724	7464
690.769	7516
690.813	7711
690.836	7555
690.857	7549
690.902	7832
690.946	8293
690.957	8371
690.991	8976
691.035	9783
691.077	10317
691.080	10303
691.124	9739
691.168	8841
691.198	8623
691.213	8671
691.257	8985
691.301	8499
691.318	8369
691.346	8191
691.390	8357
691.434	8008
691.439	7976
691.478	8034
691.522	8183
691.559	8134
691.567	8190
691.611	8573
691.655	8701
691.680	8798
691.699	8746
691.743	8775
691.787	8841
691.800	8769
691.831	8530
691.875	8284
691.919	8223
691.921	8193
691.964	8075
692.008	8276
692.041	8177
692.052	8228
692.096	8605
692.139	8962
692.162	8956
692.183	8758
692.227	8589
692.271	8433
692.282	8351
692.315	8443
692.359	8734
692.402	8850
692.403	8869
692.447	8870
692.490	8628
692.523	8622
692.534	8639
692.578	8240
692.622	8353
692.643	8187
692.666	8171
692.709	8634
692.753	8395
692.763	8375
692.797	8359
692.840	8633
692.884	8706
692.884	8726
692.928	8708
692.971	8735
693.004	8653
693.015	8723
693.059	8895
693.102	9197
693.124	9364
693.146	9486
693.189	9671
693.233	9697
693.245	9655
693.276	9459
693.320	9201
693.363	9005
693.365	8995
693.407	9734
693.450	9783
693.485	9852
693.493	9843
693.537	9983
693.580	9854
693.605	9862
693.624	10077
693.667	10363
693.710	10709
693.725	10867
693.753	11678
693.797	12731
693.840	14076
693.845	14143
693.883	13326
693.926	12681
693.966	11933
693.970	11887
694.013	11361
694.056	10436
694.086	10024
694.099	10018
694.142	9623
694.185	9639
694.206	9532
694.229	9653
694.272	9794
694.315	9899
694.326	9907
694.358	10101
694.401	10448
694.444	10428
694.446	10410
694.487	10157
694.530	10175
694.566	9857
694.573	9857
694.616	9652
694.659	9722
694.686	9708
694.702	9832
694.745	9886
694.787	10192
694.806	10327
694.830	10421
694.873	10068
694.916	10147
694.926	10127
694.959	10358
695.002	10464
695.044	10608
695.046	10591
695.087	10968
695.130	11152
695.166	11446
695.172	11505
695.215	11632
695.258	11780
695.286	11694
695.301	11779
695.343	12041
695.386	12608
695.406	12689
695.428	12901
695.471	13555
695.514	13739
695.526	13857
695.556	14805
695.599	16096
695.641	17266
695.646	17361
695.684	16628
695.726	15697
695.766	14699
695.769	14709
695.811	14397
695.854	13972
695.886	13750
695.896	13885
695.938	14233
695.981	14716
696.005	14870
696.023	15302
696.065	16260
696.108	17089
696.125	17503
696.150	17630
696.192	17572
696.235	17658
696.245	17598
696.277	17895
696.319	18394
696.361	18705
696.365	18691
696.404	18455
696.446	18123
696.485	17782
696.488	17844
696.530	18009
696.572	18217
696.604	18291
696.614	18211
696.656	17710
696.698	17144
696.724	16800
696.740	17067
696.783	17619
696.825	18175
696.844	18362
696.867	18278
696.909	18087
696.951	17797
696.964	17721
696.992	18073
697.034	18420
697.076	18601
697.083	18617
697.118	18865
697.160	19016
697.202	19146
697.203	19098
697.244	18946
697.286	18769
697.323	18528
697.327	18610
697.369	18833
697.411	19061
697.442	19257
697.453	19322
697.494	19287
697.536	19311
697.562	19284
697.578	19406
697.620	19548
697.661	19652
697.682	19673
697.703	19994
697.744	20531
697.786	21192
697.801	21284
697.828	21185
697.869	21023
697.911	20865
697.921	20789
697.952	20835
697.994	20703
698.035	20668
698.040	20602
698.077	20614
698.118	20573
698.160	20583
698.160	20528
698.201	21337
698.243	22105
698.279	22786
698.284	22871
698.325	23027
698.367	23226
698.399	23289
698.408	23491
698.449	24177
698.491	24800
698.518	25166
698.532	25071
698.573	24593
698.614	24079
698.638	23715
698.656	23846
698.697	24025
698.738	24186
698.757	24206
698.779	24192
698.820	24020
698.862	23861
698.877	23736
698.903	23911
698.944	24090
698.985	24260
698.996	24245
699.026	24412
699.067	24553
699.116	24655
699.235	23540
699.354	24009
699.474	22373
699.593	22611
699.713	22180
699.832	23029
699.951	25076
700.070	22760
700.190	21702
700.309	21012
700.428	21301
700.547	20186
700.667	20668
700.786	20390
700.905	19783
701.024	19806
701.143	19666
701.262	20323
701.381	21180
701.500	20627
701.619	21298
701.738	21318
701.857	20464
701.976	19642
702.095	20232
702.214	20600
702.333	19661
702.452	20067
702.571	20419
702.690	20103
702.809	19915
702.928	19133
703.047	18575
703.165	18667
703.284	19060
703.403	17748
703.522	18337
703.640	17199
703.759	18264
703.878	16957
703.997	17838
704.115	17596
704.234	17493
704.353	18579
704.471	16865
704.590	16007
704.708	16822
704.827	16655
704.946	15865
705.064	15796
705.183	14957
705.301	16383
705.420	16060
705.538	15061
705.656	14152
705.775	13561
705.893	15603
706.012	15412
706.130	14438
706.249	16228
706.367	14558
706.485	14625
706.604	13647
706.722	14035
706.840	15486
706.958	17476
707.077	14161
707.195	13439
707.313	14085
707.431	12353
707.549	12700
707.668	12349
707.786	14266
707.904	12735
708.022	13244
708.140	13053
708.258	13457
708.376	14318
708.494	12872
708.612	13185
708.730	13747
708.848	13038
708.966	13662
709.084	13544
709.202	13287
709.320	12268
709.438	11863
709.556	12346
709.674	12004
709.791	11848
709.909	11965
710.027	11681
710.145	11467
710.263	11701
710.380	10715
710.498	10640
710.616	11385
710.733	10126
710.851	10932
710.969	11357
711.086	10717
711.204	11125
711.322	11485
711.439	10793
711.557	9847
711.674	10190
711.792	11163
711.909	9867
712.027	10857
712.144	10138
712.262	10634
712.379	10600
712.497	10471
712.614	9700
712.732	11053
712.849	9399
712.966	11094
713.084	11082
713.201	10372
713.318	9120
713.436	10900
713.553	9889
713.670	11317
713.787	10936
713.905	9692
714.022	11707
714.139	11706
714.256	14094
714.373	21228
714.490	36829
714.608	98505
714.725	373950
714.842	335187
714.959	39442
715.076	17577
715.193	13645
715.310	12809
715.427	10259
715.544	10224
715.661	10628
715.778	9441
715.895	9515
716.011	9474
716.128	8580
716.245	9429
716.362	8531
716.479	8485
716.596	8099
716.713	8938
716.829	7723
716.946	8083
717.063	7452
717.180	8017
717.296	7801
717.413	8686
717.530	8002
717.646	7909
717.763	7631
717.880	7489
717.996	6831
718.113	7743
718.229	7096
718.346	7026
718.462	6422
718.579	7802
718.695	6922
718.812	7974
718.928	7478
719.045	6359
719.161	7419
719.277	7047
719.394	7559
719.510	8344
719.626	8233
719.743	11112
719.859	16715
719.975	36216
720.092	138428
720.208	282214
720.324	35588
720.440	11221
720.557	8781
720.673	8182
720.789	7022
720.905	7349
721.021	7174
721.137	6344
721.253	6837
721.369	6330
721.486	7309
721.602	6361
721.718	6592
721.834	6303
721.950	5871
722.066	4675
722.181	5817
722.297	5909
722.413	6158
722.529	5591
722.645	6345
722.761	6581
722.877	5987
722.993	7605
723.108	8114
723.224	6578
723.340	5770
723.456	5466
723.571	4981
723.687	5076
723.803	5521
723.918	5848
724.034	4978
724.150	4960
724.265	5249
724.381	4584
724.497	5215
724.612	6207
724.728	5323
724.843	5728
724.959	5358
725.074	6012
725.190	5461
725.305	5097
725.421	5185
725.536	6274
725.651	5852
725.767	5725
725.882	5350
725.997	4898
726.113	5578
726.228	5414
726.343	4844
726.459	5533
726.574	4635
726.689	4929
726.804	5052
726.920	5014
727.035	5426
727.150	5582
727.265	4680
727.380	4715
727.495	5016
727.610	6073
727.725	4220
727.841	5047
727.956	5576
728.071	5725
728.186	4846
728.301	4678
728.416	5125
728.531	5126
728.645	4598
728.760	5348
728.875	5703
728.990	4837
729.105	4662
729.220	3859
729.335	4586
729.449	5117
729.564	4592
729.679	3920
729.794	5213
729.908	4821
730.023	5281
730.138	5029
730.253	6044
730.367	4567
730.482	4866
730.596	4977
730.711	6252
730.826	7844
730.940	7147
731.055	6572
731.169	5887
731.284	6697
731.398	7002
731.513	7129
731.627	7265
731.742	9856
731.856	12750
731.970	12569
732.085	15716
732.199	21470
732.313	38999
732.428	100573
732.542	277908
732.656	153638
732.771	31330
732.885	19934
732.999	16684
733.113	18449
733.227	17190
733.342	15160
733.456	14907
733.570	14078
733.684	14262
733.798	12612
733.912	13241
734.026	13136
734.140	12999
734.254	13050
734.368	11942
734.482	12282
734.596	12507
734.710	12404
734.824	12447
734.938	11607
735.052	11139
735.166	11729
735.280	11710
735.393	11666
735.507	11611
735.621	10855
735.735	10359
735.849	11868
735.962	10347
736.076	11542
736.190	10923
736.303	11383
736.417	10746
736.531	10244
736.644	11182
736.758	10827
736.872	10331
736.985	10757
737.099	10352
737.212	10244
737.326	10246
737.439	10940
737.553	9198
737.666	11172
737.780	8668
737.893	9397
738.007	9807
738.120	9803
738.233	9452
738.347	9707
738.460	7731
738.573	10309
738.687	8930
738.800	8858
738.913	9623
739.026	10147
739.140	8556
739.253	9559
739.366	8162
739.479	8477
739.592	8686
739.705	8449
739.818	9970
739.932	8290
740.045	8739
740.158	9092
740.271	9663
740.384	8503
740.497	7576
740.610	8785
740.723	8100
740.836	8402
740.949	8355
741.062	9059
741.174	7626
741.287	7307
741.400	7939
741.513	7579
741.626	8779
741.739	7984
741.851	7714
741.964	8313
742.077	8220
742.189	6497
742.302	7702
742.415	7118
742.527	7975
742.640	8410
742.753	6070
742.865	7836
742.978	6869
743.090	6886
743.203	7650
743.316	7714
743.428	7195
743.541	8133
743.653	5937
743.766	6566
743.878	6405
743.990	6281
744.103	7513
744.215	7077
744.327	5062
744.440	8008
744.552	6287
744.664	6625
744.777	7244
744.889	6608
745.001	5925
745.113	6762
745.226	6235
745.338	5921
745.450	6936
745.562	6204
745.674	5705
745.786	6555
745.898	6490
746.010	6373
746.122	6118
746.234	6945
746.347	7045
746.459	6568
746.570	4910
746.682	6688
746.794	7260
746.906	5837
747.018	5099
747.130	7243
747.242	5369
747.354	5401
747.466	6653
747.577	5270
747.689	6380
747.801	5670
747.913	4829
748.024	5611
748.136	5271
748.248	5133
748.359	4837
748.471	6360
748.583	5060
748.694	4849
748.806	5451
748.918	5126
749.029	4840
749.141	5873
749.252	5687
749.364	4177
749.475	4452
749.587	4627
749.698	4813
749.809	6250
749.921	4695
750.032	4977
750.144	5104
750.255	4469
750.366	4758
750.478	4563
750.589	4874
750.700	3516
750.811	5431
750.923	4803
751.034	3876
751.145	5192
751.256	4260
751.367	4242
751.479	4980
751.590	4794
751.701	4056
751.812	4385
751.923	4344
752.034	5742
752.145	4679
752.256	4820
752.367	3637
752.478	4082
752.589	4341
752.700	4542
752.811	3654
752.922	4043
753.032	4712
753.143	5498
753.254	4631
753.365	5177
753.476	4371
753.586	4929
753.697	4130
753.808	4042
753.919	4129
754.029	4288
754.140	4311
754.251	3729
754.361	3971
754.472	3772
754.582	3489
754.693	4790
754.804	4732
754.914	4509
755.025	3788
755.135	4013
755.246	3939
755.356	3844
755.466	3721
755.577	4438
755.687	4043
755.798	4145
755.908	3748
756.018	3712
756.129	3802
756.239	3703
756.349	4409
756.460	4176
756.570	4888
756.680	4568
756.790	3632
756.900	4087
757.011	3635
757.121	4021
757.231	3253
757.341	4438
757.451	3105
757.561	3065
757.671	3865
757.781	3424
757.891	3109
758.001	3215
758.111	3842
758.221	4788
758.331	3505
758.441	4975
758.551	2888
758.661	4067
758.771	3888
758.880	4650
758.990	4064
759.100	3401
759.210	3827
759.320	4653
759.429	3958
759.539	4813
759.649	3585
759.758	5167
759.868	5789
759.978	5676
760.087	5922
760.197	6347
760.307	5545
760.416	5554
760.526	4527
760.635	5739
760.745	5255
760.854	6215
760.964	6347
761.073	6786
761.182	6142
761.292	5922
761.401	5158
761.511	4651
761.620	4040
761.729	4811
761.839	3502
761.948	3572
762.057	3159
762.166	3775
762.276	2745
762.385	4847
762.494	2936
762.603	3044
762.712	3430
762.822	3744
762.931	2931
763.040	2740
763.149	3342
763.258	3192
763.367	2715
763.476	2953
763.585	3242
763.694	3721
763.803	3281
763.912	3587
764.021	2983
764.130	3991
764.238	3400
764.347	4346
764.456	3953
764.565	4055
764.674	3782
764.783	4304
764.891	3244
765.000	4563
765.109	3724
765.217	4120
765.326	4982
765.435	5362
765.543	5639
765.652	5965
765.761	7394
765.869	9815
765.978	13867
766.086	24240
766.195	44233
766.303	106565
766.412	224549
766.520	188032
766.629	74158
766.737	29751
766.846	17293
766.954	11823
767.062	9071
767.171	7335
767.279	5988
767.387	4493
767.496	4653
767.604	4906
767.712	3934
767.820	3636
767.928	4228
768.037	3327
768.145	3741
768.253	5064
768.361	2893
768.469	3626
768.577	3761
768.685	4814
768.793	3698
768.901	3423
769.009	4388
769.117	5472
769.225	4564
769.333	6991
769.441	10699
769.549	18554
769.657	38966
769.765	113998
769.873	187701
769.981	84464
770.088	25640
770.196	12393
770.304	9281
770.412	8331
770.519	6698
770.627	5952
770.735	4875
770.842	5535
770.950	4324
771.058	4919
771.165	6589
771.273	5902
771.380	6765
771.488	8288
771.595	9402
771.703	8833
771.810	7912
771.918	7512
772.025	9850
772.133	10067
772.240	9494
772.348	10608
772.455	10957
772.562	9096
772.670	9294
772.777	9769
772.884	8982
772.991	8901
773.099	8977
773.206	7963
773.313	8843
773.420	9732
773.528	9205
773.635	8654
773.742	8789
773.849	8665
773.956	9557
774.063	7942
774.170	8779
774.277	8328
774.384	8022
774.491	7447
774.598	8947
774.705	8110
774.812	8363
774.919	7992
775.026	7833
775.133	8484
775.239	7253
775.346	8235
775.453	8451
775.560	7349
775.667	8195
775.773	7365
775.880	8043
775.987	7959
776.093	7658
776.200	8426
776.307	6340
776.413	7585
776.520	8645
776.627	7021
776.733	6425
776.840	5044
776.946	9086
777.053	6852
777.159	6257
777.266	5675
777.372	6284
777.478	7305
777.585	7330
777.691	5660
777.798	7508
777.904	6886
778.010	6129
778.117	6446
778.223	6483
778.329	5602
778.435	5430
778.542	6949
778.648	5908
778.754	5925
778.860	5604
778.966	6037
779.072	5449
779.178	6331
779.284	4888
779.391	5863
779.497	5354
779.603	7887
779.708	4719
779.815	6432
779.920	9122
780.026	10798
780.132	6350
780.238	4716
780.344	4822
780.450	6932
780.556	4520
780.661	4711
780.767	6405
780.873	4142
780.979	4699
781.085	5583
781.190	4794
781.296	5505
781.402	4683
781.507	5527
781.613	3658
781.719	4590
781.824	6114
781.930	5663
782.035	5297
782.141	6192
782.246	4268
782.352	4565
782.457	5251
782.563	4522
782.668	5245
782.773	4070
782.879	3349
782.984	4071
783.090	5242
783.195	4578
783.300	5575
783.405	4466
783.511	2935
783.616	4048
783.721	4153
783.826	4197
783.932	4596
784.037	4987
784.142	3794
784.247	3121
784.352	4576
784.457	2882
784.562	4238
784.667	5150
784.772	3296
784.877	2668
784.982	5377
785.087	4719
785.192	3408
785.297	3988
785.402	3781
785.507	3953
785.611	3531
785.716	3486
785.821	3888
785.926	3807
786.031	3854
786.135	4272
786.240	4573
786.345	2804
786.450	4286
786.554	3829
786.659	2942
786.763	2772
786.868	3166
786.973	5114
787.077	2971
787.182	3524
787.286	3128
787.391	5049
787.495	2591
787.600	2605
787.704	2935
787.809	3357
787.913	2718
788.017	2655
788.122	3672
788.226	3612
788.330	1817
788.435	3954
788.539	3975
788.643	2962
788.747	1867
788.852	3652
788.956	2899
789.060	3976
789.164	3226
789.268	2164
789.372	4164
789.476	2578
789.580	2071
789.684	3154
789.788	3822
789.892	3087
789.996	2577
790.100	2236
790.204	3148
790.308	3208
790.412	1726
790.516	1702
790.620	2347
790.724	3210
790.828	2822
790.931	1423
791.035	3894
791.139	2349
791.242	1942
791.346	3099
791.450	2903
791.554	2385
791.657	1819
791.761	2332
791.864	3652
791.968	2762
792.072	2653
792.175	2508
792.279	1774
792.382	2458
792.486	2026
792.589	2377
792.693	3169
792.796	1420
792.899	3202
793.003	3156
793.106	1371
793.209	2460
793.313	2057
793.416	1047
793.519	2896
793.623	4073
793.726	2315
793.829	2377
793.932	1827
794.035	717
794.138	3136
794.242	4029
794.345	2456
794.448	2340
794.551	1207
794.654	5259
794.757	6075
794.860	2567
794.963	2184
795.066	1568
795.169	3292
795.272	729
795.375	2914
795.477	2570
795.580	1680
795.683	1200
795.786	2605
795.889	1280
795.991	2199
796.094	2617
796.197	1897
796.300	3370
796.402	2590
796.505	1430
796.608	970
796.710	2952
796.813	2511
796.915	1971
797.018	2548
797.120	2406
797.223	732
797.326	3323
797.428	1324
797.530	1357
797.633	2027
797.735	2792
797.838	1648
797.940	2582
798.042	1612
798.145	2222
798.247	2570
798.349	1476
798.452	2610
798.554	2489
798.656	1446
798.758	3983
798.860	2211
798.962	1066
799.065	1522
799.167	735
799.269	2117
799.371	2675
799.473	3320
799.575	1997
799.677	979
799.779	3231
799.881	121
799.983	2890
800.085	1842
800.187	2483
800.289	1055
800.390	1712
800.492	2487
800.594	2852
800.696	545
800.798	1713
800.899	1209
801.001	1477
801.103	2285
801.205	1704
801.306	2458
801.408	1920
801.509	1378
801.611	3057
801.713	1890
801.814	702
801.916	1141
802.017	1249
802.119	161
802.220	2405
802.322	-552
802.423	2034
802.525	108
802.626	818
802.727	1859
802.829	1959
802.930	-708
803.031	2082
803.133	924
803.234	2296
803.335	2549
803.436	453
803.538	1444
803.639	797
803.740	1753
803.841	1903
803.942	2047
804.043	1834
804.144	575
804.245	1515
804.346	986
804.447	1388
804.548	1224
804.649	2739
804.750	272
804.851	56
804.952	858
805.053	899
805.154	775
805.255	2125
805.355	816
805.456	1630
805.557	198
805.658	487
805.758	1615
805.859	1218
805.960	1349
806.061	387
806.161	663
806.262	1647
806.362	245
806.463	1194
806.564	2209
806.664	1603
806.765	624
806.865	1463
806.966	239
807.066	256
807.166	1722
807.267	1617
807.367	602
807.468	1407
807.568	-480
807.668	2437
807.769	2342
807.869	991
807.969	676
808.069	1270
808.170	235
808.270	444
808.370	1358
808.470	1762
808.570	87
808.670	1629
808.770	1049
808.870	884
808.970	2079
809.070	470
809.170	479
809.271	1750
809.370	1140
809.470	2156
809.570	629
809.670	859
809.770	1320
809.870	647
809.970	808
810.070	949
810.169	1600
810.269	400
810.369	2327
810.469	862
810.568	993
810.668	605
810.768	840
810.867	861
810.967	758
811.066	751
811.166	579
811.265	1759
811.365	1534
811.464	941
811.564	1057
811.663	1701
811.763	-748
811.862	1509
811.962	1173
812.061	888
812.160	520
812.260	1189
812.359	740
812.458	898
812.557	1319
812.657	1522
812.756	1166
812.855	1162
812.954	473
813.053	1392
813.153	610
813.252	745
813.351	999
813.450	1833
813.549	510
813.648	1374
813.747	555
813.846	1807
813.945	2024
814.044	1590
814.143	1247
814.242	1298
814.341	1752
814.439	1614
814.538	2519
814.637	1700
814.736	1547
814.835	2424
814.933	1349
815.032	2273
815.131	3218
815.229	5660
815.328	8339
815.427	6686
815.525	5802
815.624	5767
815.722	5232
815.821	6249
815.919	5073
816.018	5221
816.116	5907
816.215	5529
816.313	5841
816.412	6622
816.510	6579
816.609	8361
816.707	6616
816.805	6410
816.904	6452
817.002	7293
817.100	8112
817.198	8206
817.296	6613
817.395	6335
817.493	6845
817.591	6524
817.689	6403
817.787	6900
817.885	5887
817.983	5437
818.081	5799
818.179	6925
818.277	10113
818.375	8074
818.473	5671
818.571	5207
818.669	6243
818.767	6094
818.865	4501
818.963	5751
819.061	6684
819.158	6107
819.256	8089
819.354	7332
819.452	10003
819.549	7299
819.647	7460
819.745	6175
819.842	5581
819.940	6181
820.038	5110
820.135	5250
820.233	6306
820.330	4308
820.428	4647
820.525	6513
820.623	4649
820.720	4882
820.818	5516
820.915	4727
821.012	4867
821.110	3224
821.207	4891
821.304	4248
821.402	5147
821.499	5154
821.596	3805
821.693	4038
821.791	5793
821.888	4250
821.985	6253
822.082	3295
822.179	4628
822.276	4407
822.373	3968
822.470	4926
822.567	3938
822.664	4243
822.761	4770
822.858	5369
822.955	4190
823.052	4194
823.149	4818
823.246	5266
823.343	3159
823.440	4091
823.536	4496
823.633	3505
823.730	3462
823.827	4175
823.923	3810
824.020	4101
824.117	4286
824.213	3804
824.310	3341
824.407	2954
824.503	4542
824.600	4526
824.696	3278
824.793	4149
824.889	4441
824.986	3905
825.082	2664
825.179	2684
825.275	4540
825.371	5090
825.468	3206
825.564	2291
825.660	4815
825.757	5940
825.853	4658
825.949	2005
826.045	2836
826.142	3011
826.238	4416
826.334	4350
826.430	4113
826.526	2774
826.622	2433
826.718	4417
826.814	3865
826.910	4231
827.006	1770
827.102	1975
827.198	3936
827.294	3419
827.390	4702
827.486	3384
827.582	785
827.678	2521
827.774	4158
827.869	2432
827.965	3566
828.061	2956
828.157	3995
828.252	3847
828.348	2254
828.444	3188
828.539	2063
828.635	3858
828.731	3808
828.826	1996
828.922	3706
829.017	4158
829.113	4182
829.208	2606
829.304	3176
829.399	5051
829.495	2034
829.590	2860
829.685	1939
829.781	3931
829.876	3081
829.971	1193
830.066	460
830.162	2726
830.257	3912
830.352	2783
830.447	2161
830.543	1963
830.638	2481
830.733	4570
830.828	1867
830.923	3391
831.018	3313
831.113	3984
831.208	1071
831.303	1550
831.398	1925
831.493	3323
831.588	3597
831.683	2090
831.778	1577
831.873	2299
831.967	3356
832.062	2850
832.157	1932
832.252	3285
832.346	2054
832.441	4493
832.536	2824
832.631	2043
832.725	2127
832.820	2167
832.914	2049
833.009	1498
833.104	1374
833.198	1217
833.293	1987
833.387	3767
833.482	3166
833.576	2228
833.670	2624
833.765	2225
833.859	2693
833.954	2798
834.048	3331
834.142	1779
834.237	1170
834.331	1845
834.425	2467
834.519	1323
834.613	2124
834.708	2589
834.802	1771
834.896	1741
834.990	1801
835.084	1503
835.178	1062
835.272	1862
835.366	2378
835.460	3133
835.554	1444
835.648	1907
835.742	736
835.836	1661
835.930	1216
836.024	3332
836.117	2641
836.211	1108
836.305	1577
836.399	1510
836.493	467
836.586	2663
836.680	1982
836.774	1662
836.867	2063
836.961	761
837.055	863
837.148	1762
837.242	1820
837.335	1877
837.429	1702
837.522	1567
837.616	451
837.709	1239
837.803	1216
837.896	2885
837.989	1558
838.083	1246
838.176	641
838.269	622
838.363	994
838.456	955
838.549	1688
838.642	1542
838.735	1253
838.829	2413
838.922	1211
839.015	1067
839.108	1008
839.201	979
839.294	1504
839.387	2268
839.480	269
839.573	1271
839.666	361
839.759	1765
839.852	462
839.945	2538
840.038	880
840.131	682
840.223	669
840.316	1934
840.409	797
840.502	1232
840.594	2747
840.687	106
840.780	753
840.873	953
840.965	580
841.058	1800
841.150	2256
841.243	732
841.336	346
841.428	564
841.521	859
841.613	1137
841.706	1692
841.798	814
841.890	1486
841.983	-47
842.075	1490
842.167	1516
842.260	476
842.352	2558
842.444	1490
842.537	843
842.629	502
842.721	715
842.813	780
842.905	-236
842.997	1251
843.090	955
843.182	416
843.274	-166
843.366	1129
843.458	1772
843.550	1140
843.642	541
843.734	1265
843.826	645
843.918	-352
844.009	1277
844.101	321
844.193	1308
844.285	1296
844.377	1268
844.469	721
844.560	-393
844.652	709
844.744	501
844.835	988
844.927	1138
845.019	643
845.110	1215
845.202	657
845.293	1167
845.385	425
845.476	868
845.568	1437
845.659	542
845.751	1004
845.842	1003
845.934	328
846.025	538
846.116	561
846.208	730
846.299	152
846.390	735
846.482	1068
846.573	907
846.664	612
846.755	-30
846.846	1358
846.937	-49
847.029	1353
847.120	-113
847.211	528
847.302	1370
847.393	-599
847.484	1355
847.575	-3
847.666	301
847.757	-133
847.847	1578
847.938	2125
848.029	884
848.120	387
848.211	890
848.302	179
848.392	1008
848.483	999
848.574	-261
848.664	486
848.755	536
848.846	532
848.936	-257
849.027	502
849.118	877
849.208	484
849.299	1535
849.389	2479
849.480	5087
849.570	10582
849.661	18370
849.751	31107
849.841	11681
849.932	2481
850.022	2007
850.112	1350
850.203	1171
850.293	-114
850.383	341
850.474	-254
850.564	502
850.654	405
850.744	29
850.834	-276
850.924	1093
851.014	1839
851.104	915
851.194	-382
851.284	219
851.374	1539
851.464	765
851.554	680
851.644	179
851.734	1033
851.824	439
851.914	286
852.004	1612
852.094	-36
852.183	456
852.273	1180
852.363	537
852.452	310
852.542	680
852.632	347
852.721	1113
852.811	201
852.901	1236
852.990	629
853.080	1035
853.169	1584
853.259	976
853.348	1029
853.438	1905
853.527	2742
853.617	2844
853.706	5061
853.795	10777
853.885	21476
853.974	38971
854.063	69450
854.152	94610
854.242	40323
854.331	11305
854.420	4647
854.509	3650
854.598	2781
854.687	1689
854.777	1360
854.866	1225
854.955	1323
855.044	1218
855.133	1207
855.222	885
855.311	1011
855.400	807
855.488	31
855.577	531
855.666	685
855.755	1673
855.844	817
855.933	458
856.021	940
856.110	38
856.199	183
856.288	-755
856.376	444
856.465	-343
856.554	505
856.642	742
856.731	299
856.819	408
856.908	661
856.996	500
857.085	-269
857.173	-128
857.262	-240
857.350	296
857.438	301
857.527	458
857.615	323
857.703	1476
857.792	23
857.880	597
857.968	326
858.056	491
858.145	72
858.233	623
858.321	-467
858.409	1282
858.497	287
858.585	-284
858.673	339
858.761	493
858.849	98
858.937	-305
859.025	26
859.113	747
859.201	77
859.289	547
859.377	-364
859.465	206
859.552	686
859.640	-3
859.728	638
859.816	460
859.903	931
859.991	806
860.079	608
860.166	227
860.254	-155
860.342	1292
860.429	363
860.517	259
860.604	556
860.692	550
860.779	-285
860.867	278
860.954	-536
861.042	539
861.129	1133
861.216	1441
861.304	1332
861.391	283
861.478	290
861.565	589
861.653	915
861.740	-416
861.827	-323
861.914	142
862.001	649
862.089	-24
862.176	1138
862.263	598
862.350	-239
862.437	40
862.524	619
862.611	1363
862.698	1199
862.785	306
862.871	1169
862.958	622
863.045	464
863.132	613
863.219	450
863.306	-576
863.392	522
863.479	291
863.566	443
863.652	1006
863.739	831
863.826	1115
863.912	460
863.999	-301
864.086	-133
864.172	1435
864.259	1324
864.345	1084
864.432	1086
864.518	576
864.604	776
864.691	1235
864.777	827
864.863	2283
864.950	2703
865.036	3914
865.122	7607
865.209	8994
865.295	7334
865.381	7513
865.467	6128
865.553	7046
865.639	7535
865.726	10456
865.812	15755
865.898	25452
865.984	37067
866.070	60235
866.156	61312
866.242	22821
866.328	10550
866.414	7128
866.499	7253
866.585	6415
866.671	5974
866.757	6013
866.843	5407
866.928	5287
867.014	4671
867.100	5853
867.186	5303
867.271	5048
867.357	5169
867.442	5252
867.528	4839
867.614	4698
867.699	4564
867.785	5359
867.870	4420
867.956	4950
868.041	5695
868.127	5160
868.212	4646
868.297	4074
868.383	5135
868.468	5559
868.553	5627
868.639	4486
868.724	4925
868.809	4817
868.894	4401
868.979	4108
869.065	4383
869.150	3743
869.235	4343
869.320	4395
869.405	4280
869.490	4805
869.575	4587
869.660	4000
869.745	4533
869.830	5222
869.915	3969
870.000	3768
870.085	3889
870.169	5319
870.254	5080
870.339	2895
870.424	3516
870.509	4465
870.593	5187
870.678	4720
870.763	3316
870.847	3411
870.932	4269
871.016	5114
871.101	3318
871.186	4458
871.270	5668
871.355	3626
871.439	2899
871.523	4322
871.608	2549
871.692	3349
871.777	4976
871.861	4775
871.945	2444
872.030	3816
872.114	3685
872.198	3410
872.282	2728
872.367	2769
872.451	3139
872.535	3554
872.619	3882
872.703	2884
872.787	4042
872.871	3588
872.955	2470
873.039	2465
873.123	3785
873.207	3780
873.291	2144
873.375	2950
873.459	3778
873.543	3314
873.627	2453
873.711	2788
873.794	3244
873.878	2924
873.962	1951
874.045	3168
874.129	2585
874.137	2537
874.213	2061
874.245	2563
874.296	3380
874.352	2749
874.380	2446
874.460	2848
874.464	2863
874.547	2850
874.568	2757
874.631	2520
874.676	2727
874.714	2886
874.784	3697
874.798	3860
874.881	3817
874.892	3479
874.965	1138
874.999	2282
875.048	3873
875.107	3146
875.131	2832
875.215	2268
875.215	2267
875.298	1727
875.323	2146
875.381	3155
875.430	3444
875.465	3614
875.538	3182
875.548	3120
875.631	2497
875.646	2403
875.714	1976
875.753	2059
875.798	2191
875.861	2884
875.881	3084
875.964	1676
875.968	1691
876.047	1951
876.076	2165
876.130	2665
876.183	3008
876.213	3140
876.291	2694
876.296	2662
876.379	3046
876.398	2741
876.462	1765
876.506	1867
876.545	2000
876.613	2259
876.628	2318
876.711	1997
876.721	2038
876.794	2333
876.828	2488
876.877	2574
876.935	1713
876.960	1447
877.043	2084
877.043	2087
877.125	2530
877.150	2517
877.208	2519
877.258	1822
877.291	1377
877.365	1935
877.374	2004
877.456	1455
877.472	1473
877.539	1495
877.579	1977
877.622	2459
877.687	2356
877.704	2326
877.787	1837
877.794	1891
877.869	2688
877.901	2656
877.952	2349
878.008	1558
878.034	1317
878.115	1482
878.117	1481
878.199	1353
878.222	1597
878.282	2270
878.329	2769
878.364	3136
878.437	2366
878.447	2253
878.529	1236
878.544	1294
878.611	1478
878.651	1632
878.694	1967
878.758	2176
878.776	2190
878.858	2419
878.865	2372
878.941	1600
878.972	1302
879.023	906
879.078	753
879.105	882
879.185	2000
879.187	2011
879.269	1819
879.292	1917
879.351	2097
879.399	1661
879.433	1476
879.506	2001
879.516	2043
879.598	2052
879.613	1845
879.680	1361
879.720	1931
879.762	2217
879.827	1155
879.844	885
879.926	1345
879.933	1406
880.007	2395
880.040	2069
880.089	1375
880.147	1283
880.171	1325
880.253	2406
880.254	2406
880.335	1853
880.360	1888
880.417	2512
880.467	2708
880.499	2674
880.574	2250
880.580	2214
880.662	2698
880.680	2554
880.744	1821
880.787	1486
880.825	1215
880.893	1183
880.907	1207
880.989	1347
881.000	1368
881.070	2002
881.106	2122
881.152	1685
881.213	1576
881.233	1666
881.315	1468
881.319	1476
881.396	1802
881.426	1867
881.478	1987
881.532	2194
881.559	2082
881.639	1130
881.641	1117
881.722	1266
881.745	1279
881.803	1719
881.852	1879
881.885	1665
881.958	1514
881.966	1508
882.047	1188
882.064	1216
882.129	1619
882.171	1315
882.210	813
882.277	927
882.291	1039
882.372	1194
882.383	1276
882.454	1956
882.489	1961
882.535	1872
882.596	2449
882.616	2435
882.697	1259
882.702	1210
882.778	1174
882.808	1199
882.859	1220
882.914	1333
882.940	1426
883.020	1568
883.021	1568
883.102	1495
883.127	1528
883.183	2106
883.233	2079
883.264	1643
883.339	1166
883.345	1139
883.426	619
883.445	546
883.507	1348
883.551	1850
883.587	1727
883.657	1779
883.668	1815
883.749	1920
883.763	1797
883.830	1390
883.869	1568
883.910	1526
883.975	1154
883.991	1181
884.072	1511
884.081	1539
884.152	1614
884.187	1801
884.233	2224
884.292	2197
884.314	1873
884.394	985
884.398	940
884.475	911
884.504	1021
884.555	1223
884.610	995
884.636	820
884.716	1088
884.716	1093
884.797	1631
884.821	1879
884.877	2044
884.927	2025
884.958	1783
885.033	1502
885.038	1503
885.118	1029
885.139	1003
885.199	819
885.244	760
885.279	1115
885.350	1994
885.359	2094
885.439	2510
885.456	2552
885.520	2051
885.561	1857
885.600	1697
885.667	1477
885.680	1569
885.760	2119
885.773	2196
885.840	1291
885.878	746
885.920	1059
885.984	1650
886.000	1739
886.080	2075
886.089	2114
886.160	1535
886.195	1148
886.240	1564
886.300	2272
886.320	2173
886.400	1861
886.406	1816
886.480	1460
886.511	1401
886.560	1221
886.616	957
886.640	949
886.720	939
886.722	940
886.800	1687
886.827	1956
886.879	1795
886.932	1592
886.959	1784
887.038	2216
887.039	2211
887.119	1490
887.143	1357
887.198	1377
887.248	1307
887.278	1275
887.354	1210
887.358	1228
887.437	1616
887.459	1685
887.517	1560
887.564	1498
887.596	1395
887.669	1142
887.676	1128
887.755	906
887.774	869
887.835	976
887.880	1095
887.914	1377
887.985	1778
887.994	1751
888.073	1717
888.090	1656
888.153	1728
888.195	1827
888.232	1627
888.300	1203
888.311	1240
888.391	1652
888.405	1691
888.470	1270
888.510	1052
888.549	1012
888.615	979
888.628	1122
888.708	1958
888.720	2076
888.787	1931
888.825	1832
888.866	1355
888.930	702
888.945	637
889.024	306
889.035	250
889.103	1481
889.140	2167
889.182	2059
889.245	1879
889.261	1831
889.340	1615
889.349	1586
889.419	814
889.454	427
889.498	744
889.559	1207
889.577	1286
889.656	1643
889.664	1681
889.735	1730
889.768	1754
889.814	1794
889.873	1842
889.978	1033
890.083	2168
890.187	2291
890.292	1233
890.397	1523
890.501	1555
890.606	1465
890.710	1931
890.815	2445
890.919	2065
891.024	2011
891.128	1502
891.233	1635
891.337	1828
891.442	1702
891.546	1888
891.650	1291
891.755	886
891.859	1367
891.963	1990
892.068	1746
892.172	1522
892.276	1510
892.380	1088
892.484	2031
892.589	1335
892.693	2317
892.797	1013
892.901	1154
893.005	553
893.109	1968
893.213	1797
893.317	1888
893.421	654
893.525	1550
893.629	1340
893.733	1576
893.837	1604
893.941	1229
894.045	1051
894.148	561
894.252	1106
894.356	1292
894.460	2292
894.564	704
894.667	1359
894.771	969
894.875	228
894.978	1457
895.082	1103
895.186	1755
895.289	1837
895.393	1401
895.496	2024
895.600	1223
895.703	-43
895.807	1655
895.910	931
896.014	1618
896.117	835
896.221	2127
896.324	510
896.427	963
896.531	350
896.634	1189
896.737	1244
896.840	1576
896.944	1268
897.047	2303
897.150	1321
897.253	1538
897.356	1507
897.460	-119
897.563	641
897.666	694
897.769	1230
897.872	784
897.975	685
898.078	1849
898.181	401
898.284	1201
898.387	1145
898.490	1504
898.593	1269
898.695	520
898.798	932
898.901	1349
899.004	1570
899.107	1222
899.209	524
899.312	1749
899.415	1046
899.518	618
899.620	659
899.723	892
899.826	202
899.928	1103
900.031	902
900.133	1843
900.236	1708
900.338	967
900.441	1164
900.543	764
900.646	1433
900.748	467
900.851	1015
900.953	1893
901.055	523
901.158	506
901.260	1159
901.362	762
901.465	964
901.567	695
901.669	1653
901.771	690
901.873	1291
901.976	1090
902.078	1235
902.180	414
902.282	443
902.384	363
902.486	2012
902.588	1495
902.690	630
902.792	702
902.894	1165
902.996	1517
903.098	718
903.200	-2
903.302	1167
903.404	723
903.505	819
903.607	815
903.709	1493
903.811	1644
903.913	1282
904.014	738
904.116	877
904.218	397
904.319	1160
904.421	2045
904.523	380
904.624	710
904.726	723
904.827	214
904.929	-228
905.030	1458
905.132	1409
905.233	1493
905.335	697
905.436	825
905.537	811
905.639	269
905.740	222
905.841	1384
905.943	1311
906.044	1305
906.145	1024
906.247	811
906.348	128
906.449	1131
906.550	149
906.651	1224
906.752	474
906.854	454
906.955	603
907.056	644
907.157	1509
907.258	1345
907.359	104
907.460	535
907.561	-780
907.662	316
907.762	83
907.863	1024
907.964	946
908.065	899
908.166	183
908.267	1537
908.367	105
908.468	666
908.569	1198
908.670	1327
908.770	345
908.871	852
908.971	884
909.072	879
909.173	642
909.273	6
909.374	682
909.474	-18
909.575	823
909.675	630
909.776	1614
909.876	1504
909.977	857
910.077	940
910.177	911
910.278	736
910.378	68
910.478	297
910.579	1413
910.679	1069
910.779	740
910.879	678
910.980	598
911.080	1142
911.180	600
911.280	580
911.380	581
911.480	246
911.580	494
911.680	1254
911.780	926
911.880	1144
911.980	351
912.080	967
912.180	1192
912.280	560
912.380	-180
912.480	101
912.580	553
912.679	258
912.779	228
912.879	859
912.979	482
913.078	889
913.178	190
913.278	1394
913.377	295
913.477	912
913.577	784
913.676	1530
913.776	273
913.875	923
913.975	19
914.074	796
914.174	448
914.273	267
914.373	1229
914.472	225
914.572	88
914.671	551
914.770	148
914.870	564
914.969	868
915.068	986
915.167	611
915.267	5
915.366	474
915.465	386
915.564	-479
915.663	1092
915.763	557
915.862	661
915.961	950
916.060	273
916.159	40
916.258	985
916.357	458
916.456	916
916.555	612
916.654	803
916.752	1184
916.851	230
916.950	-396
917.049	370
917.148	308
917.247	664
917.345	682
917.444	93
917.543	155
917.642	417
917.740	-191
917.839	168
917.937	286
918.036	1346
918.135	795
918.233	504
918.332	330
918.430	615
918.529	446
918.627	776
918.726	654
918.824	-47
918.923	69
919.021	28
919.119	946
919.218	276
919.316	-123
919.414	788
919.512	945
919.611	547
919.709	746
919.807	837
919.905	1575
920.003	1747
920.102	1684
920.200	1499
920.298	1180
920.396	900
920.494	855
920.592	-28
920.690	437
920.788	914
920.886	904
920.984	1097
921.082	238
921.180	1936
921.277	1804
921.375	1899
921.473	2490
921.571	2040
921.669	1586
921.766	1714
921.864	2683
921.962	2634
922.060	1517
922.157	1591
922.255	1972
922.352	2246
922.450	3124
922.548	2596
922.645	2539
922.743	3382
922.840	5198
922.938	7013
923.035	5595
923.133	5516
923.230	6423
923.327	8000
923.425	6926
923.522	7955
923.619	6509
923.717	5864
923.814	5796
923.911	6086
924.008	6620
924.106	5588
924.203	5238
924.300	6198
924.397	5535
924.494	7045
924.591	5096
924.688	5590
924.786	5236
924.883	5350
924.979	6203
925.077	5810
925.173	4608
925.270	4842
925.367	5715
925.464	5677
925.561	5699
925.658	6238
925.755	4758
925.852	6610
925.948	5648
926.045	5015
926.142	5913
926.239	6034
926.335	3479
926.432	5366
926.529	4930
926.625	6141
926.722	5429
926.818	4663
926.915	4880
927.011	5010
927.108	4686
927.204	4934
927.301	3661
927.397	6003
927.494	5542
927.590	3361
927.687	3808
927.783	5267
927.879	5886
927.976	4495
928.072	4347
928.168	4789
928.264	5260
928.361	3810
928.457	6363
928.553	4741
928.649	4459
928.745	5528
928.841	3112
928.937	5125
929.033	4748
929.129	4357
929.225	4558
929.321	4768
929.417	3488
929.513	4311
929.609	3471
929.705	4022
929.801	4800
929.897	3055
929.993	4540
930.089	4541
930.184	3401
930.280	3721
930.376	4528
930.471	3735
930.567	3553
930.663	4301
930.758	3198
930.854	3819
930.950	4186
931.045	3328
931.141	3635
931.236	4737
931.332	3632
931.427	2976
931.523	4146
931.618	4967
931.714	2734
931.809	3722
931.905	4476
932.000	2486
932.095	2505
932.191	4307
932.286	5033
932.381	3743
932.476	2562
932.572	3618
932.667	2421
932.762	2981
932.857	4310
932.952	4472
933.047	3672
933.142	3056
933.237	3175
933.332	4301
933.427	5035
933.522	3531
933.617	3698
933.712	3221
933.807	3795
933.902	4442
933.997	5132
934.092	3302
934.187	3134
934.282	3927
934.376	3852
934.471	3466
934.566	2960
934.661	2467
934.755	3433
934.850	4301
934.945	3315
935.039	2137
935.134	2568
935.228	2220
935.323	4984
935.417	2959
935.512	1650
935.606	1392
935.701	3336
935.795	3658
935.890	2577
935.984	2474
936.079	1956
936.173	2909
936.267	2673
936.362	1635
936.456	2903
936.550	4356
936.644	2548
936.738	2055
936.833	1728
936.927	1281
937.021	2475
937.115	3456
937.209	3318
937.303	3285
937.397	2004
937.491	2241
937.585	3263
937.679	3002
937.773	1772
937.867	2080
937.961	2382
938.055	3614
938.149	3343
938.243	1188
938.337	1506
938.430	1847
938.524	3097
938.618	2349
938.712	1326
938.805	2474
938.899	2519
938.993	4317
939.086	1757
939.180	1256
939.274	1230
939.367	2894
939.461	2845
939.554	2553
939.648	1485
939.741	2062
939.835	1782
939.928	3717
940.022	3159
940.115	2208
940.208	2532
940.302	3392
940.395	2723
940.488	1602
940.582	2250
940.675	1773
940.768	1518
940.861	3165
940.954	3151
941.048	629
941.141	1428
941.234	1341
941.327	2454
941.420	2261
941.513	3208
941.606	1817
941.699	2054
941.792	2989
941.885	1884
941.978	2148
942.071	2034
942.164	1168
942.257	1850
942.349	1925
942.442	1656
942.535	994
942.628	1143
942.721	1930
942.813	1077
942.906	2485
942.999	1429
943.091	881
943.184	990
943.277	1166
943.369	1880
943.462	735
943.554	996
943.647	1487
943.739	2370
943.832	2443
943.924	62
944.017	692
944.109	480
944.201	574
944.294	2421
944.386	1613
944.478	1627
944.571	2336
944.663	553
944.755	1722
944.847	2034
944.940	2044
945.032	302
945.124	1206
945.216	2454
945.308	1311
945.400	1762
945.492	1699
945.584	1443
945.676	2911
945.768	1872
945.860	1721
945.952	1904
946.044	992
946.136	1604
946.228	1626
946.320	1200
946.412	1211
946.503	1950
946.595	3007
946.687	1009
946.779	725
946.870	1015
946.962	591
947.054	1429
947.145	1800
947.237	1111
947.329	995
947.420	1285
947.512	783
947.603	191
947.695	263
947.786	428
947.878	352
947.969	982
948.061	1468
948.152	1462
948.243	246
948.335	393
948.426	183
948.517	1627
948.609	1567
948.700	793
948.791	961
948.882	493
948.973	916
949.065	837
949.156	1461
949.247	-233
949.338	1138
949.429	182
949.520	1360
949.611	-917
949.702	2096
949.793	1156
949.884	1485
949.975	222
950.066	262
950.157	125
950.247	1068
950.338	512
950.429	831
950.520	1266
950.611	1002
950.701	1065
950.792	2040
950.883	1335
950.973	739
951.064	915
951.155	1322
951.245	1772
951.336	1093
951.427	1112
951.517	2099
951.608	1024
951.698	424
951.788	677
951.879	166
951.969	517
952.060	1052
952.150	1253
952.240	2044
952.331	-597
952.421	1992
952.511	-261
952.602	316
952.692	123
952.782	280
952.872	396
952.962	652
953.052	-104
953.143	-107
953.233	720
953.323	400
953.413	-83
953.503	697
953.593	554
953.683	720
953.773	-429
953.863	22
953.953	-362
954.042	1427
954.132	-76
954.222	1467
954.312	436
954.402	737
954.492	74
954.581	529
954.671	94
954.761	-123
954.850	1035
954.940	159
955.030	391
955.119	283
955.209	159
955.298	386
955.388	1263
955.477	2325
955.567	125
955.656	79
955.746	777
955.835	1188
955.925	169
956.014	764
956.103	969
956.193	1081
956.282	1062
956.371	865
956.461	-30
956.550	915
956.639	702
956.728	-79
956.817	893
956.906	-471
956.995	1277
957.085	-454
957.174	1085
957.263	-363
957.352	9
957.441	-74
957.530	680
957.619	672
957.708	587
957.796	93
957.885	711
957.974	295
958.063	270
958.152	-14
958.241	389
958.329	188
958.418	-394
958.507	117
958.596	1232
958.684	-23
958.773	-295
958.861	389
958.950	91
959.039	85
959.127	175
959.216	-24
959.304	10
959.393	135
959.481	232
959.570	405
959.658	-104
959.746	731
959.835	180
959.923	-314
960.011	-422
960.100	-57
960.188	1113
960.276	122
960.365	53
960.453	-72
960.541	-593
960.629	231
960.717	-713
960.805	-313
960.893	1071
960.981	-240
961.069	973
961.158	-103
961.245	1730
961.333	206
961.421	-285
961.509	-231
961.597	214
961.685	-317
961.773	478
961.861	-74
961.949	270
962.036	-193
962.124	740
962.212	-424
962.299	-1223
962.387	-141
962.475	892
962.562	-884
962.650	636
962.738	888
962.825	-1133
962.913	-103
963.000	-377
963.088	356
963.175	-479
963.263	-543
963.350	-713
963.438	103
963.525	-337
963.612	-96
963.700	-938
963.787	-236
963.874	-354
963.962	667
964.049	657
964.136	374
964.223	-1179
964.310	-117
964.398	-325
964.485	-127
964.572	-140
964.659	-444
964.746	64
964.833	-121
964.920	-506
965.007	85
965.094	425
965.181	-228
965.268	196
965.355	-78
965.441	-393
965.528	-1253
965.615	668
965.702	-73
965.789	-453
965.875	109
965.962	504
966.049	-426
966.136	571
966.222	328
966.309	934
966.395	-430
966.482	-182
966.569	15
966.655	448
966.742	-485
966.828	-139
966.915	-139
967.001	-57
967.087	-282
967.174	-108
967.260	385
967.347	-158
967.433	-235
967.519	419
967.605	-882
967.692	425
967.778	883
967.864	-76
967.950	-523
968.036	195
968.123	-176
968.209	-581
968.295	-381
968.381	465
968.467	-425
968.553	-1183
968.639	1157
968.725	-859
968.811	-3
968.897	-307
968.983	-91
969.069	-268
969.154	178
969.240	291
969.326	-797
969.412	-1575
969.497	-1098
969.583	-179
969.669	870
969.755	-333
969.840	-352
969.926	545
970.012	1220
970.097	1803
970.183	340
970.268	296
970.354	266
970.439	-629
970.525	588
970.610	-1691
970.696	780
970.781	-111
970.866	-1306
970.952	106
971.037	-119
971.122	-67
971.208	55
971.293	-584
971.378	-1149
971.463	-261
971.549	-149
971.634	172
971.719	-797
971.804	-530
971.889	815
971.974	-614
972.059	-471
972.144	-673
972.229	-411
972.314	-58
972.399	744
972.484	-1046
972.569	-531
972.654	-1760
972.739	-17
972.824	-751
972.908	-570
972.993	6
973.078	-801
973.163	-1310
973.247	456
973.332	-1425
973.417	599
973.501	-958
973.586	-8
973.671	-60
973.755	-913
973.840	74
973.924	-253
974.009	263
974.093	-175
974.178	1794
974.262	779
974.346	-182
974.431	-77
974.515	-669
974.600	-231
974.684	131
974.768	-1076
974.852	798
974.937	-750
975.021	501
975.105	-222
975.189	-623
975.273	591
975.358	-551
975.442	-747
975.526	-450
975.610	-971
975.694	-1459
975.778	671
975.862	-413
975.946	-2065
976.030	874
976.114	-582
976.198	-244
976.281	-1219
976.365	125
976.449	-861
976.533	141
976.617	-563
976.700	-1248
976.784	-663
976.868	-518
976.951	102
977.035	-1230
977.119	-482
977.202	-636
977.286	-122
977.369	566
977.453	1630
977.536	121
977.620	135
977.703	597
977.787	-1210
977.870	196
977.953	429
978.037	-2004
978.120	-283
978.203	-180
978.287	-173
978.370	89
978.453	-484
978.536	158
978.620	776
978.703	102
978.786	-894
978.869	-1016
978.952	-1324
979.035	1049
979.118	450
979.201	-737
979.284	-42
979.367	-830
979.450	-27
979.533	-884
979.616	-175
979.699	-1086
979.782	-368
979.865	-741
979.948	199
980.030	-804
980.113	827
980.196	-983
980.279	688
980.361	174
980.444	-355
980.526	425
980.609	824
980.692	1185
980.774	1208
980.857	-814
980.939	444
981.022	-338
981.104	-485
981.187	-361
981.269	174
981.352	261
981.434	-605
981.516	-50
981.599	860
981.681	-329
981.763	53
981.846	-473
981.928	-122
982.010	-539
982.092	-1046
982.174	-260
982.256	-602
982.339	-700
982.421	-848
982.503	-195
982.585	-1245
982.667	-191
982.749	7
982.831	645
982.913	-901
982.995	230
983.077	-836
983.158	787
983.240	-910
983.322	121
983.404	1545
983.486	-317
983.568	813
983.649	400
983.731	349
983.813	-453
983.894	197
983.976	-1051
984.058	-195
984.139	1367
984.221	-348
984.302	304
984.384	-585
984.465	-122
984.547	10
984.628	-753
984.710	838
984.791	-132
984.872	-503
984.954	-619
985.035	172
985.116	80
985.198	88
985.279	480
985.360	-152
985.441	-596
985.522	1100
985.604	87
985.685	-2059
985.766	1323
985.847	1490
985.928	-511
986.009	303
986.090	-350
986.171	1440
986.252	-373
986.333	-42
986.414	-629
986.495	960
986.576	223
986.656	358
986.737	294
986.818	-48
986.899	254
986.980	69
987.060	585
987.141	-122
987.222	907
987.302	770
987.383	714
987.464	801
987.544	1578
987.625	-223
987.705	119
987.786	1060
987.866	707
987.947	395
988.027	533
988.108	186
988.188	594
988.268	-37
988.349	356
988.429	639
988.509	655
988.589	-49
988.670	-1443
988.750	1811
988.830	140
988.910	422
988.990	-573
989.070	-285
989.151	511
989.231	176
989.311	-165
989.391	717
989.471	-313
989.551	468
989.631	-169
989.711	1122
989.791	-428
989.870	111
989.950	1170
990.030	248
990.110	-203
990.190	-431
990.269	-865
990.349	-459
990.429	813
990.509	362
990.588	-806
990.668	377
990.747	-471
990.827	-413
990.907	122
990.986	-195
991.066	-11
991.145	-1206
991.225	382
991.304	-397
991.383	-287
991.463	-187
991.542	1195
991.622	-418
991.701	-739
991.780	-1168
991.859	-1597
991.939	-365
992.018	-386
992.097	674
992.176	-425
992.256	-199
992.335	-740
992.414	810
992.493	-700
992.572	-1041
992.651	-576
992.730	-322
992.809	-503
992.888	-1080
992.967	-596
993.046	318
993.125	-1466
993.203	171
993.282	-517
993.361	115
993.440	-173
993.519	-523
993.597	-1438
993.676	-762
993.755	109
993.834	-751
993.912	-1305
993.991	-19
994.069	-1825
994.148	-399
994.226	-754
994.305	-1105
994.384	-1333
994.462	-142
994.540	-1549
994.619	-1124
994.697	-827
994.776	-1109
994.854	-335
994.932	-1347
995.011	-110
995.089	-1769
995.167	-955
995.245	-984
995.324	-1944
995.402	165
995.480	-1913
995.558	-697
995.636	-1062
995.714	-1264
995.792	571
995.870	-1470
995.948	-610
996.026	-832
996.104	-1351
996.182	-340
996.260	-1043
996.338	-309
996.416	-1316
996.494	-1684
996.572	534
996.649	-282
996.727	-2166
996.805	-1296
996.883	-1449
996.960	-1448
997.038	-150
997.116	-282
997.193	-1358
997.271	-819
997.348	-2134
997.426	-565
997.504	-1745
997.581	-742
997.658	-391
997.736	-2271
997.813	-1952
997.891	-388
997.968	-1238
998.046	-1532
998.123	-1417
998.200	-995
998.277	-1722
998.355	-14
998.432	-2375
998.509	-1446
998.586	-474
998.663	-998
998.741	-1691
998.818	-1431
998.895	-1173
998.972	-1149
999.049	-649
999.126	-1489
999.203	-1305
999.280	-1852
999.357	-1267
999.434	-360
999.511	-879
999.587	-1507
999.664	-2776
999.741	-1268
999.818	-852
999.895	-1689
999.971	-1285
1000.048	-1051
1000.125	-339
1000.202	-1718
1000.278	-1225
1000.355	-153
1000.431	-804
1000.508	-2439
1000.584	-1690
1000.661	-1428
1000.738	-1559
1000.814	-1446
1000.890	-963
1000.967	-1307
1001.043	-1685
1001.120	-2241
1001.196	-1520
1001.272	-2352
1001.349	-1131
1001.425	-1285
1001.501	-2174
1001.577	-1889
1001.654	-1172
1001.730	-727
1001.806	-1287
1001.882	-2317
1001.958	-1035
1002.034	-944
1002.110	-1411
1002.186	-788
1002.262	-1462
1002.338	-2516
1002.414	-1493
1002.490	-962
1002.566	-2218
1002.642	-1930
1002.718	-766
1002.794	-570
1002.870	-1252
1002.945	-1523
1003.021	-1915
1003.097	-2031
1003.173	-1227
1003.248	-1468
1003.324	-1516
1003.400	-1447
1003.475	-1405
1003.551	-1677
1003.626	-861
1003.702	-2149
1003.777	-1083
1003.853	-1691
1003.928	-1195
1004.004	-1455
1004.079	-1176
1004.155	-484
1004.230	-2519
1004.305	-929
1004.381	-1793
1004.456	-2268
1004.531	-2559
1004.607	-1347
1004.682	-2034
1004.757	-1793
1004.832	-1637
1004.907	-1583
1004.982	-1414
1005.057	-1204
1005.133	-1860
1005.208	-1591
1005.283	-2007
1005.358	-1226
1005.433	-2319
1005.508	-1466
1005.583	-2109
1005.657	-2518
1005.732	-1936
1005.807	-2127
1005.882	-1843
1005.957	-1065
1006.032	-1130
1006.106	-1497
1006.181	-1991
1006.256	-1596
1006.331	-2165
1006.405	-1540
1006.480	-1175
1006.554	-2625
1006.629	-2038
1006.704	-2351
1006.778	-1136
1006.853	-1447
1006.927	-1746
1007.002	-1750
1007.076	-1997
1007.150	-1689
1007.225	-1598
1007.299	-1959
1007.373	-3125
1007.448	-1944
1007.522	-514
1007.596	-1703
1007.671	-1676
1007.745	-1326
1007.819	-2025
1007.893	-2508
1007.967	-1091
1008.041	-2727
1008.115	-1504
1008.190	-1554
1008.264	-1801
1008.338	-2540
1008.412	-1454
1008.486	-2145
1008.560	-1620
1008.633	-1806
1008.707	-1827
1008.781	-1179
1008.855	-2361
1008.929	-1050
1009.003	-1705
1009.076	-1962
1009.150	-1888
1009.224	-1478
1009.298	-1225
1009.371	-1678
1009.445	-1839
1009.519	-1596
1009.592	-2498
1009.666	-2092
1009.739	-1365
1009.813	-1481
1009.886	-963
1009.960	-1962
1010.033	-1741
1010.107	-1546
1010.180	-3121
1010.253	-1714
1010.327	-2609
1010.400	-1649
1010.473	-1380
1010.547	-1505
1010.620	-1973
1010.693	-1833
1010.766	-2095
1010.840	-1211
1010.913	-2046
1010.986	-2010
1011.059	-1944
1011.132	-2517
1011.205	-1155
1011.278	-1553
1011.351	-1816
1011.424	-1351
1011.497	-2874
1011.570	-1727
1011.643	-1329
1011.716	-1893
1011.789	-1830
1011.862	-1787
1011.934	-1196
1012.007	-2700
1012.080	-903
1012.153	-1200
1012.225	-1627
1012.298	-2019
1012.371	-2445
1012.443	-1312
1012.516	-2396
1012.588	-1397
1012.661	-1812
1012.733	-2255
1012.806	-912
1012.879	-2037
1012.951	-1864
1013.023	-1726
1013.096	-1688
1013.168	-1971
1013.241	-1293
1013.313	-1865
1013.385	-2240
1013.458	-2248
1013.530	-2036
1013.602	-2308
1013.674	-1095
1013.746	-2596
1013.819	-2500
1013.891	-650
1013.963	-2070
1014.035	-1525
1014.107	-1698
1014.179	-1798
1014.251	-2455
1014.323	-925
1014.395	-2044
1014.467	-1601
1014.539	-1040
1014.611	-1968
1014.683	-2506
1014.754	-1871
1014.826	-2304
1014.898	-2263
1014.970	-2052
1015.042	-1271
1015.113	-1952
1015.185	-1874
1015.257	-2712
1015.328	-2126
1015.400	-2717
1015.471	-1411
1015.543	-2569
1015.615	-1725
1015.686	-1811
1015.757	-1170
1015.829	-2195
1015.901	-2425
1015.972	-1481
1016.043	-1762
1016.115	-1662
1016.186	-1636
1016.257	-2822
1016.328	-1763
1016.400	-1711
1016.471	-2095
1016.542	-1600
1016.613	-1637
1016.685	-2158
1016.756	-1792
1016.827	-2022
1016.898	-2136
1016.969	-1746
1017.040	-1119
1017.111	-2386
1017.182	-2128
1017.253	-2097
1017.324	-1881
1017.395	-2249
1017.466	-1700
1017.537	-2098
1017.608	-1953
1017.678	-1910
1017.749	-2407
1017.820	-2097
1017.891	-2443
1017.961	-2102
1018.032	-2731
1018.103	-2222
1018.173	-2552
1018.244	-3090
1018.315	-2228
1018.385	-1544
1018.456	-2126
1018.526	-2097
1018.597	-2189
1018.667	-2305
1018.738	-1560
1018.808	-1449
1018.878	-1927
1018.949	-2928
1019.019	-1321
1019.089	-1712
1019.160	-1938
1019.230	-2493
1019.300	-1357
1019.371	-1987
1019.441	-1903
1019.511	-2100
1019.581	-1864
1019.651	-1806
1019.721	-1828
1019.791	-2598
1019.861	-1366
1019.931	-1793
1020.001	-2098
1020.071	-1882
1020.141	-2423
1020.211	-3142
1020.281	-1825
1020.351	-1987
1020.421	-1332
1020.491	-1313
1020.560	-2354
1020.630	-2132
1020.700	-2334
1020.770	-2791
1020.839	-2261
1020.909	-1678
1020.979	-2424
1021.048	-1466
1021.118	-2137
1021.187	-2116
1021.257	-2474
1021.326	-1505
1021.396	-1888
1021.465	-2012
1021.535	-2364
1021.604	-3059
1021.674	-1512
1021.743	-2327
1021.812	-1769
1021.882	-2561
1021.951	-2036
1022.020	-1765
1022.089	-2449
1022.159	-1895
1022.228	-2189
1022.297	-1994
1022.366	-1561
1022.435	-2287
1022.504	-1561
1022.573	-2502
1022.642	-2239
1022.711	-2403
1022.781	-2242
1022.849	-2063
1022.918	-3132
1022.987	-2467
1023.056	-2299
1023.125	-2050
1023.194	-2146
1023.263	-2270
1023.331	-2196
1023.400	-2388
1023.469	-2415
1023.538	-1919
1023.606	-1568
1023.675	-2066
1023.744	-1896
1023.812	-2604
1023.881	-1712
1023.949	-1851
1024.018	-2315
1024.086	-2634
1024.155	-2660
1024.223	-1643
1024.292	-2076
1024.360	-2391
1024.429	-2371
1024.497	-2978
1024.565	-1782
1024.634	-2971
1024.702	-1617
1024.770	-1936
1024.838	-2590
1024.907	-2193
1024.975	-3149
1025.043	-2190
1025.111	-2460
1025.179	-1972
1025.247	-1923
1025.315	-2383
1025.383	-2720
1025.451	-2490
1025.519	-2651
1025.587	-2895
1025.655	-2105
1025.723	-1943
1025.791	-1534
1025.859	-2120
1025.927	-1730
1025.995	-2461
1026.062	-2695
1026.130	-1805
1026.198	-2317
1026.266	-2131
1026.333	-1443
1026.401	-2385
1026.469	-1991
1026.536	-2419
1026.604	-2381
1026.671	-2126
1026.739	-2295
1026.806	-2960
1026.874	-2372
1026.941	-2696
1027.009	-2828
1027.076	-2524
1027.144	-2087
1027.211	-2827
1027.278	-1833
1027.345	-2298
1027.413	-2725
1027.480	-2362
1027.547	-2709
1027.614	-2204
1027.682	-2414
1027.749	-2341
1027.816	-2206
1027.883	-2587
1027.950	-2110
1028.017	-2549
1028.084	-1966
1028.151	-2810
1028.218	-2866
1028.285	-1634
1028.352	-1638
1028.419	-3252
1028.486	-2330
1028.553	-2537
1028.619	-1697
1028.686	-2796
1028.753	-2507
1028.820	-2574
1028.886	-2560
1028.953	-2984
1029.020	-1915
1029.086	-2474
1029.153	-2264
1029.220	-2889
1029.286	-1918
1029.353	-3476
1029.419	-2557
1029.486	-2124
1029.552	-2585
1029.619	-2167
1029.685	-2547
1029.751	-2655
1029.818	-1398
1029.884	-2103
1029.951	-1898
1030.017	-2384
1030.083	-2689
1030.149	-2631
1030.216	-2986
1030.282	-2420
1030.348	-2330
1030.414	-2494
1030.480	-2973
1030.546	-2779
1030.612	-2244
1030.678	-2481
1030.744	-1924
1030.810	-2233
1030.876	-1716
1030.942	-2583
1031.008	-1735
1031.074	-3053
1031.140	-2127
1031.206	-2687
1031.272	-2801
1031.337	-2385
1031.403	-2483
1031.469	-2371
1031.534	-2392
1031.600	-1788
1031.666	-2756
1031.731	-3018
1031.797	-2319
1031.863	-2451
1031.928	-2333
1031.994	-2654
1032.059	-2456
1032.125	-2483
1032.190	-2733
1032.256	-2470
1032.321	-3283
1032.386	-2244
1032.452	-2030
1032.517	-2528
1032.582	-1940
1032.647	-2077
1032.713	-1866
1032.778	-2327
1032.843	-2688
1032.908	-2863
1032.974	-1877
1033.039	-2844
1033.104	-1741
1033.169	-2095
1033.234	-1779
1033.299	-2288
1033.364	-2241
1033.429	-2598
1033.494	-3005
1033.559	-2661
1033.624	-2297
1033.688	-2453
1033.753	-3030
1033.818	-2658
1033.883	-2522
1033.948	-2304
1034.013	-2028
1034.077	-2400
1034.142	-1242
1034.207	-1520
1034.271	-1003
1034.336	-1156
1034.400	-1206
1034.465	-2121
1034.530	-2160
1034.594	-3023
1034.658	-2303
1034.723	-1714
1034.787	-2414
1034.852	-2756
1034.916	-2525
1034.981	-2737
1035.045	-2039
1035.109	-2741
1035.173	-2383
1035.238	-2460
1035.302	-2025
1035.366	-2313
1035.430	-2284
1035.495	-3037
1035.559	-1336
1035.623	-3223
1035.687	-3053
1035.751	-3007
1035.815	-2208
1035.879	-3117
1035.943	-1934
1036.007	-2972
1036.071	-2180
1036.135	-3301
1036.198	-2297
1036.262	-2706
1036.326	-2985
1036.390	-2552
1036.454	-2055
1036.517	-2461
1036.581	-2968
1036.645	-3466
1036.709	-2032
1036.772	-2501
1036.836	-1750
1036.900	-2349
1036.963	-2881
1037.026	-2310
1037.090	-2982
1037.154	-3068
1037.217	-2601
1037.280	-2225
1037.344	-1821
1037.407	-3097
1037.471	-1877
1037.534	-2988
1037.597	-2221
1037.661	-2717
1037.724	-2584
1037.787	-2718
1037.850	-1759
1037.913	-3053
1037.977	-1776
1038.040	-2726
1038.103	-2357
1038.166	-2398
1038.229	-1930
1038.292	-2902
1038.355	-2856
1038.418	-2555
1038.481	-2439
1038.544	-3036
1038.607	-2597
1038.670	-3058
1038.732	-2601
1038.795	-2665
1038.858	-2158
1038.921	-2436
1038.984	-1846
1039.046	-2607
1039.109	-3366
1039.172	-3180
1039.234	-2178
1039.297	-2620
1039.360	-1462
1039.422	-2922
1039.485	-2894
1039.547	-3063
1039.610	-2612
1039.672	-2816
1039.734	-3288
1039.797	-3194
1039.859	-1671
1039.922	-2881
1039.984	-2588
1040.046	-2860
1040.109	-2617
1040.171	-2639
1040.233	-3030
1040.295	-3180
1040.358	-2307
1040.420	-1914
1040.482	-2682
1040.544	-2643
1040.606	-2611
1040.668	-2879
1040.730	-3052
1040.792	-2299
1040.854	-2888
1040.916	-2500
1040.978	-2268
1041.040	-1615
1041.102	-2081
1041.164	-2441
1041.225	-2721
1041.287	-3286
1041.349	-2376
1041.411	-3338
1041.472	-2672
1041.534	-2552
1041.596	-2180
1041.657	-2610
1041.719	-2554
1041.781	-2295
1041.842	-2616
1041.904	-3133
1041.965	-2827
1042.027	-2446
1042.088	-2073
1042.150	-2683
1042.211	-2345
1042.272	-2027
1042.334	-2729
1042.395	-2086
1042.456	-1839
1042.518	-2374
1042.579	-2600
1042.640	-2280
1042.701	-2359
1042.763	-2348
1042.824	-3274
1042.885	-2259
1042.946	-2624
1043.007	-2535
1043.068	-2596
1043.129	-2122
1043.190	-2910
1043.251	-2232
1043.312	-3024
1043.373	-2977
1043.434	-2148
1043.495	-2915
1043.556	-2275
1043.616	-2865
1043.677	-2470
1043.738	-3026
1043.799	-2400
1043.859	-2586
1043.920	-2934
1043.981	-2104
1044.041	-2699
1044.102	-2311
1044.162	-2328
1044.223	-2345
1044.284	-2574
1044.344	-2312
1044.405	-2085
1044.465	-2655
1044.525	-2079
1044.586	-2443
1044.646	-2404
1044.707	-2412
1044.767	-2028
1044.827	-1900
1044.887	-2524
1044.948	-1750
1045.008	-2617
1045.068	-2426
1045.128	-1821
1045.188	-2345
1045.249	-2628
1045.309	-2265
1045.369	-2229
1045.429	-2174
1045.489	-2640
1045.549	-1947
1045.609	-2191
1045.669	-2567
1045.729	-2688
1045.789	-1980
1045.848	-2327
1045.908	-2483
1045.968	-2351
1046.028	-2534
1046.088	-1811
1046.147	-2003
1046.207	-2006
1046.267	-1713
1046.326	-1503
1046.386	-2515
1046.446	-1065
1046.505	-1077
1046.565	-1918
1046.624	-1687
1046.684	-1192
1046.743	-1573
1046.803	-1127
1046.862	-1375
1046.922	0
